experiment,subject,uniqueID,block,trial,trial_cumulative,age,gender,color_cond_blocking,color_history,shape_type,set_size,distractor,rt,acc,target_orient,response_key,response_made,iti,target_color,target_item,distractor_item,target_X,target_Y,distractor_X,distractor_Y,item1_X,item1_Y,item2_X,item2_Y,item3_X,item3_Y,item4_X,item4_Y,item1_shape,item2_shape,item3_shape,item4_shape,item1_line,item2_line,item3_line,item4_line
2b,11,100356,1,1,1,20,M,NA,constant,heterogeneous,4,absent,0.701874017715454,0,vertical,horizontal,1,2,green,3,NaN,NaN,NaN,NaN,NaN,NaN,NaN,NaN,NaN,NaN,NaN,NaN,NaN,0,5,4,6,horizontal,horizontal,vertical,vertical
2b,11,100356,1,2,2,20,M,NA,constant,heterogeneous,4,absent,NaN,0,horizontal,none,0,2,green,4,NaN,NaN,NaN,NaN,NaN,NaN,NaN,NaN,NaN,NaN,NaN,NaN,NaN,5,6,0,4,horizontal,vertical,vertical,horizontal
2b,11,100356,1,3,3,20,M,NA,constant,heterogeneous,4,present,0.824193954467773,0,horizontal,vertical,1,2,green,2,1,NaN,NaN,NaN,NaN,NaN,NaN,NaN,NaN,NaN,NaN,NaN,NaN,6,4,3,0,horizontal,horizontal,vertical,vertical
2b,11,100356,1,4,4,20,M,NA,constant,heterogeneous,4,absent,0.516814947128296,1,horizontal,horizontal,1,5,green,1,NaN,NaN,NaN,NaN,NaN,NaN,NaN,NaN,NaN,NaN,NaN,NaN,NaN,4,6,3,0,horizontal,horizontal,horizontal,vertical
2b,11,100356,1,5,5,20,M,NA,constant,heterogeneous,4,present,1.507563829422,0,horizontal,vertical,1,3,green,3,2,NaN,NaN,NaN,NaN,NaN,NaN,NaN,NaN,NaN,NaN,NaN,NaN,0,3,4,5,horizontal,horizontal,horizontal,vertical
2b,11,100356,1,6,6,20,M,NA,constant,heterogeneous,4,present,1.92573499679565,1,horizontal,horizontal,1,2,green,2,1,NaN,NaN,NaN,NaN,NaN,NaN,NaN,NaN,NaN,NaN,NaN,NaN,6,4,5,0,vertical,horizontal,vertical,vertical
2b,11,100356,1,7,7,20,M,NA,constant,heterogeneous,4,absent,1.09274983406067,1,vertical,vertical,1,3,green,2,NaN,NaN,NaN,NaN,NaN,NaN,NaN,NaN,NaN,NaN,NaN,NaN,NaN,6,4,0,5,vertical,vertical,vertical,horizontal
2b,11,100356,1,8,8,20,M,NA,constant,heterogeneous,4,present,1.45904922485352,1,horizontal,horizontal,1,8,green,1,2,NaN,NaN,NaN,NaN,NaN,NaN,NaN,NaN,NaN,NaN,NaN,NaN,4,0,6,5,horizontal,horizontal,vertical,horizontal
2b,11,100356,1,9,9,20,M,NA,constant,heterogeneous,4,present,1.13230586051941,1,vertical,vertical,1,8,green,1,2,NaN,NaN,NaN,NaN,NaN,NaN,NaN,NaN,NaN,NaN,NaN,NaN,4,6,5,0,vertical,horizontal,horizontal,vertical
2b,11,100356,1,10,10,20,M,NA,constant,heterogeneous,4,absent,1.455570936203,1,vertical,vertical,1,8,green,1,NaN,NaN,NaN,NaN,NaN,NaN,NaN,NaN,NaN,NaN,NaN,NaN,NaN,4,3,6,0,vertical,vertical,horizontal,horizontal
2b,11,100356,1,11,11,20,M,NA,constant,heterogeneous,4,absent,1.57262015342712,1,vertical,vertical,1,5,green,1,NaN,NaN,NaN,NaN,NaN,NaN,NaN,NaN,NaN,NaN,NaN,NaN,NaN,4,0,3,5,vertical,horizontal,vertical,vertical
2b,11,100356,1,12,12,20,M,NA,constant,heterogeneous,4,absent,1.05206203460693,1,horizontal,horizontal,1,5,green,1,NaN,NaN,NaN,NaN,NaN,NaN,NaN,NaN,NaN,NaN,NaN,NaN,NaN,4,5,3,0,horizontal,vertical,horizontal,horizontal
2b,11,100356,1,13,13,20,M,NA,constant,heterogeneous,4,absent,1.3132050037384,1,horizontal,horizontal,1,3,green,4,NaN,NaN,NaN,NaN,NaN,NaN,NaN,NaN,NaN,NaN,NaN,NaN,NaN,0,6,3,4,horizontal,horizontal,horizontal,horizontal
2b,11,100356,1,14,14,20,M,NA,constant,heterogeneous,4,present,NaN,0,vertical,none,0,2,green,3,2,NaN,NaN,NaN,NaN,NaN,NaN,NaN,NaN,NaN,NaN,NaN,NaN,6,3,4,0,vertical,vertical,vertical,vertical
2b,11,100356,1,15,15,20,M,NA,constant,heterogeneous,4,present,1.41610193252563,1,horizontal,horizontal,1,3,green,2,1,NaN,NaN,NaN,NaN,NaN,NaN,NaN,NaN,NaN,NaN,NaN,NaN,5,4,0,6,vertical,horizontal,horizontal,vertical
2b,11,100356,1,16,16,20,M,NA,constant,heterogeneous,4,present,1.05680418014526,0,horizontal,vertical,1,2,green,1,4,NaN,NaN,NaN,NaN,NaN,NaN,NaN,NaN,NaN,NaN,NaN,NaN,4,3,6,0,horizontal,vertical,horizontal,vertical
2b,11,100356,1,17,17,20,M,NA,constant,heterogeneous,4,present,1.36582398414612,1,vertical,vertical,1,5,green,1,3,NaN,NaN,NaN,NaN,NaN,NaN,NaN,NaN,NaN,NaN,NaN,NaN,4,3,0,6,vertical,horizontal,vertical,vertical
2b,11,100356,1,18,18,20,M,NA,constant,heterogeneous,4,absent,1.30991697311401,1,horizontal,horizontal,1,8,green,2,NaN,NaN,NaN,NaN,NaN,NaN,NaN,NaN,NaN,NaN,NaN,NaN,NaN,6,4,0,5,horizontal,horizontal,vertical,vertical
2b,11,100356,1,19,19,20,M,NA,constant,heterogeneous,4,present,1.88029718399048,1,vertical,vertical,1,5,green,3,1,NaN,NaN,NaN,NaN,NaN,NaN,NaN,NaN,NaN,NaN,NaN,NaN,3,5,4,0,horizontal,horizontal,vertical,vertical
2b,11,100356,1,20,20,20,M,NA,constant,heterogeneous,4,absent,1.87791991233826,1,horizontal,horizontal,1,2,green,2,NaN,NaN,NaN,NaN,NaN,NaN,NaN,NaN,NaN,NaN,NaN,NaN,NaN,5,4,0,3,vertical,horizontal,horizontal,horizontal
2b,11,100356,1,21,21,20,M,NA,constant,heterogeneous,4,present,1.42767810821533,1,horizontal,horizontal,1,5,green,1,2,NaN,NaN,NaN,NaN,NaN,NaN,NaN,NaN,NaN,NaN,NaN,NaN,4,5,3,6,horizontal,horizontal,horizontal,horizontal
2b,11,100356,1,22,22,20,M,NA,constant,heterogeneous,4,present,1.57657694816589,1,vertical,vertical,1,2,green,4,3,NaN,NaN,NaN,NaN,NaN,NaN,NaN,NaN,NaN,NaN,NaN,NaN,3,5,0,4,horizontal,horizontal,vertical,vertical
2b,11,100356,1,23,23,20,M,NA,constant,heterogeneous,4,absent,1.41244411468506,1,horizontal,horizontal,1,3,green,4,NaN,NaN,NaN,NaN,NaN,NaN,NaN,NaN,NaN,NaN,NaN,NaN,NaN,6,5,3,4,vertical,horizontal,horizontal,horizontal
2b,11,100356,1,24,24,20,M,NA,constant,heterogeneous,4,present,0.716828107833862,1,horizontal,horizontal,1,5,green,4,2,NaN,NaN,NaN,NaN,NaN,NaN,NaN,NaN,NaN,NaN,NaN,NaN,0,5,6,4,vertical,vertical,horizontal,horizontal
2b,11,100356,1,25,25,20,M,NA,constant,heterogeneous,4,absent,1.17163300514221,1,vertical,vertical,1,3,green,1,NaN,NaN,NaN,NaN,NaN,NaN,NaN,NaN,NaN,NaN,NaN,NaN,NaN,4,3,6,0,vertical,vertical,horizontal,horizontal
2b,11,100356,1,26,26,20,M,NA,constant,heterogeneous,4,present,1.98722791671753,1,vertical,vertical,1,3,green,1,2,NaN,NaN,NaN,NaN,NaN,NaN,NaN,NaN,NaN,NaN,NaN,NaN,4,3,0,6,vertical,horizontal,vertical,vertical
2b,11,100356,1,27,27,20,M,NA,constant,heterogeneous,4,absent,NaN,0,vertical,none,0,5,green,2,NaN,NaN,NaN,NaN,NaN,NaN,NaN,NaN,NaN,NaN,NaN,NaN,NaN,3,4,5,0,vertical,vertical,vertical,vertical
2b,11,100356,1,28,28,20,M,NA,constant,heterogeneous,4,absent,NaN,0,vertical,none,0,2,green,3,NaN,NaN,NaN,NaN,NaN,NaN,NaN,NaN,NaN,NaN,NaN,NaN,NaN,6,3,4,5,horizontal,vertical,vertical,horizontal
2b,11,100356,1,29,29,20,M,NA,constant,heterogeneous,4,present,1.50786209106445,1,vertical,vertical,1,3,green,2,4,NaN,NaN,NaN,NaN,NaN,NaN,NaN,NaN,NaN,NaN,NaN,NaN,5,4,0,3,horizontal,vertical,vertical,vertical
2b,11,100356,1,30,30,20,M,NA,constant,heterogeneous,4,present,0.82242488861084,1,vertical,vertical,1,2,green,4,3,NaN,NaN,NaN,NaN,NaN,NaN,NaN,NaN,NaN,NaN,NaN,NaN,0,6,3,4,vertical,vertical,vertical,vertical
2b,11,100356,1,31,31,20,M,NA,constant,heterogeneous,4,absent,1.37122988700867,1,vertical,vertical,1,2,green,2,NaN,NaN,NaN,NaN,NaN,NaN,NaN,NaN,NaN,NaN,NaN,NaN,NaN,3,4,6,5,vertical,vertical,horizontal,vertical
2b,11,100356,1,32,32,20,M,NA,constant,heterogeneous,4,absent,1.33081483840942,1,horizontal,horizontal,1,2,green,1,NaN,NaN,NaN,NaN,NaN,NaN,NaN,NaN,NaN,NaN,NaN,NaN,NaN,4,3,5,0,horizontal,vertical,vertical,horizontal
2b,11,100356,2,1,33,20,M,NA,constant,heterogeneous,4,absent,1.10610914230347,1,horizontal,horizontal,1,2,green,3,NaN,NaN,NaN,NaN,NaN,NaN,NaN,NaN,NaN,NaN,NaN,NaN,NaN,6,0,4,3,vertical,horizontal,horizontal,vertical
2b,11,100356,2,2,34,20,M,NA,constant,heterogeneous,4,present,0.676903009414673,1,vertical,vertical,1,2,green,2,1,NaN,NaN,NaN,NaN,NaN,NaN,NaN,NaN,NaN,NaN,NaN,NaN,6,4,3,5,horizontal,vertical,vertical,horizontal
2b,11,100356,2,3,35,20,M,NA,constant,heterogeneous,4,present,0.930445194244385,1,vertical,vertical,1,5,green,1,2,NaN,NaN,NaN,NaN,NaN,NaN,NaN,NaN,NaN,NaN,NaN,NaN,4,3,6,0,vertical,horizontal,vertical,horizontal
2b,11,100356,2,4,36,20,M,NA,constant,heterogeneous,4,present,0.829606056213379,1,horizontal,horizontal,1,3,green,1,3,NaN,NaN,NaN,NaN,NaN,NaN,NaN,NaN,NaN,NaN,NaN,NaN,4,3,5,6,horizontal,vertical,vertical,vertical
2b,11,100356,2,5,37,20,M,NA,constant,heterogeneous,4,present,0.850255966186523,1,horizontal,horizontal,1,5,green,2,1,NaN,NaN,NaN,NaN,NaN,NaN,NaN,NaN,NaN,NaN,NaN,NaN,3,4,0,6,horizontal,horizontal,vertical,vertical
2b,11,100356,2,6,38,20,M,NA,constant,heterogeneous,4,present,1.09537386894226,1,vertical,vertical,1,3,green,1,3,NaN,NaN,NaN,NaN,NaN,NaN,NaN,NaN,NaN,NaN,NaN,NaN,4,5,3,6,vertical,vertical,vertical,horizontal
2b,11,100356,2,7,39,20,M,NA,constant,heterogeneous,4,present,0.901739120483398,1,vertical,vertical,1,3,green,2,4,NaN,NaN,NaN,NaN,NaN,NaN,NaN,NaN,NaN,NaN,NaN,NaN,5,4,6,0,horizontal,vertical,horizontal,horizontal
2b,11,100356,2,8,40,20,M,NA,constant,heterogeneous,4,present,0.652094125747681,1,vertical,vertical,1,5,green,2,1,NaN,NaN,NaN,NaN,NaN,NaN,NaN,NaN,NaN,NaN,NaN,NaN,0,4,3,5,vertical,vertical,vertical,horizontal
2b,11,100356,2,9,41,20,M,NA,constant,heterogeneous,4,absent,0.768939018249512,1,horizontal,horizontal,1,2,green,1,NaN,NaN,NaN,NaN,NaN,NaN,NaN,NaN,NaN,NaN,NaN,NaN,NaN,4,0,5,6,horizontal,horizontal,horizontal,horizontal
2b,11,100356,2,10,42,20,M,NA,constant,heterogeneous,4,absent,1.8487708568573,1,horizontal,horizontal,1,8,green,3,NaN,NaN,NaN,NaN,NaN,NaN,NaN,NaN,NaN,NaN,NaN,NaN,NaN,5,3,4,6,vertical,vertical,horizontal,vertical
2b,11,100356,2,11,43,20,M,NA,constant,heterogeneous,4,present,1.17416286468506,1,vertical,vertical,1,2,green,2,3,NaN,NaN,NaN,NaN,NaN,NaN,NaN,NaN,NaN,NaN,NaN,NaN,3,4,0,5,horizontal,vertical,horizontal,vertical
2b,11,100356,2,12,44,20,M,NA,constant,heterogeneous,4,absent,1.34971690177917,1,horizontal,horizontal,1,5,green,4,NaN,NaN,NaN,NaN,NaN,NaN,NaN,NaN,NaN,NaN,NaN,NaN,NaN,0,6,3,4,horizontal,horizontal,vertical,horizontal
2b,11,100356,2,13,45,20,M,NA,constant,heterogeneous,4,absent,1.54864883422852,1,vertical,vertical,1,2,green,3,NaN,NaN,NaN,NaN,NaN,NaN,NaN,NaN,NaN,NaN,NaN,NaN,NaN,6,0,4,5,horizontal,horizontal,vertical,vertical
2b,11,100356,2,14,46,20,M,NA,constant,heterogeneous,4,absent,1.93197917938232,1,horizontal,horizontal,1,5,green,4,NaN,NaN,NaN,NaN,NaN,NaN,NaN,NaN,NaN,NaN,NaN,NaN,NaN,3,6,5,4,vertical,vertical,vertical,horizontal
2b,11,100356,2,15,47,20,M,NA,constant,heterogeneous,4,present,1.27088499069214,1,horizontal,horizontal,1,8,green,3,1,NaN,NaN,NaN,NaN,NaN,NaN,NaN,NaN,NaN,NaN,NaN,NaN,5,3,4,6,vertical,horizontal,horizontal,vertical
2b,11,100356,2,16,48,20,M,NA,constant,heterogeneous,4,present,1.35689401626587,1,vertical,vertical,1,8,green,1,2,NaN,NaN,NaN,NaN,NaN,NaN,NaN,NaN,NaN,NaN,NaN,NaN,4,3,5,6,vertical,horizontal,horizontal,horizontal
2b,11,100356,2,17,49,20,M,NA,constant,heterogeneous,4,present,1.33633017539978,1,horizontal,horizontal,1,5,green,2,4,NaN,NaN,NaN,NaN,NaN,NaN,NaN,NaN,NaN,NaN,NaN,NaN,5,4,3,6,horizontal,horizontal,vertical,vertical
2b,11,100356,2,18,50,20,M,NA,constant,heterogeneous,4,absent,1.14731788635254,0,horizontal,vertical,1,3,green,3,NaN,NaN,NaN,NaN,NaN,NaN,NaN,NaN,NaN,NaN,NaN,NaN,NaN,5,0,4,3,horizontal,horizontal,horizontal,vertical
2b,11,100356,2,19,51,20,M,NA,constant,heterogeneous,4,present,1.63445591926575,1,vertical,vertical,1,2,green,4,1,NaN,NaN,NaN,NaN,NaN,NaN,NaN,NaN,NaN,NaN,NaN,NaN,6,5,3,4,vertical,vertical,vertical,vertical
2b,11,100356,2,20,52,20,M,NA,constant,heterogeneous,4,absent,0.891499042510986,1,horizontal,horizontal,1,2,green,1,NaN,NaN,NaN,NaN,NaN,NaN,NaN,NaN,NaN,NaN,NaN,NaN,NaN,4,6,5,3,horizontal,horizontal,horizontal,horizontal
2b,11,100356,2,21,53,20,M,NA,constant,heterogeneous,4,present,1.29339408874512,1,horizontal,horizontal,1,2,green,4,2,NaN,NaN,NaN,NaN,NaN,NaN,NaN,NaN,NaN,NaN,NaN,NaN,5,6,3,4,horizontal,horizontal,vertical,horizontal
2b,11,100356,2,22,54,20,M,NA,constant,heterogeneous,4,absent,1.40348601341248,1,vertical,vertical,1,3,green,2,NaN,NaN,NaN,NaN,NaN,NaN,NaN,NaN,NaN,NaN,NaN,NaN,NaN,3,4,6,5,horizontal,vertical,vertical,horizontal
2b,11,100356,2,23,55,20,M,NA,constant,heterogeneous,4,absent,1.27974796295166,0,vertical,horizontal,1,2,green,3,NaN,NaN,NaN,NaN,NaN,NaN,NaN,NaN,NaN,NaN,NaN,NaN,NaN,3,0,4,6,horizontal,vertical,vertical,horizontal
2b,11,100356,2,24,56,20,M,NA,constant,heterogeneous,4,absent,1.57320809364319,1,horizontal,horizontal,1,3,green,4,NaN,NaN,NaN,NaN,NaN,NaN,NaN,NaN,NaN,NaN,NaN,NaN,NaN,3,0,5,4,vertical,vertical,horizontal,horizontal
2b,11,100356,2,25,57,20,M,NA,constant,heterogeneous,4,absent,1.28487610816956,1,vertical,vertical,1,5,green,3,NaN,NaN,NaN,NaN,NaN,NaN,NaN,NaN,NaN,NaN,NaN,NaN,NaN,6,3,4,0,vertical,horizontal,vertical,vertical
2b,11,100356,2,26,58,20,M,NA,constant,heterogeneous,4,absent,1.02296495437622,1,vertical,vertical,1,8,green,1,NaN,NaN,NaN,NaN,NaN,NaN,NaN,NaN,NaN,NaN,NaN,NaN,NaN,4,0,6,5,vertical,horizontal,horizontal,horizontal
2b,11,100356,2,27,59,20,M,NA,constant,heterogeneous,4,present,0.803938150405884,1,horizontal,horizontal,1,3,green,1,4,NaN,NaN,NaN,NaN,NaN,NaN,NaN,NaN,NaN,NaN,NaN,NaN,4,0,5,6,horizontal,horizontal,vertical,vertical
2b,11,100356,2,28,60,20,M,NA,constant,heterogeneous,4,present,1.14443302154541,1,horizontal,horizontal,1,2,green,2,1,NaN,NaN,NaN,NaN,NaN,NaN,NaN,NaN,NaN,NaN,NaN,NaN,3,4,5,0,vertical,horizontal,vertical,vertical
2b,11,100356,2,29,61,20,M,NA,constant,heterogeneous,4,present,0.943537950515747,1,horizontal,horizontal,1,2,green,1,4,NaN,NaN,NaN,NaN,NaN,NaN,NaN,NaN,NaN,NaN,NaN,NaN,4,0,6,5,horizontal,vertical,horizontal,vertical
2b,11,100356,2,30,62,20,M,NA,constant,heterogeneous,4,absent,1.30226516723633,1,vertical,vertical,1,5,green,4,NaN,NaN,NaN,NaN,NaN,NaN,NaN,NaN,NaN,NaN,NaN,NaN,NaN,0,3,5,4,horizontal,vertical,horizontal,vertical
2b,11,100356,2,31,63,20,M,NA,constant,heterogeneous,4,absent,1.2046799659729,1,vertical,vertical,1,2,green,3,NaN,NaN,NaN,NaN,NaN,NaN,NaN,NaN,NaN,NaN,NaN,NaN,NaN,6,0,4,5,vertical,horizontal,vertical,horizontal
2b,11,100356,2,32,64,20,M,NA,constant,heterogeneous,4,absent,1.15312695503235,1,vertical,vertical,1,3,green,2,NaN,NaN,NaN,NaN,NaN,NaN,NaN,NaN,NaN,NaN,NaN,NaN,NaN,3,4,0,5,horizontal,vertical,vertical,vertical
2b,11,100356,3,1,65,20,M,NA,constant,heterogeneous,4,present,1.49733996391296,0,vertical,horizontal,1,2,green,4,3,NaN,NaN,NaN,NaN,NaN,NaN,NaN,NaN,NaN,NaN,NaN,NaN,3,6,5,4,horizontal,vertical,horizontal,vertical
2b,11,100356,3,2,66,20,M,NA,constant,heterogeneous,4,absent,1.12744903564453,1,vertical,vertical,1,8,green,1,NaN,NaN,NaN,NaN,NaN,NaN,NaN,NaN,NaN,NaN,NaN,NaN,NaN,4,5,6,3,vertical,vertical,vertical,horizontal
2b,11,100356,3,3,67,20,M,NA,constant,heterogeneous,4,absent,0.822106122970581,1,horizontal,horizontal,1,3,green,1,NaN,NaN,NaN,NaN,NaN,NaN,NaN,NaN,NaN,NaN,NaN,NaN,NaN,4,0,5,3,horizontal,horizontal,vertical,vertical
2b,11,100356,3,4,68,20,M,NA,constant,heterogeneous,4,absent,1.11493301391602,1,horizontal,horizontal,1,3,green,3,NaN,NaN,NaN,NaN,NaN,NaN,NaN,NaN,NaN,NaN,NaN,NaN,NaN,5,6,4,3,vertical,horizontal,horizontal,horizontal
2b,11,100356,3,5,69,20,M,NA,constant,heterogeneous,4,present,1.18940806388855,1,vertical,vertical,1,5,green,3,4,NaN,NaN,NaN,NaN,NaN,NaN,NaN,NaN,NaN,NaN,NaN,NaN,0,6,4,3,horizontal,vertical,vertical,horizontal
2b,11,100356,3,6,70,20,M,NA,constant,heterogeneous,4,present,1.29346013069153,1,horizontal,horizontal,1,2,green,1,2,NaN,NaN,NaN,NaN,NaN,NaN,NaN,NaN,NaN,NaN,NaN,NaN,4,6,3,5,horizontal,vertical,vertical,vertical
2b,11,100356,3,7,71,20,M,NA,constant,heterogeneous,4,absent,1.66783595085144,1,vertical,vertical,1,2,green,4,NaN,NaN,NaN,NaN,NaN,NaN,NaN,NaN,NaN,NaN,NaN,NaN,NaN,6,0,5,4,horizontal,horizontal,horizontal,vertical
2b,11,100356,3,8,72,20,M,NA,constant,heterogeneous,4,present,1.30948805809021,1,vertical,vertical,1,8,green,4,2,NaN,NaN,NaN,NaN,NaN,NaN,NaN,NaN,NaN,NaN,NaN,NaN,3,6,5,4,horizontal,vertical,vertical,vertical
2b,11,100356,3,9,73,20,M,NA,constant,heterogeneous,4,present,0.679958820343018,1,vertical,vertical,1,2,green,4,3,NaN,NaN,NaN,NaN,NaN,NaN,NaN,NaN,NaN,NaN,NaN,NaN,6,0,5,4,vertical,horizontal,vertical,vertical
2b,11,100356,3,10,74,20,M,NA,constant,heterogeneous,4,present,1.38938307762146,1,horizontal,horizontal,1,3,green,3,1,NaN,NaN,NaN,NaN,NaN,NaN,NaN,NaN,NaN,NaN,NaN,NaN,6,5,4,0,horizontal,vertical,horizontal,horizontal
2b,11,100356,3,11,75,20,M,NA,constant,heterogeneous,4,present,1.32558608055115,1,horizontal,horizontal,1,5,green,4,2,NaN,NaN,NaN,NaN,NaN,NaN,NaN,NaN,NaN,NaN,NaN,NaN,0,3,6,4,horizontal,horizontal,horizontal,horizontal
2b,11,100356,3,12,76,20,M,NA,constant,heterogeneous,4,absent,1.46831393241882,1,horizontal,horizontal,1,8,green,4,NaN,NaN,NaN,NaN,NaN,NaN,NaN,NaN,NaN,NaN,NaN,NaN,NaN,3,0,6,4,horizontal,horizontal,vertical,horizontal
2b,11,100356,3,13,77,20,M,NA,constant,heterogeneous,4,present,0.805951833724976,1,vertical,vertical,1,3,green,1,3,NaN,NaN,NaN,NaN,NaN,NaN,NaN,NaN,NaN,NaN,NaN,NaN,4,0,3,5,vertical,vertical,vertical,vertical
2b,11,100356,3,14,78,20,M,NA,constant,heterogeneous,4,absent,1.44211196899414,1,vertical,vertical,1,2,green,2,NaN,NaN,NaN,NaN,NaN,NaN,NaN,NaN,NaN,NaN,NaN,NaN,NaN,3,4,6,0,vertical,vertical,horizontal,vertical
2b,11,100356,3,15,79,20,M,NA,constant,heterogeneous,4,present,1.41915082931519,1,horizontal,horizontal,1,5,green,3,4,NaN,NaN,NaN,NaN,NaN,NaN,NaN,NaN,NaN,NaN,NaN,NaN,5,6,4,0,horizontal,vertical,horizontal,vertical
2b,11,100356,3,16,80,20,M,NA,constant,heterogeneous,4,absent,1.26779699325562,1,horizontal,horizontal,1,5,green,4,NaN,NaN,NaN,NaN,NaN,NaN,NaN,NaN,NaN,NaN,NaN,NaN,NaN,5,3,0,4,vertical,horizontal,vertical,horizontal
2b,11,100356,3,17,81,20,M,NA,constant,heterogeneous,4,absent,1.13328504562378,1,horizontal,horizontal,1,2,green,1,NaN,NaN,NaN,NaN,NaN,NaN,NaN,NaN,NaN,NaN,NaN,NaN,NaN,4,5,0,6,horizontal,vertical,vertical,horizontal
2b,11,100356,3,18,82,20,M,NA,constant,heterogeneous,4,absent,1.05613994598389,1,vertical,vertical,1,3,green,1,NaN,NaN,NaN,NaN,NaN,NaN,NaN,NaN,NaN,NaN,NaN,NaN,NaN,4,0,3,6,vertical,vertical,vertical,horizontal
2b,11,100356,3,19,83,20,M,NA,constant,heterogeneous,4,absent,0.805063962936401,1,vertical,vertical,1,5,green,1,NaN,NaN,NaN,NaN,NaN,NaN,NaN,NaN,NaN,NaN,NaN,NaN,NaN,4,0,6,5,vertical,vertical,horizontal,vertical
2b,11,100356,3,20,84,20,M,NA,constant,heterogeneous,4,present,0.697733163833618,1,horizontal,horizontal,1,2,green,1,2,NaN,NaN,NaN,NaN,NaN,NaN,NaN,NaN,NaN,NaN,NaN,NaN,4,5,6,3,horizontal,vertical,horizontal,horizontal
2b,11,100356,3,21,85,20,M,NA,constant,heterogeneous,4,absent,1.46398091316223,1,vertical,vertical,1,2,green,2,NaN,NaN,NaN,NaN,NaN,NaN,NaN,NaN,NaN,NaN,NaN,NaN,NaN,3,4,6,5,horizontal,vertical,horizontal,horizontal
2b,11,100356,3,22,86,20,M,NA,constant,heterogeneous,4,absent,1.28146719932556,1,horizontal,horizontal,1,2,green,3,NaN,NaN,NaN,NaN,NaN,NaN,NaN,NaN,NaN,NaN,NaN,NaN,NaN,5,0,4,6,horizontal,vertical,horizontal,horizontal
2b,11,100356,3,23,87,20,M,NA,constant,heterogeneous,4,absent,1.26742005348206,1,vertical,vertical,1,3,green,4,NaN,NaN,NaN,NaN,NaN,NaN,NaN,NaN,NaN,NaN,NaN,NaN,NaN,0,6,3,4,horizontal,vertical,vertical,vertical
2b,11,100356,3,24,88,20,M,NA,constant,heterogeneous,4,present,1.47673201560974,1,vertical,vertical,1,2,green,3,2,NaN,NaN,NaN,NaN,NaN,NaN,NaN,NaN,NaN,NaN,NaN,NaN,5,6,4,0,horizontal,horizontal,vertical,horizontal
2b,11,100356,3,25,89,20,M,NA,constant,heterogeneous,4,present,1.43468809127808,1,horizontal,horizontal,1,8,green,4,3,NaN,NaN,NaN,NaN,NaN,NaN,NaN,NaN,NaN,NaN,NaN,NaN,6,5,3,4,vertical,horizontal,horizontal,horizontal
2b,11,100356,3,26,90,20,M,NA,constant,heterogeneous,4,present,1.30737018585205,1,vertical,vertical,1,3,green,1,4,NaN,NaN,NaN,NaN,NaN,NaN,NaN,NaN,NaN,NaN,NaN,NaN,4,3,6,0,vertical,vertical,horizontal,vertical
2b,11,100356,3,27,91,20,M,NA,constant,heterogeneous,4,present,1.6618218421936,1,horizontal,horizontal,1,3,green,3,2,NaN,NaN,NaN,NaN,NaN,NaN,NaN,NaN,NaN,NaN,NaN,NaN,6,0,4,3,horizontal,horizontal,horizontal,vertical
2b,11,100356,3,28,92,20,M,NA,constant,heterogeneous,4,absent,1.55961322784424,1,vertical,vertical,1,5,green,3,NaN,NaN,NaN,NaN,NaN,NaN,NaN,NaN,NaN,NaN,NaN,NaN,NaN,5,6,4,0,vertical,vertical,vertical,horizontal
2b,11,100356,3,29,93,20,M,NA,constant,heterogeneous,4,absent,1.2590320110321,1,horizontal,horizontal,1,5,green,3,NaN,NaN,NaN,NaN,NaN,NaN,NaN,NaN,NaN,NaN,NaN,NaN,NaN,6,5,4,0,horizontal,vertical,horizontal,vertical
2b,11,100356,3,30,94,20,M,NA,constant,heterogeneous,4,present,1.07654786109924,1,vertical,vertical,1,5,green,3,4,NaN,NaN,NaN,NaN,NaN,NaN,NaN,NaN,NaN,NaN,NaN,NaN,6,3,4,5,vertical,horizontal,vertical,horizontal
2b,11,100356,3,31,95,20,M,NA,constant,heterogeneous,4,present,1.61027407646179,1,horizontal,horizontal,1,2,green,1,2,NaN,NaN,NaN,NaN,NaN,NaN,NaN,NaN,NaN,NaN,NaN,NaN,4,3,0,6,horizontal,vertical,horizontal,vertical
2b,11,100356,3,32,96,20,M,NA,constant,heterogeneous,4,absent,NaN,0,horizontal,none,0,2,green,3,NaN,NaN,NaN,NaN,NaN,NaN,NaN,NaN,NaN,NaN,NaN,NaN,NaN,3,0,4,5,horizontal,horizontal,horizontal,vertical
2b,11,100356,4,1,97,20,M,NA,constant,heterogeneous,4,present,1.13149094581604,1,horizontal,horizontal,1,5,green,2,3,NaN,NaN,NaN,NaN,NaN,NaN,NaN,NaN,NaN,NaN,NaN,NaN,5,4,3,6,horizontal,horizontal,vertical,vertical
2b,11,100356,4,2,98,20,M,NA,constant,heterogeneous,4,absent,1.44650101661682,1,horizontal,horizontal,1,5,green,3,NaN,NaN,NaN,NaN,NaN,NaN,NaN,NaN,NaN,NaN,NaN,NaN,NaN,5,6,4,0,horizontal,horizontal,horizontal,vertical
2b,11,100356,4,3,99,20,M,NA,constant,heterogeneous,4,present,1.29980397224426,1,horizontal,horizontal,1,8,green,2,4,NaN,NaN,NaN,NaN,NaN,NaN,NaN,NaN,NaN,NaN,NaN,NaN,5,4,6,3,vertical,horizontal,horizontal,vertical
2b,11,100356,4,4,100,20,M,NA,constant,heterogeneous,4,absent,1.35404300689697,1,horizontal,horizontal,1,8,green,3,NaN,NaN,NaN,NaN,NaN,NaN,NaN,NaN,NaN,NaN,NaN,NaN,NaN,6,5,4,0,vertical,vertical,horizontal,vertical
2b,11,100356,4,5,101,20,M,NA,constant,heterogeneous,4,absent,1.31751704216003,1,vertical,vertical,1,3,green,1,NaN,NaN,NaN,NaN,NaN,NaN,NaN,NaN,NaN,NaN,NaN,NaN,NaN,4,0,5,3,vertical,vertical,horizontal,horizontal
2b,11,100356,4,6,102,20,M,NA,constant,heterogeneous,4,present,1.55633187294006,1,vertical,vertical,1,2,green,2,4,NaN,NaN,NaN,NaN,NaN,NaN,NaN,NaN,NaN,NaN,NaN,NaN,5,4,0,6,vertical,vertical,vertical,horizontal
2b,11,100356,4,7,103,20,M,NA,constant,heterogeneous,4,absent,1.04776191711426,1,vertical,vertical,1,2,green,3,NaN,NaN,NaN,NaN,NaN,NaN,NaN,NaN,NaN,NaN,NaN,NaN,NaN,5,6,4,3,horizontal,horizontal,vertical,horizontal
2b,11,100356,4,8,104,20,M,NA,constant,heterogeneous,4,present,1.21299815177917,1,horizontal,horizontal,1,5,green,1,3,NaN,NaN,NaN,NaN,NaN,NaN,NaN,NaN,NaN,NaN,NaN,NaN,4,6,3,5,horizontal,vertical,horizontal,vertical
2b,11,100356,4,9,105,20,M,NA,constant,heterogeneous,4,present,1.39737296104431,1,horizontal,horizontal,1,3,green,3,4,NaN,NaN,NaN,NaN,NaN,NaN,NaN,NaN,NaN,NaN,NaN,NaN,3,5,4,6,horizontal,horizontal,horizontal,vertical
2b,11,100356,4,10,106,20,M,NA,constant,heterogeneous,4,absent,1.03731608390808,1,vertical,vertical,1,2,green,3,NaN,NaN,NaN,NaN,NaN,NaN,NaN,NaN,NaN,NaN,NaN,NaN,NaN,0,3,4,6,horizontal,horizontal,vertical,vertical
2b,11,100356,4,11,107,20,M,NA,constant,heterogeneous,4,present,1.15864205360413,1,horizontal,horizontal,1,2,green,1,2,NaN,NaN,NaN,NaN,NaN,NaN,NaN,NaN,NaN,NaN,NaN,NaN,4,0,6,5,horizontal,horizontal,horizontal,horizontal
2b,11,100356,4,12,108,20,M,NA,constant,heterogeneous,4,absent,0.729776859283447,1,vertical,vertical,1,5,green,1,NaN,NaN,NaN,NaN,NaN,NaN,NaN,NaN,NaN,NaN,NaN,NaN,NaN,4,3,0,6,vertical,horizontal,vertical,horizontal
2b,11,100356,4,13,109,20,M,NA,constant,heterogeneous,4,absent,0.701001167297363,1,vertical,vertical,1,8,green,2,NaN,NaN,NaN,NaN,NaN,NaN,NaN,NaN,NaN,NaN,NaN,NaN,NaN,3,4,0,5,horizontal,vertical,horizontal,vertical
2b,11,100356,4,14,110,20,M,NA,constant,heterogeneous,4,present,0.819262981414795,1,vertical,vertical,1,8,green,1,4,NaN,NaN,NaN,NaN,NaN,NaN,NaN,NaN,NaN,NaN,NaN,NaN,4,5,6,0,vertical,horizontal,horizontal,vertical
2b,11,100356,4,15,111,20,M,NA,constant,heterogeneous,4,absent,0.931745052337646,1,horizontal,horizontal,1,2,green,3,NaN,NaN,NaN,NaN,NaN,NaN,NaN,NaN,NaN,NaN,NaN,NaN,NaN,3,0,4,6,horizontal,horizontal,horizontal,horizontal
2b,11,100356,4,16,112,20,M,NA,constant,heterogeneous,4,absent,0.766701936721802,1,horizontal,horizontal,1,3,green,3,NaN,NaN,NaN,NaN,NaN,NaN,NaN,NaN,NaN,NaN,NaN,NaN,NaN,0,5,4,6,horizontal,vertical,horizontal,horizontal
2b,11,100356,4,17,113,20,M,NA,constant,heterogeneous,4,absent,0.926414966583252,1,horizontal,horizontal,1,3,green,4,NaN,NaN,NaN,NaN,NaN,NaN,NaN,NaN,NaN,NaN,NaN,NaN,NaN,6,0,5,4,horizontal,horizontal,horizontal,horizontal
2b,11,100356,4,18,114,20,M,NA,constant,heterogeneous,4,present,0.876927137374878,1,vertical,vertical,1,2,green,4,1,NaN,NaN,NaN,NaN,NaN,NaN,NaN,NaN,NaN,NaN,NaN,NaN,3,0,5,4,vertical,vertical,horizontal,vertical
2b,11,100356,4,19,115,20,M,NA,constant,heterogeneous,4,present,0.810374975204468,1,horizontal,horizontal,1,2,green,2,3,NaN,NaN,NaN,NaN,NaN,NaN,NaN,NaN,NaN,NaN,NaN,NaN,6,4,5,0,horizontal,horizontal,vertical,vertical
2b,11,100356,4,20,116,20,M,NA,constant,heterogeneous,4,absent,1.2031090259552,1,vertical,vertical,1,2,green,3,NaN,NaN,NaN,NaN,NaN,NaN,NaN,NaN,NaN,NaN,NaN,NaN,NaN,3,5,4,6,vertical,horizontal,vertical,vertical
2b,11,100356,4,21,117,20,M,NA,constant,heterogeneous,4,absent,1.45543789863586,1,vertical,vertical,1,3,green,4,NaN,NaN,NaN,NaN,NaN,NaN,NaN,NaN,NaN,NaN,NaN,NaN,NaN,6,5,0,4,horizontal,horizontal,horizontal,vertical
2b,11,100356,4,22,118,20,M,NA,constant,heterogeneous,4,present,1.18871212005615,1,vertical,vertical,1,2,green,1,3,NaN,NaN,NaN,NaN,NaN,NaN,NaN,NaN,NaN,NaN,NaN,NaN,4,6,0,3,vertical,vertical,horizontal,vertical
2b,11,100356,4,23,119,20,M,NA,constant,heterogeneous,4,absent,1.21269297599792,1,horizontal,horizontal,1,2,green,3,NaN,NaN,NaN,NaN,NaN,NaN,NaN,NaN,NaN,NaN,NaN,NaN,NaN,3,6,4,0,horizontal,horizontal,horizontal,horizontal
2b,11,100356,4,24,120,20,M,NA,constant,heterogeneous,4,present,0.805024147033691,1,vertical,vertical,1,3,green,4,2,NaN,NaN,NaN,NaN,NaN,NaN,NaN,NaN,NaN,NaN,NaN,NaN,5,0,6,4,vertical,horizontal,vertical,vertical
2b,11,100356,4,25,121,20,M,NA,constant,heterogeneous,4,present,1.05741596221924,1,horizontal,horizontal,1,3,green,2,4,NaN,NaN,NaN,NaN,NaN,NaN,NaN,NaN,NaN,NaN,NaN,NaN,0,4,5,3,vertical,horizontal,vertical,vertical
2b,11,100356,4,26,122,20,M,NA,constant,heterogeneous,4,present,1.08271503448486,1,horizontal,horizontal,1,2,green,2,3,NaN,NaN,NaN,NaN,NaN,NaN,NaN,NaN,NaN,NaN,NaN,NaN,3,4,0,6,horizontal,horizontal,horizontal,horizontal
2b,11,100356,4,27,123,20,M,NA,constant,heterogeneous,4,absent,1.00505590438843,1,horizontal,horizontal,1,5,green,1,NaN,NaN,NaN,NaN,NaN,NaN,NaN,NaN,NaN,NaN,NaN,NaN,NaN,4,5,6,3,horizontal,vertical,horizontal,vertical
2b,11,100356,4,28,124,20,M,NA,constant,heterogeneous,4,absent,1.40114307403564,1,vertical,vertical,1,5,green,3,NaN,NaN,NaN,NaN,NaN,NaN,NaN,NaN,NaN,NaN,NaN,NaN,NaN,5,6,4,0,vertical,vertical,vertical,horizontal
2b,11,100356,4,29,125,20,M,NA,constant,heterogeneous,4,present,1.36550784111023,1,vertical,vertical,1,3,green,3,1,NaN,NaN,NaN,NaN,NaN,NaN,NaN,NaN,NaN,NaN,NaN,NaN,5,3,4,6,horizontal,horizontal,vertical,horizontal
2b,11,100356,4,30,126,20,M,NA,constant,heterogeneous,4,present,1.13322615623474,1,vertical,vertical,1,5,green,2,4,NaN,NaN,NaN,NaN,NaN,NaN,NaN,NaN,NaN,NaN,NaN,NaN,6,4,3,5,vertical,vertical,vertical,horizontal
2b,11,100356,4,31,127,20,M,NA,constant,heterogeneous,4,present,0.680284023284912,1,vertical,vertical,1,5,green,2,4,NaN,NaN,NaN,NaN,NaN,NaN,NaN,NaN,NaN,NaN,NaN,NaN,0,4,5,6,vertical,vertical,horizontal,horizontal
2b,11,100356,4,32,128,20,M,NA,constant,heterogeneous,4,absent,1.30197978019714,1,horizontal,horizontal,1,2,green,3,NaN,NaN,NaN,NaN,NaN,NaN,NaN,NaN,NaN,NaN,NaN,NaN,NaN,0,6,4,5,horizontal,horizontal,horizontal,vertical
2b,11,100356,5,1,129,20,M,NA,constant,heterogeneous,4,present,1.59964203834534,1,horizontal,horizontal,1,3,green,2,4,NaN,NaN,NaN,NaN,NaN,NaN,NaN,NaN,NaN,NaN,NaN,NaN,3,4,6,0,vertical,horizontal,vertical,horizontal
2b,11,100356,5,2,130,20,M,NA,constant,heterogeneous,4,absent,1.42804789543152,1,horizontal,horizontal,1,2,green,1,NaN,NaN,NaN,NaN,NaN,NaN,NaN,NaN,NaN,NaN,NaN,NaN,NaN,4,5,3,6,horizontal,vertical,vertical,vertical
2b,11,100356,5,3,131,20,M,NA,constant,heterogeneous,4,absent,1.51286697387695,1,horizontal,horizontal,1,2,green,4,NaN,NaN,NaN,NaN,NaN,NaN,NaN,NaN,NaN,NaN,NaN,NaN,NaN,3,5,0,4,vertical,vertical,vertical,horizontal
2b,11,100356,5,4,132,20,M,NA,constant,heterogeneous,4,absent,0.77112889289856,1,horizontal,horizontal,1,3,green,2,NaN,NaN,NaN,NaN,NaN,NaN,NaN,NaN,NaN,NaN,NaN,NaN,NaN,5,4,6,0,vertical,horizontal,horizontal,vertical
2b,11,100356,5,5,133,20,M,NA,constant,heterogeneous,4,absent,1.27461004257202,1,vertical,vertical,1,3,green,3,NaN,NaN,NaN,NaN,NaN,NaN,NaN,NaN,NaN,NaN,NaN,NaN,NaN,6,5,4,0,vertical,horizontal,vertical,horizontal
2b,11,100356,5,6,134,20,M,NA,constant,heterogeneous,4,present,0.928622007369995,1,horizontal,horizontal,1,2,green,1,4,NaN,NaN,NaN,NaN,NaN,NaN,NaN,NaN,NaN,NaN,NaN,NaN,4,5,0,6,horizontal,horizontal,horizontal,vertical
2b,11,100356,5,7,135,20,M,NA,constant,heterogeneous,4,present,0.923429012298584,1,vertical,vertical,1,2,green,1,3,NaN,NaN,NaN,NaN,NaN,NaN,NaN,NaN,NaN,NaN,NaN,NaN,4,5,6,0,vertical,horizontal,vertical,vertical
2b,11,100356,5,8,136,20,M,NA,constant,heterogeneous,4,absent,0.810216903686523,1,horizontal,horizontal,1,3,green,3,NaN,NaN,NaN,NaN,NaN,NaN,NaN,NaN,NaN,NaN,NaN,NaN,NaN,5,0,4,6,vertical,vertical,horizontal,vertical
2b,11,100356,5,9,137,20,M,NA,constant,heterogeneous,4,present,0.846454858779907,1,horizontal,horizontal,1,2,green,1,4,NaN,NaN,NaN,NaN,NaN,NaN,NaN,NaN,NaN,NaN,NaN,NaN,4,3,5,0,horizontal,horizontal,horizontal,horizontal
2b,11,100356,5,10,138,20,M,NA,constant,heterogeneous,4,absent,0.923640012741089,1,vertical,vertical,1,8,green,2,NaN,NaN,NaN,NaN,NaN,NaN,NaN,NaN,NaN,NaN,NaN,NaN,NaN,6,4,3,0,horizontal,vertical,vertical,horizontal
2b,11,100356,5,11,139,20,M,NA,constant,heterogeneous,4,absent,1.20264482498169,1,vertical,vertical,1,5,green,4,NaN,NaN,NaN,NaN,NaN,NaN,NaN,NaN,NaN,NaN,NaN,NaN,NaN,3,5,6,4,horizontal,horizontal,vertical,vertical
2b,11,100356,5,12,140,20,M,NA,constant,heterogeneous,4,present,1.3346209526062,1,horizontal,horizontal,1,3,green,4,1,NaN,NaN,NaN,NaN,NaN,NaN,NaN,NaN,NaN,NaN,NaN,NaN,3,6,0,4,horizontal,vertical,horizontal,horizontal
2b,11,100356,5,13,141,20,M,NA,constant,heterogeneous,4,present,0.833597898483276,1,vertical,vertical,1,8,green,1,3,NaN,NaN,NaN,NaN,NaN,NaN,NaN,NaN,NaN,NaN,NaN,NaN,4,0,3,5,vertical,horizontal,vertical,horizontal
2b,11,100356,5,14,142,20,M,NA,constant,heterogeneous,4,present,1.22256207466125,1,horizontal,horizontal,1,5,green,2,3,NaN,NaN,NaN,NaN,NaN,NaN,NaN,NaN,NaN,NaN,NaN,NaN,5,4,0,6,vertical,horizontal,vertical,vertical
2b,11,100356,5,15,143,20,M,NA,constant,heterogeneous,4,present,1.13940095901489,1,horizontal,horizontal,1,2,green,1,3,NaN,NaN,NaN,NaN,NaN,NaN,NaN,NaN,NaN,NaN,NaN,NaN,4,6,0,5,horizontal,horizontal,vertical,horizontal
2b,11,100356,5,16,144,20,M,NA,constant,heterogeneous,4,present,1.01431584358215,1,vertical,vertical,1,5,green,4,2,NaN,NaN,NaN,NaN,NaN,NaN,NaN,NaN,NaN,NaN,NaN,NaN,3,0,6,4,vertical,vertical,horizontal,vertical
2b,11,100356,5,17,145,20,M,NA,constant,heterogeneous,4,present,1.36654710769653,1,vertical,vertical,1,3,green,3,4,NaN,NaN,NaN,NaN,NaN,NaN,NaN,NaN,NaN,NaN,NaN,NaN,5,0,4,6,horizontal,horizontal,vertical,horizontal
2b,11,100356,5,18,146,20,M,NA,constant,heterogeneous,4,absent,1.76648497581482,1,vertical,vertical,1,3,green,1,NaN,NaN,NaN,NaN,NaN,NaN,NaN,NaN,NaN,NaN,NaN,NaN,NaN,4,0,5,6,vertical,horizontal,vertical,vertical
2b,11,100356,5,19,147,20,M,NA,constant,heterogeneous,4,absent,0.773910045623779,1,horizontal,horizontal,1,5,green,3,NaN,NaN,NaN,NaN,NaN,NaN,NaN,NaN,NaN,NaN,NaN,NaN,NaN,3,6,4,0,horizontal,horizontal,horizontal,vertical
2b,11,100356,5,20,148,20,M,NA,constant,heterogeneous,4,absent,0.653685092926025,1,horizontal,horizontal,1,5,green,3,NaN,NaN,NaN,NaN,NaN,NaN,NaN,NaN,NaN,NaN,NaN,NaN,NaN,5,6,4,3,horizontal,horizontal,horizontal,horizontal
2b,11,100356,5,21,149,20,M,NA,constant,heterogeneous,4,present,0.642966032028198,1,vertical,vertical,1,5,green,2,1,NaN,NaN,NaN,NaN,NaN,NaN,NaN,NaN,NaN,NaN,NaN,NaN,0,4,6,5,vertical,vertical,vertical,vertical
2b,11,100356,5,22,150,20,M,NA,constant,heterogeneous,4,absent,0.77216100692749,1,horizontal,horizontal,1,2,green,1,NaN,NaN,NaN,NaN,NaN,NaN,NaN,NaN,NaN,NaN,NaN,NaN,NaN,4,0,5,6,horizontal,vertical,vertical,horizontal
2b,11,100356,5,23,151,20,M,NA,constant,heterogeneous,4,absent,0.923482179641724,1,vertical,vertical,1,2,green,3,NaN,NaN,NaN,NaN,NaN,NaN,NaN,NaN,NaN,NaN,NaN,NaN,NaN,3,6,4,5,vertical,vertical,vertical,horizontal
2b,11,100356,5,24,152,20,M,NA,constant,heterogeneous,4,absent,1.01011300086975,1,vertical,vertical,1,2,green,4,NaN,NaN,NaN,NaN,NaN,NaN,NaN,NaN,NaN,NaN,NaN,NaN,NaN,6,0,3,4,vertical,horizontal,horizontal,vertical
2b,11,100356,5,25,153,20,M,NA,constant,heterogeneous,4,present,0.918485879898071,1,horizontal,horizontal,1,5,green,4,2,NaN,NaN,NaN,NaN,NaN,NaN,NaN,NaN,NaN,NaN,NaN,NaN,6,5,0,4,horizontal,horizontal,vertical,horizontal
2b,11,100356,5,26,154,20,M,NA,constant,heterogeneous,4,absent,0.68503212928772,1,vertical,vertical,1,2,green,2,NaN,NaN,NaN,NaN,NaN,NaN,NaN,NaN,NaN,NaN,NaN,NaN,NaN,5,4,3,0,horizontal,vertical,vertical,horizontal
2b,11,100356,5,27,155,20,M,NA,constant,heterogeneous,4,absent,1.1512770652771,1,horizontal,horizontal,1,8,green,4,NaN,NaN,NaN,NaN,NaN,NaN,NaN,NaN,NaN,NaN,NaN,NaN,NaN,6,5,3,4,horizontal,vertical,vertical,horizontal
2b,11,100356,5,28,156,20,M,NA,constant,heterogeneous,4,present,0.822318077087402,1,vertical,vertical,1,2,green,3,4,NaN,NaN,NaN,NaN,NaN,NaN,NaN,NaN,NaN,NaN,NaN,NaN,6,5,4,0,vertical,horizontal,vertical,horizontal
2b,11,100356,5,29,157,20,M,NA,constant,heterogeneous,4,absent,0.84324312210083,1,vertical,vertical,1,5,green,3,NaN,NaN,NaN,NaN,NaN,NaN,NaN,NaN,NaN,NaN,NaN,NaN,NaN,5,6,4,0,horizontal,horizontal,vertical,vertical
2b,11,100356,5,30,158,20,M,NA,constant,heterogeneous,4,present,1.09235000610352,1,horizontal,horizontal,1,8,green,4,2,NaN,NaN,NaN,NaN,NaN,NaN,NaN,NaN,NaN,NaN,NaN,NaN,0,6,3,4,vertical,horizontal,vertical,horizontal
2b,11,100356,5,31,159,20,M,NA,constant,heterogeneous,4,present,1.27816081047058,1,vertical,vertical,1,3,green,3,2,NaN,NaN,NaN,NaN,NaN,NaN,NaN,NaN,NaN,NaN,NaN,NaN,3,6,4,5,horizontal,horizontal,vertical,horizontal
2b,11,100356,5,32,160,20,M,NA,constant,heterogeneous,4,present,1.12397885322571,1,vertical,vertical,1,2,green,1,4,NaN,NaN,NaN,NaN,NaN,NaN,NaN,NaN,NaN,NaN,NaN,NaN,4,0,5,3,vertical,vertical,horizontal,vertical
2b,11,100356,6,1,161,20,M,NA,constant,heterogeneous,4,present,1.09349989891052,1,vertical,vertical,1,3,green,4,2,NaN,NaN,NaN,NaN,NaN,NaN,NaN,NaN,NaN,NaN,NaN,NaN,6,5,3,4,vertical,vertical,vertical,vertical
2b,11,100356,6,2,162,20,M,NA,constant,heterogeneous,4,present,0.683720111846924,1,vertical,vertical,1,3,green,2,1,NaN,NaN,NaN,NaN,NaN,NaN,NaN,NaN,NaN,NaN,NaN,NaN,5,4,3,0,vertical,vertical,horizontal,horizontal
2b,11,100356,6,3,163,20,M,NA,constant,heterogeneous,4,present,0.75767707824707,1,horizontal,horizontal,1,2,green,1,3,NaN,NaN,NaN,NaN,NaN,NaN,NaN,NaN,NaN,NaN,NaN,NaN,4,5,3,0,horizontal,horizontal,vertical,vertical
2b,11,100356,6,4,164,20,M,NA,constant,heterogeneous,4,absent,0.889124155044556,1,horizontal,horizontal,1,8,green,2,NaN,NaN,NaN,NaN,NaN,NaN,NaN,NaN,NaN,NaN,NaN,NaN,NaN,0,4,5,6,horizontal,horizontal,vertical,vertical
2b,11,100356,6,5,165,20,M,NA,constant,heterogeneous,4,present,NaN,0,horizontal,none,0,5,green,4,3,NaN,NaN,NaN,NaN,NaN,NaN,NaN,NaN,NaN,NaN,NaN,NaN,6,3,5,4,horizontal,vertical,vertical,horizontal
2b,11,100356,6,6,166,20,M,NA,constant,heterogeneous,4,present,NaN,0,vertical,none,0,2,green,1,3,NaN,NaN,NaN,NaN,NaN,NaN,NaN,NaN,NaN,NaN,NaN,NaN,4,0,6,5,vertical,vertical,vertical,vertical
2b,11,100356,6,7,167,20,M,NA,constant,heterogeneous,4,absent,0.891710996627808,1,horizontal,horizontal,1,2,green,1,NaN,NaN,NaN,NaN,NaN,NaN,NaN,NaN,NaN,NaN,NaN,NaN,NaN,4,6,3,0,horizontal,horizontal,vertical,vertical
2b,11,100356,6,8,168,20,M,NA,constant,heterogeneous,4,present,1.07752680778503,1,vertical,vertical,1,5,green,2,1,NaN,NaN,NaN,NaN,NaN,NaN,NaN,NaN,NaN,NaN,NaN,NaN,6,4,0,3,horizontal,vertical,horizontal,vertical
2b,11,100356,6,9,169,20,M,NA,constant,heterogeneous,4,absent,1.05140590667725,1,vertical,vertical,1,8,green,4,NaN,NaN,NaN,NaN,NaN,NaN,NaN,NaN,NaN,NaN,NaN,NaN,NaN,6,3,5,4,horizontal,horizontal,vertical,vertical
2b,11,100356,6,10,170,20,M,NA,constant,heterogeneous,4,absent,0.904805898666382,1,vertical,vertical,1,5,green,4,NaN,NaN,NaN,NaN,NaN,NaN,NaN,NaN,NaN,NaN,NaN,NaN,NaN,5,3,0,4,vertical,horizontal,horizontal,vertical
2b,11,100356,6,11,171,20,M,NA,constant,heterogeneous,4,absent,1.21919202804565,1,horizontal,horizontal,1,3,green,1,NaN,NaN,NaN,NaN,NaN,NaN,NaN,NaN,NaN,NaN,NaN,NaN,NaN,4,0,3,5,horizontal,horizontal,vertical,vertical
2b,11,100356,6,12,172,20,M,NA,constant,heterogeneous,4,absent,0.987759113311768,0,horizontal,vertical,1,5,green,3,NaN,NaN,NaN,NaN,NaN,NaN,NaN,NaN,NaN,NaN,NaN,NaN,NaN,5,3,4,6,vertical,vertical,horizontal,vertical
2b,11,100356,6,13,173,20,M,NA,constant,heterogeneous,4,present,1.05188488960266,1,horizontal,horizontal,1,2,green,4,3,NaN,NaN,NaN,NaN,NaN,NaN,NaN,NaN,NaN,NaN,NaN,NaN,5,0,6,4,horizontal,horizontal,vertical,horizontal
2b,11,100356,6,14,174,20,M,NA,constant,heterogeneous,4,absent,1.03295183181763,1,vertical,vertical,1,5,green,4,NaN,NaN,NaN,NaN,NaN,NaN,NaN,NaN,NaN,NaN,NaN,NaN,NaN,6,0,5,4,vertical,horizontal,vertical,vertical
2b,11,100356,6,15,175,20,M,NA,constant,heterogeneous,4,present,0.765877962112427,1,vertical,vertical,1,5,green,4,1,NaN,NaN,NaN,NaN,NaN,NaN,NaN,NaN,NaN,NaN,NaN,NaN,0,3,5,4,horizontal,vertical,vertical,vertical
2b,11,100356,6,16,176,20,M,NA,constant,heterogeneous,4,present,1.11759400367737,1,horizontal,horizontal,1,2,green,2,3,NaN,NaN,NaN,NaN,NaN,NaN,NaN,NaN,NaN,NaN,NaN,NaN,5,4,3,6,vertical,horizontal,vertical,vertical
2b,11,100356,6,17,177,20,M,NA,constant,heterogeneous,4,present,1.46827006340027,1,horizontal,horizontal,1,5,green,3,1,NaN,NaN,NaN,NaN,NaN,NaN,NaN,NaN,NaN,NaN,NaN,NaN,0,3,4,5,horizontal,horizontal,horizontal,horizontal
2b,11,100356,6,18,178,20,M,NA,constant,heterogeneous,4,present,0.877837896347046,1,vertical,vertical,1,8,green,3,1,NaN,NaN,NaN,NaN,NaN,NaN,NaN,NaN,NaN,NaN,NaN,NaN,0,5,4,3,vertical,vertical,vertical,horizontal
2b,11,100356,6,19,179,20,M,NA,constant,heterogeneous,4,present,0.931480884552002,1,horizontal,horizontal,1,8,green,4,2,NaN,NaN,NaN,NaN,NaN,NaN,NaN,NaN,NaN,NaN,NaN,NaN,0,3,5,4,horizontal,vertical,horizontal,horizontal
2b,11,100356,6,20,180,20,M,NA,constant,heterogeneous,4,absent,1.01448392868042,1,vertical,vertical,1,2,green,3,NaN,NaN,NaN,NaN,NaN,NaN,NaN,NaN,NaN,NaN,NaN,NaN,NaN,6,0,4,3,vertical,horizontal,vertical,horizontal
2b,11,100356,6,21,181,20,M,NA,constant,heterogeneous,4,absent,1.56715893745422,0,horizontal,vertical,1,5,green,1,NaN,NaN,NaN,NaN,NaN,NaN,NaN,NaN,NaN,NaN,NaN,NaN,NaN,4,5,0,3,horizontal,horizontal,vertical,horizontal
2b,11,100356,6,22,182,20,M,NA,constant,heterogeneous,4,absent,1.47876691818237,1,horizontal,horizontal,1,3,green,1,NaN,NaN,NaN,NaN,NaN,NaN,NaN,NaN,NaN,NaN,NaN,NaN,NaN,4,3,6,5,horizontal,horizontal,horizontal,vertical
2b,11,100356,6,23,183,20,M,NA,constant,heterogeneous,4,present,1.14853501319885,1,vertical,vertical,1,2,green,4,2,NaN,NaN,NaN,NaN,NaN,NaN,NaN,NaN,NaN,NaN,NaN,NaN,5,0,3,4,horizontal,horizontal,horizontal,vertical
2b,11,100356,6,24,184,20,M,NA,constant,heterogeneous,4,present,1.29971599578857,1,horizontal,horizontal,1,3,green,3,1,NaN,NaN,NaN,NaN,NaN,NaN,NaN,NaN,NaN,NaN,NaN,NaN,0,6,4,5,horizontal,vertical,horizontal,horizontal
2b,11,100356,6,25,185,20,M,NA,constant,heterogeneous,4,absent,0.809958934783936,1,vertical,vertical,1,3,green,4,NaN,NaN,NaN,NaN,NaN,NaN,NaN,NaN,NaN,NaN,NaN,NaN,NaN,5,6,0,4,vertical,vertical,horizontal,vertical
2b,11,100356,6,26,186,20,M,NA,constant,heterogeneous,4,absent,0.758038997650146,1,horizontal,horizontal,1,2,green,4,NaN,NaN,NaN,NaN,NaN,NaN,NaN,NaN,NaN,NaN,NaN,NaN,NaN,0,6,5,4,vertical,vertical,vertical,horizontal
2b,11,100356,6,27,187,20,M,NA,constant,heterogeneous,4,present,0.761543989181519,1,vertical,vertical,1,2,green,4,2,NaN,NaN,NaN,NaN,NaN,NaN,NaN,NaN,NaN,NaN,NaN,NaN,5,6,3,4,horizontal,vertical,vertical,vertical
2b,11,100356,6,28,188,20,M,NA,constant,heterogeneous,4,absent,1.06867599487305,1,vertical,vertical,1,2,green,3,NaN,NaN,NaN,NaN,NaN,NaN,NaN,NaN,NaN,NaN,NaN,NaN,NaN,6,0,4,3,vertical,vertical,vertical,horizontal
2b,11,100356,6,29,189,20,M,NA,constant,heterogeneous,4,present,0.629857063293457,1,horizontal,horizontal,1,3,green,3,1,NaN,NaN,NaN,NaN,NaN,NaN,NaN,NaN,NaN,NaN,NaN,NaN,0,6,4,5,vertical,vertical,horizontal,vertical
2b,11,100356,6,30,190,20,M,NA,constant,heterogeneous,4,absent,0.946947813034058,1,horizontal,horizontal,1,2,green,1,NaN,NaN,NaN,NaN,NaN,NaN,NaN,NaN,NaN,NaN,NaN,NaN,NaN,4,0,3,6,horizontal,vertical,vertical,horizontal
2b,11,100356,6,31,191,20,M,NA,constant,heterogeneous,4,absent,0.6739661693573,1,vertical,vertical,1,3,green,4,NaN,NaN,NaN,NaN,NaN,NaN,NaN,NaN,NaN,NaN,NaN,NaN,NaN,6,0,5,4,vertical,vertical,vertical,vertical
2b,11,100356,6,32,192,20,M,NA,constant,heterogeneous,4,absent,0.97574782371521,1,vertical,vertical,1,2,green,1,NaN,NaN,NaN,NaN,NaN,NaN,NaN,NaN,NaN,NaN,NaN,NaN,NaN,4,6,0,5,vertical,horizontal,vertical,horizontal
2b,11,100356,7,1,193,20,M,NA,constant,heterogeneous,4,absent,0.741384029388428,1,vertical,vertical,1,2,green,2,NaN,NaN,NaN,NaN,NaN,NaN,NaN,NaN,NaN,NaN,NaN,NaN,NaN,0,4,3,6,horizontal,vertical,vertical,horizontal
2b,11,100356,7,2,194,20,M,NA,constant,heterogeneous,4,present,0.708210945129395,1,vertical,vertical,1,2,green,1,4,NaN,NaN,NaN,NaN,NaN,NaN,NaN,NaN,NaN,NaN,NaN,NaN,4,5,3,6,vertical,vertical,horizontal,vertical
2b,11,100356,7,3,195,20,M,NA,constant,heterogeneous,4,absent,0.9028160572052,1,horizontal,horizontal,1,5,green,1,NaN,NaN,NaN,NaN,NaN,NaN,NaN,NaN,NaN,NaN,NaN,NaN,NaN,4,3,5,6,horizontal,vertical,vertical,horizontal
2b,11,100356,7,4,196,20,M,NA,constant,heterogeneous,4,present,1.10905194282532,1,horizontal,horizontal,1,8,green,2,3,NaN,NaN,NaN,NaN,NaN,NaN,NaN,NaN,NaN,NaN,NaN,NaN,5,4,3,6,vertical,horizontal,vertical,horizontal
2b,11,100356,7,5,197,20,M,NA,constant,heterogeneous,4,present,1.20750093460083,1,horizontal,horizontal,1,2,green,3,4,NaN,NaN,NaN,NaN,NaN,NaN,NaN,NaN,NaN,NaN,NaN,NaN,5,3,4,6,horizontal,vertical,horizontal,horizontal
2b,11,100356,7,6,198,20,M,NA,constant,heterogeneous,4,present,0.715863943099976,1,horizontal,horizontal,1,3,green,2,1,NaN,NaN,NaN,NaN,NaN,NaN,NaN,NaN,NaN,NaN,NaN,NaN,5,4,6,3,vertical,horizontal,vertical,vertical
2b,11,100356,7,7,199,20,M,NA,constant,heterogeneous,4,absent,0.766045093536377,1,horizontal,horizontal,1,3,green,1,NaN,NaN,NaN,NaN,NaN,NaN,NaN,NaN,NaN,NaN,NaN,NaN,NaN,4,0,5,3,horizontal,horizontal,horizontal,vertical
2b,11,100356,7,8,200,20,M,NA,constant,heterogeneous,4,absent,0.837897062301636,1,vertical,vertical,1,2,green,2,NaN,NaN,NaN,NaN,NaN,NaN,NaN,NaN,NaN,NaN,NaN,NaN,NaN,0,4,3,5,vertical,vertical,vertical,horizontal
2b,11,100356,7,9,201,20,M,NA,constant,heterogeneous,4,present,1.09480094909668,1,vertical,vertical,1,5,green,1,3,NaN,NaN,NaN,NaN,NaN,NaN,NaN,NaN,NaN,NaN,NaN,NaN,4,0,5,6,vertical,vertical,horizontal,vertical
2b,11,100356,7,10,202,20,M,NA,constant,heterogeneous,4,absent,0.901105880737305,1,horizontal,horizontal,1,8,green,4,NaN,NaN,NaN,NaN,NaN,NaN,NaN,NaN,NaN,NaN,NaN,NaN,NaN,0,3,6,4,horizontal,horizontal,horizontal,horizontal
2b,11,100356,7,11,203,20,M,NA,constant,heterogeneous,4,present,1.28337788581848,1,vertical,vertical,1,5,green,1,3,NaN,NaN,NaN,NaN,NaN,NaN,NaN,NaN,NaN,NaN,NaN,NaN,4,3,5,6,vertical,horizontal,horizontal,vertical
2b,11,100356,7,12,204,20,M,NA,constant,heterogeneous,4,present,1.44535613059998,0,vertical,horizontal,1,2,green,4,1,NaN,NaN,NaN,NaN,NaN,NaN,NaN,NaN,NaN,NaN,NaN,NaN,5,3,6,4,horizontal,vertical,vertical,vertical
2b,11,100356,7,13,205,20,M,NA,constant,heterogeneous,4,absent,1.81439900398254,1,horizontal,horizontal,1,2,green,1,NaN,NaN,NaN,NaN,NaN,NaN,NaN,NaN,NaN,NaN,NaN,NaN,NaN,4,3,5,0,horizontal,vertical,vertical,horizontal
2b,11,100356,7,14,206,20,M,NA,constant,heterogeneous,4,absent,1.25486016273499,1,vertical,vertical,1,5,green,2,NaN,NaN,NaN,NaN,NaN,NaN,NaN,NaN,NaN,NaN,NaN,NaN,NaN,6,4,3,0,vertical,vertical,vertical,horizontal
2b,11,100356,7,15,207,20,M,NA,constant,heterogeneous,4,absent,1.3162260055542,1,horizontal,horizontal,1,2,green,4,NaN,NaN,NaN,NaN,NaN,NaN,NaN,NaN,NaN,NaN,NaN,NaN,NaN,6,3,5,4,horizontal,vertical,horizontal,horizontal
2b,11,100356,7,16,208,20,M,NA,constant,heterogeneous,4,absent,1.45087504386902,1,vertical,vertical,1,3,green,3,NaN,NaN,NaN,NaN,NaN,NaN,NaN,NaN,NaN,NaN,NaN,NaN,NaN,5,0,4,6,horizontal,horizontal,vertical,horizontal
2b,11,100356,7,17,209,20,M,NA,constant,heterogeneous,4,absent,1.31219005584717,0,vertical,horizontal,1,3,green,1,NaN,NaN,NaN,NaN,NaN,NaN,NaN,NaN,NaN,NaN,NaN,NaN,NaN,4,5,0,3,vertical,horizontal,horizontal,vertical
2b,11,100356,7,18,210,20,M,NA,constant,heterogeneous,4,present,0.714534044265747,1,horizontal,horizontal,1,2,green,1,4,NaN,NaN,NaN,NaN,NaN,NaN,NaN,NaN,NaN,NaN,NaN,NaN,4,6,0,5,horizontal,vertical,vertical,vertical
2b,11,100356,7,19,211,20,M,NA,constant,heterogeneous,4,absent,0.756937980651855,1,vertical,vertical,1,2,green,3,NaN,NaN,NaN,NaN,NaN,NaN,NaN,NaN,NaN,NaN,NaN,NaN,NaN,3,0,4,6,horizontal,horizontal,vertical,vertical
2b,11,100356,7,20,212,20,M,NA,constant,heterogeneous,4,absent,1.44843292236328,1,horizontal,horizontal,1,5,green,2,NaN,NaN,NaN,NaN,NaN,NaN,NaN,NaN,NaN,NaN,NaN,NaN,NaN,3,4,0,5,vertical,horizontal,horizontal,horizontal
2b,11,100356,7,21,213,20,M,NA,constant,heterogeneous,4,present,1.06962704658508,1,vertical,vertical,1,3,green,2,1,NaN,NaN,NaN,NaN,NaN,NaN,NaN,NaN,NaN,NaN,NaN,NaN,0,4,6,5,vertical,vertical,horizontal,vertical
2b,11,100356,7,22,214,20,M,NA,constant,heterogeneous,4,absent,1.22705388069153,1,vertical,vertical,1,5,green,3,NaN,NaN,NaN,NaN,NaN,NaN,NaN,NaN,NaN,NaN,NaN,NaN,NaN,5,6,4,3,vertical,horizontal,vertical,horizontal
2b,11,100356,7,23,215,20,M,NA,constant,heterogeneous,4,absent,0.816120147705078,1,horizontal,horizontal,1,2,green,2,NaN,NaN,NaN,NaN,NaN,NaN,NaN,NaN,NaN,NaN,NaN,NaN,NaN,5,4,6,0,horizontal,horizontal,vertical,vertical
2b,11,100356,7,24,216,20,M,NA,constant,heterogeneous,4,present,1.28862714767456,0,horizontal,vertical,1,2,green,3,4,NaN,NaN,NaN,NaN,NaN,NaN,NaN,NaN,NaN,NaN,NaN,NaN,5,0,4,6,horizontal,horizontal,horizontal,vertical
2b,11,100356,7,25,217,20,M,NA,constant,heterogeneous,4,present,0.674757957458496,1,vertical,vertical,1,8,green,2,1,NaN,NaN,NaN,NaN,NaN,NaN,NaN,NaN,NaN,NaN,NaN,NaN,0,4,5,6,vertical,vertical,vertical,horizontal
2b,11,100356,7,26,218,20,M,NA,constant,heterogeneous,4,present,1.2084059715271,0,horizontal,vertical,1,5,green,3,4,NaN,NaN,NaN,NaN,NaN,NaN,NaN,NaN,NaN,NaN,NaN,NaN,3,0,4,6,horizontal,horizontal,horizontal,horizontal
2b,11,100356,7,27,219,20,M,NA,constant,heterogeneous,4,absent,0.756676912307739,1,horizontal,horizontal,1,3,green,3,NaN,NaN,NaN,NaN,NaN,NaN,NaN,NaN,NaN,NaN,NaN,NaN,NaN,6,5,4,3,vertical,horizontal,horizontal,vertical
2b,11,100356,7,28,220,20,M,NA,constant,heterogeneous,4,present,1.20010685920715,1,horizontal,horizontal,1,3,green,4,1,NaN,NaN,NaN,NaN,NaN,NaN,NaN,NaN,NaN,NaN,NaN,NaN,0,5,3,4,vertical,horizontal,vertical,horizontal
2b,11,100356,7,29,221,20,M,NA,constant,heterogeneous,4,present,0.98043417930603,1,horizontal,horizontal,1,5,green,2,1,NaN,NaN,NaN,NaN,NaN,NaN,NaN,NaN,NaN,NaN,NaN,NaN,5,4,6,0,horizontal,horizontal,horizontal,vertical
2b,11,100356,7,30,222,20,M,NA,constant,heterogeneous,4,present,0.912017822265625,1,vertical,vertical,1,3,green,2,3,NaN,NaN,NaN,NaN,NaN,NaN,NaN,NaN,NaN,NaN,NaN,NaN,0,4,3,5,vertical,vertical,vertical,vertical
2b,11,100356,7,31,223,20,M,NA,constant,heterogeneous,4,absent,0.914807081222534,1,vertical,vertical,1,8,green,3,NaN,NaN,NaN,NaN,NaN,NaN,NaN,NaN,NaN,NaN,NaN,NaN,NaN,6,3,4,5,horizontal,vertical,vertical,horizontal
2b,11,100356,7,32,224,20,M,NA,constant,heterogeneous,4,present,0.997241020202637,1,vertical,vertical,1,2,green,2,1,NaN,NaN,NaN,NaN,NaN,NaN,NaN,NaN,NaN,NaN,NaN,NaN,5,4,6,0,vertical,vertical,vertical,horizontal
2b,11,100356,8,1,225,20,M,NA,constant,heterogeneous,4,present,0.836775064468384,1,vertical,vertical,1,5,green,2,1,NaN,NaN,NaN,NaN,NaN,NaN,NaN,NaN,NaN,NaN,NaN,NaN,0,4,3,5,horizontal,vertical,horizontal,vertical
2b,11,100356,8,2,226,20,M,NA,constant,heterogeneous,4,present,1.23772215843201,1,vertical,vertical,1,3,green,3,4,NaN,NaN,NaN,NaN,NaN,NaN,NaN,NaN,NaN,NaN,NaN,NaN,5,6,4,3,horizontal,horizontal,vertical,vertical
2b,11,100356,8,3,227,20,M,NA,constant,heterogeneous,4,present,0.934733867645264,1,vertical,vertical,1,2,green,4,3,NaN,NaN,NaN,NaN,NaN,NaN,NaN,NaN,NaN,NaN,NaN,NaN,6,5,0,4,horizontal,horizontal,horizontal,vertical
2b,11,100356,8,4,228,20,M,NA,constant,heterogeneous,4,absent,0.793678998947144,1,vertical,vertical,1,5,green,2,NaN,NaN,NaN,NaN,NaN,NaN,NaN,NaN,NaN,NaN,NaN,NaN,NaN,3,4,5,6,vertical,vertical,vertical,vertical
2b,11,100356,8,5,229,20,M,NA,constant,heterogeneous,4,absent,0.7379310131073,1,horizontal,horizontal,1,2,green,1,NaN,NaN,NaN,NaN,NaN,NaN,NaN,NaN,NaN,NaN,NaN,NaN,NaN,4,6,3,0,horizontal,horizontal,vertical,horizontal
2b,11,100356,8,6,230,20,M,NA,constant,heterogeneous,4,absent,0.612783908843994,1,vertical,vertical,1,2,green,1,NaN,NaN,NaN,NaN,NaN,NaN,NaN,NaN,NaN,NaN,NaN,NaN,NaN,4,6,3,0,vertical,vertical,vertical,horizontal
2b,11,100356,8,7,231,20,M,NA,constant,heterogeneous,4,present,0.773391962051392,1,horizontal,horizontal,1,5,green,1,2,NaN,NaN,NaN,NaN,NaN,NaN,NaN,NaN,NaN,NaN,NaN,NaN,4,6,5,0,horizontal,horizontal,vertical,horizontal
2b,11,100356,8,8,232,20,M,NA,constant,heterogeneous,4,absent,0.92479419708252,1,horizontal,horizontal,1,3,green,2,NaN,NaN,NaN,NaN,NaN,NaN,NaN,NaN,NaN,NaN,NaN,NaN,NaN,0,4,6,5,vertical,horizontal,horizontal,horizontal
2b,11,100356,8,9,233,20,M,NA,constant,heterogeneous,4,absent,0.611650943756104,1,vertical,vertical,1,3,green,2,NaN,NaN,NaN,NaN,NaN,NaN,NaN,NaN,NaN,NaN,NaN,NaN,NaN,0,4,3,6,horizontal,vertical,horizontal,vertical
2b,11,100356,8,10,234,20,M,NA,constant,heterogeneous,4,absent,1.49215793609619,1,vertical,vertical,1,2,green,3,NaN,NaN,NaN,NaN,NaN,NaN,NaN,NaN,NaN,NaN,NaN,NaN,NaN,3,6,4,5,vertical,horizontal,vertical,horizontal
2b,11,100356,8,11,235,20,M,NA,constant,heterogeneous,4,present,1.51810503005981,1,horizontal,horizontal,1,2,green,1,3,NaN,NaN,NaN,NaN,NaN,NaN,NaN,NaN,NaN,NaN,NaN,NaN,4,3,5,0,horizontal,vertical,vertical,vertical
2b,11,100356,8,12,236,20,M,NA,constant,heterogeneous,4,absent,0.700731992721558,1,vertical,vertical,1,5,green,1,NaN,NaN,NaN,NaN,NaN,NaN,NaN,NaN,NaN,NaN,NaN,NaN,NaN,4,6,0,3,vertical,vertical,vertical,vertical
2b,11,100356,8,13,237,20,M,NA,constant,heterogeneous,4,absent,0.650768995285034,1,horizontal,horizontal,1,3,green,1,NaN,NaN,NaN,NaN,NaN,NaN,NaN,NaN,NaN,NaN,NaN,NaN,NaN,4,0,3,6,horizontal,horizontal,horizontal,horizontal
2b,11,100356,8,14,238,20,M,NA,constant,heterogeneous,4,absent,0.89599609375,1,horizontal,horizontal,1,5,green,2,NaN,NaN,NaN,NaN,NaN,NaN,NaN,NaN,NaN,NaN,NaN,NaN,NaN,5,4,3,0,horizontal,horizontal,horizontal,vertical
2b,11,100356,8,15,239,20,M,NA,constant,heterogeneous,4,present,1.17433595657349,1,horizontal,horizontal,1,2,green,4,2,NaN,NaN,NaN,NaN,NaN,NaN,NaN,NaN,NaN,NaN,NaN,NaN,0,6,5,4,vertical,horizontal,vertical,horizontal
2b,11,100356,8,16,240,20,M,NA,constant,heterogeneous,4,present,0.765719890594482,1,vertical,vertical,1,5,green,2,3,NaN,NaN,NaN,NaN,NaN,NaN,NaN,NaN,NaN,NaN,NaN,NaN,5,4,3,6,vertical,vertical,vertical,horizontal
2b,11,100356,8,17,241,20,M,NA,constant,heterogeneous,4,present,1.6695408821106,1,horizontal,horizontal,1,5,green,2,1,NaN,NaN,NaN,NaN,NaN,NaN,NaN,NaN,NaN,NaN,NaN,NaN,5,4,6,3,horizontal,horizontal,vertical,horizontal
2b,11,100356,8,18,242,20,M,NA,constant,heterogeneous,4,present,1.05926299095154,1,vertical,vertical,1,2,green,3,4,NaN,NaN,NaN,NaN,NaN,NaN,NaN,NaN,NaN,NaN,NaN,NaN,6,5,4,0,horizontal,horizontal,vertical,vertical
2b,11,100356,8,19,243,20,M,NA,constant,heterogeneous,4,absent,1.4209132194519,1,horizontal,horizontal,1,2,green,1,NaN,NaN,NaN,NaN,NaN,NaN,NaN,NaN,NaN,NaN,NaN,NaN,NaN,4,3,0,5,horizontal,horizontal,horizontal,vertical
2b,11,100356,8,20,244,20,M,NA,constant,heterogeneous,4,absent,1.09321618080139,1,vertical,vertical,1,2,green,4,NaN,NaN,NaN,NaN,NaN,NaN,NaN,NaN,NaN,NaN,NaN,NaN,NaN,5,3,0,4,vertical,horizontal,vertical,vertical
2b,11,100356,8,21,245,20,M,NA,constant,heterogeneous,4,absent,1.14755320549011,1,vertical,vertical,1,8,green,4,NaN,NaN,NaN,NaN,NaN,NaN,NaN,NaN,NaN,NaN,NaN,NaN,NaN,6,0,3,4,horizontal,horizontal,horizontal,vertical
2b,11,100356,8,22,246,20,M,NA,constant,heterogeneous,4,present,1.41054487228394,1,horizontal,horizontal,1,3,green,2,1,NaN,NaN,NaN,NaN,NaN,NaN,NaN,NaN,NaN,NaN,NaN,NaN,0,4,6,3,horizontal,horizontal,horizontal,vertical
2b,11,100356,8,23,247,20,M,NA,constant,heterogeneous,4,present,0.891304016113281,1,horizontal,horizontal,1,8,green,3,1,NaN,NaN,NaN,NaN,NaN,NaN,NaN,NaN,NaN,NaN,NaN,NaN,5,0,4,6,vertical,horizontal,horizontal,horizontal
2b,11,100356,8,24,248,20,M,NA,constant,heterogeneous,4,present,1.18937802314758,1,horizontal,horizontal,1,3,green,3,4,NaN,NaN,NaN,NaN,NaN,NaN,NaN,NaN,NaN,NaN,NaN,NaN,6,0,4,3,vertical,vertical,horizontal,vertical
2b,11,100356,8,25,249,20,M,NA,constant,heterogeneous,4,present,0.685452938079834,1,vertical,vertical,1,3,green,3,2,NaN,NaN,NaN,NaN,NaN,NaN,NaN,NaN,NaN,NaN,NaN,NaN,3,0,4,6,horizontal,horizontal,vertical,vertical
2b,11,100356,8,26,250,20,M,NA,constant,heterogeneous,4,absent,0.719125986099243,1,horizontal,horizontal,1,2,green,1,NaN,NaN,NaN,NaN,NaN,NaN,NaN,NaN,NaN,NaN,NaN,NaN,NaN,4,5,3,6,horizontal,horizontal,horizontal,horizontal
2b,11,100356,8,27,251,20,M,NA,constant,heterogeneous,4,absent,0.686036109924316,1,horizontal,horizontal,1,8,green,1,NaN,NaN,NaN,NaN,NaN,NaN,NaN,NaN,NaN,NaN,NaN,NaN,NaN,4,0,3,5,horizontal,horizontal,vertical,vertical
2b,11,100356,8,28,252,20,M,NA,constant,heterogeneous,4,absent,1.32802104949951,1,horizontal,horizontal,1,5,green,2,NaN,NaN,NaN,NaN,NaN,NaN,NaN,NaN,NaN,NaN,NaN,NaN,NaN,0,4,5,6,vertical,horizontal,horizontal,vertical
2b,11,100356,8,29,253,20,M,NA,constant,heterogeneous,4,absent,1.26698899269104,1,vertical,vertical,1,3,green,3,NaN,NaN,NaN,NaN,NaN,NaN,NaN,NaN,NaN,NaN,NaN,NaN,NaN,5,3,4,0,vertical,vertical,vertical,vertical
2b,11,100356,8,30,254,20,M,NA,constant,heterogeneous,4,present,0.972378015518188,1,horizontal,horizontal,1,2,green,1,2,NaN,NaN,NaN,NaN,NaN,NaN,NaN,NaN,NaN,NaN,NaN,NaN,4,6,3,0,horizontal,horizontal,horizontal,vertical
2b,11,100356,8,31,255,20,M,NA,constant,heterogeneous,4,present,0.916182994842529,1,vertical,vertical,1,8,green,2,1,NaN,NaN,NaN,NaN,NaN,NaN,NaN,NaN,NaN,NaN,NaN,NaN,3,4,0,5,vertical,vertical,horizontal,horizontal
2b,11,100356,8,32,256,20,M,NA,constant,heterogeneous,4,present,0.938719034194946,1,vertical,vertical,1,2,green,4,2,NaN,NaN,NaN,NaN,NaN,NaN,NaN,NaN,NaN,NaN,NaN,NaN,5,3,0,4,vertical,vertical,horizontal,vertical
2b,11,100356,9,1,257,20,M,NA,constant,heterogeneous,4,absent,1.0048828125,1,vertical,vertical,1,3,green,4,NaN,NaN,NaN,NaN,NaN,NaN,NaN,NaN,NaN,NaN,NaN,NaN,NaN,6,0,3,4,vertical,horizontal,horizontal,vertical
2b,11,100356,9,2,258,20,M,NA,constant,heterogeneous,4,absent,0.753322839736938,1,vertical,vertical,1,3,green,1,NaN,NaN,NaN,NaN,NaN,NaN,NaN,NaN,NaN,NaN,NaN,NaN,NaN,4,0,5,6,vertical,horizontal,vertical,vertical
2b,11,100356,9,3,259,20,M,NA,constant,heterogeneous,4,present,1.14069104194641,1,vertical,vertical,1,8,green,3,2,NaN,NaN,NaN,NaN,NaN,NaN,NaN,NaN,NaN,NaN,NaN,NaN,0,6,4,3,horizontal,horizontal,vertical,horizontal
2b,11,100356,9,4,260,20,M,NA,constant,heterogeneous,4,present,1.30751991271973,0,vertical,horizontal,1,3,green,2,3,NaN,NaN,NaN,NaN,NaN,NaN,NaN,NaN,NaN,NaN,NaN,NaN,5,4,0,3,horizontal,vertical,horizontal,vertical
2b,11,100356,9,5,261,20,M,NA,constant,heterogeneous,4,present,1.71809005737305,1,vertical,vertical,1,2,green,2,3,NaN,NaN,NaN,NaN,NaN,NaN,NaN,NaN,NaN,NaN,NaN,NaN,3,4,0,5,vertical,vertical,vertical,horizontal
2b,11,100356,9,6,262,20,M,NA,constant,heterogeneous,4,present,0.852727174758911,1,horizontal,horizontal,1,3,green,1,3,NaN,NaN,NaN,NaN,NaN,NaN,NaN,NaN,NaN,NaN,NaN,NaN,4,0,6,3,horizontal,vertical,vertical,vertical
2b,11,100356,9,7,263,20,M,NA,constant,heterogeneous,4,absent,1.7778000831604,1,horizontal,horizontal,1,8,green,3,NaN,NaN,NaN,NaN,NaN,NaN,NaN,NaN,NaN,NaN,NaN,NaN,NaN,0,6,4,3,horizontal,horizontal,horizontal,horizontal
2b,11,100356,9,8,264,20,M,NA,constant,heterogeneous,4,present,1.58985805511475,1,horizontal,horizontal,1,3,green,4,1,NaN,NaN,NaN,NaN,NaN,NaN,NaN,NaN,NaN,NaN,NaN,NaN,5,6,3,4,vertical,horizontal,vertical,horizontal
2b,11,100356,9,9,265,20,M,NA,constant,heterogeneous,4,absent,0.862281084060669,1,horizontal,horizontal,1,2,green,3,NaN,NaN,NaN,NaN,NaN,NaN,NaN,NaN,NaN,NaN,NaN,NaN,NaN,3,5,4,0,vertical,vertical,horizontal,vertical
2b,11,100356,9,10,266,20,M,NA,constant,heterogeneous,4,present,1.06352305412292,1,vertical,vertical,1,2,green,1,3,NaN,NaN,NaN,NaN,NaN,NaN,NaN,NaN,NaN,NaN,NaN,NaN,4,3,5,6,vertical,horizontal,vertical,horizontal
2b,11,100356,9,11,267,20,M,NA,constant,heterogeneous,4,present,0.841062068939209,1,horizontal,horizontal,1,5,green,1,2,NaN,NaN,NaN,NaN,NaN,NaN,NaN,NaN,NaN,NaN,NaN,NaN,4,6,5,3,horizontal,vertical,vertical,horizontal
2b,11,100356,9,12,268,20,M,NA,constant,heterogeneous,4,present,0.850415945053101,1,vertical,vertical,1,5,green,4,3,NaN,NaN,NaN,NaN,NaN,NaN,NaN,NaN,NaN,NaN,NaN,NaN,6,3,0,4,horizontal,horizontal,horizontal,vertical
2b,11,100356,9,13,269,20,M,NA,constant,heterogeneous,4,absent,0.799346923828125,1,vertical,vertical,1,8,green,3,NaN,NaN,NaN,NaN,NaN,NaN,NaN,NaN,NaN,NaN,NaN,NaN,NaN,6,0,4,5,vertical,vertical,vertical,horizontal
2b,11,100356,9,14,270,20,M,NA,constant,heterogeneous,4,present,0.819478988647461,1,vertical,vertical,1,2,green,4,1,NaN,NaN,NaN,NaN,NaN,NaN,NaN,NaN,NaN,NaN,NaN,NaN,3,0,6,4,vertical,vertical,vertical,vertical
2b,11,100356,9,15,271,20,M,NA,constant,heterogeneous,4,present,0.796065092086792,1,horizontal,horizontal,1,8,green,1,3,NaN,NaN,NaN,NaN,NaN,NaN,NaN,NaN,NaN,NaN,NaN,NaN,4,6,3,0,horizontal,horizontal,horizontal,vertical
2b,11,100356,9,16,272,20,M,NA,constant,heterogeneous,4,absent,1.18044996261597,1,vertical,vertical,1,2,green,4,NaN,NaN,NaN,NaN,NaN,NaN,NaN,NaN,NaN,NaN,NaN,NaN,NaN,3,0,5,4,vertical,horizontal,vertical,vertical
2b,11,100356,9,17,273,20,M,NA,constant,heterogeneous,4,present,0.760010004043579,1,horizontal,horizontal,1,2,green,1,4,NaN,NaN,NaN,NaN,NaN,NaN,NaN,NaN,NaN,NaN,NaN,NaN,4,5,0,6,horizontal,vertical,horizontal,vertical
2b,11,100356,9,18,274,20,M,NA,constant,heterogeneous,4,absent,0.811686038970947,1,vertical,vertical,1,5,green,2,NaN,NaN,NaN,NaN,NaN,NaN,NaN,NaN,NaN,NaN,NaN,NaN,NaN,0,4,3,5,horizontal,vertical,vertical,horizontal
2b,11,100356,9,19,275,20,M,NA,constant,heterogeneous,4,absent,1.49992203712463,1,vertical,vertical,1,2,green,3,NaN,NaN,NaN,NaN,NaN,NaN,NaN,NaN,NaN,NaN,NaN,NaN,NaN,6,0,4,5,horizontal,vertical,vertical,horizontal
2b,11,100356,9,20,276,20,M,NA,constant,heterogeneous,4,present,0.898228883743286,1,horizontal,horizontal,1,5,green,2,3,NaN,NaN,NaN,NaN,NaN,NaN,NaN,NaN,NaN,NaN,NaN,NaN,0,4,5,3,vertical,horizontal,horizontal,horizontal
2b,11,100356,9,21,277,20,M,NA,constant,heterogeneous,4,present,NaN,0,vertical,none,0,3,green,1,4,NaN,NaN,NaN,NaN,NaN,NaN,NaN,NaN,NaN,NaN,NaN,NaN,4,0,6,5,vertical,vertical,horizontal,vertical
2b,11,100356,9,22,278,20,M,NA,constant,heterogeneous,4,absent,1.89280986785889,1,vertical,vertical,1,5,green,3,NaN,NaN,NaN,NaN,NaN,NaN,NaN,NaN,NaN,NaN,NaN,NaN,NaN,3,6,4,5,vertical,vertical,vertical,horizontal
2b,11,100356,9,23,279,20,M,NA,constant,heterogeneous,4,present,0.771277904510498,1,vertical,vertical,1,5,green,3,1,NaN,NaN,NaN,NaN,NaN,NaN,NaN,NaN,NaN,NaN,NaN,NaN,3,6,4,0,vertical,horizontal,vertical,horizontal
2b,11,100356,9,24,280,20,M,NA,constant,heterogeneous,4,absent,0.914802074432373,1,vertical,vertical,1,2,green,4,NaN,NaN,NaN,NaN,NaN,NaN,NaN,NaN,NaN,NaN,NaN,NaN,NaN,6,0,5,4,horizontal,horizontal,vertical,vertical
2b,11,100356,9,25,281,20,M,NA,constant,heterogeneous,4,absent,0.853091955184937,1,horizontal,horizontal,1,3,green,1,NaN,NaN,NaN,NaN,NaN,NaN,NaN,NaN,NaN,NaN,NaN,NaN,NaN,4,0,6,3,horizontal,vertical,horizontal,horizontal
2b,11,100356,9,26,282,20,M,NA,constant,heterogeneous,4,absent,1.09045600891113,1,horizontal,horizontal,1,5,green,1,NaN,NaN,NaN,NaN,NaN,NaN,NaN,NaN,NaN,NaN,NaN,NaN,NaN,4,6,3,5,horizontal,horizontal,vertical,vertical
2b,11,100356,9,27,283,20,M,NA,constant,heterogeneous,4,absent,1.16441202163696,1,horizontal,horizontal,1,5,green,4,NaN,NaN,NaN,NaN,NaN,NaN,NaN,NaN,NaN,NaN,NaN,NaN,NaN,3,6,0,4,vertical,vertical,horizontal,horizontal
2b,11,100356,9,28,284,20,M,NA,constant,heterogeneous,4,absent,1.22803688049316,1,horizontal,horizontal,1,3,green,3,NaN,NaN,NaN,NaN,NaN,NaN,NaN,NaN,NaN,NaN,NaN,NaN,NaN,5,6,4,0,horizontal,horizontal,horizontal,vertical
2b,11,100356,9,29,285,20,M,NA,constant,heterogeneous,4,present,0.848923921585083,1,horizontal,horizontal,1,2,green,1,3,NaN,NaN,NaN,NaN,NaN,NaN,NaN,NaN,NaN,NaN,NaN,NaN,4,6,5,0,horizontal,vertical,horizontal,vertical
2b,11,100356,9,30,286,20,M,NA,constant,heterogeneous,4,present,1.08614897727966,1,horizontal,horizontal,1,2,green,2,3,NaN,NaN,NaN,NaN,NaN,NaN,NaN,NaN,NaN,NaN,NaN,NaN,6,4,5,0,vertical,horizontal,horizontal,vertical
2b,11,100356,9,31,287,20,M,NA,constant,heterogeneous,4,absent,0.71212100982666,1,horizontal,horizontal,1,2,green,2,NaN,NaN,NaN,NaN,NaN,NaN,NaN,NaN,NaN,NaN,NaN,NaN,NaN,0,4,3,5,vertical,horizontal,vertical,vertical
2b,11,100356,9,32,288,20,M,NA,constant,heterogeneous,4,absent,0.722501993179321,1,horizontal,horizontal,1,2,green,1,NaN,NaN,NaN,NaN,NaN,NaN,NaN,NaN,NaN,NaN,NaN,NaN,NaN,4,6,0,3,horizontal,horizontal,vertical,vertical
2b,11,100356,10,1,289,20,M,NA,constant,heterogeneous,4,absent,1.4309401512146,1,horizontal,horizontal,1,3,green,4,NaN,NaN,NaN,NaN,NaN,NaN,NaN,NaN,NaN,NaN,NaN,NaN,NaN,5,3,6,4,horizontal,vertical,horizontal,horizontal
2b,11,100356,10,2,290,20,M,NA,constant,heterogeneous,4,present,1.05949997901917,1,vertical,vertical,1,2,green,3,2,NaN,NaN,NaN,NaN,NaN,NaN,NaN,NaN,NaN,NaN,NaN,NaN,0,6,4,3,vertical,vertical,vertical,horizontal
2b,11,100356,10,3,291,20,M,NA,constant,heterogeneous,4,present,1.15694499015808,1,vertical,vertical,1,8,green,4,3,NaN,NaN,NaN,NaN,NaN,NaN,NaN,NaN,NaN,NaN,NaN,NaN,5,6,0,4,vertical,vertical,horizontal,vertical
2b,11,100356,10,4,292,20,M,NA,constant,heterogeneous,4,present,0.976275205612183,1,vertical,vertical,1,5,green,2,3,NaN,NaN,NaN,NaN,NaN,NaN,NaN,NaN,NaN,NaN,NaN,NaN,5,4,6,3,horizontal,vertical,vertical,vertical
2b,11,100356,10,5,293,20,M,NA,constant,heterogeneous,4,present,1.012619972229,1,horizontal,horizontal,1,5,green,4,1,NaN,NaN,NaN,NaN,NaN,NaN,NaN,NaN,NaN,NaN,NaN,NaN,6,3,0,4,horizontal,vertical,vertical,horizontal
2b,11,100356,10,6,294,20,M,NA,constant,heterogeneous,4,absent,1.03690600395203,1,vertical,vertical,1,3,green,4,NaN,NaN,NaN,NaN,NaN,NaN,NaN,NaN,NaN,NaN,NaN,NaN,NaN,3,0,5,4,horizontal,vertical,vertical,vertical
2b,11,100356,10,7,295,20,M,NA,constant,heterogeneous,4,absent,1.00594592094421,1,horizontal,horizontal,1,2,green,4,NaN,NaN,NaN,NaN,NaN,NaN,NaN,NaN,NaN,NaN,NaN,NaN,NaN,5,0,3,4,vertical,horizontal,vertical,horizontal
2b,11,100356,10,8,296,20,M,NA,constant,heterogeneous,4,present,0.786415100097656,1,vertical,vertical,1,3,green,4,2,NaN,NaN,NaN,NaN,NaN,NaN,NaN,NaN,NaN,NaN,NaN,NaN,6,5,0,4,horizontal,horizontal,vertical,vertical
2b,11,100356,10,9,297,20,M,NA,constant,heterogeneous,4,absent,1.63804578781128,1,vertical,vertical,1,8,green,2,NaN,NaN,NaN,NaN,NaN,NaN,NaN,NaN,NaN,NaN,NaN,NaN,NaN,3,4,0,6,vertical,vertical,horizontal,horizontal
2b,11,100356,10,10,298,20,M,NA,constant,heterogeneous,4,absent,0.887198925018311,1,horizontal,horizontal,1,3,green,2,NaN,NaN,NaN,NaN,NaN,NaN,NaN,NaN,NaN,NaN,NaN,NaN,NaN,0,4,3,5,horizontal,horizontal,vertical,vertical
2b,11,100356,10,11,299,20,M,NA,constant,heterogeneous,4,absent,1.34556603431702,1,horizontal,horizontal,1,2,green,1,NaN,NaN,NaN,NaN,NaN,NaN,NaN,NaN,NaN,NaN,NaN,NaN,NaN,4,3,5,0,horizontal,horizontal,horizontal,vertical
2b,11,100356,10,12,300,20,M,NA,constant,heterogeneous,4,present,0.680499076843262,1,vertical,vertical,1,2,green,4,1,NaN,NaN,NaN,NaN,NaN,NaN,NaN,NaN,NaN,NaN,NaN,NaN,6,5,0,4,vertical,vertical,vertical,vertical
2b,11,100356,10,13,301,20,M,NA,constant,heterogeneous,4,absent,1.36606001853943,1,vertical,vertical,1,2,green,2,NaN,NaN,NaN,NaN,NaN,NaN,NaN,NaN,NaN,NaN,NaN,NaN,NaN,5,4,3,0,horizontal,vertical,vertical,vertical
2b,11,100356,10,14,302,20,M,NA,constant,heterogeneous,4,present,0.597633123397827,1,vertical,vertical,1,5,green,2,1,NaN,NaN,NaN,NaN,NaN,NaN,NaN,NaN,NaN,NaN,NaN,NaN,3,4,6,5,vertical,vertical,vertical,vertical
2b,11,100356,10,15,303,20,M,NA,constant,heterogeneous,4,present,0.845789194107056,1,horizontal,horizontal,1,2,green,1,2,NaN,NaN,NaN,NaN,NaN,NaN,NaN,NaN,NaN,NaN,NaN,NaN,4,0,5,3,horizontal,vertical,horizontal,horizontal
2b,11,100356,10,16,304,20,M,NA,constant,heterogeneous,4,present,0.658987045288086,1,horizontal,horizontal,1,3,green,4,1,NaN,NaN,NaN,NaN,NaN,NaN,NaN,NaN,NaN,NaN,NaN,NaN,3,6,0,4,horizontal,vertical,horizontal,horizontal
2b,11,100356,10,17,305,20,M,NA,constant,heterogeneous,4,present,0.996490001678467,1,horizontal,horizontal,1,2,green,1,2,NaN,NaN,NaN,NaN,NaN,NaN,NaN,NaN,NaN,NaN,NaN,NaN,4,3,0,6,horizontal,horizontal,vertical,vertical
2b,11,100356,10,18,306,20,M,NA,constant,heterogeneous,4,present,0.916343212127686,1,horizontal,horizontal,1,2,green,3,2,NaN,NaN,NaN,NaN,NaN,NaN,NaN,NaN,NaN,NaN,NaN,NaN,5,6,4,0,horizontal,horizontal,horizontal,horizontal
2b,11,100356,10,19,307,20,M,NA,constant,heterogeneous,4,present,1.10709190368652,1,vertical,vertical,1,3,green,3,4,NaN,NaN,NaN,NaN,NaN,NaN,NaN,NaN,NaN,NaN,NaN,NaN,0,3,4,6,vertical,horizontal,vertical,vertical
2b,11,100356,10,20,308,20,M,NA,constant,heterogeneous,4,present,1.66175317764282,1,horizontal,horizontal,1,8,green,3,1,NaN,NaN,NaN,NaN,NaN,NaN,NaN,NaN,NaN,NaN,NaN,NaN,5,0,4,3,horizontal,horizontal,horizontal,horizontal
2b,11,100356,10,21,309,20,M,NA,constant,heterogeneous,4,absent,0.823249101638794,1,horizontal,horizontal,1,8,green,3,NaN,NaN,NaN,NaN,NaN,NaN,NaN,NaN,NaN,NaN,NaN,NaN,NaN,6,3,4,5,vertical,horizontal,horizontal,horizontal
2b,11,100356,10,22,310,20,M,NA,constant,heterogeneous,4,absent,1.08398818969727,1,vertical,vertical,1,3,green,2,NaN,NaN,NaN,NaN,NaN,NaN,NaN,NaN,NaN,NaN,NaN,NaN,NaN,6,4,5,3,vertical,vertical,horizontal,vertical
2b,11,100356,10,23,311,20,M,NA,constant,heterogeneous,4,absent,1.12602114677429,1,vertical,vertical,1,2,green,3,NaN,NaN,NaN,NaN,NaN,NaN,NaN,NaN,NaN,NaN,NaN,NaN,NaN,5,3,4,0,horizontal,horizontal,vertical,horizontal
2b,11,100356,10,24,312,20,M,NA,constant,heterogeneous,4,absent,1.38846302032471,1,horizontal,horizontal,1,2,green,2,NaN,NaN,NaN,NaN,NaN,NaN,NaN,NaN,NaN,NaN,NaN,NaN,NaN,3,4,5,6,vertical,horizontal,vertical,horizontal
2b,11,100356,10,25,313,20,M,NA,constant,heterogeneous,4,absent,1.32471299171448,1,horizontal,horizontal,1,5,green,1,NaN,NaN,NaN,NaN,NaN,NaN,NaN,NaN,NaN,NaN,NaN,NaN,NaN,4,3,5,0,horizontal,vertical,vertical,vertical
2b,11,100356,10,26,314,20,M,NA,constant,heterogeneous,4,present,0.827472925186157,1,horizontal,horizontal,1,3,green,1,4,NaN,NaN,NaN,NaN,NaN,NaN,NaN,NaN,NaN,NaN,NaN,NaN,4,3,5,6,horizontal,horizontal,vertical,vertical
2b,11,100356,10,27,315,20,M,NA,constant,heterogeneous,4,absent,1.4082989692688,1,vertical,vertical,1,5,green,4,NaN,NaN,NaN,NaN,NaN,NaN,NaN,NaN,NaN,NaN,NaN,NaN,NaN,5,6,0,4,vertical,vertical,horizontal,vertical
2b,11,100356,10,28,316,20,M,NA,constant,heterogeneous,4,present,1.38071417808533,1,horizontal,horizontal,1,5,green,4,2,NaN,NaN,NaN,NaN,NaN,NaN,NaN,NaN,NaN,NaN,NaN,NaN,0,5,6,4,horizontal,horizontal,horizontal,horizontal
2b,11,100356,10,29,317,20,M,NA,constant,heterogeneous,4,absent,1.23256587982178,1,vertical,vertical,1,5,green,2,NaN,NaN,NaN,NaN,NaN,NaN,NaN,NaN,NaN,NaN,NaN,NaN,NaN,3,4,6,0,horizontal,vertical,horizontal,vertical
2b,11,100356,10,30,318,20,M,NA,constant,heterogeneous,4,present,1.20523405075073,1,vertical,vertical,1,2,green,3,2,NaN,NaN,NaN,NaN,NaN,NaN,NaN,NaN,NaN,NaN,NaN,NaN,3,6,4,5,horizontal,vertical,vertical,horizontal
2b,11,100356,10,31,319,20,M,NA,constant,heterogeneous,4,absent,1.84929895401001,1,horizontal,horizontal,1,5,green,1,NaN,NaN,NaN,NaN,NaN,NaN,NaN,NaN,NaN,NaN,NaN,NaN,NaN,4,0,3,6,horizontal,vertical,horizontal,horizontal
2b,11,100356,10,32,320,20,M,NA,constant,heterogeneous,4,absent,1.12668895721436,1,vertical,vertical,1,2,green,1,NaN,NaN,NaN,NaN,NaN,NaN,NaN,NaN,NaN,NaN,NaN,NaN,NaN,4,0,3,5,vertical,horizontal,horizontal,vertical
2b,11,100356,11,1,321,20,M,NA,constant,homogeneous,4,present,0.882031917572021,1,vertical,vertical,1,2,green,2,1,980.31222920257,419.68777079743,980.31222920257,780.31222920257,980.31222920257,780.31222920257,980.31222920257,419.68777079743,619.68777079743,419.68777079743,619.68777079743,780.31222920257,0,4,0,0,horizontal,vertical,vertical,vertical
2b,11,100356,11,2,322,20,M,NA,constant,homogeneous,4,absent,0.659250020980835,1,vertical,vertical,1,5,green,2,NaN,980.31222920257,419.68777079743,NaN,NaN,980.31222920257,780.31222920257,980.31222920257,419.68777079743,619.68777079743,419.68777079743,619.68777079743,780.31222920257,0,4,0,0,horizontal,vertical,vertical,horizontal
2b,11,100356,11,3,323,20,M,NA,constant,homogeneous,4,present,0.837393045425415,1,horizontal,horizontal,1,2,green,4,1,619.68777079743,780.31222920257,980.31222920257,780.31222920257,980.31222920257,780.31222920257,980.31222920257,419.68777079743,619.68777079743,419.68777079743,619.68777079743,780.31222920257,0,0,0,4,vertical,vertical,horizontal,horizontal
2b,11,100356,11,4,324,20,M,NA,constant,homogeneous,4,absent,0.798151016235352,1,vertical,vertical,1,3,green,1,NaN,980.31222920257,780.31222920257,NaN,NaN,980.31222920257,780.31222920257,980.31222920257,419.68777079743,619.68777079743,419.68777079743,619.68777079743,780.31222920257,4,0,0,0,vertical,vertical,vertical,vertical
2b,11,100356,11,5,325,20,M,NA,constant,homogeneous,4,absent,0.662081003189087,1,vertical,vertical,1,8,green,2,NaN,980.31222920257,419.68777079743,NaN,NaN,980.31222920257,780.31222920257,980.31222920257,419.68777079743,619.68777079743,419.68777079743,619.68777079743,780.31222920257,0,4,0,0,horizontal,vertical,vertical,horizontal
2b,11,100356,11,6,326,20,M,NA,constant,homogeneous,4,present,0.807742118835449,1,horizontal,horizontal,1,8,green,2,4,980.31222920257,419.68777079743,619.68777079743,780.31222920257,980.31222920257,780.31222920257,980.31222920257,419.68777079743,619.68777079743,419.68777079743,619.68777079743,780.31222920257,0,4,0,0,horizontal,horizontal,vertical,horizontal
2b,11,100356,11,7,327,20,M,NA,constant,homogeneous,4,present,0.676286935806274,1,horizontal,horizontal,1,2,green,2,1,980.31222920257,419.68777079743,980.31222920257,780.31222920257,980.31222920257,780.31222920257,980.31222920257,419.68777079743,619.68777079743,419.68777079743,619.68777079743,780.31222920257,0,4,0,0,horizontal,horizontal,horizontal,horizontal
2b,11,100356,11,8,328,20,M,NA,constant,homogeneous,4,absent,0.777743816375732,1,horizontal,horizontal,1,3,green,1,NaN,980.31222920257,780.31222920257,NaN,NaN,980.31222920257,780.31222920257,980.31222920257,419.68777079743,619.68777079743,419.68777079743,619.68777079743,780.31222920257,4,0,0,0,horizontal,horizontal,horizontal,vertical
2b,11,100356,11,9,329,20,M,NA,constant,homogeneous,4,present,0.501526832580566,1,horizontal,horizontal,1,3,green,2,3,980.31222920257,419.68777079743,619.68777079743,419.68777079743,980.31222920257,780.31222920257,980.31222920257,419.68777079743,619.68777079743,419.68777079743,619.68777079743,780.31222920257,0,4,0,0,horizontal,horizontal,vertical,horizontal
2b,11,100356,11,10,330,20,M,NA,constant,homogeneous,4,absent,0.819884061813354,1,vertical,vertical,1,2,green,3,NaN,619.68777079743,419.68777079743,NaN,NaN,980.31222920257,780.31222920257,980.31222920257,419.68777079743,619.68777079743,419.68777079743,619.68777079743,780.31222920257,0,0,4,0,vertical,vertical,vertical,horizontal
2b,11,100356,11,11,331,20,M,NA,constant,homogeneous,4,present,0.732250928878784,1,vertical,vertical,1,3,green,4,1,619.68777079743,780.31222920257,980.31222920257,780.31222920257,980.31222920257,780.31222920257,980.31222920257,419.68777079743,619.68777079743,419.68777079743,619.68777079743,780.31222920257,0,0,0,4,horizontal,horizontal,horizontal,vertical
2b,11,100356,11,12,332,20,M,NA,constant,homogeneous,4,present,0.70319390296936,1,horizontal,horizontal,1,5,green,4,2,619.68777079743,780.31222920257,980.31222920257,419.68777079743,980.31222920257,780.31222920257,980.31222920257,419.68777079743,619.68777079743,419.68777079743,619.68777079743,780.31222920257,0,0,0,4,vertical,horizontal,vertical,horizontal
2b,11,100356,11,13,333,20,M,NA,constant,homogeneous,4,present,0.685455083847046,1,horizontal,horizontal,1,5,green,4,3,619.68777079743,780.31222920257,619.68777079743,419.68777079743,980.31222920257,780.31222920257,980.31222920257,419.68777079743,619.68777079743,419.68777079743,619.68777079743,780.31222920257,0,0,0,4,horizontal,horizontal,vertical,horizontal
2b,11,100356,11,14,334,20,M,NA,constant,homogeneous,4,absent,0.567521095275879,1,horizontal,horizontal,1,2,green,4,NaN,619.68777079743,780.31222920257,NaN,NaN,980.31222920257,780.31222920257,980.31222920257,419.68777079743,619.68777079743,419.68777079743,619.68777079743,780.31222920257,0,0,0,4,vertical,vertical,horizontal,horizontal
2b,11,100356,11,15,335,20,M,NA,constant,homogeneous,4,absent,0.622712850570679,1,vertical,vertical,1,2,green,4,NaN,619.68777079743,780.31222920257,NaN,NaN,980.31222920257,780.31222920257,980.31222920257,419.68777079743,619.68777079743,419.68777079743,619.68777079743,780.31222920257,0,0,0,4,horizontal,vertical,vertical,vertical
2b,11,100356,11,16,336,20,M,NA,constant,homogeneous,4,present,0.923596143722534,1,vertical,vertical,1,5,green,2,4,980.31222920257,419.68777079743,619.68777079743,780.31222920257,980.31222920257,780.31222920257,980.31222920257,419.68777079743,619.68777079743,419.68777079743,619.68777079743,780.31222920257,0,4,0,0,horizontal,vertical,horizontal,horizontal
2b,11,100356,11,17,337,20,M,NA,constant,homogeneous,4,present,1.00263786315918,1,vertical,vertical,1,5,green,3,4,619.68777079743,419.68777079743,619.68777079743,780.31222920257,980.31222920257,780.31222920257,980.31222920257,419.68777079743,619.68777079743,419.68777079743,619.68777079743,780.31222920257,0,0,4,0,vertical,horizontal,vertical,vertical
2b,11,100356,11,18,338,20,M,NA,constant,homogeneous,4,absent,1.08681797981262,1,horizontal,horizontal,1,2,green,1,NaN,980.31222920257,780.31222920257,NaN,NaN,980.31222920257,780.31222920257,980.31222920257,419.68777079743,619.68777079743,419.68777079743,619.68777079743,780.31222920257,4,0,0,0,horizontal,vertical,horizontal,vertical
2b,11,100356,11,19,339,20,M,NA,constant,homogeneous,4,present,0.632794141769409,1,horizontal,horizontal,1,3,green,1,4,980.31222920257,780.31222920257,619.68777079743,780.31222920257,980.31222920257,780.31222920257,980.31222920257,419.68777079743,619.68777079743,419.68777079743,619.68777079743,780.31222920257,4,0,0,0,horizontal,vertical,horizontal,vertical
2b,11,100356,11,20,340,20,M,NA,constant,homogeneous,4,absent,0.701486825942993,1,horizontal,horizontal,1,8,green,2,NaN,980.31222920257,419.68777079743,NaN,NaN,980.31222920257,780.31222920257,980.31222920257,419.68777079743,619.68777079743,419.68777079743,619.68777079743,780.31222920257,0,4,0,0,vertical,horizontal,horizontal,vertical
2b,11,100356,11,21,341,20,M,NA,constant,homogeneous,4,present,0.971746921539307,1,vertical,vertical,1,2,green,4,2,619.68777079743,780.31222920257,980.31222920257,419.68777079743,980.31222920257,780.31222920257,980.31222920257,419.68777079743,619.68777079743,419.68777079743,619.68777079743,780.31222920257,0,0,0,4,horizontal,vertical,vertical,vertical
2b,11,100356,11,22,342,20,M,NA,constant,homogeneous,4,absent,0.779512882232666,1,horizontal,horizontal,1,2,green,3,NaN,619.68777079743,419.68777079743,NaN,NaN,980.31222920257,780.31222920257,980.31222920257,419.68777079743,619.68777079743,419.68777079743,619.68777079743,780.31222920257,0,0,4,0,horizontal,vertical,horizontal,horizontal
2b,11,100356,11,23,343,20,M,NA,constant,homogeneous,4,absent,0.999085187911987,1,horizontal,horizontal,1,5,green,4,NaN,619.68777079743,780.31222920257,NaN,NaN,980.31222920257,780.31222920257,980.31222920257,419.68777079743,619.68777079743,419.68777079743,619.68777079743,780.31222920257,0,0,0,4,horizontal,horizontal,vertical,horizontal
2b,11,100356,11,24,344,20,M,NA,constant,homogeneous,4,present,0.635589122772217,1,vertical,vertical,1,3,green,4,3,619.68777079743,780.31222920257,619.68777079743,419.68777079743,980.31222920257,780.31222920257,980.31222920257,419.68777079743,619.68777079743,419.68777079743,619.68777079743,780.31222920257,0,0,0,4,vertical,horizontal,vertical,vertical
2b,11,100356,11,25,345,20,M,NA,constant,homogeneous,4,absent,0.580400943756104,1,vertical,vertical,1,2,green,2,NaN,980.31222920257,419.68777079743,NaN,NaN,980.31222920257,780.31222920257,980.31222920257,419.68777079743,619.68777079743,419.68777079743,619.68777079743,780.31222920257,0,4,0,0,vertical,vertical,vertical,horizontal
2b,11,100356,11,26,346,20,M,NA,constant,homogeneous,4,absent,0.744286060333252,1,horizontal,horizontal,1,5,green,4,NaN,619.68777079743,780.31222920257,NaN,NaN,980.31222920257,780.31222920257,980.31222920257,419.68777079743,619.68777079743,419.68777079743,619.68777079743,780.31222920257,0,0,0,4,horizontal,horizontal,horizontal,horizontal
2b,11,100356,11,27,347,20,M,NA,constant,homogeneous,4,present,0.527617931365967,1,vertical,vertical,1,2,green,1,4,980.31222920257,780.31222920257,619.68777079743,780.31222920257,980.31222920257,780.31222920257,980.31222920257,419.68777079743,619.68777079743,419.68777079743,619.68777079743,780.31222920257,4,0,0,0,vertical,horizontal,vertical,horizontal
2b,11,100356,11,28,348,20,M,NA,constant,homogeneous,4,present,1.39007902145386,1,horizontal,horizontal,1,2,green,2,1,980.31222920257,419.68777079743,980.31222920257,780.31222920257,980.31222920257,780.31222920257,980.31222920257,419.68777079743,619.68777079743,419.68777079743,619.68777079743,780.31222920257,0,4,0,0,vertical,horizontal,vertical,horizontal
2b,11,100356,11,29,349,20,M,NA,constant,homogeneous,4,absent,0.630438089370728,1,vertical,vertical,1,5,green,2,NaN,980.31222920257,419.68777079743,NaN,NaN,980.31222920257,780.31222920257,980.31222920257,419.68777079743,619.68777079743,419.68777079743,619.68777079743,780.31222920257,0,4,0,0,horizontal,vertical,horizontal,vertical
2b,11,100356,11,30,350,20,M,NA,constant,homogeneous,4,present,1.81923985481262,0,vertical,horizontal,1,8,green,3,1,619.68777079743,419.68777079743,980.31222920257,780.31222920257,980.31222920257,780.31222920257,980.31222920257,419.68777079743,619.68777079743,419.68777079743,619.68777079743,780.31222920257,0,0,4,0,vertical,vertical,vertical,vertical
2b,11,100356,11,31,351,20,M,NA,constant,homogeneous,4,absent,0.899861812591553,1,vertical,vertical,1,3,green,1,NaN,980.31222920257,780.31222920257,NaN,NaN,980.31222920257,780.31222920257,980.31222920257,419.68777079743,619.68777079743,419.68777079743,619.68777079743,780.31222920257,4,0,0,0,vertical,horizontal,horizontal,vertical
2b,11,100356,11,32,352,20,M,NA,constant,homogeneous,4,absent,1.38587403297424,1,horizontal,horizontal,1,3,green,2,NaN,980.31222920257,419.68777079743,NaN,NaN,980.31222920257,780.31222920257,980.31222920257,419.68777079743,619.68777079743,419.68777079743,619.68777079743,780.31222920257,0,4,0,0,horizontal,horizontal,horizontal,horizontal
2b,11,100356,12,1,353,20,M,NA,constant,homogeneous,4,absent,1.01039886474609,0,horizontal,vertical,1,8,green,2,NaN,980.31222920257,419.68777079743,NaN,NaN,980.31222920257,780.31222920257,980.31222920257,419.68777079743,619.68777079743,419.68777079743,619.68777079743,780.31222920257,0,4,0,0,horizontal,horizontal,horizontal,horizontal
2b,11,100356,12,2,354,20,M,NA,constant,homogeneous,4,present,0.755274772644043,1,vertical,vertical,1,2,green,2,1,980.31222920257,419.68777079743,980.31222920257,780.31222920257,980.31222920257,780.31222920257,980.31222920257,419.68777079743,619.68777079743,419.68777079743,619.68777079743,780.31222920257,0,4,0,0,horizontal,vertical,horizontal,vertical
2b,11,100356,12,3,355,20,M,NA,constant,homogeneous,4,present,0.830711841583252,1,vertical,vertical,1,5,green,4,1,619.68777079743,780.31222920257,980.31222920257,780.31222920257,980.31222920257,780.31222920257,980.31222920257,419.68777079743,619.68777079743,419.68777079743,619.68777079743,780.31222920257,0,0,0,4,vertical,horizontal,horizontal,vertical
2b,11,100356,12,4,356,20,M,NA,constant,homogeneous,4,present,NaN,0,horizontal,none,0,2,green,4,3,619.68777079743,780.31222920257,619.68777079743,419.68777079743,980.31222920257,780.31222920257,980.31222920257,419.68777079743,619.68777079743,419.68777079743,619.68777079743,780.31222920257,0,0,0,4,vertical,vertical,horizontal,horizontal
2b,11,100356,12,5,357,20,M,NA,constant,homogeneous,4,present,0.567775011062622,1,vertical,vertical,1,2,green,2,4,980.31222920257,419.68777079743,619.68777079743,780.31222920257,980.31222920257,780.31222920257,980.31222920257,419.68777079743,619.68777079743,419.68777079743,619.68777079743,780.31222920257,0,4,0,0,horizontal,vertical,horizontal,vertical
2b,11,100356,12,6,358,20,M,NA,constant,homogeneous,4,absent,0.575015068054199,1,horizontal,horizontal,1,2,green,1,NaN,980.31222920257,780.31222920257,NaN,NaN,980.31222920257,780.31222920257,980.31222920257,419.68777079743,619.68777079743,419.68777079743,619.68777079743,780.31222920257,4,0,0,0,horizontal,horizontal,horizontal,vertical
2b,11,100356,12,7,359,20,M,NA,constant,homogeneous,4,present,1.02716588973999,1,horizontal,horizontal,1,5,green,3,1,619.68777079743,419.68777079743,980.31222920257,780.31222920257,980.31222920257,780.31222920257,980.31222920257,419.68777079743,619.68777079743,419.68777079743,619.68777079743,780.31222920257,0,0,4,0,vertical,horizontal,horizontal,vertical
2b,11,100356,12,8,360,20,M,NA,constant,homogeneous,4,present,0.839881181716919,1,horizontal,horizontal,1,5,green,3,1,619.68777079743,419.68777079743,980.31222920257,780.31222920257,980.31222920257,780.31222920257,980.31222920257,419.68777079743,619.68777079743,419.68777079743,619.68777079743,780.31222920257,0,0,4,0,vertical,horizontal,horizontal,horizontal
2b,11,100356,12,9,361,20,M,NA,constant,homogeneous,4,absent,0.70513916015625,1,horizontal,horizontal,1,5,green,4,NaN,619.68777079743,780.31222920257,NaN,NaN,980.31222920257,780.31222920257,980.31222920257,419.68777079743,619.68777079743,419.68777079743,619.68777079743,780.31222920257,0,0,0,4,vertical,horizontal,vertical,horizontal
2b,11,100356,12,10,362,20,M,NA,constant,homogeneous,4,present,0.683624982833862,1,horizontal,horizontal,1,8,green,1,4,980.31222920257,780.31222920257,619.68777079743,780.31222920257,980.31222920257,780.31222920257,980.31222920257,419.68777079743,619.68777079743,419.68777079743,619.68777079743,780.31222920257,4,0,0,0,horizontal,vertical,horizontal,horizontal
2b,11,100356,12,11,363,20,M,NA,constant,homogeneous,4,absent,0.63764214515686,1,vertical,vertical,1,3,green,1,NaN,980.31222920257,780.31222920257,NaN,NaN,980.31222920257,780.31222920257,980.31222920257,419.68777079743,619.68777079743,419.68777079743,619.68777079743,780.31222920257,4,0,0,0,vertical,horizontal,vertical,horizontal
2b,11,100356,12,12,364,20,M,NA,constant,homogeneous,4,present,0.58259105682373,1,horizontal,horizontal,1,2,green,1,4,980.31222920257,780.31222920257,619.68777079743,780.31222920257,980.31222920257,780.31222920257,980.31222920257,419.68777079743,619.68777079743,419.68777079743,619.68777079743,780.31222920257,4,0,0,0,horizontal,vertical,horizontal,horizontal
2b,11,100356,12,13,365,20,M,NA,constant,homogeneous,4,absent,0.882440090179443,1,vertical,vertical,1,2,green,3,NaN,619.68777079743,419.68777079743,NaN,NaN,980.31222920257,780.31222920257,980.31222920257,419.68777079743,619.68777079743,419.68777079743,619.68777079743,780.31222920257,0,0,4,0,horizontal,horizontal,vertical,horizontal
2b,11,100356,12,14,366,20,M,NA,constant,homogeneous,4,absent,0.524049043655396,1,vertical,vertical,1,2,green,2,NaN,980.31222920257,419.68777079743,NaN,NaN,980.31222920257,780.31222920257,980.31222920257,419.68777079743,619.68777079743,419.68777079743,619.68777079743,780.31222920257,0,4,0,0,vertical,vertical,horizontal,vertical
2b,11,100356,12,15,367,20,M,NA,constant,homogeneous,4,present,0.578881978988647,1,horizontal,horizontal,1,2,green,1,2,980.31222920257,780.31222920257,980.31222920257,419.68777079743,980.31222920257,780.31222920257,980.31222920257,419.68777079743,619.68777079743,419.68777079743,619.68777079743,780.31222920257,4,0,0,0,horizontal,horizontal,horizontal,vertical
2b,11,100356,12,16,368,20,M,NA,constant,homogeneous,4,present,0.710771083831787,1,vertical,vertical,1,5,green,2,3,980.31222920257,419.68777079743,619.68777079743,419.68777079743,980.31222920257,780.31222920257,980.31222920257,419.68777079743,619.68777079743,419.68777079743,619.68777079743,780.31222920257,0,4,0,0,horizontal,vertical,vertical,vertical
2b,11,100356,12,17,369,20,M,NA,constant,homogeneous,4,absent,0.937038898468018,1,vertical,vertical,1,2,green,2,NaN,980.31222920257,419.68777079743,NaN,NaN,980.31222920257,780.31222920257,980.31222920257,419.68777079743,619.68777079743,419.68777079743,619.68777079743,780.31222920257,0,4,0,0,horizontal,vertical,vertical,vertical
2b,11,100356,12,18,370,20,M,NA,constant,homogeneous,4,absent,1.01994609832764,1,horizontal,horizontal,1,2,green,2,NaN,980.31222920257,419.68777079743,NaN,NaN,980.31222920257,780.31222920257,980.31222920257,419.68777079743,619.68777079743,419.68777079743,619.68777079743,780.31222920257,0,4,0,0,horizontal,horizontal,horizontal,vertical
2b,11,100356,12,19,371,20,M,NA,constant,homogeneous,4,absent,0.74043607711792,1,horizontal,horizontal,1,5,green,1,NaN,980.31222920257,780.31222920257,NaN,NaN,980.31222920257,780.31222920257,980.31222920257,419.68777079743,619.68777079743,419.68777079743,619.68777079743,780.31222920257,4,0,0,0,horizontal,horizontal,horizontal,vertical
2b,11,100356,12,20,372,20,M,NA,constant,homogeneous,4,present,1.07557702064514,1,horizontal,horizontal,1,3,green,1,4,980.31222920257,780.31222920257,619.68777079743,780.31222920257,980.31222920257,780.31222920257,980.31222920257,419.68777079743,619.68777079743,419.68777079743,619.68777079743,780.31222920257,4,0,0,0,horizontal,horizontal,vertical,vertical
2b,11,100356,12,21,373,20,M,NA,constant,homogeneous,4,present,0.801368951797485,1,vertical,vertical,1,8,green,3,2,619.68777079743,419.68777079743,980.31222920257,419.68777079743,980.31222920257,780.31222920257,980.31222920257,419.68777079743,619.68777079743,419.68777079743,619.68777079743,780.31222920257,0,0,4,0,vertical,horizontal,vertical,vertical
2b,11,100356,12,22,374,20,M,NA,constant,homogeneous,4,present,0.645762920379639,1,vertical,vertical,1,2,green,1,3,980.31222920257,780.31222920257,619.68777079743,419.68777079743,980.31222920257,780.31222920257,980.31222920257,419.68777079743,619.68777079743,419.68777079743,619.68777079743,780.31222920257,4,0,0,0,vertical,horizontal,vertical,vertical
2b,11,100356,12,23,375,20,M,NA,constant,homogeneous,4,absent,0.578950881958008,1,vertical,vertical,1,5,green,2,NaN,980.31222920257,419.68777079743,NaN,NaN,980.31222920257,780.31222920257,980.31222920257,419.68777079743,619.68777079743,419.68777079743,619.68777079743,780.31222920257,0,4,0,0,horizontal,vertical,vertical,horizontal
2b,11,100356,12,24,376,20,M,NA,constant,homogeneous,4,absent,0.655044078826904,1,horizontal,horizontal,1,3,green,4,NaN,619.68777079743,780.31222920257,NaN,NaN,980.31222920257,780.31222920257,980.31222920257,419.68777079743,619.68777079743,419.68777079743,619.68777079743,780.31222920257,0,0,0,4,horizontal,horizontal,horizontal,horizontal
2b,11,100356,12,25,377,20,M,NA,constant,homogeneous,4,absent,0.740357160568237,1,horizontal,horizontal,1,2,green,1,NaN,980.31222920257,780.31222920257,NaN,NaN,980.31222920257,780.31222920257,980.31222920257,419.68777079743,619.68777079743,419.68777079743,619.68777079743,780.31222920257,4,0,0,0,horizontal,vertical,vertical,horizontal
2b,11,100356,12,26,378,20,M,NA,constant,homogeneous,4,absent,0.667075872421265,1,vertical,vertical,1,5,green,2,NaN,980.31222920257,419.68777079743,NaN,NaN,980.31222920257,780.31222920257,980.31222920257,419.68777079743,619.68777079743,419.68777079743,619.68777079743,780.31222920257,0,4,0,0,horizontal,vertical,vertical,vertical
2b,11,100356,12,27,379,20,M,NA,constant,homogeneous,4,present,0.684731006622314,1,vertical,vertical,1,3,green,2,1,980.31222920257,419.68777079743,980.31222920257,780.31222920257,980.31222920257,780.31222920257,980.31222920257,419.68777079743,619.68777079743,419.68777079743,619.68777079743,780.31222920257,0,4,0,0,horizontal,vertical,vertical,vertical
2b,11,100356,12,28,380,20,M,NA,constant,homogeneous,4,present,0.782567024230957,1,horizontal,horizontal,1,3,green,3,4,619.68777079743,419.68777079743,619.68777079743,780.31222920257,980.31222920257,780.31222920257,980.31222920257,419.68777079743,619.68777079743,419.68777079743,619.68777079743,780.31222920257,0,0,4,0,horizontal,horizontal,horizontal,vertical
2b,11,100356,12,29,381,20,M,NA,constant,homogeneous,4,present,0.730515956878662,1,vertical,vertical,1,3,green,3,4,619.68777079743,419.68777079743,619.68777079743,780.31222920257,980.31222920257,780.31222920257,980.31222920257,419.68777079743,619.68777079743,419.68777079743,619.68777079743,780.31222920257,0,0,4,0,horizontal,vertical,vertical,vertical
2b,11,100356,12,30,382,20,M,NA,constant,homogeneous,4,absent,0.605311155319214,1,vertical,vertical,1,3,green,1,NaN,980.31222920257,780.31222920257,NaN,NaN,980.31222920257,780.31222920257,980.31222920257,419.68777079743,619.68777079743,419.68777079743,619.68777079743,780.31222920257,4,0,0,0,vertical,horizontal,horizontal,vertical
2b,11,100356,12,31,383,20,M,NA,constant,homogeneous,4,absent,0.91396689414978,1,vertical,vertical,1,8,green,1,NaN,980.31222920257,780.31222920257,NaN,NaN,980.31222920257,780.31222920257,980.31222920257,419.68777079743,619.68777079743,419.68777079743,619.68777079743,780.31222920257,4,0,0,0,vertical,horizontal,vertical,vertical
2b,11,100356,12,32,384,20,M,NA,constant,homogeneous,4,absent,0.97218918800354,1,horizontal,horizontal,1,3,green,4,NaN,619.68777079743,780.31222920257,NaN,NaN,980.31222920257,780.31222920257,980.31222920257,419.68777079743,619.68777079743,419.68777079743,619.68777079743,780.31222920257,0,0,0,4,vertical,horizontal,vertical,horizontal
2b,11,100356,13,1,385,20,M,NA,constant,homogeneous,4,absent,0.805477857589722,1,vertical,vertical,1,3,green,3,NaN,619.68777079743,419.68777079743,NaN,NaN,980.31222920257,780.31222920257,980.31222920257,419.68777079743,619.68777079743,419.68777079743,619.68777079743,780.31222920257,0,0,4,0,vertical,vertical,vertical,vertical
2b,11,100356,13,2,386,20,M,NA,constant,homogeneous,4,present,0.841693878173828,1,horizontal,horizontal,1,3,green,1,4,980.31222920257,780.31222920257,619.68777079743,780.31222920257,980.31222920257,780.31222920257,980.31222920257,419.68777079743,619.68777079743,419.68777079743,619.68777079743,780.31222920257,4,0,0,0,horizontal,horizontal,horizontal,vertical
2b,11,100356,13,3,387,20,M,NA,constant,homogeneous,4,absent,0.626698017120361,1,horizontal,horizontal,1,2,green,4,NaN,619.68777079743,780.31222920257,NaN,NaN,980.31222920257,780.31222920257,980.31222920257,419.68777079743,619.68777079743,419.68777079743,619.68777079743,780.31222920257,0,0,0,4,horizontal,vertical,vertical,horizontal
2b,11,100356,13,4,388,20,M,NA,constant,homogeneous,4,present,0.535374879837036,1,horizontal,horizontal,1,2,green,4,2,619.68777079743,780.31222920257,980.31222920257,419.68777079743,980.31222920257,780.31222920257,980.31222920257,419.68777079743,619.68777079743,419.68777079743,619.68777079743,780.31222920257,0,0,0,4,horizontal,vertical,horizontal,horizontal
2b,11,100356,13,5,389,20,M,NA,constant,homogeneous,4,absent,0.858203887939453,1,vertical,vertical,1,2,green,3,NaN,619.68777079743,419.68777079743,NaN,NaN,980.31222920257,780.31222920257,980.31222920257,419.68777079743,619.68777079743,419.68777079743,619.68777079743,780.31222920257,0,0,4,0,vertical,horizontal,vertical,horizontal
2b,11,100356,13,6,390,20,M,NA,constant,homogeneous,4,present,0.763643980026245,1,vertical,vertical,1,3,green,4,1,619.68777079743,780.31222920257,980.31222920257,780.31222920257,980.31222920257,780.31222920257,980.31222920257,419.68777079743,619.68777079743,419.68777079743,619.68777079743,780.31222920257,0,0,0,4,vertical,vertical,vertical,vertical
2b,11,100356,13,7,391,20,M,NA,constant,homogeneous,4,absent,0.755542993545532,1,vertical,vertical,1,5,green,4,NaN,619.68777079743,780.31222920257,NaN,NaN,980.31222920257,780.31222920257,980.31222920257,419.68777079743,619.68777079743,419.68777079743,619.68777079743,780.31222920257,0,0,0,4,horizontal,horizontal,vertical,vertical
2b,11,100356,13,8,392,20,M,NA,constant,homogeneous,4,present,0.718693017959595,1,horizontal,horizontal,1,8,green,1,4,980.31222920257,780.31222920257,619.68777079743,780.31222920257,980.31222920257,780.31222920257,980.31222920257,419.68777079743,619.68777079743,419.68777079743,619.68777079743,780.31222920257,4,0,0,0,horizontal,horizontal,vertical,horizontal
2b,11,100356,13,9,393,20,M,NA,constant,homogeneous,4,present,1.06942319869995,1,horizontal,horizontal,1,3,green,3,4,619.68777079743,419.68777079743,619.68777079743,780.31222920257,980.31222920257,780.31222920257,980.31222920257,419.68777079743,619.68777079743,419.68777079743,619.68777079743,780.31222920257,0,0,4,0,vertical,vertical,horizontal,horizontal
2b,11,100356,13,10,394,20,M,NA,constant,homogeneous,4,present,0.707258939743042,1,vertical,vertical,1,5,green,4,1,619.68777079743,780.31222920257,980.31222920257,780.31222920257,980.31222920257,780.31222920257,980.31222920257,419.68777079743,619.68777079743,419.68777079743,619.68777079743,780.31222920257,0,0,0,4,horizontal,horizontal,vertical,vertical
2b,11,100356,13,11,395,20,M,NA,constant,homogeneous,4,present,0.701462984085083,1,vertical,vertical,1,8,green,4,1,619.68777079743,780.31222920257,980.31222920257,780.31222920257,980.31222920257,780.31222920257,980.31222920257,419.68777079743,619.68777079743,419.68777079743,619.68777079743,780.31222920257,0,0,0,4,vertical,horizontal,horizontal,vertical
2b,11,100356,13,12,396,20,M,NA,constant,homogeneous,4,present,0.603976011276245,1,vertical,vertical,1,2,green,4,1,619.68777079743,780.31222920257,980.31222920257,780.31222920257,980.31222920257,780.31222920257,980.31222920257,419.68777079743,619.68777079743,419.68777079743,619.68777079743,780.31222920257,0,0,0,4,horizontal,horizontal,horizontal,vertical
2b,11,100356,13,13,397,20,M,NA,constant,homogeneous,4,absent,0.656177997589111,1,horizontal,horizontal,1,2,green,4,NaN,619.68777079743,780.31222920257,NaN,NaN,980.31222920257,780.31222920257,980.31222920257,419.68777079743,619.68777079743,419.68777079743,619.68777079743,780.31222920257,0,0,0,4,horizontal,vertical,horizontal,horizontal
2b,11,100356,13,14,398,20,M,NA,constant,homogeneous,4,absent,0.861401081085205,1,horizontal,horizontal,1,2,green,2,NaN,980.31222920257,419.68777079743,NaN,NaN,980.31222920257,780.31222920257,980.31222920257,419.68777079743,619.68777079743,419.68777079743,619.68777079743,780.31222920257,0,4,0,0,horizontal,horizontal,vertical,vertical
2b,11,100356,13,15,399,20,M,NA,constant,homogeneous,4,absent,0.750926971435547,1,horizontal,horizontal,1,5,green,1,NaN,980.31222920257,780.31222920257,NaN,NaN,980.31222920257,780.31222920257,980.31222920257,419.68777079743,619.68777079743,419.68777079743,619.68777079743,780.31222920257,4,0,0,0,horizontal,vertical,horizontal,horizontal
2b,11,100356,13,16,400,20,M,NA,constant,homogeneous,4,present,0.805984020233154,1,vertical,vertical,1,2,green,1,4,980.31222920257,780.31222920257,619.68777079743,780.31222920257,980.31222920257,780.31222920257,980.31222920257,419.68777079743,619.68777079743,419.68777079743,619.68777079743,780.31222920257,4,0,0,0,vertical,vertical,horizontal,vertical
2b,11,100356,13,17,401,20,M,NA,constant,homogeneous,4,present,0.634512901306152,1,vertical,vertical,1,5,green,2,1,980.31222920257,419.68777079743,980.31222920257,780.31222920257,980.31222920257,780.31222920257,980.31222920257,419.68777079743,619.68777079743,419.68777079743,619.68777079743,780.31222920257,0,4,0,0,horizontal,vertical,vertical,vertical
2b,11,100356,13,18,402,20,M,NA,constant,homogeneous,4,present,0.675396919250488,1,vertical,vertical,1,2,green,1,3,980.31222920257,780.31222920257,619.68777079743,419.68777079743,980.31222920257,780.31222920257,980.31222920257,419.68777079743,619.68777079743,419.68777079743,619.68777079743,780.31222920257,4,0,0,0,vertical,vertical,horizontal,horizontal
2b,11,100356,13,19,403,20,M,NA,constant,homogeneous,4,present,1.28896808624268,1,horizontal,horizontal,1,5,green,4,1,619.68777079743,780.31222920257,980.31222920257,780.31222920257,980.31222920257,780.31222920257,980.31222920257,419.68777079743,619.68777079743,419.68777079743,619.68777079743,780.31222920257,0,0,0,4,vertical,vertical,vertical,horizontal
2b,11,100356,13,20,404,20,M,NA,constant,homogeneous,4,absent,0.642999887466431,1,vertical,vertical,1,8,green,1,NaN,980.31222920257,780.31222920257,NaN,NaN,980.31222920257,780.31222920257,980.31222920257,419.68777079743,619.68777079743,419.68777079743,619.68777079743,780.31222920257,4,0,0,0,vertical,vertical,vertical,horizontal
2b,11,100356,13,21,405,20,M,NA,constant,homogeneous,4,present,1.14827394485474,1,horizontal,horizontal,1,5,green,3,1,619.68777079743,419.68777079743,980.31222920257,780.31222920257,980.31222920257,780.31222920257,980.31222920257,419.68777079743,619.68777079743,419.68777079743,619.68777079743,780.31222920257,0,0,4,0,horizontal,horizontal,horizontal,vertical
2b,11,100356,13,22,406,20,M,NA,constant,homogeneous,4,absent,0.603062868118286,1,vertical,vertical,1,5,green,4,NaN,619.68777079743,780.31222920257,NaN,NaN,980.31222920257,780.31222920257,980.31222920257,419.68777079743,619.68777079743,419.68777079743,619.68777079743,780.31222920257,0,0,0,4,vertical,vertical,vertical,vertical
2b,11,100356,13,23,407,20,M,NA,constant,homogeneous,4,present,0.911667823791504,1,vertical,vertical,1,3,green,3,1,619.68777079743,419.68777079743,980.31222920257,780.31222920257,980.31222920257,780.31222920257,980.31222920257,419.68777079743,619.68777079743,419.68777079743,619.68777079743,780.31222920257,0,0,4,0,horizontal,vertical,vertical,horizontal
2b,11,100356,13,24,408,20,M,NA,constant,homogeneous,4,absent,0.730266094207764,1,vertical,vertical,1,3,green,3,NaN,619.68777079743,419.68777079743,NaN,NaN,980.31222920257,780.31222920257,980.31222920257,419.68777079743,619.68777079743,419.68777079743,619.68777079743,780.31222920257,0,0,4,0,vertical,vertical,vertical,vertical
2b,11,100356,13,25,409,20,M,NA,constant,homogeneous,4,absent,0.901134014129639,1,horizontal,horizontal,1,8,green,4,NaN,619.68777079743,780.31222920257,NaN,NaN,980.31222920257,780.31222920257,980.31222920257,419.68777079743,619.68777079743,419.68777079743,619.68777079743,780.31222920257,0,0,0,4,horizontal,horizontal,vertical,horizontal
2b,11,100356,13,26,410,20,M,NA,constant,homogeneous,4,absent,0.682955980300903,1,horizontal,horizontal,1,3,green,4,NaN,619.68777079743,780.31222920257,NaN,NaN,980.31222920257,780.31222920257,980.31222920257,419.68777079743,619.68777079743,419.68777079743,619.68777079743,780.31222920257,0,0,0,4,vertical,horizontal,horizontal,horizontal
2b,11,100356,13,27,411,20,M,NA,constant,homogeneous,4,absent,1.12523698806763,1,horizontal,horizontal,1,5,green,2,NaN,980.31222920257,419.68777079743,NaN,NaN,980.31222920257,780.31222920257,980.31222920257,419.68777079743,619.68777079743,419.68777079743,619.68777079743,780.31222920257,0,4,0,0,horizontal,horizontal,horizontal,horizontal
2b,11,100356,13,28,412,20,M,NA,constant,homogeneous,4,present,0.86796498298645,1,horizontal,horizontal,1,2,green,4,3,619.68777079743,780.31222920257,619.68777079743,419.68777079743,980.31222920257,780.31222920257,980.31222920257,419.68777079743,619.68777079743,419.68777079743,619.68777079743,780.31222920257,0,0,0,4,horizontal,horizontal,vertical,horizontal
