experiment,subject,uniqueID,block,trial,trial_cumulative,age,gender,color_cond_blocking,color_history,shape_type,set_size,distractor,rt,acc,target_orient,response_key,response_made,iti,target_color,target_item,distractor_item,target_X,target_Y,distractor_X,distractor_Y,item1_X,item1_Y,item2_X,item2_Y,item3_X,item3_Y,item4_X,item4_Y,item1_shape,item2_shape,item3_shape,item4_shape,item1_line,item2_line,item3_line,item4_line
2b,12,100358,1,1,1,20,F,NA,constant,heterogeneous,4,absent,NaN,0,vertical,none,0,3,red,4,NaN,NaN,NaN,NaN,NaN,NaN,NaN,NaN,NaN,NaN,NaN,NaN,NaN,3,6,0,4,horizontal,horizontal,horizontal,vertical
2b,12,100358,1,2,2,20,F,NA,constant,heterogeneous,4,present,1.43375706672668,1,vertical,vertical,1,2,red,1,3,NaN,NaN,NaN,NaN,NaN,NaN,NaN,NaN,NaN,NaN,NaN,NaN,4,6,3,0,vertical,horizontal,vertical,vertical
2b,12,100358,1,3,3,20,F,NA,constant,heterogeneous,4,absent,1.58681297302246,1,horizontal,horizontal,1,2,red,1,NaN,NaN,NaN,NaN,NaN,NaN,NaN,NaN,NaN,NaN,NaN,NaN,NaN,4,6,0,3,horizontal,vertical,horizontal,vertical
2b,12,100358,1,4,4,20,F,NA,constant,heterogeneous,4,present,1.49865102767944,1,vertical,vertical,1,3,red,4,2,NaN,NaN,NaN,NaN,NaN,NaN,NaN,NaN,NaN,NaN,NaN,NaN,0,5,6,4,horizontal,vertical,vertical,vertical
2b,12,100358,1,5,5,20,F,NA,constant,heterogeneous,4,absent,1.12089109420776,1,vertical,vertical,1,3,red,4,NaN,NaN,NaN,NaN,NaN,NaN,NaN,NaN,NaN,NaN,NaN,NaN,NaN,6,0,3,4,horizontal,horizontal,vertical,vertical
2b,12,100358,1,6,6,20,F,NA,constant,heterogeneous,4,present,1.41571617126465,1,vertical,vertical,1,2,red,2,4,NaN,NaN,NaN,NaN,NaN,NaN,NaN,NaN,NaN,NaN,NaN,NaN,3,4,6,0,horizontal,vertical,vertical,horizontal
2b,12,100358,1,7,7,20,F,NA,constant,heterogeneous,4,absent,1.54398989677429,1,horizontal,horizontal,1,2,red,4,NaN,NaN,NaN,NaN,NaN,NaN,NaN,NaN,NaN,NaN,NaN,NaN,NaN,3,0,5,4,vertical,horizontal,vertical,horizontal
2b,12,100358,1,8,8,20,F,NA,constant,heterogeneous,4,absent,1.2712550163269,0,vertical,horizontal,1,2,red,3,NaN,NaN,NaN,NaN,NaN,NaN,NaN,NaN,NaN,NaN,NaN,NaN,NaN,3,6,4,5,horizontal,horizontal,vertical,vertical
2b,12,100358,1,9,9,20,F,NA,constant,heterogeneous,4,present,1.35697317123413,1,vertical,vertical,1,3,red,3,1,NaN,NaN,NaN,NaN,NaN,NaN,NaN,NaN,NaN,NaN,NaN,NaN,3,6,4,0,vertical,horizontal,vertical,vertical
2b,12,100358,1,10,10,20,F,NA,constant,heterogeneous,4,absent,1.34427714347839,1,vertical,vertical,1,5,red,4,NaN,NaN,NaN,NaN,NaN,NaN,NaN,NaN,NaN,NaN,NaN,NaN,NaN,3,0,6,4,vertical,horizontal,horizontal,vertical
2b,12,100358,1,11,11,20,F,NA,constant,heterogeneous,4,present,0.69554591178894,1,vertical,vertical,1,2,red,2,3,NaN,NaN,NaN,NaN,NaN,NaN,NaN,NaN,NaN,NaN,NaN,NaN,0,4,3,5,vertical,vertical,vertical,horizontal
2b,12,100358,1,12,12,20,F,NA,constant,heterogeneous,4,present,0.765668869018555,1,horizontal,horizontal,1,3,red,2,4,NaN,NaN,NaN,NaN,NaN,NaN,NaN,NaN,NaN,NaN,NaN,NaN,6,4,5,0,horizontal,horizontal,horizontal,horizontal
2b,12,100358,1,13,13,20,F,NA,constant,heterogeneous,4,absent,1.43760919570923,1,vertical,vertical,1,5,red,4,NaN,NaN,NaN,NaN,NaN,NaN,NaN,NaN,NaN,NaN,NaN,NaN,NaN,5,0,6,4,vertical,horizontal,vertical,vertical
2b,12,100358,1,14,14,20,F,NA,constant,heterogeneous,4,absent,1.25446796417236,1,vertical,vertical,1,2,red,3,NaN,NaN,NaN,NaN,NaN,NaN,NaN,NaN,NaN,NaN,NaN,NaN,NaN,6,0,4,3,vertical,vertical,vertical,vertical
2b,12,100358,1,15,15,20,F,NA,constant,heterogeneous,4,absent,1.09178614616394,1,horizontal,horizontal,1,3,red,4,NaN,NaN,NaN,NaN,NaN,NaN,NaN,NaN,NaN,NaN,NaN,NaN,NaN,3,5,0,4,vertical,vertical,horizontal,horizontal
2b,12,100358,1,16,16,20,F,NA,constant,heterogeneous,4,present,1.43786001205444,1,horizontal,horizontal,1,2,red,2,1,NaN,NaN,NaN,NaN,NaN,NaN,NaN,NaN,NaN,NaN,NaN,NaN,0,4,5,6,vertical,horizontal,vertical,vertical
2b,12,100358,1,17,17,20,F,NA,constant,heterogeneous,4,absent,1.13472509384155,1,horizontal,horizontal,1,3,red,3,NaN,NaN,NaN,NaN,NaN,NaN,NaN,NaN,NaN,NaN,NaN,NaN,NaN,3,5,4,6,vertical,vertical,horizontal,horizontal
2b,12,100358,1,18,18,20,F,NA,constant,heterogeneous,4,present,1.60154795646667,1,horizontal,horizontal,1,5,red,4,1,NaN,NaN,NaN,NaN,NaN,NaN,NaN,NaN,NaN,NaN,NaN,NaN,6,3,5,4,vertical,horizontal,vertical,horizontal
2b,12,100358,1,19,19,20,F,NA,constant,heterogeneous,4,absent,1.30192303657532,1,horizontal,horizontal,1,8,red,1,NaN,NaN,NaN,NaN,NaN,NaN,NaN,NaN,NaN,NaN,NaN,NaN,NaN,4,5,3,0,horizontal,vertical,vertical,vertical
2b,12,100358,1,20,20,20,F,NA,constant,heterogeneous,4,absent,0.95641303062439,1,vertical,vertical,1,2,red,2,NaN,NaN,NaN,NaN,NaN,NaN,NaN,NaN,NaN,NaN,NaN,NaN,NaN,3,4,6,0,vertical,vertical,vertical,horizontal
2b,12,100358,1,21,21,20,F,NA,constant,heterogeneous,4,present,0.984164953231812,1,vertical,vertical,1,8,red,2,1,NaN,NaN,NaN,NaN,NaN,NaN,NaN,NaN,NaN,NaN,NaN,NaN,5,4,0,3,vertical,vertical,horizontal,vertical
2b,12,100358,1,22,22,20,F,NA,constant,heterogeneous,4,present,1.01981115341187,1,horizontal,horizontal,1,2,red,1,3,NaN,NaN,NaN,NaN,NaN,NaN,NaN,NaN,NaN,NaN,NaN,NaN,4,0,6,5,horizontal,vertical,horizontal,vertical
2b,12,100358,1,23,23,20,F,NA,constant,heterogeneous,4,absent,1.10032796859741,1,vertical,vertical,1,8,red,3,NaN,NaN,NaN,NaN,NaN,NaN,NaN,NaN,NaN,NaN,NaN,NaN,NaN,5,0,4,6,horizontal,horizontal,vertical,horizontal
2b,12,100358,1,24,24,20,F,NA,constant,heterogeneous,4,absent,0.882333040237427,1,horizontal,horizontal,1,5,red,3,NaN,NaN,NaN,NaN,NaN,NaN,NaN,NaN,NaN,NaN,NaN,NaN,NaN,0,5,4,3,vertical,vertical,horizontal,horizontal
2b,12,100358,1,25,25,20,F,NA,constant,heterogeneous,4,present,0.78886890411377,1,horizontal,horizontal,1,8,red,1,4,NaN,NaN,NaN,NaN,NaN,NaN,NaN,NaN,NaN,NaN,NaN,NaN,4,0,6,3,horizontal,vertical,horizontal,horizontal
2b,12,100358,1,26,26,20,F,NA,constant,heterogeneous,4,present,1.38894605636597,1,horizontal,horizontal,1,3,red,2,4,NaN,NaN,NaN,NaN,NaN,NaN,NaN,NaN,NaN,NaN,NaN,NaN,6,4,5,0,horizontal,horizontal,horizontal,vertical
2b,12,100358,1,27,27,20,F,NA,constant,heterogeneous,4,present,1.27691793441772,1,vertical,vertical,1,5,red,2,3,NaN,NaN,NaN,NaN,NaN,NaN,NaN,NaN,NaN,NaN,NaN,NaN,3,4,6,0,horizontal,vertical,horizontal,vertical
2b,12,100358,1,28,28,20,F,NA,constant,heterogeneous,4,absent,1.1307418346405,1,horizontal,horizontal,1,2,red,2,NaN,NaN,NaN,NaN,NaN,NaN,NaN,NaN,NaN,NaN,NaN,NaN,NaN,0,4,6,5,vertical,horizontal,vertical,horizontal
2b,12,100358,1,29,29,20,F,NA,constant,heterogeneous,4,absent,0.957862854003906,1,horizontal,horizontal,1,5,red,3,NaN,NaN,NaN,NaN,NaN,NaN,NaN,NaN,NaN,NaN,NaN,NaN,NaN,3,0,4,5,vertical,vertical,horizontal,horizontal
2b,12,100358,1,30,30,20,F,NA,constant,heterogeneous,4,present,0.753083944320679,1,horizontal,horizontal,1,5,red,3,4,NaN,NaN,NaN,NaN,NaN,NaN,NaN,NaN,NaN,NaN,NaN,NaN,0,3,4,5,vertical,vertical,horizontal,vertical
2b,12,100358,1,31,31,20,F,NA,constant,heterogeneous,4,present,0.868823051452637,1,horizontal,horizontal,1,2,red,4,2,NaN,NaN,NaN,NaN,NaN,NaN,NaN,NaN,NaN,NaN,NaN,NaN,0,6,5,4,horizontal,horizontal,horizontal,horizontal
2b,12,100358,1,32,32,20,F,NA,constant,heterogeneous,4,present,0.806066036224365,1,vertical,vertical,1,5,red,1,2,NaN,NaN,NaN,NaN,NaN,NaN,NaN,NaN,NaN,NaN,NaN,NaN,4,0,3,5,vertical,vertical,vertical,horizontal
2b,12,100358,2,1,33,20,F,NA,constant,heterogeneous,4,present,1.08373117446899,1,vertical,vertical,1,2,red,3,2,NaN,NaN,NaN,NaN,NaN,NaN,NaN,NaN,NaN,NaN,NaN,NaN,0,3,4,6,horizontal,vertical,vertical,vertical
2b,12,100358,2,2,34,20,F,NA,constant,heterogeneous,4,absent,1.17385697364807,1,horizontal,horizontal,1,2,red,4,NaN,NaN,NaN,NaN,NaN,NaN,NaN,NaN,NaN,NaN,NaN,NaN,NaN,0,6,5,4,vertical,vertical,vertical,horizontal
2b,12,100358,2,3,35,20,F,NA,constant,heterogeneous,4,absent,1.4211208820343,1,horizontal,horizontal,1,2,red,2,NaN,NaN,NaN,NaN,NaN,NaN,NaN,NaN,NaN,NaN,NaN,NaN,NaN,5,4,0,6,vertical,horizontal,vertical,horizontal
2b,12,100358,2,4,36,20,F,NA,constant,heterogeneous,4,absent,1.36594915390015,1,vertical,vertical,1,5,red,4,NaN,NaN,NaN,NaN,NaN,NaN,NaN,NaN,NaN,NaN,NaN,NaN,NaN,0,5,6,4,horizontal,horizontal,horizontal,vertical
2b,12,100358,2,5,37,20,F,NA,constant,heterogeneous,4,present,1.02136707305908,1,vertical,vertical,1,5,red,1,4,NaN,NaN,NaN,NaN,NaN,NaN,NaN,NaN,NaN,NaN,NaN,NaN,4,3,5,6,vertical,vertical,vertical,vertical
2b,12,100358,2,6,38,20,F,NA,constant,heterogeneous,4,present,0.814049959182739,1,vertical,vertical,1,2,red,1,3,NaN,NaN,NaN,NaN,NaN,NaN,NaN,NaN,NaN,NaN,NaN,NaN,4,5,0,6,vertical,vertical,horizontal,vertical
2b,12,100358,2,7,39,20,F,NA,constant,heterogeneous,4,present,0.798679113388062,1,vertical,vertical,1,5,red,2,4,NaN,NaN,NaN,NaN,NaN,NaN,NaN,NaN,NaN,NaN,NaN,NaN,0,4,3,6,vertical,vertical,horizontal,vertical
2b,12,100358,2,8,40,20,F,NA,constant,heterogeneous,4,absent,1.34726905822754,1,vertical,vertical,1,2,red,3,NaN,NaN,NaN,NaN,NaN,NaN,NaN,NaN,NaN,NaN,NaN,NaN,NaN,3,0,4,5,vertical,vertical,vertical,horizontal
2b,12,100358,2,9,41,20,F,NA,constant,heterogeneous,4,absent,0.770216941833496,1,horizontal,horizontal,1,5,red,1,NaN,NaN,NaN,NaN,NaN,NaN,NaN,NaN,NaN,NaN,NaN,NaN,NaN,4,6,0,3,horizontal,vertical,horizontal,horizontal
2b,12,100358,2,10,42,20,F,NA,constant,heterogeneous,4,present,1.13006901741028,1,horizontal,horizontal,1,8,red,2,4,NaN,NaN,NaN,NaN,NaN,NaN,NaN,NaN,NaN,NaN,NaN,NaN,6,4,3,5,vertical,horizontal,vertical,vertical
2b,12,100358,2,11,43,20,F,NA,constant,heterogeneous,4,present,0.756906032562256,0,vertical,horizontal,1,8,red,1,3,NaN,NaN,NaN,NaN,NaN,NaN,NaN,NaN,NaN,NaN,NaN,NaN,4,3,0,6,vertical,vertical,horizontal,horizontal
2b,12,100358,2,12,44,20,F,NA,constant,heterogeneous,4,absent,0.864505052566528,0,vertical,horizontal,1,3,red,4,NaN,NaN,NaN,NaN,NaN,NaN,NaN,NaN,NaN,NaN,NaN,NaN,NaN,6,0,5,4,vertical,vertical,horizontal,vertical
2b,12,100358,2,13,45,20,F,NA,constant,heterogeneous,4,present,1.40964508056641,1,vertical,vertical,1,3,red,2,3,NaN,NaN,NaN,NaN,NaN,NaN,NaN,NaN,NaN,NaN,NaN,NaN,3,4,5,6,vertical,vertical,vertical,vertical
2b,12,100358,2,14,46,20,F,NA,constant,heterogeneous,4,absent,1.422208070755,1,vertical,vertical,1,2,red,4,NaN,NaN,NaN,NaN,NaN,NaN,NaN,NaN,NaN,NaN,NaN,NaN,NaN,6,3,5,4,horizontal,vertical,horizontal,vertical
2b,12,100358,2,15,47,20,F,NA,constant,heterogeneous,4,absent,0.947087049484253,1,vertical,vertical,1,8,red,4,NaN,NaN,NaN,NaN,NaN,NaN,NaN,NaN,NaN,NaN,NaN,NaN,NaN,3,6,0,4,horizontal,vertical,horizontal,vertical
2b,12,100358,2,16,48,20,F,NA,constant,heterogeneous,4,present,0.970461130142212,1,horizontal,horizontal,1,2,red,3,4,NaN,NaN,NaN,NaN,NaN,NaN,NaN,NaN,NaN,NaN,NaN,NaN,6,0,4,5,vertical,horizontal,horizontal,vertical
2b,12,100358,2,17,49,20,F,NA,constant,heterogeneous,4,present,0.818063974380493,1,vertical,vertical,1,3,red,1,3,NaN,NaN,NaN,NaN,NaN,NaN,NaN,NaN,NaN,NaN,NaN,NaN,4,5,3,0,vertical,vertical,horizontal,vertical
2b,12,100358,2,18,50,20,F,NA,constant,heterogeneous,4,present,1.01069092750549,1,horizontal,horizontal,1,3,red,2,4,NaN,NaN,NaN,NaN,NaN,NaN,NaN,NaN,NaN,NaN,NaN,NaN,6,4,5,3,vertical,horizontal,vertical,horizontal
2b,12,100358,2,19,51,20,F,NA,constant,heterogeneous,4,absent,0.835264921188354,1,horizontal,horizontal,1,8,red,3,NaN,NaN,NaN,NaN,NaN,NaN,NaN,NaN,NaN,NaN,NaN,NaN,NaN,3,6,4,0,vertical,horizontal,horizontal,horizontal
2b,12,100358,2,20,52,20,F,NA,constant,heterogeneous,4,present,1.57234811782837,1,vertical,vertical,1,2,red,4,3,NaN,NaN,NaN,NaN,NaN,NaN,NaN,NaN,NaN,NaN,NaN,NaN,6,5,3,4,horizontal,horizontal,vertical,vertical
2b,12,100358,2,21,53,20,F,NA,constant,heterogeneous,4,present,0.812019824981689,1,horizontal,horizontal,1,2,red,3,4,NaN,NaN,NaN,NaN,NaN,NaN,NaN,NaN,NaN,NaN,NaN,NaN,6,5,4,0,vertical,horizontal,horizontal,vertical
2b,12,100358,2,22,54,20,F,NA,constant,heterogeneous,4,present,1.02077221870422,1,horizontal,horizontal,1,5,red,2,4,NaN,NaN,NaN,NaN,NaN,NaN,NaN,NaN,NaN,NaN,NaN,NaN,6,4,0,5,vertical,horizontal,vertical,horizontal
2b,12,100358,2,23,55,20,F,NA,constant,heterogeneous,4,present,1.02893400192261,1,horizontal,horizontal,1,5,red,1,2,NaN,NaN,NaN,NaN,NaN,NaN,NaN,NaN,NaN,NaN,NaN,NaN,4,5,0,3,horizontal,vertical,vertical,vertical
2b,12,100358,2,24,56,20,F,NA,constant,heterogeneous,4,absent,1.36169600486755,1,vertical,vertical,1,3,red,2,NaN,NaN,NaN,NaN,NaN,NaN,NaN,NaN,NaN,NaN,NaN,NaN,NaN,5,4,6,3,horizontal,vertical,horizontal,vertical
2b,12,100358,2,25,57,20,F,NA,constant,heterogeneous,4,absent,1.14137411117554,1,vertical,vertical,1,5,red,2,NaN,NaN,NaN,NaN,NaN,NaN,NaN,NaN,NaN,NaN,NaN,NaN,NaN,0,4,5,6,vertical,vertical,vertical,horizontal
2b,12,100358,2,26,58,20,F,NA,constant,heterogeneous,4,absent,0.820537090301514,1,horizontal,horizontal,1,2,red,1,NaN,NaN,NaN,NaN,NaN,NaN,NaN,NaN,NaN,NaN,NaN,NaN,NaN,4,5,6,3,horizontal,horizontal,vertical,horizontal
2b,12,100358,2,27,59,20,F,NA,constant,heterogeneous,4,absent,0.709378004074097,1,horizontal,horizontal,1,3,red,1,NaN,NaN,NaN,NaN,NaN,NaN,NaN,NaN,NaN,NaN,NaN,NaN,NaN,4,3,0,6,horizontal,vertical,horizontal,vertical
2b,12,100358,2,28,60,20,F,NA,constant,heterogeneous,4,present,0.799564123153687,1,horizontal,horizontal,1,3,red,1,3,NaN,NaN,NaN,NaN,NaN,NaN,NaN,NaN,NaN,NaN,NaN,NaN,4,6,3,0,horizontal,horizontal,horizontal,horizontal
2b,12,100358,2,29,61,20,F,NA,constant,heterogeneous,4,present,0.755805969238281,1,horizontal,horizontal,1,2,red,4,3,NaN,NaN,NaN,NaN,NaN,NaN,NaN,NaN,NaN,NaN,NaN,NaN,5,3,6,4,vertical,horizontal,horizontal,horizontal
2b,12,100358,2,30,62,20,F,NA,constant,heterogeneous,4,absent,0.879235029220581,1,horizontal,horizontal,1,5,red,3,NaN,NaN,NaN,NaN,NaN,NaN,NaN,NaN,NaN,NaN,NaN,NaN,NaN,3,6,4,0,vertical,vertical,horizontal,horizontal
2b,12,100358,2,31,63,20,F,NA,constant,heterogeneous,4,absent,0.989025115966797,1,vertical,vertical,1,2,red,4,NaN,NaN,NaN,NaN,NaN,NaN,NaN,NaN,NaN,NaN,NaN,NaN,NaN,3,0,6,4,vertical,vertical,vertical,vertical
2b,12,100358,2,32,64,20,F,NA,constant,heterogeneous,4,absent,0.956915140151978,1,horizontal,horizontal,1,3,red,4,NaN,NaN,NaN,NaN,NaN,NaN,NaN,NaN,NaN,NaN,NaN,NaN,NaN,5,6,3,4,vertical,vertical,vertical,horizontal
2b,12,100358,3,1,65,20,F,NA,constant,heterogeneous,4,absent,0.946866989135742,1,vertical,vertical,1,2,red,4,NaN,NaN,NaN,NaN,NaN,NaN,NaN,NaN,NaN,NaN,NaN,NaN,NaN,0,6,5,4,vertical,vertical,vertical,vertical
2b,12,100358,3,2,66,20,F,NA,constant,heterogeneous,4,present,0.96204400062561,1,horizontal,horizontal,1,3,red,4,1,NaN,NaN,NaN,NaN,NaN,NaN,NaN,NaN,NaN,NaN,NaN,NaN,6,0,5,4,vertical,vertical,vertical,horizontal
2b,12,100358,3,3,67,20,F,NA,constant,heterogeneous,4,absent,1.1492600440979,1,horizontal,horizontal,1,2,red,1,NaN,NaN,NaN,NaN,NaN,NaN,NaN,NaN,NaN,NaN,NaN,NaN,NaN,4,5,3,6,horizontal,vertical,horizontal,vertical
2b,12,100358,3,4,68,20,F,NA,constant,heterogeneous,4,absent,1.20425200462341,1,vertical,vertical,1,5,red,4,NaN,NaN,NaN,NaN,NaN,NaN,NaN,NaN,NaN,NaN,NaN,NaN,NaN,3,0,6,4,horizontal,vertical,horizontal,vertical
2b,12,100358,3,5,69,20,F,NA,constant,heterogeneous,4,present,1.27297210693359,1,vertical,vertical,1,2,red,3,1,NaN,NaN,NaN,NaN,NaN,NaN,NaN,NaN,NaN,NaN,NaN,NaN,0,6,4,5,vertical,horizontal,vertical,horizontal
2b,12,100358,3,6,70,20,F,NA,constant,heterogeneous,4,absent,0.998836994171143,1,horizontal,horizontal,1,8,red,1,NaN,NaN,NaN,NaN,NaN,NaN,NaN,NaN,NaN,NaN,NaN,NaN,NaN,4,0,5,3,horizontal,vertical,vertical,vertical
2b,12,100358,3,7,71,20,F,NA,constant,heterogeneous,4,absent,0.954916000366211,1,vertical,vertical,1,3,red,4,NaN,NaN,NaN,NaN,NaN,NaN,NaN,NaN,NaN,NaN,NaN,NaN,NaN,5,6,3,4,horizontal,horizontal,vertical,vertical
2b,12,100358,3,8,72,20,F,NA,constant,heterogeneous,4,present,0.710360050201416,1,horizontal,horizontal,1,2,red,4,3,NaN,NaN,NaN,NaN,NaN,NaN,NaN,NaN,NaN,NaN,NaN,NaN,0,3,6,4,vertical,horizontal,vertical,horizontal
2b,12,100358,3,9,73,20,F,NA,constant,heterogeneous,4,present,0.928754091262817,1,horizontal,horizontal,1,5,red,3,2,NaN,NaN,NaN,NaN,NaN,NaN,NaN,NaN,NaN,NaN,NaN,NaN,5,3,4,6,vertical,vertical,horizontal,horizontal
2b,12,100358,3,10,74,20,F,NA,constant,heterogeneous,4,absent,0.923921823501587,1,horizontal,horizontal,1,5,red,4,NaN,NaN,NaN,NaN,NaN,NaN,NaN,NaN,NaN,NaN,NaN,NaN,NaN,6,3,5,4,vertical,horizontal,horizontal,horizontal
2b,12,100358,3,11,75,20,F,NA,constant,heterogeneous,4,present,0.962697982788086,1,vertical,vertical,1,5,red,3,4,NaN,NaN,NaN,NaN,NaN,NaN,NaN,NaN,NaN,NaN,NaN,NaN,6,5,4,3,horizontal,horizontal,vertical,horizontal
2b,12,100358,3,12,76,20,F,NA,constant,heterogeneous,4,present,0.845838069915771,1,vertical,vertical,1,2,red,3,4,NaN,NaN,NaN,NaN,NaN,NaN,NaN,NaN,NaN,NaN,NaN,NaN,3,0,4,6,horizontal,horizontal,vertical,vertical
2b,12,100358,3,13,77,20,F,NA,constant,heterogeneous,4,absent,0.779159069061279,1,horizontal,horizontal,1,3,red,3,NaN,NaN,NaN,NaN,NaN,NaN,NaN,NaN,NaN,NaN,NaN,NaN,NaN,0,3,4,5,vertical,vertical,horizontal,vertical
2b,12,100358,3,14,78,20,F,NA,constant,heterogeneous,4,present,0.831157922744751,1,horizontal,horizontal,1,5,red,4,1,NaN,NaN,NaN,NaN,NaN,NaN,NaN,NaN,NaN,NaN,NaN,NaN,3,6,5,4,horizontal,horizontal,horizontal,horizontal
2b,12,100358,3,15,79,20,F,NA,constant,heterogeneous,4,present,1.700119972229,1,horizontal,horizontal,1,3,red,1,4,NaN,NaN,NaN,NaN,NaN,NaN,NaN,NaN,NaN,NaN,NaN,NaN,4,3,5,6,horizontal,vertical,vertical,vertical
2b,12,100358,3,16,80,20,F,NA,constant,heterogeneous,4,absent,0.825900077819824,1,vertical,vertical,1,2,red,4,NaN,NaN,NaN,NaN,NaN,NaN,NaN,NaN,NaN,NaN,NaN,NaN,NaN,5,0,6,4,vertical,vertical,horizontal,vertical
2b,12,100358,3,17,81,20,F,NA,constant,heterogeneous,4,absent,0.798959016799927,1,vertical,vertical,1,5,red,1,NaN,NaN,NaN,NaN,NaN,NaN,NaN,NaN,NaN,NaN,NaN,NaN,NaN,4,6,3,5,vertical,vertical,vertical,vertical
2b,12,100358,3,18,82,20,F,NA,constant,heterogeneous,4,absent,1.6752290725708,1,horizontal,horizontal,1,3,red,2,NaN,NaN,NaN,NaN,NaN,NaN,NaN,NaN,NaN,NaN,NaN,NaN,NaN,5,4,6,0,vertical,horizontal,horizontal,vertical
2b,12,100358,3,19,83,20,F,NA,constant,heterogeneous,4,absent,1.09702396392822,1,horizontal,horizontal,1,2,red,1,NaN,NaN,NaN,NaN,NaN,NaN,NaN,NaN,NaN,NaN,NaN,NaN,NaN,4,5,0,6,horizontal,vertical,vertical,horizontal
2b,12,100358,3,20,84,20,F,NA,constant,heterogeneous,4,present,0.679396867752075,1,horizontal,horizontal,1,2,red,3,1,NaN,NaN,NaN,NaN,NaN,NaN,NaN,NaN,NaN,NaN,NaN,NaN,0,5,4,3,horizontal,horizontal,horizontal,horizontal
2b,12,100358,3,21,85,20,F,NA,constant,heterogeneous,4,present,0.804770946502686,0,vertical,horizontal,1,3,red,3,4,NaN,NaN,NaN,NaN,NaN,NaN,NaN,NaN,NaN,NaN,NaN,NaN,0,5,4,3,horizontal,vertical,vertical,horizontal
2b,12,100358,3,22,86,20,F,NA,constant,heterogeneous,4,present,0.873253107070923,1,horizontal,horizontal,1,2,red,1,2,NaN,NaN,NaN,NaN,NaN,NaN,NaN,NaN,NaN,NaN,NaN,NaN,4,5,3,0,horizontal,horizontal,horizontal,horizontal
2b,12,100358,3,23,87,20,F,NA,constant,heterogeneous,4,absent,0.99098801612854,1,horizontal,horizontal,1,5,red,2,NaN,NaN,NaN,NaN,NaN,NaN,NaN,NaN,NaN,NaN,NaN,NaN,NaN,0,4,6,3,horizontal,horizontal,horizontal,vertical
2b,12,100358,3,24,88,20,F,NA,constant,heterogeneous,4,absent,1.3033459186554,1,vertical,vertical,1,8,red,3,NaN,NaN,NaN,NaN,NaN,NaN,NaN,NaN,NaN,NaN,NaN,NaN,NaN,5,6,4,0,vertical,horizontal,vertical,horizontal
2b,12,100358,3,25,89,20,F,NA,constant,heterogeneous,4,absent,1.22935318946838,1,vertical,vertical,1,2,red,1,NaN,NaN,NaN,NaN,NaN,NaN,NaN,NaN,NaN,NaN,NaN,NaN,NaN,4,5,3,6,vertical,vertical,vertical,vertical
2b,12,100358,3,26,90,20,F,NA,constant,heterogeneous,4,present,0.826432943344116,1,horizontal,horizontal,1,8,red,2,1,NaN,NaN,NaN,NaN,NaN,NaN,NaN,NaN,NaN,NaN,NaN,NaN,6,4,0,5,horizontal,horizontal,horizontal,horizontal
2b,12,100358,3,27,91,20,F,NA,constant,heterogeneous,4,absent,0.70299506187439,0,vertical,horizontal,1,3,red,2,NaN,NaN,NaN,NaN,NaN,NaN,NaN,NaN,NaN,NaN,NaN,NaN,NaN,6,4,3,5,vertical,vertical,horizontal,horizontal
2b,12,100358,3,28,92,20,F,NA,constant,heterogeneous,4,present,0.981338024139404,1,vertical,vertical,1,5,red,4,2,NaN,NaN,NaN,NaN,NaN,NaN,NaN,NaN,NaN,NaN,NaN,NaN,0,6,5,4,vertical,vertical,horizontal,vertical
2b,12,100358,3,29,93,20,F,NA,constant,heterogeneous,4,present,0.889389038085938,1,vertical,vertical,1,8,red,1,2,NaN,NaN,NaN,NaN,NaN,NaN,NaN,NaN,NaN,NaN,NaN,NaN,4,6,0,3,vertical,vertical,horizontal,horizontal
2b,12,100358,3,30,94,20,F,NA,constant,heterogeneous,4,present,1.13948082923889,0,vertical,horizontal,1,3,red,4,2,NaN,NaN,NaN,NaN,NaN,NaN,NaN,NaN,NaN,NaN,NaN,NaN,5,6,3,4,horizontal,vertical,horizontal,vertical
2b,12,100358,3,31,95,20,F,NA,constant,heterogeneous,4,present,1.24638199806213,1,vertical,vertical,1,2,red,2,1,NaN,NaN,NaN,NaN,NaN,NaN,NaN,NaN,NaN,NaN,NaN,NaN,0,4,3,6,vertical,vertical,vertical,horizontal
2b,12,100358,3,32,96,20,F,NA,constant,heterogeneous,4,absent,1.04349184036255,1,horizontal,horizontal,1,2,red,2,NaN,NaN,NaN,NaN,NaN,NaN,NaN,NaN,NaN,NaN,NaN,NaN,NaN,0,4,3,6,horizontal,horizontal,horizontal,vertical
2b,12,100358,4,1,97,20,F,NA,constant,heterogeneous,4,absent,0.880274057388306,1,vertical,vertical,1,3,red,3,NaN,NaN,NaN,NaN,NaN,NaN,NaN,NaN,NaN,NaN,NaN,NaN,NaN,0,5,4,6,vertical,vertical,vertical,vertical
2b,12,100358,4,2,98,20,F,NA,constant,heterogeneous,4,present,1.04601001739502,1,vertical,vertical,1,5,red,1,4,NaN,NaN,NaN,NaN,NaN,NaN,NaN,NaN,NaN,NaN,NaN,NaN,4,0,3,5,vertical,horizontal,vertical,horizontal
2b,12,100358,4,3,99,20,F,NA,constant,heterogeneous,4,present,0.851531028747559,1,vertical,vertical,1,2,red,2,3,NaN,NaN,NaN,NaN,NaN,NaN,NaN,NaN,NaN,NaN,NaN,NaN,6,4,0,5,vertical,vertical,horizontal,horizontal
2b,12,100358,4,4,100,20,F,NA,constant,heterogeneous,4,absent,0.960410118103027,1,horizontal,horizontal,1,3,red,4,NaN,NaN,NaN,NaN,NaN,NaN,NaN,NaN,NaN,NaN,NaN,NaN,NaN,6,5,3,4,vertical,horizontal,vertical,horizontal
2b,12,100358,4,5,101,20,F,NA,constant,heterogeneous,4,present,0.667953014373779,1,vertical,vertical,1,2,red,2,4,NaN,NaN,NaN,NaN,NaN,NaN,NaN,NaN,NaN,NaN,NaN,NaN,5,4,3,6,vertical,vertical,vertical,vertical
2b,12,100358,4,6,102,20,F,NA,constant,heterogeneous,4,absent,0.973613977432251,1,vertical,vertical,1,8,red,4,NaN,NaN,NaN,NaN,NaN,NaN,NaN,NaN,NaN,NaN,NaN,NaN,NaN,0,5,3,4,vertical,vertical,vertical,vertical
2b,12,100358,4,7,103,20,F,NA,constant,heterogeneous,4,present,0.909538984298706,1,horizontal,horizontal,1,8,red,1,3,NaN,NaN,NaN,NaN,NaN,NaN,NaN,NaN,NaN,NaN,NaN,NaN,4,0,3,5,horizontal,vertical,horizontal,vertical
2b,12,100358,4,8,104,20,F,NA,constant,heterogeneous,4,present,0.767843961715698,1,horizontal,horizontal,1,5,red,1,4,NaN,NaN,NaN,NaN,NaN,NaN,NaN,NaN,NaN,NaN,NaN,NaN,4,3,0,5,horizontal,horizontal,vertical,horizontal
2b,12,100358,4,9,105,20,F,NA,constant,heterogeneous,4,absent,0.663317203521729,1,horizontal,horizontal,1,2,red,1,NaN,NaN,NaN,NaN,NaN,NaN,NaN,NaN,NaN,NaN,NaN,NaN,NaN,4,6,0,5,horizontal,horizontal,vertical,vertical
2b,12,100358,4,10,106,20,F,NA,constant,heterogeneous,4,absent,0.809085845947266,1,horizontal,horizontal,1,2,red,3,NaN,NaN,NaN,NaN,NaN,NaN,NaN,NaN,NaN,NaN,NaN,NaN,NaN,3,5,4,6,horizontal,horizontal,horizontal,vertical
2b,12,100358,4,11,107,20,F,NA,constant,heterogeneous,4,absent,0.733418941497803,1,vertical,vertical,1,2,red,3,NaN,NaN,NaN,NaN,NaN,NaN,NaN,NaN,NaN,NaN,NaN,NaN,NaN,3,6,4,5,horizontal,vertical,vertical,horizontal
2b,12,100358,4,12,108,20,F,NA,constant,heterogeneous,4,absent,0.768288850784302,1,vertical,vertical,1,5,red,1,NaN,NaN,NaN,NaN,NaN,NaN,NaN,NaN,NaN,NaN,NaN,NaN,NaN,4,6,5,0,vertical,vertical,vertical,vertical
2b,12,100358,4,13,109,20,F,NA,constant,heterogeneous,4,present,0.736114978790283,1,horizontal,horizontal,1,5,red,2,3,NaN,NaN,NaN,NaN,NaN,NaN,NaN,NaN,NaN,NaN,NaN,NaN,0,4,6,5,horizontal,horizontal,horizontal,horizontal
2b,12,100358,4,14,110,20,F,NA,constant,heterogeneous,4,absent,0.874943971633911,1,horizontal,horizontal,1,8,red,1,NaN,NaN,NaN,NaN,NaN,NaN,NaN,NaN,NaN,NaN,NaN,NaN,NaN,4,5,3,6,horizontal,vertical,horizontal,horizontal
2b,12,100358,4,15,111,20,F,NA,constant,heterogeneous,4,present,1.04853701591492,1,horizontal,horizontal,1,2,red,2,1,NaN,NaN,NaN,NaN,NaN,NaN,NaN,NaN,NaN,NaN,NaN,NaN,3,4,6,0,vertical,horizontal,vertical,horizontal
2b,12,100358,4,16,112,20,F,NA,constant,heterogeneous,4,absent,1.20586609840393,1,vertical,vertical,1,2,red,4,NaN,NaN,NaN,NaN,NaN,NaN,NaN,NaN,NaN,NaN,NaN,NaN,NaN,0,5,3,4,vertical,vertical,horizontal,vertical
2b,12,100358,4,17,113,20,F,NA,constant,heterogeneous,4,present,1.05799078941345,0,vertical,horizontal,1,5,red,2,3,NaN,NaN,NaN,NaN,NaN,NaN,NaN,NaN,NaN,NaN,NaN,NaN,5,4,3,0,horizontal,vertical,vertical,horizontal
2b,12,100358,4,18,114,20,F,NA,constant,heterogeneous,4,absent,1.24368500709534,1,vertical,vertical,1,5,red,2,NaN,NaN,NaN,NaN,NaN,NaN,NaN,NaN,NaN,NaN,NaN,NaN,NaN,6,4,0,5,horizontal,vertical,horizontal,horizontal
2b,12,100358,4,19,115,20,F,NA,constant,heterogeneous,4,absent,1.70078992843628,1,horizontal,horizontal,1,5,red,1,NaN,NaN,NaN,NaN,NaN,NaN,NaN,NaN,NaN,NaN,NaN,NaN,NaN,4,3,6,5,horizontal,horizontal,horizontal,horizontal
2b,12,100358,4,20,116,20,F,NA,constant,heterogeneous,4,present,0.731173992156982,1,horizontal,horizontal,1,2,red,1,4,NaN,NaN,NaN,NaN,NaN,NaN,NaN,NaN,NaN,NaN,NaN,NaN,4,0,6,3,horizontal,horizontal,horizontal,vertical
2b,12,100358,4,21,117,20,F,NA,constant,heterogeneous,4,present,0.702164888381958,1,horizontal,horizontal,1,3,red,4,1,NaN,NaN,NaN,NaN,NaN,NaN,NaN,NaN,NaN,NaN,NaN,NaN,0,3,6,4,vertical,vertical,horizontal,horizontal
2b,12,100358,4,22,118,20,F,NA,constant,heterogeneous,4,absent,1.86050605773926,1,horizontal,horizontal,1,5,red,1,NaN,NaN,NaN,NaN,NaN,NaN,NaN,NaN,NaN,NaN,NaN,NaN,NaN,4,0,5,3,horizontal,vertical,vertical,horizontal
2b,12,100358,4,23,119,20,F,NA,constant,heterogeneous,4,absent,1.78975200653076,1,horizontal,horizontal,1,3,red,3,NaN,NaN,NaN,NaN,NaN,NaN,NaN,NaN,NaN,NaN,NaN,NaN,NaN,6,0,4,5,horizontal,horizontal,horizontal,horizontal
2b,12,100358,4,24,120,20,F,NA,constant,heterogeneous,4,absent,1.28589296340942,1,vertical,vertical,1,2,red,1,NaN,NaN,NaN,NaN,NaN,NaN,NaN,NaN,NaN,NaN,NaN,NaN,NaN,4,3,5,0,vertical,vertical,vertical,horizontal
2b,12,100358,4,25,121,20,F,NA,constant,heterogeneous,4,present,0.95184588432312,1,vertical,vertical,1,8,red,4,3,NaN,NaN,NaN,NaN,NaN,NaN,NaN,NaN,NaN,NaN,NaN,NaN,3,5,0,4,vertical,vertical,horizontal,vertical
2b,12,100358,4,26,122,20,F,NA,constant,heterogeneous,4,absent,0.835524082183838,1,horizontal,horizontal,1,2,red,1,NaN,NaN,NaN,NaN,NaN,NaN,NaN,NaN,NaN,NaN,NaN,NaN,NaN,4,6,3,5,horizontal,horizontal,horizontal,horizontal
2b,12,100358,4,27,123,20,F,NA,constant,heterogeneous,4,present,1.11651086807251,1,vertical,vertical,1,3,red,3,4,NaN,NaN,NaN,NaN,NaN,NaN,NaN,NaN,NaN,NaN,NaN,NaN,5,0,4,3,vertical,horizontal,vertical,vertical
2b,12,100358,4,28,124,20,F,NA,constant,heterogeneous,4,present,1.73108410835266,1,vertical,vertical,1,2,red,1,4,NaN,NaN,NaN,NaN,NaN,NaN,NaN,NaN,NaN,NaN,NaN,NaN,4,0,3,5,vertical,horizontal,horizontal,horizontal
2b,12,100358,4,29,125,20,F,NA,constant,heterogeneous,4,present,0.685940980911255,1,vertical,vertical,1,3,red,4,3,NaN,NaN,NaN,NaN,NaN,NaN,NaN,NaN,NaN,NaN,NaN,NaN,6,0,3,4,horizontal,vertical,vertical,vertical
2b,12,100358,4,30,126,20,F,NA,constant,heterogeneous,4,present,0.815803050994873,1,horizontal,horizontal,1,3,red,4,2,NaN,NaN,NaN,NaN,NaN,NaN,NaN,NaN,NaN,NaN,NaN,NaN,3,5,0,4,vertical,vertical,horizontal,horizontal
2b,12,100358,4,31,127,20,F,NA,constant,heterogeneous,4,absent,1.15262699127197,1,vertical,vertical,1,3,red,2,NaN,NaN,NaN,NaN,NaN,NaN,NaN,NaN,NaN,NaN,NaN,NaN,NaN,6,4,3,5,horizontal,vertical,vertical,horizontal
2b,12,100358,4,32,128,20,F,NA,constant,heterogeneous,4,present,0.820054054260254,1,horizontal,horizontal,1,2,red,3,2,NaN,NaN,NaN,NaN,NaN,NaN,NaN,NaN,NaN,NaN,NaN,NaN,0,3,4,5,vertical,vertical,horizontal,horizontal
2b,12,100358,5,1,129,20,F,NA,constant,heterogeneous,4,present,1.04410600662231,1,horizontal,horizontal,1,5,red,4,1,NaN,NaN,NaN,NaN,NaN,NaN,NaN,NaN,NaN,NaN,NaN,NaN,3,0,6,4,vertical,vertical,vertical,horizontal
2b,12,100358,5,2,130,20,F,NA,constant,heterogeneous,4,absent,1.13316702842712,1,horizontal,horizontal,1,2,red,2,NaN,NaN,NaN,NaN,NaN,NaN,NaN,NaN,NaN,NaN,NaN,NaN,NaN,3,4,5,6,horizontal,horizontal,horizontal,horizontal
2b,12,100358,5,3,131,20,F,NA,constant,heterogeneous,4,absent,1.03199911117554,1,horizontal,horizontal,1,2,red,3,NaN,NaN,NaN,NaN,NaN,NaN,NaN,NaN,NaN,NaN,NaN,NaN,NaN,3,0,4,6,horizontal,vertical,horizontal,vertical
2b,12,100358,5,4,132,20,F,NA,constant,heterogeneous,4,present,0.94861912727356,1,horizontal,horizontal,1,3,red,3,4,NaN,NaN,NaN,NaN,NaN,NaN,NaN,NaN,NaN,NaN,NaN,NaN,0,6,4,3,vertical,vertical,horizontal,horizontal
2b,12,100358,5,5,133,20,F,NA,constant,heterogeneous,4,absent,1.10789799690247,1,vertical,vertical,1,3,red,2,NaN,NaN,NaN,NaN,NaN,NaN,NaN,NaN,NaN,NaN,NaN,NaN,NaN,6,4,5,0,horizontal,vertical,horizontal,vertical
2b,12,100358,5,6,134,20,F,NA,constant,heterogeneous,4,present,0.814282894134521,1,vertical,vertical,1,5,red,4,2,NaN,NaN,NaN,NaN,NaN,NaN,NaN,NaN,NaN,NaN,NaN,NaN,5,6,0,4,vertical,vertical,vertical,vertical
2b,12,100358,5,7,135,20,F,NA,constant,heterogeneous,4,present,0.934768915176392,0,horizontal,vertical,1,2,red,3,4,NaN,NaN,NaN,NaN,NaN,NaN,NaN,NaN,NaN,NaN,NaN,NaN,0,6,4,3,horizontal,horizontal,horizontal,vertical
2b,12,100358,5,8,136,20,F,NA,constant,heterogeneous,4,absent,0.817937135696411,1,horizontal,horizontal,1,3,red,4,NaN,NaN,NaN,NaN,NaN,NaN,NaN,NaN,NaN,NaN,NaN,NaN,NaN,5,6,3,4,vertical,vertical,horizontal,horizontal
2b,12,100358,5,9,137,20,F,NA,constant,heterogeneous,4,absent,0.658508062362671,1,horizontal,horizontal,1,5,red,4,NaN,NaN,NaN,NaN,NaN,NaN,NaN,NaN,NaN,NaN,NaN,NaN,NaN,6,5,0,4,horizontal,vertical,vertical,horizontal
2b,12,100358,5,10,138,20,F,NA,constant,heterogeneous,4,present,1.20397996902466,1,vertical,vertical,1,2,red,2,1,NaN,NaN,NaN,NaN,NaN,NaN,NaN,NaN,NaN,NaN,NaN,NaN,5,4,3,6,vertical,vertical,horizontal,vertical
2b,12,100358,5,11,139,20,F,NA,constant,heterogeneous,4,absent,1.06428813934326,1,vertical,vertical,1,2,red,1,NaN,NaN,NaN,NaN,NaN,NaN,NaN,NaN,NaN,NaN,NaN,NaN,NaN,4,0,5,3,vertical,horizontal,vertical,horizontal
2b,12,100358,5,12,140,20,F,NA,constant,heterogeneous,4,present,1.56985878944397,1,horizontal,horizontal,1,3,red,3,1,NaN,NaN,NaN,NaN,NaN,NaN,NaN,NaN,NaN,NaN,NaN,NaN,0,3,4,5,vertical,vertical,horizontal,horizontal
2b,12,100358,5,13,141,20,F,NA,constant,heterogeneous,4,present,0.889492034912109,1,horizontal,horizontal,1,2,red,4,1,NaN,NaN,NaN,NaN,NaN,NaN,NaN,NaN,NaN,NaN,NaN,NaN,6,0,3,4,vertical,horizontal,horizontal,horizontal
2b,12,100358,5,14,142,20,F,NA,constant,heterogeneous,4,present,0.779231071472168,1,vertical,vertical,1,2,red,3,1,NaN,NaN,NaN,NaN,NaN,NaN,NaN,NaN,NaN,NaN,NaN,NaN,3,6,4,5,vertical,horizontal,vertical,vertical
2b,12,100358,5,15,143,20,F,NA,constant,heterogeneous,4,present,0.711308002471924,1,horizontal,horizontal,1,2,red,2,3,NaN,NaN,NaN,NaN,NaN,NaN,NaN,NaN,NaN,NaN,NaN,NaN,6,4,3,5,vertical,horizontal,vertical,vertical
2b,12,100358,5,16,144,20,F,NA,constant,heterogeneous,4,present,0.761839866638184,1,vertical,vertical,1,8,red,3,1,NaN,NaN,NaN,NaN,NaN,NaN,NaN,NaN,NaN,NaN,NaN,NaN,3,0,4,5,vertical,vertical,vertical,horizontal
2b,12,100358,5,17,145,20,F,NA,constant,heterogeneous,4,present,1.06918287277222,1,horizontal,horizontal,1,8,red,2,3,NaN,NaN,NaN,NaN,NaN,NaN,NaN,NaN,NaN,NaN,NaN,NaN,6,4,3,5,vertical,horizontal,horizontal,vertical
2b,12,100358,5,18,146,20,F,NA,constant,heterogeneous,4,absent,1.7068350315094,1,vertical,vertical,1,5,red,1,NaN,NaN,NaN,NaN,NaN,NaN,NaN,NaN,NaN,NaN,NaN,NaN,NaN,4,3,5,0,vertical,vertical,horizontal,horizontal
2b,12,100358,5,19,147,20,F,NA,constant,heterogeneous,4,present,0.909430980682373,1,horizontal,horizontal,1,5,red,2,4,NaN,NaN,NaN,NaN,NaN,NaN,NaN,NaN,NaN,NaN,NaN,NaN,5,4,3,0,horizontal,horizontal,horizontal,vertical
2b,12,100358,5,20,148,20,F,NA,constant,heterogeneous,4,absent,0.78438401222229,1,vertical,vertical,1,3,red,3,NaN,NaN,NaN,NaN,NaN,NaN,NaN,NaN,NaN,NaN,NaN,NaN,NaN,3,5,4,0,vertical,vertical,vertical,vertical
2b,12,100358,5,21,149,20,F,NA,constant,heterogeneous,4,absent,0.764029979705811,1,horizontal,horizontal,1,2,red,1,NaN,NaN,NaN,NaN,NaN,NaN,NaN,NaN,NaN,NaN,NaN,NaN,NaN,4,3,5,0,horizontal,horizontal,vertical,horizontal
2b,12,100358,5,22,150,20,F,NA,constant,heterogeneous,4,absent,0.979511022567749,0,horizontal,vertical,1,8,red,3,NaN,NaN,NaN,NaN,NaN,NaN,NaN,NaN,NaN,NaN,NaN,NaN,NaN,3,6,4,5,vertical,vertical,horizontal,vertical
2b,12,100358,5,23,151,20,F,NA,constant,heterogeneous,4,present,0.895580053329468,1,vertical,vertical,1,3,red,4,3,NaN,NaN,NaN,NaN,NaN,NaN,NaN,NaN,NaN,NaN,NaN,NaN,6,5,3,4,vertical,vertical,vertical,vertical
2b,12,100358,5,24,152,20,F,NA,constant,heterogeneous,4,present,0.773866891860962,1,vertical,vertical,1,2,red,3,1,NaN,NaN,NaN,NaN,NaN,NaN,NaN,NaN,NaN,NaN,NaN,NaN,5,0,4,3,vertical,vertical,vertical,vertical
2b,12,100358,5,25,153,20,F,NA,constant,heterogeneous,4,absent,0.765516042709351,1,vertical,vertical,1,8,red,3,NaN,NaN,NaN,NaN,NaN,NaN,NaN,NaN,NaN,NaN,NaN,NaN,NaN,6,5,4,0,horizontal,horizontal,vertical,vertical
2b,12,100358,5,26,154,20,F,NA,constant,heterogeneous,4,absent,0.813058137893677,1,horizontal,horizontal,1,3,red,4,NaN,NaN,NaN,NaN,NaN,NaN,NaN,NaN,NaN,NaN,NaN,NaN,NaN,0,3,6,4,horizontal,horizontal,vertical,horizontal
2b,12,100358,5,27,155,20,F,NA,constant,heterogeneous,4,absent,0.725687026977539,1,vertical,vertical,1,2,red,4,NaN,NaN,NaN,NaN,NaN,NaN,NaN,NaN,NaN,NaN,NaN,NaN,NaN,5,6,3,4,horizontal,vertical,horizontal,vertical
2b,12,100358,5,28,156,20,F,NA,constant,heterogeneous,4,absent,0.940376996994019,1,vertical,vertical,1,2,red,1,NaN,NaN,NaN,NaN,NaN,NaN,NaN,NaN,NaN,NaN,NaN,NaN,NaN,4,5,0,6,vertical,horizontal,horizontal,horizontal
2b,12,100358,5,29,157,20,F,NA,constant,heterogeneous,4,absent,0.715364933013916,1,vertical,vertical,1,5,red,4,NaN,NaN,NaN,NaN,NaN,NaN,NaN,NaN,NaN,NaN,NaN,NaN,NaN,5,3,0,4,horizontal,horizontal,vertical,vertical
2b,12,100358,5,30,158,20,F,NA,constant,heterogeneous,4,present,0.90201210975647,1,vertical,vertical,1,3,red,3,2,NaN,NaN,NaN,NaN,NaN,NaN,NaN,NaN,NaN,NaN,NaN,NaN,5,0,4,6,horizontal,horizontal,vertical,horizontal
2b,12,100358,5,31,159,20,F,NA,constant,heterogeneous,4,absent,0.660151958465576,1,horizontal,horizontal,1,5,red,3,NaN,NaN,NaN,NaN,NaN,NaN,NaN,NaN,NaN,NaN,NaN,NaN,NaN,3,0,4,6,vertical,horizontal,horizontal,horizontal
2b,12,100358,5,32,160,20,F,NA,constant,heterogeneous,4,present,0.669883966445923,1,vertical,vertical,1,5,red,3,2,NaN,NaN,NaN,NaN,NaN,NaN,NaN,NaN,NaN,NaN,NaN,NaN,0,3,4,6,horizontal,vertical,vertical,vertical
2b,12,100358,6,1,161,20,F,NA,constant,heterogeneous,4,present,1.13400101661682,1,horizontal,horizontal,1,5,red,1,4,NaN,NaN,NaN,NaN,NaN,NaN,NaN,NaN,NaN,NaN,NaN,NaN,4,0,5,6,horizontal,horizontal,horizontal,horizontal
2b,12,100358,6,2,162,20,F,NA,constant,heterogeneous,4,absent,1.49674916267395,1,vertical,vertical,1,2,red,2,NaN,NaN,NaN,NaN,NaN,NaN,NaN,NaN,NaN,NaN,NaN,NaN,NaN,5,4,0,6,horizontal,vertical,horizontal,horizontal
2b,12,100358,6,3,163,20,F,NA,constant,heterogeneous,4,present,0.870938062667847,1,horizontal,horizontal,1,8,red,1,2,NaN,NaN,NaN,NaN,NaN,NaN,NaN,NaN,NaN,NaN,NaN,NaN,4,6,3,0,horizontal,vertical,vertical,horizontal
2b,12,100358,6,4,164,20,F,NA,constant,heterogeneous,4,present,0.605102062225342,1,vertical,vertical,1,3,red,3,1,NaN,NaN,NaN,NaN,NaN,NaN,NaN,NaN,NaN,NaN,NaN,NaN,5,3,4,6,horizontal,vertical,vertical,horizontal
2b,12,100358,6,5,165,20,F,NA,constant,heterogeneous,4,present,1.44917011260986,1,horizontal,horizontal,1,2,red,3,1,NaN,NaN,NaN,NaN,NaN,NaN,NaN,NaN,NaN,NaN,NaN,NaN,3,6,4,0,horizontal,vertical,horizontal,horizontal
2b,12,100358,6,6,166,20,F,NA,constant,heterogeneous,4,present,0.902541875839233,1,horizontal,horizontal,1,2,red,4,1,NaN,NaN,NaN,NaN,NaN,NaN,NaN,NaN,NaN,NaN,NaN,NaN,0,3,6,4,horizontal,horizontal,vertical,horizontal
2b,12,100358,6,7,167,20,F,NA,constant,heterogeneous,4,present,0.556900978088379,1,vertical,vertical,1,2,red,3,1,NaN,NaN,NaN,NaN,NaN,NaN,NaN,NaN,NaN,NaN,NaN,NaN,5,6,4,0,horizontal,horizontal,vertical,vertical
2b,12,100358,6,8,168,20,F,NA,constant,heterogeneous,4,present,0.95990514755249,1,horizontal,horizontal,1,3,red,1,3,NaN,NaN,NaN,NaN,NaN,NaN,NaN,NaN,NaN,NaN,NaN,NaN,4,6,3,5,horizontal,horizontal,horizontal,vertical
2b,12,100358,6,9,169,20,F,NA,constant,heterogeneous,4,absent,0.819282054901123,1,horizontal,horizontal,1,3,red,4,NaN,NaN,NaN,NaN,NaN,NaN,NaN,NaN,NaN,NaN,NaN,NaN,NaN,3,5,0,4,vertical,horizontal,vertical,horizontal
2b,12,100358,6,10,170,20,F,NA,constant,heterogeneous,4,absent,0.723825216293335,1,horizontal,horizontal,1,5,red,3,NaN,NaN,NaN,NaN,NaN,NaN,NaN,NaN,NaN,NaN,NaN,NaN,NaN,5,3,4,0,vertical,horizontal,horizontal,vertical
2b,12,100358,6,11,171,20,F,NA,constant,heterogeneous,4,absent,1.66664409637451,1,horizontal,horizontal,1,5,red,2,NaN,NaN,NaN,NaN,NaN,NaN,NaN,NaN,NaN,NaN,NaN,NaN,NaN,0,4,5,6,vertical,horizontal,horizontal,horizontal
2b,12,100358,6,12,172,20,F,NA,constant,heterogeneous,4,present,0.708322048187256,1,vertical,vertical,1,5,red,2,3,NaN,NaN,NaN,NaN,NaN,NaN,NaN,NaN,NaN,NaN,NaN,NaN,0,4,3,5,vertical,vertical,vertical,horizontal
2b,12,100358,6,13,173,20,F,NA,constant,heterogeneous,4,present,0.846873044967651,1,horizontal,horizontal,1,5,red,1,3,NaN,NaN,NaN,NaN,NaN,NaN,NaN,NaN,NaN,NaN,NaN,NaN,4,3,5,0,horizontal,horizontal,horizontal,vertical
2b,12,100358,6,14,174,20,F,NA,constant,heterogeneous,4,absent,1.3080039024353,1,vertical,vertical,1,5,red,4,NaN,NaN,NaN,NaN,NaN,NaN,NaN,NaN,NaN,NaN,NaN,NaN,NaN,0,6,3,4,horizontal,vertical,vertical,vertical
2b,12,100358,6,15,175,20,F,NA,constant,heterogeneous,4,present,0.670798063278198,1,vertical,vertical,1,5,red,1,2,NaN,NaN,NaN,NaN,NaN,NaN,NaN,NaN,NaN,NaN,NaN,NaN,4,0,5,3,vertical,horizontal,horizontal,vertical
2b,12,100358,6,16,176,20,F,NA,constant,heterogeneous,4,absent,0.556730031967163,1,vertical,vertical,1,3,red,1,NaN,NaN,NaN,NaN,NaN,NaN,NaN,NaN,NaN,NaN,NaN,NaN,NaN,4,3,5,0,vertical,vertical,vertical,horizontal
2b,12,100358,6,17,177,20,F,NA,constant,heterogeneous,4,absent,0.599804878234863,1,vertical,vertical,1,8,red,1,NaN,NaN,NaN,NaN,NaN,NaN,NaN,NaN,NaN,NaN,NaN,NaN,NaN,4,6,0,5,vertical,horizontal,vertical,vertical
2b,12,100358,6,18,178,20,F,NA,constant,heterogeneous,4,absent,0.972254991531372,1,vertical,vertical,1,3,red,4,NaN,NaN,NaN,NaN,NaN,NaN,NaN,NaN,NaN,NaN,NaN,NaN,NaN,3,6,5,4,horizontal,vertical,vertical,vertical
2b,12,100358,6,19,179,20,F,NA,constant,heterogeneous,4,present,1.25995707511902,1,horizontal,horizontal,1,2,red,2,1,NaN,NaN,NaN,NaN,NaN,NaN,NaN,NaN,NaN,NaN,NaN,NaN,0,4,6,5,vertical,horizontal,horizontal,vertical
2b,12,100358,6,20,180,20,F,NA,constant,heterogeneous,4,absent,1.17348408699036,1,horizontal,horizontal,1,8,red,2,NaN,NaN,NaN,NaN,NaN,NaN,NaN,NaN,NaN,NaN,NaN,NaN,NaN,3,4,6,0,vertical,horizontal,vertical,vertical
2b,12,100358,6,21,181,20,F,NA,constant,heterogeneous,4,present,0.741093158721924,1,vertical,vertical,1,3,red,1,3,NaN,NaN,NaN,NaN,NaN,NaN,NaN,NaN,NaN,NaN,NaN,NaN,4,6,5,0,vertical,horizontal,vertical,vertical
2b,12,100358,6,22,182,20,F,NA,constant,heterogeneous,4,present,0.91624903678894,0,vertical,horizontal,1,2,red,4,3,NaN,NaN,NaN,NaN,NaN,NaN,NaN,NaN,NaN,NaN,NaN,NaN,0,5,6,4,horizontal,horizontal,horizontal,vertical
2b,12,100358,6,23,183,20,F,NA,constant,heterogeneous,4,absent,0.738955020904541,1,horizontal,horizontal,1,2,red,1,NaN,NaN,NaN,NaN,NaN,NaN,NaN,NaN,NaN,NaN,NaN,NaN,NaN,4,6,5,3,horizontal,vertical,horizontal,vertical
2b,12,100358,6,24,184,20,F,NA,constant,heterogeneous,4,absent,0.75790810585022,1,horizontal,horizontal,1,3,red,1,NaN,NaN,NaN,NaN,NaN,NaN,NaN,NaN,NaN,NaN,NaN,NaN,NaN,4,6,5,3,horizontal,horizontal,horizontal,horizontal
2b,12,100358,6,25,185,20,F,NA,constant,heterogeneous,4,absent,1.00129008293152,1,horizontal,horizontal,1,2,red,3,NaN,NaN,NaN,NaN,NaN,NaN,NaN,NaN,NaN,NaN,NaN,NaN,NaN,3,0,4,5,vertical,vertical,horizontal,horizontal
2b,12,100358,6,26,186,20,F,NA,constant,heterogeneous,4,absent,0.853624105453491,1,vertical,vertical,1,2,red,2,NaN,NaN,NaN,NaN,NaN,NaN,NaN,NaN,NaN,NaN,NaN,NaN,NaN,0,4,3,6,vertical,vertical,horizontal,horizontal
2b,12,100358,6,27,187,20,F,NA,constant,heterogeneous,4,absent,1.45081305503845,1,horizontal,horizontal,1,2,red,1,NaN,NaN,NaN,NaN,NaN,NaN,NaN,NaN,NaN,NaN,NaN,NaN,NaN,4,3,5,0,horizontal,horizontal,vertical,vertical
2b,12,100358,6,28,188,20,F,NA,constant,heterogeneous,4,absent,0.632047891616821,0,vertical,horizontal,1,2,red,4,NaN,NaN,NaN,NaN,NaN,NaN,NaN,NaN,NaN,NaN,NaN,NaN,NaN,5,6,3,4,horizontal,horizontal,horizontal,vertical
2b,12,100358,6,29,189,20,F,NA,constant,heterogeneous,4,present,0.716905117034912,1,vertical,vertical,1,8,red,3,1,NaN,NaN,NaN,NaN,NaN,NaN,NaN,NaN,NaN,NaN,NaN,NaN,3,6,4,5,vertical,horizontal,vertical,horizontal
2b,12,100358,6,30,190,20,F,NA,constant,heterogeneous,4,present,0.73170804977417,1,horizontal,horizontal,1,3,red,3,2,NaN,NaN,NaN,NaN,NaN,NaN,NaN,NaN,NaN,NaN,NaN,NaN,5,0,4,3,vertical,vertical,horizontal,vertical
2b,12,100358,6,31,191,20,F,NA,constant,heterogeneous,4,present,0.774590015411377,1,vertical,vertical,1,2,red,4,3,NaN,NaN,NaN,NaN,NaN,NaN,NaN,NaN,NaN,NaN,NaN,NaN,5,0,6,4,horizontal,horizontal,vertical,vertical
2b,12,100358,6,32,192,20,F,NA,constant,heterogeneous,4,absent,1.55815196037292,1,vertical,vertical,1,5,red,1,NaN,NaN,NaN,NaN,NaN,NaN,NaN,NaN,NaN,NaN,NaN,NaN,NaN,4,0,6,3,vertical,vertical,horizontal,horizontal
2b,12,100358,7,1,193,20,F,NA,constant,heterogeneous,4,absent,0.887063026428223,1,vertical,vertical,1,2,red,4,NaN,NaN,NaN,NaN,NaN,NaN,NaN,NaN,NaN,NaN,NaN,NaN,NaN,6,3,5,4,vertical,vertical,vertical,vertical
2b,12,100358,7,2,194,20,F,NA,constant,heterogeneous,4,absent,1.20100498199463,1,horizontal,horizontal,1,3,red,3,NaN,NaN,NaN,NaN,NaN,NaN,NaN,NaN,NaN,NaN,NaN,NaN,NaN,3,0,4,5,vertical,vertical,horizontal,vertical
2b,12,100358,7,3,195,20,F,NA,constant,heterogeneous,4,present,0.65370512008667,0,horizontal,vertical,1,5,red,1,2,NaN,NaN,NaN,NaN,NaN,NaN,NaN,NaN,NaN,NaN,NaN,NaN,4,5,0,3,horizontal,vertical,vertical,horizontal
2b,12,100358,7,4,196,20,F,NA,constant,heterogeneous,4,present,1.2109260559082,1,vertical,vertical,1,8,red,2,1,NaN,NaN,NaN,NaN,NaN,NaN,NaN,NaN,NaN,NaN,NaN,NaN,3,4,6,5,horizontal,vertical,vertical,vertical
2b,12,100358,7,5,197,20,F,NA,constant,heterogeneous,4,absent,0.795513153076172,1,horizontal,horizontal,1,5,red,3,NaN,NaN,NaN,NaN,NaN,NaN,NaN,NaN,NaN,NaN,NaN,NaN,NaN,3,6,4,0,vertical,vertical,horizontal,horizontal
2b,12,100358,7,6,198,20,F,NA,constant,heterogeneous,4,present,0.643882989883423,1,horizontal,horizontal,1,3,red,3,4,NaN,NaN,NaN,NaN,NaN,NaN,NaN,NaN,NaN,NaN,NaN,NaN,0,3,4,5,horizontal,vertical,horizontal,vertical
2b,12,100358,7,7,199,20,F,NA,constant,heterogeneous,4,present,0.620449066162109,1,vertical,vertical,1,2,red,3,1,NaN,NaN,NaN,NaN,NaN,NaN,NaN,NaN,NaN,NaN,NaN,NaN,3,5,4,6,vertical,vertical,vertical,vertical
2b,12,100358,7,8,200,20,F,NA,constant,heterogeneous,4,present,1.17332482337952,1,vertical,vertical,1,5,red,2,4,NaN,NaN,NaN,NaN,NaN,NaN,NaN,NaN,NaN,NaN,NaN,NaN,0,4,3,5,vertical,vertical,horizontal,vertical
2b,12,100358,7,9,201,20,F,NA,constant,heterogeneous,4,absent,1.02873206138611,1,vertical,vertical,1,5,red,3,NaN,NaN,NaN,NaN,NaN,NaN,NaN,NaN,NaN,NaN,NaN,NaN,NaN,6,3,4,5,horizontal,vertical,vertical,vertical
2b,12,100358,7,10,202,20,F,NA,constant,heterogeneous,4,present,0.785624027252197,1,vertical,vertical,1,3,red,4,1,NaN,NaN,NaN,NaN,NaN,NaN,NaN,NaN,NaN,NaN,NaN,NaN,6,5,0,4,vertical,vertical,vertical,vertical
2b,12,100358,7,11,203,20,F,NA,constant,heterogeneous,4,present,1.06183195114136,1,vertical,vertical,1,5,red,1,2,NaN,NaN,NaN,NaN,NaN,NaN,NaN,NaN,NaN,NaN,NaN,NaN,4,0,6,5,vertical,horizontal,horizontal,vertical
2b,12,100358,7,12,204,20,F,NA,constant,heterogeneous,4,absent,1.19104790687561,1,horizontal,horizontal,1,2,red,2,NaN,NaN,NaN,NaN,NaN,NaN,NaN,NaN,NaN,NaN,NaN,NaN,NaN,6,4,3,0,horizontal,horizontal,vertical,vertical
2b,12,100358,7,13,205,20,F,NA,constant,heterogeneous,4,absent,0.935310840606689,1,horizontal,horizontal,1,2,red,3,NaN,NaN,NaN,NaN,NaN,NaN,NaN,NaN,NaN,NaN,NaN,NaN,NaN,0,6,4,3,horizontal,horizontal,horizontal,vertical
2b,12,100358,7,14,206,20,F,NA,constant,heterogeneous,4,absent,0.801878929138184,1,horizontal,horizontal,1,3,red,1,NaN,NaN,NaN,NaN,NaN,NaN,NaN,NaN,NaN,NaN,NaN,NaN,NaN,4,6,0,5,horizontal,horizontal,horizontal,vertical
2b,12,100358,7,15,207,20,F,NA,constant,heterogeneous,4,absent,0.662503004074097,1,horizontal,horizontal,1,8,red,3,NaN,NaN,NaN,NaN,NaN,NaN,NaN,NaN,NaN,NaN,NaN,NaN,NaN,5,3,4,0,horizontal,vertical,horizontal,horizontal
2b,12,100358,7,16,208,20,F,NA,constant,heterogeneous,4,present,1.32003211975098,1,horizontal,horizontal,1,2,red,2,1,NaN,NaN,NaN,NaN,NaN,NaN,NaN,NaN,NaN,NaN,NaN,NaN,5,4,0,3,horizontal,horizontal,horizontal,vertical
2b,12,100358,7,17,209,20,F,NA,constant,heterogeneous,4,absent,0.550894021987915,1,horizontal,horizontal,1,2,red,3,NaN,NaN,NaN,NaN,NaN,NaN,NaN,NaN,NaN,NaN,NaN,NaN,NaN,5,3,4,0,horizontal,vertical,horizontal,vertical
2b,12,100358,7,18,210,20,F,NA,constant,heterogeneous,4,absent,0.758023977279663,1,horizontal,horizontal,1,5,red,4,NaN,NaN,NaN,NaN,NaN,NaN,NaN,NaN,NaN,NaN,NaN,NaN,NaN,6,3,5,4,horizontal,horizontal,horizontal,horizontal
2b,12,100358,7,19,211,20,F,NA,constant,heterogeneous,4,present,1.00135016441345,1,vertical,vertical,1,2,red,1,2,NaN,NaN,NaN,NaN,NaN,NaN,NaN,NaN,NaN,NaN,NaN,NaN,4,0,6,5,vertical,horizontal,vertical,horizontal
2b,12,100358,7,20,212,20,F,NA,constant,heterogeneous,4,present,0.701685190200806,1,horizontal,horizontal,1,3,red,3,4,NaN,NaN,NaN,NaN,NaN,NaN,NaN,NaN,NaN,NaN,NaN,NaN,0,3,4,6,vertical,horizontal,horizontal,vertical
2b,12,100358,7,21,213,20,F,NA,constant,heterogeneous,4,present,0.747817039489746,1,horizontal,horizontal,1,8,red,1,4,NaN,NaN,NaN,NaN,NaN,NaN,NaN,NaN,NaN,NaN,NaN,NaN,4,3,0,5,horizontal,vertical,vertical,horizontal
2b,12,100358,7,22,214,20,F,NA,constant,heterogeneous,4,absent,0.586935997009277,0,vertical,horizontal,1,2,red,2,NaN,NaN,NaN,NaN,NaN,NaN,NaN,NaN,NaN,NaN,NaN,NaN,NaN,6,4,0,3,horizontal,vertical,vertical,vertical
2b,12,100358,7,23,215,20,F,NA,constant,heterogeneous,4,absent,1.13934707641602,1,vertical,vertical,1,8,red,1,NaN,NaN,NaN,NaN,NaN,NaN,NaN,NaN,NaN,NaN,NaN,NaN,NaN,4,0,3,5,vertical,vertical,horizontal,vertical
2b,12,100358,7,24,216,20,F,NA,constant,heterogeneous,4,absent,0.638037919998169,1,vertical,vertical,1,2,red,2,NaN,NaN,NaN,NaN,NaN,NaN,NaN,NaN,NaN,NaN,NaN,NaN,NaN,5,4,0,3,vertical,vertical,horizontal,vertical
2b,12,100358,7,25,217,20,F,NA,constant,heterogeneous,4,absent,0.623273849487305,1,vertical,vertical,1,3,red,3,NaN,NaN,NaN,NaN,NaN,NaN,NaN,NaN,NaN,NaN,NaN,NaN,NaN,3,6,4,5,horizontal,horizontal,vertical,horizontal
2b,12,100358,7,26,218,20,F,NA,constant,heterogeneous,4,present,0.755981922149658,1,vertical,vertical,1,2,red,4,2,NaN,NaN,NaN,NaN,NaN,NaN,NaN,NaN,NaN,NaN,NaN,NaN,6,0,3,4,vertical,vertical,horizontal,vertical
2b,12,100358,7,27,219,20,F,NA,constant,heterogeneous,4,present,0.687286853790283,1,vertical,vertical,1,3,red,1,2,NaN,NaN,NaN,NaN,NaN,NaN,NaN,NaN,NaN,NaN,NaN,NaN,4,3,6,0,vertical,vertical,vertical,horizontal
2b,12,100358,7,28,220,20,F,NA,constant,heterogeneous,4,present,0.873572111129761,1,horizontal,horizontal,1,2,red,1,3,NaN,NaN,NaN,NaN,NaN,NaN,NaN,NaN,NaN,NaN,NaN,NaN,4,3,0,5,horizontal,vertical,vertical,vertical
2b,12,100358,7,29,221,20,F,NA,constant,heterogeneous,4,present,0.663148164749146,1,horizontal,horizontal,1,2,red,3,1,NaN,NaN,NaN,NaN,NaN,NaN,NaN,NaN,NaN,NaN,NaN,NaN,6,0,4,3,horizontal,horizontal,horizontal,vertical
2b,12,100358,7,30,222,20,F,NA,constant,heterogeneous,4,present,0.528596878051758,1,horizontal,horizontal,1,5,red,3,4,NaN,NaN,NaN,NaN,NaN,NaN,NaN,NaN,NaN,NaN,NaN,NaN,5,3,4,6,horizontal,horizontal,horizontal,horizontal
2b,12,100358,7,31,223,20,F,NA,constant,heterogeneous,4,absent,0.763345003128052,1,vertical,vertical,1,3,red,2,NaN,NaN,NaN,NaN,NaN,NaN,NaN,NaN,NaN,NaN,NaN,NaN,NaN,3,4,0,6,vertical,vertical,vertical,vertical
2b,12,100358,7,32,224,20,F,NA,constant,heterogeneous,4,absent,1.4350209236145,1,vertical,vertical,1,5,red,4,NaN,NaN,NaN,NaN,NaN,NaN,NaN,NaN,NaN,NaN,NaN,NaN,NaN,0,5,3,4,vertical,vertical,horizontal,vertical
2b,12,100358,8,1,225,20,F,NA,constant,heterogeneous,4,present,0.961421966552734,1,horizontal,horizontal,1,3,red,4,1,NaN,NaN,NaN,NaN,NaN,NaN,NaN,NaN,NaN,NaN,NaN,NaN,0,6,5,4,horizontal,horizontal,vertical,horizontal
2b,12,100358,8,2,226,20,F,NA,constant,heterogeneous,4,absent,0.588728904724121,1,vertical,vertical,1,8,red,4,NaN,NaN,NaN,NaN,NaN,NaN,NaN,NaN,NaN,NaN,NaN,NaN,NaN,0,5,3,4,vertical,vertical,horizontal,vertical
2b,12,100358,8,3,227,20,F,NA,constant,heterogeneous,4,absent,0.740803956985474,1,vertical,vertical,1,2,red,3,NaN,NaN,NaN,NaN,NaN,NaN,NaN,NaN,NaN,NaN,NaN,NaN,NaN,0,6,4,5,horizontal,vertical,vertical,horizontal
2b,12,100358,8,4,228,20,F,NA,constant,heterogeneous,4,present,1.04397201538086,1,horizontal,horizontal,1,8,red,2,1,NaN,NaN,NaN,NaN,NaN,NaN,NaN,NaN,NaN,NaN,NaN,NaN,5,4,0,3,horizontal,horizontal,vertical,vertical
2b,12,100358,8,5,229,20,F,NA,constant,heterogeneous,4,absent,0.605407953262329,1,horizontal,horizontal,1,2,red,1,NaN,NaN,NaN,NaN,NaN,NaN,NaN,NaN,NaN,NaN,NaN,NaN,NaN,4,6,5,0,horizontal,horizontal,horizontal,vertical
2b,12,100358,8,6,230,20,F,NA,constant,heterogeneous,4,absent,0.89768385887146,1,vertical,vertical,1,5,red,1,NaN,NaN,NaN,NaN,NaN,NaN,NaN,NaN,NaN,NaN,NaN,NaN,NaN,4,5,3,0,vertical,horizontal,horizontal,vertical
2b,12,100358,8,7,231,20,F,NA,constant,heterogeneous,4,present,0.983793020248413,1,vertical,vertical,1,8,red,2,4,NaN,NaN,NaN,NaN,NaN,NaN,NaN,NaN,NaN,NaN,NaN,NaN,5,4,3,6,vertical,vertical,vertical,vertical
2b,12,100358,8,8,232,20,F,NA,constant,heterogeneous,4,absent,1.12376499176025,1,horizontal,horizontal,1,5,red,1,NaN,NaN,NaN,NaN,NaN,NaN,NaN,NaN,NaN,NaN,NaN,NaN,NaN,4,6,0,5,horizontal,horizontal,vertical,horizontal
2b,12,100358,8,9,233,20,F,NA,constant,heterogeneous,4,present,0.890675067901611,1,vertical,vertical,1,2,red,3,1,NaN,NaN,NaN,NaN,NaN,NaN,NaN,NaN,NaN,NaN,NaN,NaN,3,6,4,5,vertical,horizontal,vertical,vertical
2b,12,100358,8,10,234,20,F,NA,constant,heterogeneous,4,present,0.724345922470093,1,horizontal,horizontal,1,3,red,4,1,NaN,NaN,NaN,NaN,NaN,NaN,NaN,NaN,NaN,NaN,NaN,NaN,3,5,6,4,horizontal,horizontal,horizontal,horizontal
2b,12,100358,8,11,235,20,F,NA,constant,heterogeneous,4,absent,1.41119289398193,1,horizontal,horizontal,1,3,red,3,NaN,NaN,NaN,NaN,NaN,NaN,NaN,NaN,NaN,NaN,NaN,NaN,NaN,3,5,4,6,horizontal,horizontal,horizontal,vertical
2b,12,100358,8,12,236,20,F,NA,constant,heterogeneous,4,absent,0.899535894393921,1,horizontal,horizontal,1,2,red,4,NaN,NaN,NaN,NaN,NaN,NaN,NaN,NaN,NaN,NaN,NaN,NaN,NaN,5,3,6,4,horizontal,vertical,horizontal,horizontal
2b,12,100358,8,13,237,20,F,NA,constant,heterogeneous,4,present,0.72186803817749,1,horizontal,horizontal,1,5,red,1,4,NaN,NaN,NaN,NaN,NaN,NaN,NaN,NaN,NaN,NaN,NaN,NaN,4,0,5,6,horizontal,horizontal,horizontal,vertical
2b,12,100358,8,14,238,20,F,NA,constant,heterogeneous,4,present,0.680766105651855,1,horizontal,horizontal,1,2,red,4,3,NaN,NaN,NaN,NaN,NaN,NaN,NaN,NaN,NaN,NaN,NaN,NaN,6,3,5,4,vertical,horizontal,horizontal,horizontal
2b,12,100358,8,15,239,20,F,NA,constant,heterogeneous,4,present,1.25451302528381,1,horizontal,horizontal,1,5,red,2,3,NaN,NaN,NaN,NaN,NaN,NaN,NaN,NaN,NaN,NaN,NaN,NaN,3,4,6,0,vertical,horizontal,vertical,vertical
2b,12,100358,8,16,240,20,F,NA,constant,heterogeneous,4,absent,0.667488098144531,1,horizontal,horizontal,1,2,red,4,NaN,NaN,NaN,NaN,NaN,NaN,NaN,NaN,NaN,NaN,NaN,NaN,NaN,5,3,0,4,horizontal,vertical,vertical,horizontal
2b,12,100358,8,17,241,20,F,NA,constant,heterogeneous,4,absent,0.70914101600647,1,horizontal,horizontal,1,3,red,4,NaN,NaN,NaN,NaN,NaN,NaN,NaN,NaN,NaN,NaN,NaN,NaN,NaN,0,6,3,4,vertical,horizontal,vertical,horizontal
2b,12,100358,8,18,242,20,F,NA,constant,heterogeneous,4,present,0.655820846557617,1,vertical,vertical,1,5,red,4,3,NaN,NaN,NaN,NaN,NaN,NaN,NaN,NaN,NaN,NaN,NaN,NaN,6,5,0,4,horizontal,horizontal,horizontal,vertical
2b,12,100358,8,19,243,20,F,NA,constant,heterogeneous,4,present,1.11724495887756,1,vertical,vertical,1,2,red,1,2,NaN,NaN,NaN,NaN,NaN,NaN,NaN,NaN,NaN,NaN,NaN,NaN,4,5,6,3,vertical,vertical,vertical,vertical
2b,12,100358,8,20,244,20,F,NA,constant,heterogeneous,4,absent,0.747745037078857,1,vertical,vertical,1,3,red,4,NaN,NaN,NaN,NaN,NaN,NaN,NaN,NaN,NaN,NaN,NaN,NaN,NaN,5,6,3,4,horizontal,vertical,horizontal,vertical
2b,12,100358,8,21,245,20,F,NA,constant,heterogeneous,4,present,0.618879079818726,1,vertical,vertical,1,2,red,1,4,NaN,NaN,NaN,NaN,NaN,NaN,NaN,NaN,NaN,NaN,NaN,NaN,4,0,3,6,vertical,horizontal,vertical,vertical
2b,12,100358,8,22,246,20,F,NA,constant,heterogeneous,4,present,0.715119123458862,1,horizontal,horizontal,1,2,red,1,2,NaN,NaN,NaN,NaN,NaN,NaN,NaN,NaN,NaN,NaN,NaN,NaN,4,3,5,0,horizontal,vertical,vertical,vertical
2b,12,100358,8,23,247,20,F,NA,constant,heterogeneous,4,absent,0.581714868545532,1,vertical,vertical,1,5,red,1,NaN,NaN,NaN,NaN,NaN,NaN,NaN,NaN,NaN,NaN,NaN,NaN,NaN,4,6,3,5,vertical,vertical,horizontal,horizontal
2b,12,100358,8,24,248,20,F,NA,constant,heterogeneous,4,absent,0.521737098693848,1,vertical,vertical,1,2,red,1,NaN,NaN,NaN,NaN,NaN,NaN,NaN,NaN,NaN,NaN,NaN,NaN,NaN,4,5,3,0,vertical,vertical,vertical,vertical
2b,12,100358,8,25,249,20,F,NA,constant,heterogeneous,4,present,0.528410196304321,1,vertical,vertical,1,3,red,1,3,NaN,NaN,NaN,NaN,NaN,NaN,NaN,NaN,NaN,NaN,NaN,NaN,4,6,5,0,vertical,vertical,vertical,horizontal
2b,12,100358,8,26,250,20,F,NA,constant,heterogeneous,4,present,0.539509057998657,0,vertical,horizontal,1,3,red,3,4,NaN,NaN,NaN,NaN,NaN,NaN,NaN,NaN,NaN,NaN,NaN,NaN,6,0,4,5,horizontal,horizontal,vertical,horizontal
2b,12,100358,8,27,251,20,F,NA,constant,heterogeneous,4,absent,0.734555959701538,1,horizontal,horizontal,1,8,red,1,NaN,NaN,NaN,NaN,NaN,NaN,NaN,NaN,NaN,NaN,NaN,NaN,NaN,4,3,5,6,horizontal,vertical,horizontal,horizontal
2b,12,100358,8,28,252,20,F,NA,constant,heterogeneous,4,absent,0.921141862869263,1,vertical,vertical,1,2,red,4,NaN,NaN,NaN,NaN,NaN,NaN,NaN,NaN,NaN,NaN,NaN,NaN,NaN,3,5,0,4,vertical,horizontal,vertical,vertical
2b,12,100358,8,29,253,20,F,NA,constant,heterogeneous,4,present,0.879775047302246,1,vertical,vertical,1,5,red,4,3,NaN,NaN,NaN,NaN,NaN,NaN,NaN,NaN,NaN,NaN,NaN,NaN,6,0,3,4,horizontal,vertical,horizontal,vertical
2b,12,100358,8,30,254,20,F,NA,constant,heterogeneous,4,absent,0.965780973434448,1,horizontal,horizontal,1,5,red,3,NaN,NaN,NaN,NaN,NaN,NaN,NaN,NaN,NaN,NaN,NaN,NaN,NaN,5,6,4,0,horizontal,vertical,horizontal,vertical
2b,12,100358,8,31,255,20,F,NA,constant,heterogeneous,4,present,0.725523948669434,1,horizontal,horizontal,1,2,red,3,1,NaN,NaN,NaN,NaN,NaN,NaN,NaN,NaN,NaN,NaN,NaN,NaN,5,3,4,0,vertical,vertical,horizontal,horizontal
2b,12,100358,8,32,256,20,F,NA,constant,heterogeneous,4,absent,0.644050121307373,1,vertical,vertical,1,3,red,1,NaN,NaN,NaN,NaN,NaN,NaN,NaN,NaN,NaN,NaN,NaN,NaN,NaN,4,0,3,6,vertical,horizontal,horizontal,vertical
2b,12,100358,9,1,257,20,F,NA,constant,heterogeneous,4,absent,0.885138988494873,1,horizontal,horizontal,1,2,red,4,NaN,NaN,NaN,NaN,NaN,NaN,NaN,NaN,NaN,NaN,NaN,NaN,NaN,6,3,0,4,vertical,horizontal,vertical,horizontal
2b,12,100358,9,2,258,20,F,NA,constant,heterogeneous,4,present,0.806949138641357,1,vertical,vertical,1,2,red,3,1,NaN,NaN,NaN,NaN,NaN,NaN,NaN,NaN,NaN,NaN,NaN,NaN,6,0,4,5,horizontal,vertical,vertical,vertical
2b,12,100358,9,3,259,20,F,NA,constant,heterogeneous,4,present,0.747498035430908,1,horizontal,horizontal,1,2,red,4,3,NaN,NaN,NaN,NaN,NaN,NaN,NaN,NaN,NaN,NaN,NaN,NaN,6,0,3,4,vertical,vertical,vertical,horizontal
2b,12,100358,9,4,260,20,F,NA,constant,heterogeneous,4,absent,0.522675037384033,0,vertical,horizontal,1,2,red,4,NaN,NaN,NaN,NaN,NaN,NaN,NaN,NaN,NaN,NaN,NaN,NaN,NaN,0,3,6,4,horizontal,vertical,horizontal,vertical
2b,12,100358,9,5,261,20,F,NA,constant,heterogeneous,4,absent,0.785006999969482,1,horizontal,horizontal,1,3,red,3,NaN,NaN,NaN,NaN,NaN,NaN,NaN,NaN,NaN,NaN,NaN,NaN,NaN,6,0,4,3,horizontal,horizontal,horizontal,horizontal
2b,12,100358,9,6,262,20,F,NA,constant,heterogeneous,4,absent,0.597250938415527,1,vertical,vertical,1,5,red,1,NaN,NaN,NaN,NaN,NaN,NaN,NaN,NaN,NaN,NaN,NaN,NaN,NaN,4,6,5,3,vertical,vertical,horizontal,horizontal
2b,12,100358,9,7,263,20,F,NA,constant,heterogeneous,4,present,0.589289903640747,1,vertical,vertical,1,2,red,1,4,NaN,NaN,NaN,NaN,NaN,NaN,NaN,NaN,NaN,NaN,NaN,NaN,4,0,6,3,vertical,horizontal,vertical,vertical
2b,12,100358,9,8,264,20,F,NA,constant,heterogeneous,4,present,0.757438182830811,1,horizontal,horizontal,1,8,red,1,4,NaN,NaN,NaN,NaN,NaN,NaN,NaN,NaN,NaN,NaN,NaN,NaN,4,6,0,3,horizontal,horizontal,vertical,vertical
2b,12,100358,9,9,265,20,F,NA,constant,heterogeneous,4,absent,0.656636953353882,1,vertical,vertical,1,3,red,3,NaN,NaN,NaN,NaN,NaN,NaN,NaN,NaN,NaN,NaN,NaN,NaN,NaN,6,3,4,0,horizontal,vertical,vertical,horizontal
2b,12,100358,9,10,266,20,F,NA,constant,heterogeneous,4,absent,0.894202947616577,1,vertical,vertical,1,2,red,1,NaN,NaN,NaN,NaN,NaN,NaN,NaN,NaN,NaN,NaN,NaN,NaN,NaN,4,0,5,6,vertical,horizontal,horizontal,vertical
2b,12,100358,9,11,267,20,F,NA,constant,heterogeneous,4,absent,0.780239105224609,1,horizontal,horizontal,1,3,red,1,NaN,NaN,NaN,NaN,NaN,NaN,NaN,NaN,NaN,NaN,NaN,NaN,NaN,4,0,6,5,horizontal,vertical,horizontal,horizontal
2b,12,100358,9,12,268,20,F,NA,constant,heterogeneous,4,present,0.68022894859314,1,horizontal,horizontal,1,2,red,4,3,NaN,NaN,NaN,NaN,NaN,NaN,NaN,NaN,NaN,NaN,NaN,NaN,6,0,3,4,horizontal,horizontal,vertical,horizontal
2b,12,100358,9,13,269,20,F,NA,constant,heterogeneous,4,present,0.973833799362183,1,vertical,vertical,1,8,red,4,2,NaN,NaN,NaN,NaN,NaN,NaN,NaN,NaN,NaN,NaN,NaN,NaN,5,0,3,4,vertical,horizontal,horizontal,vertical
2b,12,100358,9,14,270,20,F,NA,constant,heterogeneous,4,absent,1.86153697967529,1,horizontal,horizontal,1,5,red,1,NaN,NaN,NaN,NaN,NaN,NaN,NaN,NaN,NaN,NaN,NaN,NaN,NaN,4,3,6,0,horizontal,vertical,horizontal,vertical
2b,12,100358,9,15,271,20,F,NA,constant,heterogeneous,4,absent,0.927170038223267,1,horizontal,horizontal,1,5,red,1,NaN,NaN,NaN,NaN,NaN,NaN,NaN,NaN,NaN,NaN,NaN,NaN,NaN,4,3,5,0,horizontal,horizontal,horizontal,horizontal
2b,12,100358,9,16,272,20,F,NA,constant,heterogeneous,4,present,0.677932024002075,1,vertical,vertical,1,5,red,3,4,NaN,NaN,NaN,NaN,NaN,NaN,NaN,NaN,NaN,NaN,NaN,NaN,3,5,4,0,vertical,horizontal,vertical,horizontal
2b,12,100358,9,17,273,20,F,NA,constant,heterogeneous,4,absent,0.851633787155151,1,vertical,vertical,1,5,red,4,NaN,NaN,NaN,NaN,NaN,NaN,NaN,NaN,NaN,NaN,NaN,NaN,NaN,0,5,3,4,horizontal,vertical,vertical,vertical
2b,12,100358,9,18,274,20,F,NA,constant,heterogeneous,4,absent,1.2489640712738,1,vertical,vertical,1,3,red,1,NaN,NaN,NaN,NaN,NaN,NaN,NaN,NaN,NaN,NaN,NaN,NaN,NaN,4,3,0,5,vertical,vertical,vertical,vertical
2b,12,100358,9,19,275,20,F,NA,constant,heterogeneous,4,absent,0.550371885299683,1,vertical,vertical,1,2,red,2,NaN,NaN,NaN,NaN,NaN,NaN,NaN,NaN,NaN,NaN,NaN,NaN,NaN,5,4,6,0,horizontal,vertical,horizontal,horizontal
2b,12,100358,9,20,276,20,F,NA,constant,heterogeneous,4,absent,0.877273082733154,1,horizontal,horizontal,1,2,red,1,NaN,NaN,NaN,NaN,NaN,NaN,NaN,NaN,NaN,NaN,NaN,NaN,NaN,4,6,5,3,horizontal,vertical,horizontal,horizontal
2b,12,100358,9,21,277,20,F,NA,constant,heterogeneous,4,present,0.683054208755493,1,horizontal,horizontal,1,2,red,2,4,NaN,NaN,NaN,NaN,NaN,NaN,NaN,NaN,NaN,NaN,NaN,NaN,3,4,5,6,vertical,horizontal,vertical,vertical
2b,12,100358,9,22,278,20,F,NA,constant,heterogeneous,4,present,0.637269020080566,1,horizontal,horizontal,1,3,red,1,4,NaN,NaN,NaN,NaN,NaN,NaN,NaN,NaN,NaN,NaN,NaN,NaN,4,3,6,5,horizontal,horizontal,horizontal,horizontal
2b,12,100358,9,23,279,20,F,NA,constant,heterogeneous,4,absent,0.709969997406006,1,horizontal,horizontal,1,2,red,4,NaN,NaN,NaN,NaN,NaN,NaN,NaN,NaN,NaN,NaN,NaN,NaN,NaN,5,0,3,4,vertical,horizontal,vertical,horizontal
2b,12,100358,9,24,280,20,F,NA,constant,heterogeneous,4,present,0.760707855224609,0,vertical,horizontal,1,2,red,4,1,NaN,NaN,NaN,NaN,NaN,NaN,NaN,NaN,NaN,NaN,NaN,NaN,3,5,0,4,vertical,horizontal,vertical,vertical
2b,12,100358,9,25,281,20,F,NA,constant,heterogeneous,4,present,0.803993940353394,0,vertical,horizontal,1,3,red,3,1,NaN,NaN,NaN,NaN,NaN,NaN,NaN,NaN,NaN,NaN,NaN,NaN,6,0,4,3,horizontal,horizontal,vertical,horizontal
2b,12,100358,9,26,282,20,F,NA,constant,heterogeneous,4,present,0.816228151321411,1,horizontal,horizontal,1,3,red,4,3,NaN,NaN,NaN,NaN,NaN,NaN,NaN,NaN,NaN,NaN,NaN,NaN,0,6,5,4,vertical,vertical,vertical,horizontal
2b,12,100358,9,27,283,20,F,NA,constant,heterogeneous,4,present,0.736747980117798,1,vertical,vertical,1,3,red,3,1,NaN,NaN,NaN,NaN,NaN,NaN,NaN,NaN,NaN,NaN,NaN,NaN,5,3,4,0,horizontal,vertical,vertical,vertical
2b,12,100358,9,28,284,20,F,NA,constant,heterogeneous,4,present,0.65966796875,1,vertical,vertical,1,5,red,3,2,NaN,NaN,NaN,NaN,NaN,NaN,NaN,NaN,NaN,NaN,NaN,NaN,0,5,4,6,vertical,vertical,vertical,horizontal
2b,12,100358,9,29,285,20,F,NA,constant,heterogeneous,4,absent,0.917481899261475,1,horizontal,horizontal,1,8,red,4,NaN,NaN,NaN,NaN,NaN,NaN,NaN,NaN,NaN,NaN,NaN,NaN,NaN,3,0,5,4,vertical,horizontal,vertical,horizontal
2b,12,100358,9,30,286,20,F,NA,constant,heterogeneous,4,absent,1.33214902877808,1,vertical,vertical,1,8,red,2,NaN,NaN,NaN,NaN,NaN,NaN,NaN,NaN,NaN,NaN,NaN,NaN,NaN,6,4,3,5,vertical,vertical,horizontal,horizontal
2b,12,100358,9,31,287,20,F,NA,constant,heterogeneous,4,present,0.687064170837402,0,horizontal,vertical,1,5,red,2,4,NaN,NaN,NaN,NaN,NaN,NaN,NaN,NaN,NaN,NaN,NaN,NaN,5,4,6,3,vertical,horizontal,horizontal,horizontal
2b,12,100358,9,32,288,20,F,NA,constant,heterogeneous,4,present,0.84918212890625,1,horizontal,horizontal,1,5,red,3,4,NaN,NaN,NaN,NaN,NaN,NaN,NaN,NaN,NaN,NaN,NaN,NaN,0,5,4,6,horizontal,vertical,horizontal,horizontal
2b,12,100358,10,1,289,20,F,NA,constant,heterogeneous,4,absent,0.747308015823364,1,horizontal,horizontal,1,3,red,4,NaN,NaN,NaN,NaN,NaN,NaN,NaN,NaN,NaN,NaN,NaN,NaN,NaN,3,6,0,4,vertical,vertical,horizontal,horizontal
2b,12,100358,10,2,290,20,F,NA,constant,heterogeneous,4,present,0.59449291229248,1,vertical,vertical,1,3,red,1,3,NaN,NaN,NaN,NaN,NaN,NaN,NaN,NaN,NaN,NaN,NaN,NaN,4,5,3,0,vertical,vertical,vertical,horizontal
2b,12,100358,10,3,291,20,F,NA,constant,heterogeneous,4,present,0.666576147079468,1,horizontal,horizontal,1,2,red,1,4,NaN,NaN,NaN,NaN,NaN,NaN,NaN,NaN,NaN,NaN,NaN,NaN,4,0,3,6,horizontal,horizontal,horizontal,horizontal
2b,12,100358,10,4,292,20,F,NA,constant,heterogeneous,4,absent,0.708001136779785,1,vertical,vertical,1,5,red,4,NaN,NaN,NaN,NaN,NaN,NaN,NaN,NaN,NaN,NaN,NaN,NaN,NaN,5,3,0,4,vertical,vertical,horizontal,vertical
2b,12,100358,10,5,293,20,F,NA,constant,heterogeneous,4,absent,0.758578062057495,1,horizontal,horizontal,1,8,red,4,NaN,NaN,NaN,NaN,NaN,NaN,NaN,NaN,NaN,NaN,NaN,NaN,NaN,0,3,6,4,horizontal,vertical,horizontal,horizontal
2b,12,100358,10,6,294,20,F,NA,constant,heterogeneous,4,present,0.826004981994629,1,vertical,vertical,1,8,red,3,1,NaN,NaN,NaN,NaN,NaN,NaN,NaN,NaN,NaN,NaN,NaN,NaN,3,6,4,5,horizontal,horizontal,vertical,vertical
2b,12,100358,10,7,295,20,F,NA,constant,heterogeneous,4,present,0.702921867370605,1,horizontal,horizontal,1,5,red,1,4,NaN,NaN,NaN,NaN,NaN,NaN,NaN,NaN,NaN,NaN,NaN,NaN,4,0,3,5,horizontal,horizontal,horizontal,horizontal
2b,12,100358,10,8,296,20,F,NA,constant,heterogeneous,4,absent,0.685261011123657,1,vertical,vertical,1,2,red,1,NaN,NaN,NaN,NaN,NaN,NaN,NaN,NaN,NaN,NaN,NaN,NaN,NaN,4,0,5,6,vertical,vertical,vertical,vertical
2b,12,100358,10,9,297,20,F,NA,constant,heterogeneous,4,present,0.735090017318726,1,horizontal,horizontal,1,3,red,3,4,NaN,NaN,NaN,NaN,NaN,NaN,NaN,NaN,NaN,NaN,NaN,NaN,3,5,4,6,horizontal,horizontal,horizontal,horizontal
2b,12,100358,10,10,298,20,F,NA,constant,heterogeneous,4,absent,0.818146944046021,0,horizontal,vertical,1,3,red,4,NaN,NaN,NaN,NaN,NaN,NaN,NaN,NaN,NaN,NaN,NaN,NaN,NaN,5,0,6,4,horizontal,horizontal,horizontal,horizontal
2b,12,100358,10,11,299,20,F,NA,constant,heterogeneous,4,present,0.810452938079834,1,vertical,vertical,1,2,red,1,4,NaN,NaN,NaN,NaN,NaN,NaN,NaN,NaN,NaN,NaN,NaN,NaN,4,3,6,0,vertical,vertical,vertical,horizontal
2b,12,100358,10,12,300,20,F,NA,constant,heterogeneous,4,absent,0.827193975448608,1,vertical,vertical,1,3,red,2,NaN,NaN,NaN,NaN,NaN,NaN,NaN,NaN,NaN,NaN,NaN,NaN,NaN,0,4,6,5,vertical,vertical,horizontal,horizontal
2b,12,100358,10,13,301,20,F,NA,constant,heterogeneous,4,absent,0.664087057113647,1,vertical,vertical,1,2,red,4,NaN,NaN,NaN,NaN,NaN,NaN,NaN,NaN,NaN,NaN,NaN,NaN,NaN,3,0,6,4,vertical,vertical,vertical,vertical
2b,12,100358,10,14,302,20,F,NA,constant,heterogeneous,4,absent,1.18526792526245,1,horizontal,horizontal,1,5,red,2,NaN,NaN,NaN,NaN,NaN,NaN,NaN,NaN,NaN,NaN,NaN,NaN,NaN,0,4,5,3,horizontal,horizontal,vertical,horizontal
2b,12,100358,10,15,303,20,F,NA,constant,heterogeneous,4,present,0.757420063018799,1,vertical,vertical,1,3,red,1,4,NaN,NaN,NaN,NaN,NaN,NaN,NaN,NaN,NaN,NaN,NaN,NaN,4,3,0,5,vertical,vertical,vertical,horizontal
2b,12,100358,10,16,304,20,F,NA,constant,heterogeneous,4,present,1.05675721168518,1,vertical,vertical,1,5,red,4,2,NaN,NaN,NaN,NaN,NaN,NaN,NaN,NaN,NaN,NaN,NaN,NaN,0,6,5,4,vertical,horizontal,vertical,vertical
2b,12,100358,10,17,305,20,F,NA,constant,heterogeneous,4,absent,0.646054983139038,1,vertical,vertical,1,3,red,3,NaN,NaN,NaN,NaN,NaN,NaN,NaN,NaN,NaN,NaN,NaN,NaN,NaN,0,6,4,5,vertical,horizontal,vertical,horizontal
2b,12,100358,10,18,306,20,F,NA,constant,heterogeneous,4,absent,1.13944101333618,1,vertical,vertical,1,2,red,1,NaN,NaN,NaN,NaN,NaN,NaN,NaN,NaN,NaN,NaN,NaN,NaN,NaN,4,6,0,3,vertical,horizontal,vertical,vertical
2b,12,100358,10,19,307,20,F,NA,constant,heterogeneous,4,absent,0.798575162887573,1,vertical,vertical,1,8,red,4,NaN,NaN,NaN,NaN,NaN,NaN,NaN,NaN,NaN,NaN,NaN,NaN,NaN,3,0,5,4,vertical,vertical,horizontal,vertical
2b,12,100358,10,20,308,20,F,NA,constant,heterogeneous,4,absent,0.99500584602356,1,horizontal,horizontal,1,2,red,2,NaN,NaN,NaN,NaN,NaN,NaN,NaN,NaN,NaN,NaN,NaN,NaN,NaN,0,4,3,6,horizontal,horizontal,vertical,vertical
2b,12,100358,10,21,309,20,F,NA,constant,heterogeneous,4,absent,1.04276704788208,1,vertical,vertical,1,5,red,1,NaN,NaN,NaN,NaN,NaN,NaN,NaN,NaN,NaN,NaN,NaN,NaN,NaN,4,0,3,6,vertical,horizontal,vertical,horizontal
2b,12,100358,10,22,310,20,F,NA,constant,heterogeneous,4,present,0.699897050857544,1,horizontal,horizontal,1,2,red,3,2,NaN,NaN,NaN,NaN,NaN,NaN,NaN,NaN,NaN,NaN,NaN,NaN,3,0,4,6,vertical,vertical,horizontal,vertical
2b,12,100358,10,23,311,20,F,NA,constant,heterogeneous,4,present,0.674064874649048,1,horizontal,horizontal,1,5,red,4,3,NaN,NaN,NaN,NaN,NaN,NaN,NaN,NaN,NaN,NaN,NaN,NaN,3,6,0,4,horizontal,vertical,horizontal,horizontal
2b,12,100358,10,24,312,20,F,NA,constant,heterogeneous,4,present,0.952067136764526,1,vertical,vertical,1,2,red,3,1,NaN,NaN,NaN,NaN,NaN,NaN,NaN,NaN,NaN,NaN,NaN,NaN,0,6,4,3,horizontal,vertical,vertical,vertical
2b,12,100358,10,25,313,20,F,NA,constant,heterogeneous,4,absent,0.755419015884399,1,horizontal,horizontal,1,2,red,4,NaN,NaN,NaN,NaN,NaN,NaN,NaN,NaN,NaN,NaN,NaN,NaN,NaN,3,6,0,4,horizontal,horizontal,vertical,horizontal
2b,12,100358,10,26,314,20,F,NA,constant,heterogeneous,4,present,1.10296893119812,1,horizontal,horizontal,1,3,red,1,2,NaN,NaN,NaN,NaN,NaN,NaN,NaN,NaN,NaN,NaN,NaN,NaN,4,3,6,5,horizontal,horizontal,horizontal,horizontal
2b,12,100358,10,27,315,20,F,NA,constant,heterogeneous,4,absent,1.62889385223389,1,horizontal,horizontal,1,2,red,2,NaN,NaN,NaN,NaN,NaN,NaN,NaN,NaN,NaN,NaN,NaN,NaN,NaN,5,4,0,3,vertical,horizontal,vertical,vertical
2b,12,100358,10,28,316,20,F,NA,constant,heterogeneous,4,present,0.993738174438477,1,vertical,vertical,1,5,red,4,1,NaN,NaN,NaN,NaN,NaN,NaN,NaN,NaN,NaN,NaN,NaN,NaN,5,3,6,4,horizontal,vertical,vertical,vertical
2b,12,100358,10,29,317,20,F,NA,constant,heterogeneous,4,absent,0.945981025695801,1,horizontal,horizontal,1,5,red,2,NaN,NaN,NaN,NaN,NaN,NaN,NaN,NaN,NaN,NaN,NaN,NaN,NaN,5,4,0,6,vertical,horizontal,vertical,horizontal
2b,12,100358,10,30,318,20,F,NA,constant,heterogeneous,4,present,1.22491598129272,0,vertical,horizontal,1,2,red,1,4,NaN,NaN,NaN,NaN,NaN,NaN,NaN,NaN,NaN,NaN,NaN,NaN,4,3,6,5,vertical,horizontal,vertical,horizontal
2b,12,100358,10,31,319,20,F,NA,constant,heterogeneous,4,present,0.725901126861572,1,horizontal,horizontal,1,2,red,3,2,NaN,NaN,NaN,NaN,NaN,NaN,NaN,NaN,NaN,NaN,NaN,NaN,3,5,4,6,vertical,vertical,horizontal,vertical
2b,12,100358,10,32,320,20,F,NA,constant,heterogeneous,4,present,1.02051615715027,1,horizontal,horizontal,1,8,red,1,3,NaN,NaN,NaN,NaN,NaN,NaN,NaN,NaN,NaN,NaN,NaN,NaN,4,0,5,3,horizontal,horizontal,vertical,horizontal
2b,12,100358,11,1,321,20,F,NA,constant,homogeneous,4,absent,1.54184103012085,1,horizontal,horizontal,1,3,red,2,NaN,980.31222920257,419.68777079743,NaN,NaN,980.31222920257,780.31222920257,980.31222920257,419.68777079743,619.68777079743,419.68777079743,619.68777079743,780.31222920257,0,4,0,0,vertical,horizontal,horizontal,vertical
2b,12,100358,11,2,322,20,F,NA,constant,homogeneous,4,present,0.72453498840332,1,horizontal,horizontal,1,2,red,4,1,619.68777079743,780.31222920257,980.31222920257,780.31222920257,980.31222920257,780.31222920257,980.31222920257,419.68777079743,619.68777079743,419.68777079743,619.68777079743,780.31222920257,0,0,0,4,vertical,vertical,horizontal,horizontal
2b,12,100358,11,3,323,20,F,NA,constant,homogeneous,4,absent,0.820142984390259,1,vertical,vertical,1,5,red,2,NaN,980.31222920257,419.68777079743,NaN,NaN,980.31222920257,780.31222920257,980.31222920257,419.68777079743,619.68777079743,419.68777079743,619.68777079743,780.31222920257,0,4,0,0,horizontal,vertical,vertical,horizontal
2b,12,100358,11,4,324,20,F,NA,constant,homogeneous,4,absent,0.652342081069946,1,vertical,vertical,1,2,red,4,NaN,619.68777079743,780.31222920257,NaN,NaN,980.31222920257,780.31222920257,980.31222920257,419.68777079743,619.68777079743,419.68777079743,619.68777079743,780.31222920257,0,0,0,4,horizontal,horizontal,horizontal,vertical
2b,12,100358,11,5,325,20,F,NA,constant,homogeneous,4,present,0.945509195327759,1,horizontal,horizontal,1,5,red,1,3,980.31222920257,780.31222920257,619.68777079743,419.68777079743,980.31222920257,780.31222920257,980.31222920257,419.68777079743,619.68777079743,419.68777079743,619.68777079743,780.31222920257,4,0,0,0,horizontal,horizontal,vertical,vertical
2b,12,100358,11,6,326,20,F,NA,constant,homogeneous,4,absent,0.624593019485474,1,vertical,vertical,1,3,red,1,NaN,980.31222920257,780.31222920257,NaN,NaN,980.31222920257,780.31222920257,980.31222920257,419.68777079743,619.68777079743,419.68777079743,619.68777079743,780.31222920257,4,0,0,0,vertical,horizontal,horizontal,horizontal
2b,12,100358,11,7,327,20,F,NA,constant,homogeneous,4,absent,0.933795213699341,1,vertical,vertical,1,8,red,2,NaN,980.31222920257,419.68777079743,NaN,NaN,980.31222920257,780.31222920257,980.31222920257,419.68777079743,619.68777079743,419.68777079743,619.68777079743,780.31222920257,0,4,0,0,horizontal,vertical,vertical,vertical
2b,12,100358,11,8,328,20,F,NA,constant,homogeneous,4,present,0.728878974914551,1,vertical,vertical,1,8,red,1,4,980.31222920257,780.31222920257,619.68777079743,780.31222920257,980.31222920257,780.31222920257,980.31222920257,419.68777079743,619.68777079743,419.68777079743,619.68777079743,780.31222920257,4,0,0,0,vertical,horizontal,vertical,horizontal
2b,12,100358,11,9,329,20,F,NA,constant,homogeneous,4,absent,0.643594026565552,1,vertical,vertical,1,2,red,4,NaN,619.68777079743,780.31222920257,NaN,NaN,980.31222920257,780.31222920257,980.31222920257,419.68777079743,619.68777079743,419.68777079743,619.68777079743,780.31222920257,0,0,0,4,horizontal,horizontal,horizontal,vertical
2b,12,100358,11,10,330,20,F,NA,constant,homogeneous,4,absent,0.644852161407471,1,vertical,vertical,1,3,red,1,NaN,980.31222920257,780.31222920257,NaN,NaN,980.31222920257,780.31222920257,980.31222920257,419.68777079743,619.68777079743,419.68777079743,619.68777079743,780.31222920257,4,0,0,0,vertical,vertical,vertical,vertical
2b,12,100358,11,11,331,20,F,NA,constant,homogeneous,4,absent,0.942037105560303,1,horizontal,horizontal,1,8,red,2,NaN,980.31222920257,419.68777079743,NaN,NaN,980.31222920257,780.31222920257,980.31222920257,419.68777079743,619.68777079743,419.68777079743,619.68777079743,780.31222920257,0,4,0,0,vertical,horizontal,vertical,horizontal
2b,12,100358,11,12,332,20,F,NA,constant,homogeneous,4,absent,0.733083009719849,1,horizontal,horizontal,1,5,red,1,NaN,980.31222920257,780.31222920257,NaN,NaN,980.31222920257,780.31222920257,980.31222920257,419.68777079743,619.68777079743,419.68777079743,619.68777079743,780.31222920257,4,0,0,0,horizontal,horizontal,vertical,vertical
2b,12,100358,11,13,333,20,F,NA,constant,homogeneous,4,present,0.768037080764771,1,vertical,vertical,1,5,red,3,1,619.68777079743,419.68777079743,980.31222920257,780.31222920257,980.31222920257,780.31222920257,980.31222920257,419.68777079743,619.68777079743,419.68777079743,619.68777079743,780.31222920257,0,0,4,0,horizontal,vertical,vertical,horizontal
2b,12,100358,11,14,334,20,F,NA,constant,homogeneous,4,present,0.607563972473145,1,vertical,vertical,1,3,red,2,4,980.31222920257,419.68777079743,619.68777079743,780.31222920257,980.31222920257,780.31222920257,980.31222920257,419.68777079743,619.68777079743,419.68777079743,619.68777079743,780.31222920257,0,4,0,0,vertical,vertical,horizontal,vertical
2b,12,100358,11,15,335,20,F,NA,constant,homogeneous,4,absent,0.675906896591187,1,vertical,vertical,1,5,red,1,NaN,980.31222920257,780.31222920257,NaN,NaN,980.31222920257,780.31222920257,980.31222920257,419.68777079743,619.68777079743,419.68777079743,619.68777079743,780.31222920257,4,0,0,0,vertical,horizontal,vertical,horizontal
2b,12,100358,11,16,336,20,F,NA,constant,homogeneous,4,present,0.61767315864563,1,vertical,vertical,1,2,red,3,2,619.68777079743,419.68777079743,980.31222920257,419.68777079743,980.31222920257,780.31222920257,980.31222920257,419.68777079743,619.68777079743,419.68777079743,619.68777079743,780.31222920257,0,0,4,0,horizontal,vertical,vertical,vertical
2b,12,100358,11,17,337,20,F,NA,constant,homogeneous,4,present,0.706314086914062,1,vertical,vertical,1,5,red,3,1,619.68777079743,419.68777079743,980.31222920257,780.31222920257,980.31222920257,780.31222920257,980.31222920257,419.68777079743,619.68777079743,419.68777079743,619.68777079743,780.31222920257,0,0,4,0,horizontal,vertical,vertical,horizontal
2b,12,100358,11,18,338,20,F,NA,constant,homogeneous,4,absent,0.660830974578857,1,horizontal,horizontal,1,2,red,3,NaN,619.68777079743,419.68777079743,NaN,NaN,980.31222920257,780.31222920257,980.31222920257,419.68777079743,619.68777079743,419.68777079743,619.68777079743,780.31222920257,0,0,4,0,vertical,horizontal,horizontal,horizontal
2b,12,100358,11,19,339,20,F,NA,constant,homogeneous,4,present,0.790227890014648,1,horizontal,horizontal,1,2,red,2,1,980.31222920257,419.68777079743,980.31222920257,780.31222920257,980.31222920257,780.31222920257,980.31222920257,419.68777079743,619.68777079743,419.68777079743,619.68777079743,780.31222920257,0,4,0,0,vertical,horizontal,horizontal,vertical
2b,12,100358,11,20,340,20,F,NA,constant,homogeneous,4,present,0.550408124923706,1,horizontal,horizontal,1,2,red,4,3,619.68777079743,780.31222920257,619.68777079743,419.68777079743,980.31222920257,780.31222920257,980.31222920257,419.68777079743,619.68777079743,419.68777079743,619.68777079743,780.31222920257,0,0,0,4,horizontal,horizontal,vertical,horizontal
2b,12,100358,11,21,341,20,F,NA,constant,homogeneous,4,present,0.557674884796143,1,horizontal,horizontal,1,8,red,4,3,619.68777079743,780.31222920257,619.68777079743,419.68777079743,980.31222920257,780.31222920257,980.31222920257,419.68777079743,619.68777079743,419.68777079743,619.68777079743,780.31222920257,0,0,0,4,horizontal,vertical,vertical,horizontal
2b,12,100358,11,22,342,20,F,NA,constant,homogeneous,4,present,0.617110013961792,1,vertical,vertical,1,2,red,2,1,980.31222920257,419.68777079743,980.31222920257,780.31222920257,980.31222920257,780.31222920257,980.31222920257,419.68777079743,619.68777079743,419.68777079743,619.68777079743,780.31222920257,0,4,0,0,vertical,vertical,horizontal,horizontal
2b,12,100358,11,23,343,20,F,NA,constant,homogeneous,4,present,0.705657005310059,1,vertical,vertical,1,3,red,1,3,980.31222920257,780.31222920257,619.68777079743,419.68777079743,980.31222920257,780.31222920257,980.31222920257,419.68777079743,619.68777079743,419.68777079743,619.68777079743,780.31222920257,4,0,0,0,vertical,horizontal,horizontal,vertical
2b,12,100358,11,24,344,20,F,NA,constant,homogeneous,4,absent,0.556035041809082,1,horizontal,horizontal,1,5,red,4,NaN,619.68777079743,780.31222920257,NaN,NaN,980.31222920257,780.31222920257,980.31222920257,419.68777079743,619.68777079743,419.68777079743,619.68777079743,780.31222920257,0,0,0,4,vertical,horizontal,horizontal,horizontal
2b,12,100358,11,25,345,20,F,NA,constant,homogeneous,4,present,0.623401880264282,1,horizontal,horizontal,1,3,red,1,3,980.31222920257,780.31222920257,619.68777079743,419.68777079743,980.31222920257,780.31222920257,980.31222920257,419.68777079743,619.68777079743,419.68777079743,619.68777079743,780.31222920257,4,0,0,0,horizontal,horizontal,horizontal,horizontal
2b,12,100358,11,26,346,20,F,NA,constant,homogeneous,4,present,0.588413000106812,1,horizontal,horizontal,1,5,red,4,2,619.68777079743,780.31222920257,980.31222920257,419.68777079743,980.31222920257,780.31222920257,980.31222920257,419.68777079743,619.68777079743,419.68777079743,619.68777079743,780.31222920257,0,0,0,4,horizontal,vertical,vertical,horizontal
2b,12,100358,11,27,347,20,F,NA,constant,homogeneous,4,absent,0.596594095230103,0,horizontal,vertical,1,2,red,2,NaN,980.31222920257,419.68777079743,NaN,NaN,980.31222920257,780.31222920257,980.31222920257,419.68777079743,619.68777079743,419.68777079743,619.68777079743,780.31222920257,0,4,0,0,vertical,horizontal,horizontal,vertical
2b,12,100358,11,28,348,20,F,NA,constant,homogeneous,4,present,0.732574939727783,1,vertical,vertical,1,2,red,3,4,619.68777079743,419.68777079743,619.68777079743,780.31222920257,980.31222920257,780.31222920257,980.31222920257,419.68777079743,619.68777079743,419.68777079743,619.68777079743,780.31222920257,0,0,4,0,horizontal,vertical,vertical,vertical
2b,12,100358,11,29,349,20,F,NA,constant,homogeneous,4,absent,0.623528003692627,1,horizontal,horizontal,1,3,red,3,NaN,619.68777079743,419.68777079743,NaN,NaN,980.31222920257,780.31222920257,980.31222920257,419.68777079743,619.68777079743,419.68777079743,619.68777079743,780.31222920257,0,0,4,0,vertical,vertical,horizontal,horizontal
2b,12,100358,11,30,350,20,F,NA,constant,homogeneous,4,absent,0.628233194351196,1,vertical,vertical,1,2,red,2,NaN,980.31222920257,419.68777079743,NaN,NaN,980.31222920257,780.31222920257,980.31222920257,419.68777079743,619.68777079743,419.68777079743,619.68777079743,780.31222920257,0,4,0,0,vertical,vertical,horizontal,horizontal
2b,12,100358,11,31,351,20,F,NA,constant,homogeneous,4,absent,0.632683038711548,0,horizontal,vertical,1,2,red,2,NaN,980.31222920257,419.68777079743,NaN,NaN,980.31222920257,780.31222920257,980.31222920257,419.68777079743,619.68777079743,419.68777079743,619.68777079743,780.31222920257,0,4,0,0,vertical,horizontal,horizontal,vertical
2b,12,100358,11,32,352,20,F,NA,constant,homogeneous,4,present,0.96577000617981,1,horizontal,horizontal,1,3,red,4,1,619.68777079743,780.31222920257,980.31222920257,780.31222920257,980.31222920257,780.31222920257,980.31222920257,419.68777079743,619.68777079743,419.68777079743,619.68777079743,780.31222920257,0,0,0,4,vertical,vertical,horizontal,horizontal
2b,12,100358,12,1,353,20,F,NA,constant,homogeneous,4,absent,0.758413076400757,1,vertical,vertical,1,8,red,4,NaN,619.68777079743,780.31222920257,NaN,NaN,980.31222920257,780.31222920257,980.31222920257,419.68777079743,619.68777079743,419.68777079743,619.68777079743,780.31222920257,0,0,0,4,horizontal,vertical,vertical,vertical
2b,12,100358,12,2,354,20,F,NA,constant,homogeneous,4,present,0.849462985992432,1,vertical,vertical,1,5,red,2,4,980.31222920257,419.68777079743,619.68777079743,780.31222920257,980.31222920257,780.31222920257,980.31222920257,419.68777079743,619.68777079743,419.68777079743,619.68777079743,780.31222920257,0,4,0,0,vertical,vertical,vertical,horizontal
2b,12,100358,12,3,355,20,F,NA,constant,homogeneous,4,absent,0.942811012268066,1,vertical,vertical,1,3,red,1,NaN,980.31222920257,780.31222920257,NaN,NaN,980.31222920257,780.31222920257,980.31222920257,419.68777079743,619.68777079743,419.68777079743,619.68777079743,780.31222920257,4,0,0,0,vertical,horizontal,vertical,vertical
2b,12,100358,12,4,356,20,F,NA,constant,homogeneous,4,present,0.630073070526123,1,horizontal,horizontal,1,2,red,3,2,619.68777079743,419.68777079743,980.31222920257,419.68777079743,980.31222920257,780.31222920257,980.31222920257,419.68777079743,619.68777079743,419.68777079743,619.68777079743,780.31222920257,0,0,4,0,vertical,horizontal,horizontal,horizontal
2b,12,100358,12,5,357,20,F,NA,constant,homogeneous,4,present,0.746841907501221,1,vertical,vertical,1,2,red,3,2,619.68777079743,419.68777079743,980.31222920257,419.68777079743,980.31222920257,780.31222920257,980.31222920257,419.68777079743,619.68777079743,419.68777079743,619.68777079743,780.31222920257,0,0,4,0,horizontal,horizontal,vertical,horizontal
2b,12,100358,12,6,358,20,F,NA,constant,homogeneous,4,absent,0.64987587928772,1,vertical,vertical,1,2,red,3,NaN,619.68777079743,419.68777079743,NaN,NaN,980.31222920257,780.31222920257,980.31222920257,419.68777079743,619.68777079743,419.68777079743,619.68777079743,780.31222920257,0,0,4,0,horizontal,vertical,vertical,horizontal
2b,12,100358,12,7,359,20,F,NA,constant,homogeneous,4,absent,0.663352012634277,1,vertical,vertical,1,2,red,1,NaN,980.31222920257,780.31222920257,NaN,NaN,980.31222920257,780.31222920257,980.31222920257,419.68777079743,619.68777079743,419.68777079743,619.68777079743,780.31222920257,4,0,0,0,vertical,vertical,horizontal,vertical
2b,12,100358,12,8,360,20,F,NA,constant,homogeneous,4,absent,0.608436822891235,1,vertical,vertical,1,3,red,4,NaN,619.68777079743,780.31222920257,NaN,NaN,980.31222920257,780.31222920257,980.31222920257,419.68777079743,619.68777079743,419.68777079743,619.68777079743,780.31222920257,0,0,0,4,horizontal,horizontal,vertical,vertical
2b,12,100358,12,9,361,20,F,NA,constant,homogeneous,4,present,0.492796182632446,1,horizontal,horizontal,1,2,red,4,1,619.68777079743,780.31222920257,980.31222920257,780.31222920257,980.31222920257,780.31222920257,980.31222920257,419.68777079743,619.68777079743,419.68777079743,619.68777079743,780.31222920257,0,0,0,4,vertical,horizontal,vertical,horizontal
2b,12,100358,12,10,362,20,F,NA,constant,homogeneous,4,absent,0.698961973190308,1,horizontal,horizontal,1,5,red,4,NaN,619.68777079743,780.31222920257,NaN,NaN,980.31222920257,780.31222920257,980.31222920257,419.68777079743,619.68777079743,419.68777079743,619.68777079743,780.31222920257,0,0,0,4,horizontal,horizontal,vertical,horizontal
2b,12,100358,12,11,363,20,F,NA,constant,homogeneous,4,present,0.801239967346191,1,vertical,vertical,1,3,red,3,2,619.68777079743,419.68777079743,980.31222920257,419.68777079743,980.31222920257,780.31222920257,980.31222920257,419.68777079743,619.68777079743,419.68777079743,619.68777079743,780.31222920257,0,0,4,0,horizontal,vertical,vertical,horizontal
2b,12,100358,12,12,364,20,F,NA,constant,homogeneous,4,absent,0.845566987991333,1,horizontal,horizontal,1,3,red,2,NaN,980.31222920257,419.68777079743,NaN,NaN,980.31222920257,780.31222920257,980.31222920257,419.68777079743,619.68777079743,419.68777079743,619.68777079743,780.31222920257,0,4,0,0,horizontal,horizontal,vertical,vertical
2b,12,100358,12,13,365,20,F,NA,constant,homogeneous,4,present,0.635035991668701,1,horizontal,horizontal,1,3,red,4,2,619.68777079743,780.31222920257,980.31222920257,419.68777079743,980.31222920257,780.31222920257,980.31222920257,419.68777079743,619.68777079743,419.68777079743,619.68777079743,780.31222920257,0,0,0,4,horizontal,vertical,vertical,horizontal
2b,12,100358,12,14,366,20,F,NA,constant,homogeneous,4,absent,0.580191850662231,1,horizontal,horizontal,1,8,red,3,NaN,619.68777079743,419.68777079743,NaN,NaN,980.31222920257,780.31222920257,980.31222920257,419.68777079743,619.68777079743,419.68777079743,619.68777079743,780.31222920257,0,0,4,0,vertical,horizontal,horizontal,horizontal
2b,12,100358,12,15,367,20,F,NA,constant,homogeneous,4,present,0.6719970703125,1,horizontal,horizontal,1,3,red,1,4,980.31222920257,780.31222920257,619.68777079743,780.31222920257,980.31222920257,780.31222920257,980.31222920257,419.68777079743,619.68777079743,419.68777079743,619.68777079743,780.31222920257,4,0,0,0,horizontal,horizontal,vertical,horizontal
2b,12,100358,12,16,368,20,F,NA,constant,homogeneous,4,absent,0.717794179916382,1,vertical,vertical,1,5,red,1,NaN,980.31222920257,780.31222920257,NaN,NaN,980.31222920257,780.31222920257,980.31222920257,419.68777079743,619.68777079743,419.68777079743,619.68777079743,780.31222920257,4,0,0,0,vertical,horizontal,horizontal,vertical
2b,12,100358,12,17,369,20,F,NA,constant,homogeneous,4,present,0.620419979095459,1,vertical,vertical,1,5,red,3,1,619.68777079743,419.68777079743,980.31222920257,780.31222920257,980.31222920257,780.31222920257,980.31222920257,419.68777079743,619.68777079743,419.68777079743,619.68777079743,780.31222920257,0,0,4,0,horizontal,horizontal,vertical,horizontal
2b,12,100358,12,18,370,20,F,NA,constant,homogeneous,4,absent,0.732861042022705,1,horizontal,horizontal,1,2,red,2,NaN,980.31222920257,419.68777079743,NaN,NaN,980.31222920257,780.31222920257,980.31222920257,419.68777079743,619.68777079743,419.68777079743,619.68777079743,780.31222920257,0,4,0,0,horizontal,horizontal,vertical,horizontal
2b,12,100358,12,19,371,20,F,NA,constant,homogeneous,4,absent,0.775835990905762,1,horizontal,horizontal,1,2,red,1,NaN,980.31222920257,780.31222920257,NaN,NaN,980.31222920257,780.31222920257,980.31222920257,419.68777079743,619.68777079743,419.68777079743,619.68777079743,780.31222920257,4,0,0,0,horizontal,horizontal,vertical,vertical
2b,12,100358,12,20,372,20,F,NA,constant,homogeneous,4,present,0.507596015930176,0,vertical,horizontal,1,3,red,3,4,619.68777079743,419.68777079743,619.68777079743,780.31222920257,980.31222920257,780.31222920257,980.31222920257,419.68777079743,619.68777079743,419.68777079743,619.68777079743,780.31222920257,0,0,4,0,vertical,horizontal,vertical,vertical
2b,12,100358,12,21,373,20,F,NA,constant,homogeneous,4,absent,0.97414493560791,1,vertical,vertical,1,5,red,1,NaN,980.31222920257,780.31222920257,NaN,NaN,980.31222920257,780.31222920257,980.31222920257,419.68777079743,619.68777079743,419.68777079743,619.68777079743,780.31222920257,4,0,0,0,vertical,horizontal,horizontal,horizontal
2b,12,100358,12,22,374,20,F,NA,constant,homogeneous,4,present,0.757868051528931,1,horizontal,horizontal,1,5,red,3,2,619.68777079743,419.68777079743,980.31222920257,419.68777079743,980.31222920257,780.31222920257,980.31222920257,419.68777079743,619.68777079743,419.68777079743,619.68777079743,780.31222920257,0,0,4,0,vertical,vertical,horizontal,vertical
2b,12,100358,12,23,375,20,F,NA,constant,homogeneous,4,absent,0.721500873565674,1,horizontal,horizontal,1,3,red,1,NaN,980.31222920257,780.31222920257,NaN,NaN,980.31222920257,780.31222920257,980.31222920257,419.68777079743,619.68777079743,419.68777079743,619.68777079743,780.31222920257,4,0,0,0,horizontal,vertical,vertical,horizontal
2b,12,100358,12,24,376,20,F,NA,constant,homogeneous,4,absent,0.711952924728394,1,vertical,vertical,1,2,red,2,NaN,980.31222920257,419.68777079743,NaN,NaN,980.31222920257,780.31222920257,980.31222920257,419.68777079743,619.68777079743,419.68777079743,619.68777079743,780.31222920257,0,4,0,0,horizontal,vertical,vertical,horizontal
2b,12,100358,12,25,377,20,F,NA,constant,homogeneous,4,present,0.650701999664307,1,horizontal,horizontal,1,2,red,4,1,619.68777079743,780.31222920257,980.31222920257,780.31222920257,980.31222920257,780.31222920257,980.31222920257,419.68777079743,619.68777079743,419.68777079743,619.68777079743,780.31222920257,0,0,0,4,vertical,horizontal,horizontal,horizontal
2b,12,100358,12,26,378,20,F,NA,constant,homogeneous,4,absent,0.871752023696899,1,horizontal,horizontal,1,2,red,1,NaN,980.31222920257,780.31222920257,NaN,NaN,980.31222920257,780.31222920257,980.31222920257,419.68777079743,619.68777079743,419.68777079743,619.68777079743,780.31222920257,4,0,0,0,horizontal,vertical,horizontal,vertical
2b,12,100358,12,27,379,20,F,NA,constant,homogeneous,4,absent,0.589375972747803,1,horizontal,horizontal,1,5,red,1,NaN,980.31222920257,780.31222920257,NaN,NaN,980.31222920257,780.31222920257,980.31222920257,419.68777079743,619.68777079743,419.68777079743,619.68777079743,780.31222920257,4,0,0,0,horizontal,vertical,horizontal,horizontal
2b,12,100358,12,28,380,20,F,NA,constant,homogeneous,4,present,0.629667997360229,1,vertical,vertical,1,2,red,1,4,980.31222920257,780.31222920257,619.68777079743,780.31222920257,980.31222920257,780.31222920257,980.31222920257,419.68777079743,619.68777079743,419.68777079743,619.68777079743,780.31222920257,4,0,0,0,vertical,horizontal,vertical,vertical
2b,12,100358,12,29,381,20,F,NA,constant,homogeneous,4,present,0.802459001541138,1,horizontal,horizontal,1,5,red,3,4,619.68777079743,419.68777079743,619.68777079743,780.31222920257,980.31222920257,780.31222920257,980.31222920257,419.68777079743,619.68777079743,419.68777079743,619.68777079743,780.31222920257,0,0,4,0,vertical,vertical,horizontal,horizontal
2b,12,100358,12,30,382,20,F,NA,constant,homogeneous,4,present,0.646671056747437,1,vertical,vertical,1,2,red,3,4,619.68777079743,419.68777079743,619.68777079743,780.31222920257,980.31222920257,780.31222920257,980.31222920257,419.68777079743,619.68777079743,419.68777079743,619.68777079743,780.31222920257,0,0,4,0,horizontal,horizontal,vertical,horizontal
2b,12,100358,12,31,383,20,F,NA,constant,homogeneous,4,present,0.788043975830078,1,vertical,vertical,1,8,red,1,3,980.31222920257,780.31222920257,619.68777079743,419.68777079743,980.31222920257,780.31222920257,980.31222920257,419.68777079743,619.68777079743,419.68777079743,619.68777079743,780.31222920257,4,0,0,0,vertical,horizontal,vertical,horizontal
2b,12,100358,12,32,384,20,F,NA,constant,homogeneous,4,present,0.932432889938354,1,horizontal,horizontal,1,8,red,2,3,980.31222920257,419.68777079743,619.68777079743,419.68777079743,980.31222920257,780.31222920257,980.31222920257,419.68777079743,619.68777079743,419.68777079743,619.68777079743,780.31222920257,0,4,0,0,vertical,horizontal,vertical,vertical
2b,12,100358,13,1,385,20,F,NA,constant,homogeneous,4,absent,0.855611085891724,1,vertical,vertical,1,2,red,4,NaN,619.68777079743,780.31222920257,NaN,NaN,980.31222920257,780.31222920257,980.31222920257,419.68777079743,619.68777079743,419.68777079743,619.68777079743,780.31222920257,0,0,0,4,horizontal,horizontal,horizontal,vertical
2b,12,100358,13,2,386,20,F,NA,constant,homogeneous,4,present,0.780523061752319,1,vertical,vertical,1,2,red,1,3,980.31222920257,780.31222920257,619.68777079743,419.68777079743,980.31222920257,780.31222920257,980.31222920257,419.68777079743,619.68777079743,419.68777079743,619.68777079743,780.31222920257,4,0,0,0,vertical,horizontal,vertical,vertical
2b,12,100358,13,3,387,20,F,NA,constant,homogeneous,4,present,0.54474401473999,1,horizontal,horizontal,1,5,red,4,3,619.68777079743,780.31222920257,619.68777079743,419.68777079743,980.31222920257,780.31222920257,980.31222920257,419.68777079743,619.68777079743,419.68777079743,619.68777079743,780.31222920257,0,0,0,4,horizontal,vertical,horizontal,horizontal
2b,12,100358,13,4,388,20,F,NA,constant,homogeneous,4,absent,0.631878137588501,1,horizontal,horizontal,1,2,red,1,NaN,980.31222920257,780.31222920257,NaN,NaN,980.31222920257,780.31222920257,980.31222920257,419.68777079743,619.68777079743,419.68777079743,619.68777079743,780.31222920257,4,0,0,0,horizontal,horizontal,vertical,vertical
2b,12,100358,13,5,389,20,F,NA,constant,homogeneous,4,absent,0.541008949279785,1,horizontal,horizontal,1,8,red,1,NaN,980.31222920257,780.31222920257,NaN,NaN,980.31222920257,780.31222920257,980.31222920257,419.68777079743,619.68777079743,419.68777079743,619.68777079743,780.31222920257,4,0,0,0,horizontal,horizontal,vertical,horizontal
2b,12,100358,13,6,390,20,F,NA,constant,homogeneous,4,present,0.52373194694519,1,horizontal,horizontal,1,5,red,1,2,980.31222920257,780.31222920257,980.31222920257,419.68777079743,980.31222920257,780.31222920257,980.31222920257,419.68777079743,619.68777079743,419.68777079743,619.68777079743,780.31222920257,4,0,0,0,horizontal,vertical,vertical,horizontal
2b,12,100358,13,7,391,20,F,NA,constant,homogeneous,4,absent,0.594597101211548,1,horizontal,horizontal,1,3,red,2,NaN,980.31222920257,419.68777079743,NaN,NaN,980.31222920257,780.31222920257,980.31222920257,419.68777079743,619.68777079743,419.68777079743,619.68777079743,780.31222920257,0,4,0,0,horizontal,horizontal,horizontal,horizontal
2b,12,100358,13,8,392,20,F,NA,constant,homogeneous,4,absent,0.690814971923828,1,vertical,vertical,1,3,red,3,NaN,619.68777079743,419.68777079743,NaN,NaN,980.31222920257,780.31222920257,980.31222920257,419.68777079743,619.68777079743,419.68777079743,619.68777079743,780.31222920257,0,0,4,0,vertical,vertical,vertical,horizontal
2b,12,100358,13,9,393,20,F,NA,constant,homogeneous,4,present,0.716679096221924,1,horizontal,horizontal,1,2,red,3,4,619.68777079743,419.68777079743,619.68777079743,780.31222920257,980.31222920257,780.31222920257,980.31222920257,419.68777079743,619.68777079743,419.68777079743,619.68777079743,780.31222920257,0,0,4,0,vertical,horizontal,horizontal,horizontal
2b,12,100358,13,10,394,20,F,NA,constant,homogeneous,4,present,0.683434963226318,1,vertical,vertical,1,3,red,4,3,619.68777079743,780.31222920257,619.68777079743,419.68777079743,980.31222920257,780.31222920257,980.31222920257,419.68777079743,619.68777079743,419.68777079743,619.68777079743,780.31222920257,0,0,0,4,horizontal,horizontal,vertical,vertical
2b,12,100358,13,11,395,20,F,NA,constant,homogeneous,4,absent,0.685220003128052,1,horizontal,horizontal,1,5,red,2,NaN,980.31222920257,419.68777079743,NaN,NaN,980.31222920257,780.31222920257,980.31222920257,419.68777079743,619.68777079743,419.68777079743,619.68777079743,780.31222920257,0,4,0,0,horizontal,horizontal,vertical,vertical
2b,12,100358,13,12,396,20,F,NA,constant,homogeneous,4,absent,0.615349054336548,1,horizontal,horizontal,1,2,red,2,NaN,980.31222920257,419.68777079743,NaN,NaN,980.31222920257,780.31222920257,980.31222920257,419.68777079743,619.68777079743,419.68777079743,619.68777079743,780.31222920257,0,4,0,0,horizontal,horizontal,vertical,horizontal
2b,12,100358,13,13,397,20,F,NA,constant,homogeneous,4,present,0.679900169372559,1,horizontal,horizontal,1,2,red,4,3,619.68777079743,780.31222920257,619.68777079743,419.68777079743,980.31222920257,780.31222920257,980.31222920257,419.68777079743,619.68777079743,419.68777079743,619.68777079743,780.31222920257,0,0,0,4,vertical,vertical,horizontal,horizontal
2b,12,100358,13,14,398,20,F,NA,constant,homogeneous,4,present,0.621680021286011,1,horizontal,horizontal,1,2,red,3,1,619.68777079743,419.68777079743,980.31222920257,780.31222920257,980.31222920257,780.31222920257,980.31222920257,419.68777079743,619.68777079743,419.68777079743,619.68777079743,780.31222920257,0,0,4,0,horizontal,vertical,horizontal,vertical
2b,12,100358,13,15,399,20,F,NA,constant,homogeneous,4,present,0.757971048355103,1,vertical,vertical,1,3,red,4,1,619.68777079743,780.31222920257,980.31222920257,780.31222920257,980.31222920257,780.31222920257,980.31222920257,419.68777079743,619.68777079743,419.68777079743,619.68777079743,780.31222920257,0,0,0,4,vertical,horizontal,horizontal,vertical
2b,12,100358,13,16,400,20,F,NA,constant,homogeneous,4,absent,0.59356689453125,1,horizontal,horizontal,1,5,red,1,NaN,980.31222920257,780.31222920257,NaN,NaN,980.31222920257,780.31222920257,980.31222920257,419.68777079743,619.68777079743,419.68777079743,619.68777079743,780.31222920257,4,0,0,0,horizontal,horizontal,horizontal,horizontal
2b,12,100358,13,17,401,20,F,NA,constant,homogeneous,4,absent,0.609699010848999,1,vertical,vertical,1,3,red,1,NaN,980.31222920257,780.31222920257,NaN,NaN,980.31222920257,780.31222920257,980.31222920257,419.68777079743,619.68777079743,419.68777079743,619.68777079743,780.31222920257,4,0,0,0,vertical,horizontal,vertical,horizontal
2b,12,100358,13,18,402,20,F,NA,constant,homogeneous,4,absent,0.510074853897095,1,horizontal,horizontal,1,2,red,3,NaN,619.68777079743,419.68777079743,NaN,NaN,980.31222920257,780.31222920257,980.31222920257,419.68777079743,619.68777079743,419.68777079743,619.68777079743,780.31222920257,0,0,4,0,vertical,vertical,horizontal,horizontal
2b,12,100358,13,19,403,20,F,NA,constant,homogeneous,4,present,0.57646107673645,1,horizontal,horizontal,1,3,red,1,2,980.31222920257,780.31222920257,980.31222920257,419.68777079743,980.31222920257,780.31222920257,980.31222920257,419.68777079743,619.68777079743,419.68777079743,619.68777079743,780.31222920257,4,0,0,0,horizontal,horizontal,vertical,horizontal
2b,12,100358,13,20,404,20,F,NA,constant,homogeneous,4,present,0.484264135360718,0,vertical,horizontal,1,2,red,4,2,619.68777079743,780.31222920257,980.31222920257,419.68777079743,980.31222920257,780.31222920257,980.31222920257,419.68777079743,619.68777079743,419.68777079743,619.68777079743,780.31222920257,0,0,0,4,horizontal,vertical,vertical,vertical
2b,12,100358,13,21,405,20,F,NA,constant,homogeneous,4,absent,0.702415943145752,1,vertical,vertical,1,5,red,1,NaN,980.31222920257,780.31222920257,NaN,NaN,980.31222920257,780.31222920257,980.31222920257,419.68777079743,619.68777079743,419.68777079743,619.68777079743,780.31222920257,4,0,0,0,vertical,vertical,horizontal,vertical
2b,12,100358,13,22,406,20,F,NA,constant,homogeneous,4,absent,0.828438997268677,1,vertical,vertical,1,2,red,2,NaN,980.31222920257,419.68777079743,NaN,NaN,980.31222920257,780.31222920257,980.31222920257,419.68777079743,619.68777079743,419.68777079743,619.68777079743,780.31222920257,0,4,0,0,horizontal,vertical,vertical,vertical
2b,12,100358,13,23,407,20,F,NA,constant,homogeneous,4,absent,0.785026073455811,1,vertical,vertical,1,5,red,1,NaN,980.31222920257,780.31222920257,NaN,NaN,980.31222920257,780.31222920257,980.31222920257,419.68777079743,619.68777079743,419.68777079743,619.68777079743,780.31222920257,4,0,0,0,vertical,horizontal,horizontal,horizontal
2b,12,100358,13,24,408,20,F,NA,constant,homogeneous,4,absent,0.973568916320801,1,vertical,vertical,1,8,red,1,NaN,980.31222920257,780.31222920257,NaN,NaN,980.31222920257,780.31222920257,980.31222920257,419.68777079743,619.68777079743,419.68777079743,619.68777079743,780.31222920257,4,0,0,0,vertical,vertical,vertical,vertical
2b,12,100358,13,25,409,20,F,NA,constant,homogeneous,4,present,0.652904987335205,0,vertical,horizontal,1,2,red,2,1,980.31222920257,419.68777079743,980.31222920257,780.31222920257,980.31222920257,780.31222920257,980.31222920257,419.68777079743,619.68777079743,419.68777079743,619.68777079743,780.31222920257,0,4,0,0,horizontal,vertical,horizontal,vertical
2b,12,100358,13,26,410,20,F,NA,constant,homogeneous,4,present,0.634146213531494,1,horizontal,horizontal,1,8,red,3,4,619.68777079743,419.68777079743,619.68777079743,780.31222920257,980.31222920257,780.31222920257,980.31222920257,419.68777079743,619.68777079743,419.68777079743,619.68777079743,780.31222920257,0,0,4,0,horizontal,horizontal,horizontal,horizontal
2b,12,100358,13,27,411,20,F,NA,constant,homogeneous,4,present,0.667290925979614,1,vertical,vertical,1,5,red,1,3,980.31222920257,780.31222920257,619.68777079743,419.68777079743,980.31222920257,780.31222920257,980.31222920257,419.68777079743,619.68777079743,419.68777079743,619.68777079743,780.31222920257,4,0,0,0,vertical,horizontal,vertical,vertical
2b,12,100358,13,28,412,20,F,NA,constant,homogeneous,4,absent,0.564895153045654,1,horizontal,horizontal,1,3,red,4,NaN,619.68777079743,780.31222920257,NaN,NaN,980.31222920257,780.31222920257,980.31222920257,419.68777079743,619.68777079743,419.68777079743,619.68777079743,780.31222920257,0,0,0,4,horizontal,vertical,horizontal,horizontal
2b,12,100358,13,29,413,20,F,NA,constant,homogeneous,4,present,0.860419988632202,1,vertical,vertical,1,5,red,4,2,619.68777079743,780.31222920257,980.31222920257,419.68777079743,980.31222920257,780.31222920257,980.31222920257,419.68777079743,619.68777079743,419.68777079743,619.68777079743,780.31222920257,0,0,0,4,vertical,horizontal,horizontal,vertical
2b,12,100358,13,30,414,20,F,NA,constant,homogeneous,4,present,0.613945960998535,1,vertical,vertical,1,8,red,1,4,980.31222920257,780.31222920257,619.68777079743,780.31222920257,980.31222920257,780.31222920257,980.31222920257,419.68777079743,619.68777079743,419.68777079743,619.68777079743,780.31222920257,4,0,0,0,vertical,vertical,horizontal,vertical
