experiment,subject,uniqueID,block,trial,trial_cumulative,age,gender,color_cond_blocking,color_history,shape_type,set_size,distractor,rt,acc,target_orient,response_key,response_made,iti,target_color,target_item,distractor_item,target_X,target_Y,distractor_X,distractor_Y,item1_X,item1_Y,item2_X,item2_Y,item3_X,item3_Y,item4_X,item4_Y,item1_shape,item2_shape,item3_shape,item4_shape,item1_line,item2_line,item3_line,item4_line
2b,13,100357,1,1,1,18,F,NA,constant,homogeneous,4,present,1.09592914581299,1,vertical,vertical,1,2,green,1,2,980.31222920257,780.31222920257,980.31222920257,419.68777079743,980.31222920257,780.31222920257,980.31222920257,419.68777079743,619.68777079743,419.68777079743,619.68777079743,780.31222920257,4,0,0,0,vertical,horizontal,vertical,horizontal
2b,13,100357,1,2,2,18,F,NA,constant,homogeneous,4,absent,0.765902996063232,1,vertical,vertical,1,3,green,1,NaN,980.31222920257,780.31222920257,NaN,NaN,980.31222920257,780.31222920257,980.31222920257,419.68777079743,619.68777079743,419.68777079743,619.68777079743,780.31222920257,4,0,0,0,vertical,horizontal,vertical,vertical
2b,13,100357,1,3,3,18,F,NA,constant,homogeneous,4,present,0.621719121932983,1,horizontal,horizontal,1,3,green,4,1,619.68777079743,780.31222920257,980.31222920257,780.31222920257,980.31222920257,780.31222920257,980.31222920257,419.68777079743,619.68777079743,419.68777079743,619.68777079743,780.31222920257,0,0,0,4,vertical,horizontal,vertical,horizontal
2b,13,100357,1,4,4,18,F,NA,constant,homogeneous,4,absent,0.546350002288818,1,vertical,vertical,1,2,green,1,NaN,980.31222920257,780.31222920257,NaN,NaN,980.31222920257,780.31222920257,980.31222920257,419.68777079743,619.68777079743,419.68777079743,619.68777079743,780.31222920257,4,0,0,0,vertical,horizontal,horizontal,vertical
2b,13,100357,1,5,5,18,F,NA,constant,homogeneous,4,absent,1.30520296096802,0,vertical,horizontal,1,2,green,3,NaN,619.68777079743,419.68777079743,NaN,NaN,980.31222920257,780.31222920257,980.31222920257,419.68777079743,619.68777079743,419.68777079743,619.68777079743,780.31222920257,0,0,4,0,vertical,horizontal,vertical,horizontal
2b,13,100357,1,6,6,18,F,NA,constant,homogeneous,4,absent,0.93181300163269,1,vertical,vertical,1,2,green,4,NaN,619.68777079743,780.31222920257,NaN,NaN,980.31222920257,780.31222920257,980.31222920257,419.68777079743,619.68777079743,419.68777079743,619.68777079743,780.31222920257,0,0,0,4,vertical,horizontal,vertical,vertical
2b,13,100357,1,7,7,18,F,NA,constant,homogeneous,4,present,0.662915945053101,1,vertical,vertical,1,2,green,4,1,619.68777079743,780.31222920257,980.31222920257,780.31222920257,980.31222920257,780.31222920257,980.31222920257,419.68777079743,619.68777079743,419.68777079743,619.68777079743,780.31222920257,0,0,0,4,horizontal,horizontal,horizontal,vertical
2b,13,100357,1,8,8,18,F,NA,constant,homogeneous,4,absent,0.55215311050415,1,horizontal,horizontal,1,2,green,4,NaN,619.68777079743,780.31222920257,NaN,NaN,980.31222920257,780.31222920257,980.31222920257,419.68777079743,619.68777079743,419.68777079743,619.68777079743,780.31222920257,0,0,0,4,vertical,vertical,horizontal,horizontal
2b,13,100357,1,9,9,18,F,NA,constant,homogeneous,4,present,0.811273097991943,0,vertical,horizontal,1,3,green,3,2,619.68777079743,419.68777079743,980.31222920257,419.68777079743,980.31222920257,780.31222920257,980.31222920257,419.68777079743,619.68777079743,419.68777079743,619.68777079743,780.31222920257,0,0,4,0,vertical,vertical,vertical,vertical
2b,13,100357,1,10,10,18,F,NA,constant,homogeneous,4,present,0.95609712600708,1,horizontal,horizontal,1,5,green,3,4,619.68777079743,419.68777079743,619.68777079743,780.31222920257,980.31222920257,780.31222920257,980.31222920257,419.68777079743,619.68777079743,419.68777079743,619.68777079743,780.31222920257,0,0,4,0,vertical,vertical,horizontal,vertical
2b,13,100357,1,11,11,18,F,NA,constant,homogeneous,4,present,0.751293182373047,1,vertical,vertical,1,5,green,3,2,619.68777079743,419.68777079743,980.31222920257,419.68777079743,980.31222920257,780.31222920257,980.31222920257,419.68777079743,619.68777079743,419.68777079743,619.68777079743,780.31222920257,0,0,4,0,vertical,vertical,vertical,horizontal
2b,13,100357,1,12,12,18,F,NA,constant,homogeneous,4,present,0.722813129425049,1,horizontal,horizontal,1,2,green,3,4,619.68777079743,419.68777079743,619.68777079743,780.31222920257,980.31222920257,780.31222920257,980.31222920257,419.68777079743,619.68777079743,419.68777079743,619.68777079743,780.31222920257,0,0,4,0,vertical,vertical,horizontal,vertical
2b,13,100357,1,13,13,18,F,NA,constant,homogeneous,4,absent,0.833153009414673,1,vertical,vertical,1,5,green,1,NaN,980.31222920257,780.31222920257,NaN,NaN,980.31222920257,780.31222920257,980.31222920257,419.68777079743,619.68777079743,419.68777079743,619.68777079743,780.31222920257,4,0,0,0,vertical,vertical,horizontal,vertical
2b,13,100357,1,14,14,18,F,NA,constant,homogeneous,4,absent,0.734315156936646,1,horizontal,horizontal,1,8,green,4,NaN,619.68777079743,780.31222920257,NaN,NaN,980.31222920257,780.31222920257,980.31222920257,419.68777079743,619.68777079743,419.68777079743,619.68777079743,780.31222920257,0,0,0,4,vertical,horizontal,vertical,horizontal
2b,13,100357,1,15,15,18,F,NA,constant,homogeneous,4,absent,0.753076076507568,0,horizontal,vertical,1,5,green,3,NaN,619.68777079743,419.68777079743,NaN,NaN,980.31222920257,780.31222920257,980.31222920257,419.68777079743,619.68777079743,419.68777079743,619.68777079743,780.31222920257,0,0,4,0,vertical,horizontal,horizontal,vertical
2b,13,100357,1,16,16,18,F,NA,constant,homogeneous,4,absent,1.86069917678833,1,vertical,vertical,1,8,green,2,NaN,980.31222920257,419.68777079743,NaN,NaN,980.31222920257,780.31222920257,980.31222920257,419.68777079743,619.68777079743,419.68777079743,619.68777079743,780.31222920257,0,4,0,0,horizontal,vertical,horizontal,vertical
2b,13,100357,1,17,17,18,F,NA,constant,homogeneous,4,present,1.15791797637939,1,horizontal,horizontal,1,2,green,1,3,980.31222920257,780.31222920257,619.68777079743,419.68777079743,980.31222920257,780.31222920257,980.31222920257,419.68777079743,619.68777079743,419.68777079743,619.68777079743,780.31222920257,4,0,0,0,horizontal,vertical,horizontal,vertical
2b,13,100357,1,18,18,18,F,NA,constant,homogeneous,4,absent,1.16130709648132,1,horizontal,horizontal,1,2,green,1,NaN,980.31222920257,780.31222920257,NaN,NaN,980.31222920257,780.31222920257,980.31222920257,419.68777079743,619.68777079743,419.68777079743,619.68777079743,780.31222920257,4,0,0,0,horizontal,vertical,horizontal,horizontal
2b,13,100357,1,19,19,18,F,NA,constant,homogeneous,4,present,0.548885107040405,1,horizontal,horizontal,1,3,green,1,3,980.31222920257,780.31222920257,619.68777079743,419.68777079743,980.31222920257,780.31222920257,980.31222920257,419.68777079743,619.68777079743,419.68777079743,619.68777079743,780.31222920257,4,0,0,0,horizontal,horizontal,horizontal,vertical
2b,13,100357,1,20,20,18,F,NA,constant,homogeneous,4,present,0.907860994338989,0,vertical,horizontal,1,2,green,1,4,980.31222920257,780.31222920257,619.68777079743,780.31222920257,980.31222920257,780.31222920257,980.31222920257,419.68777079743,619.68777079743,419.68777079743,619.68777079743,780.31222920257,4,0,0,0,vertical,vertical,horizontal,vertical
2b,13,100357,1,21,21,18,F,NA,constant,homogeneous,4,absent,1.806077003479,1,vertical,vertical,1,5,green,2,NaN,980.31222920257,419.68777079743,NaN,NaN,980.31222920257,780.31222920257,980.31222920257,419.68777079743,619.68777079743,419.68777079743,619.68777079743,780.31222920257,0,4,0,0,horizontal,vertical,vertical,horizontal
2b,13,100357,1,22,22,18,F,NA,constant,homogeneous,4,absent,1.37077498435974,1,horizontal,horizontal,1,2,green,1,NaN,980.31222920257,780.31222920257,NaN,NaN,980.31222920257,780.31222920257,980.31222920257,419.68777079743,619.68777079743,419.68777079743,619.68777079743,780.31222920257,4,0,0,0,horizontal,horizontal,horizontal,horizontal
2b,13,100357,1,23,23,18,F,NA,constant,homogeneous,4,present,1.11430597305298,1,horizontal,horizontal,1,2,green,4,3,619.68777079743,780.31222920257,619.68777079743,419.68777079743,980.31222920257,780.31222920257,980.31222920257,419.68777079743,619.68777079743,419.68777079743,619.68777079743,780.31222920257,0,0,0,4,horizontal,vertical,vertical,horizontal
2b,13,100357,1,24,24,18,F,NA,constant,homogeneous,4,present,0.812827110290527,1,horizontal,horizontal,1,8,green,1,2,980.31222920257,780.31222920257,980.31222920257,419.68777079743,980.31222920257,780.31222920257,980.31222920257,419.68777079743,619.68777079743,419.68777079743,619.68777079743,780.31222920257,4,0,0,0,horizontal,horizontal,horizontal,vertical
2b,13,100357,1,25,25,18,F,NA,constant,homogeneous,4,absent,0.845274925231934,1,horizontal,horizontal,1,3,green,2,NaN,980.31222920257,419.68777079743,NaN,NaN,980.31222920257,780.31222920257,980.31222920257,419.68777079743,619.68777079743,419.68777079743,619.68777079743,780.31222920257,0,4,0,0,horizontal,horizontal,vertical,horizontal
2b,13,100357,1,26,26,18,F,NA,constant,homogeneous,4,absent,0.902227163314819,1,vertical,vertical,1,3,green,3,NaN,619.68777079743,419.68777079743,NaN,NaN,980.31222920257,780.31222920257,980.31222920257,419.68777079743,619.68777079743,419.68777079743,619.68777079743,780.31222920257,0,0,4,0,horizontal,vertical,vertical,vertical
2b,13,100357,1,27,27,18,F,NA,constant,homogeneous,4,present,1.04453206062317,1,vertical,vertical,1,5,green,2,1,980.31222920257,419.68777079743,980.31222920257,780.31222920257,980.31222920257,780.31222920257,980.31222920257,419.68777079743,619.68777079743,419.68777079743,619.68777079743,780.31222920257,0,4,0,0,horizontal,vertical,horizontal,horizontal
2b,13,100357,1,28,28,18,F,NA,constant,homogeneous,4,absent,1.17360997200012,1,horizontal,horizontal,1,3,green,1,NaN,980.31222920257,780.31222920257,NaN,NaN,980.31222920257,780.31222920257,980.31222920257,419.68777079743,619.68777079743,419.68777079743,619.68777079743,780.31222920257,4,0,0,0,horizontal,vertical,vertical,horizontal
2b,13,100357,1,29,29,18,F,NA,constant,homogeneous,4,present,0.797105073928833,1,vertical,vertical,1,8,green,2,4,980.31222920257,419.68777079743,619.68777079743,780.31222920257,980.31222920257,780.31222920257,980.31222920257,419.68777079743,619.68777079743,419.68777079743,619.68777079743,780.31222920257,0,4,0,0,horizontal,vertical,horizontal,horizontal
2b,13,100357,1,30,30,18,F,NA,constant,homogeneous,4,present,0.805304050445557,1,horizontal,horizontal,1,5,green,1,3,980.31222920257,780.31222920257,619.68777079743,419.68777079743,980.31222920257,780.31222920257,980.31222920257,419.68777079743,619.68777079743,419.68777079743,619.68777079743,780.31222920257,4,0,0,0,horizontal,vertical,vertical,horizontal
2b,13,100357,1,31,31,18,F,NA,constant,homogeneous,4,present,1.00929403305054,1,vertical,vertical,1,3,green,2,3,980.31222920257,419.68777079743,619.68777079743,419.68777079743,980.31222920257,780.31222920257,980.31222920257,419.68777079743,619.68777079743,419.68777079743,619.68777079743,780.31222920257,0,4,0,0,vertical,vertical,horizontal,vertical
2b,13,100357,1,32,32,18,F,NA,constant,homogeneous,4,absent,0.870185136795044,1,horizontal,horizontal,1,5,green,3,NaN,619.68777079743,419.68777079743,NaN,NaN,980.31222920257,780.31222920257,980.31222920257,419.68777079743,619.68777079743,419.68777079743,619.68777079743,780.31222920257,0,0,4,0,horizontal,horizontal,horizontal,vertical
2b,13,100357,2,1,33,18,F,NA,constant,homogeneous,4,present,0.887814044952393,1,horizontal,horizontal,1,8,green,1,2,980.31222920257,780.31222920257,980.31222920257,419.68777079743,980.31222920257,780.31222920257,980.31222920257,419.68777079743,619.68777079743,419.68777079743,619.68777079743,780.31222920257,4,0,0,0,horizontal,horizontal,vertical,vertical
2b,13,100357,2,2,34,18,F,NA,constant,homogeneous,4,present,0.634063005447388,1,vertical,vertical,1,2,green,1,4,980.31222920257,780.31222920257,619.68777079743,780.31222920257,980.31222920257,780.31222920257,980.31222920257,419.68777079743,619.68777079743,419.68777079743,619.68777079743,780.31222920257,4,0,0,0,vertical,vertical,horizontal,horizontal
2b,13,100357,2,3,35,18,F,NA,constant,homogeneous,4,absent,1.10681796073914,1,horizontal,horizontal,1,8,green,2,NaN,980.31222920257,419.68777079743,NaN,NaN,980.31222920257,780.31222920257,980.31222920257,419.68777079743,619.68777079743,419.68777079743,619.68777079743,780.31222920257,0,4,0,0,horizontal,horizontal,vertical,horizontal
2b,13,100357,2,4,36,18,F,NA,constant,homogeneous,4,absent,0.909294128417969,1,horizontal,horizontal,1,3,green,4,NaN,619.68777079743,780.31222920257,NaN,NaN,980.31222920257,780.31222920257,980.31222920257,419.68777079743,619.68777079743,419.68777079743,619.68777079743,780.31222920257,0,0,0,4,vertical,vertical,horizontal,horizontal
2b,13,100357,2,5,37,18,F,NA,constant,homogeneous,4,absent,1.31996512413025,1,vertical,vertical,1,2,green,1,NaN,980.31222920257,780.31222920257,NaN,NaN,980.31222920257,780.31222920257,980.31222920257,419.68777079743,619.68777079743,419.68777079743,619.68777079743,780.31222920257,4,0,0,0,vertical,vertical,horizontal,horizontal
2b,13,100357,2,6,38,18,F,NA,constant,homogeneous,4,absent,0.654579877853394,0,vertical,horizontal,1,5,green,3,NaN,619.68777079743,419.68777079743,NaN,NaN,980.31222920257,780.31222920257,980.31222920257,419.68777079743,619.68777079743,419.68777079743,619.68777079743,780.31222920257,0,0,4,0,horizontal,vertical,vertical,horizontal
2b,13,100357,2,7,39,18,F,NA,constant,homogeneous,4,present,1.11561799049377,1,horizontal,horizontal,1,2,green,4,3,619.68777079743,780.31222920257,619.68777079743,419.68777079743,980.31222920257,780.31222920257,980.31222920257,419.68777079743,619.68777079743,419.68777079743,619.68777079743,780.31222920257,0,0,0,4,vertical,vertical,vertical,horizontal
2b,13,100357,2,8,40,18,F,NA,constant,homogeneous,4,present,0.934329032897949,1,horizontal,horizontal,1,3,green,4,3,619.68777079743,780.31222920257,619.68777079743,419.68777079743,980.31222920257,780.31222920257,980.31222920257,419.68777079743,619.68777079743,419.68777079743,619.68777079743,780.31222920257,0,0,0,4,horizontal,horizontal,horizontal,horizontal
2b,13,100357,2,9,41,18,F,NA,constant,homogeneous,4,present,1.17663979530334,1,vertical,vertical,1,2,green,3,2,619.68777079743,419.68777079743,980.31222920257,419.68777079743,980.31222920257,780.31222920257,980.31222920257,419.68777079743,619.68777079743,419.68777079743,619.68777079743,780.31222920257,0,0,4,0,vertical,horizontal,vertical,horizontal
2b,13,100357,2,10,42,18,F,NA,constant,homogeneous,4,present,1.01257491111755,1,vertical,vertical,1,2,green,4,2,619.68777079743,780.31222920257,980.31222920257,419.68777079743,980.31222920257,780.31222920257,980.31222920257,419.68777079743,619.68777079743,419.68777079743,619.68777079743,780.31222920257,0,0,0,4,horizontal,horizontal,horizontal,vertical
2b,13,100357,2,11,43,18,F,NA,constant,homogeneous,4,present,1.56529188156128,1,horizontal,horizontal,1,5,green,2,4,980.31222920257,419.68777079743,619.68777079743,780.31222920257,980.31222920257,780.31222920257,980.31222920257,419.68777079743,619.68777079743,419.68777079743,619.68777079743,780.31222920257,0,4,0,0,vertical,horizontal,horizontal,vertical
2b,13,100357,2,12,44,18,F,NA,constant,homogeneous,4,present,0.660764932632446,1,vertical,vertical,1,8,green,1,2,980.31222920257,780.31222920257,980.31222920257,419.68777079743,980.31222920257,780.31222920257,980.31222920257,419.68777079743,619.68777079743,419.68777079743,619.68777079743,780.31222920257,4,0,0,0,vertical,vertical,vertical,vertical
2b,13,100357,2,13,45,18,F,NA,constant,homogeneous,4,present,0.830590009689331,1,vertical,vertical,1,5,green,4,1,619.68777079743,780.31222920257,980.31222920257,780.31222920257,980.31222920257,780.31222920257,980.31222920257,419.68777079743,619.68777079743,419.68777079743,619.68777079743,780.31222920257,0,0,0,4,vertical,horizontal,horizontal,vertical
2b,13,100357,2,14,46,18,F,NA,constant,homogeneous,4,absent,0.835669994354248,1,horizontal,horizontal,1,5,green,2,NaN,980.31222920257,419.68777079743,NaN,NaN,980.31222920257,780.31222920257,980.31222920257,419.68777079743,619.68777079743,419.68777079743,619.68777079743,780.31222920257,0,4,0,0,vertical,horizontal,vertical,vertical
2b,13,100357,2,15,47,18,F,NA,constant,homogeneous,4,present,0.860100984573364,1,horizontal,horizontal,1,3,green,3,2,619.68777079743,419.68777079743,980.31222920257,419.68777079743,980.31222920257,780.31222920257,980.31222920257,419.68777079743,619.68777079743,419.68777079743,619.68777079743,780.31222920257,0,0,4,0,vertical,horizontal,horizontal,vertical
2b,13,100357,2,16,48,18,F,NA,constant,homogeneous,4,absent,0.821954965591431,0,horizontal,vertical,1,2,green,4,NaN,619.68777079743,780.31222920257,NaN,NaN,980.31222920257,780.31222920257,980.31222920257,419.68777079743,619.68777079743,419.68777079743,619.68777079743,780.31222920257,0,0,0,4,vertical,horizontal,horizontal,horizontal
2b,13,100357,2,17,49,18,F,NA,constant,homogeneous,4,absent,0.75462007522583,1,horizontal,horizontal,1,2,green,4,NaN,619.68777079743,780.31222920257,NaN,NaN,980.31222920257,780.31222920257,980.31222920257,419.68777079743,619.68777079743,419.68777079743,619.68777079743,780.31222920257,0,0,0,4,vertical,vertical,vertical,horizontal
2b,13,100357,2,18,50,18,F,NA,constant,homogeneous,4,present,0.846126794815063,1,vertical,vertical,1,5,green,1,3,980.31222920257,780.31222920257,619.68777079743,419.68777079743,980.31222920257,780.31222920257,980.31222920257,419.68777079743,619.68777079743,419.68777079743,619.68777079743,780.31222920257,4,0,0,0,vertical,vertical,horizontal,vertical
2b,13,100357,2,19,51,18,F,NA,constant,homogeneous,4,absent,0.907305002212524,1,vertical,vertical,1,5,green,2,NaN,980.31222920257,419.68777079743,NaN,NaN,980.31222920257,780.31222920257,980.31222920257,419.68777079743,619.68777079743,419.68777079743,619.68777079743,780.31222920257,0,4,0,0,horizontal,vertical,vertical,vertical
2b,13,100357,2,20,52,18,F,NA,constant,homogeneous,4,present,0.78966498374939,1,horizontal,horizontal,1,2,green,2,1,980.31222920257,419.68777079743,980.31222920257,780.31222920257,980.31222920257,780.31222920257,980.31222920257,419.68777079743,619.68777079743,419.68777079743,619.68777079743,780.31222920257,0,4,0,0,vertical,horizontal,vertical,vertical
2b,13,100357,2,21,53,18,F,NA,constant,homogeneous,4,absent,0.757775068283081,1,horizontal,horizontal,1,2,green,3,NaN,619.68777079743,419.68777079743,NaN,NaN,980.31222920257,780.31222920257,980.31222920257,419.68777079743,619.68777079743,419.68777079743,619.68777079743,780.31222920257,0,0,4,0,horizontal,vertical,horizontal,vertical
2b,13,100357,2,22,54,18,F,NA,constant,homogeneous,4,absent,0.769227027893066,1,horizontal,horizontal,1,5,green,4,NaN,619.68777079743,780.31222920257,NaN,NaN,980.31222920257,780.31222920257,980.31222920257,419.68777079743,619.68777079743,419.68777079743,619.68777079743,780.31222920257,0,0,0,4,horizontal,vertical,vertical,horizontal
2b,13,100357,2,23,55,18,F,NA,constant,homogeneous,4,present,0.688817024230957,1,horizontal,horizontal,1,5,green,3,4,619.68777079743,419.68777079743,619.68777079743,780.31222920257,980.31222920257,780.31222920257,980.31222920257,419.68777079743,619.68777079743,419.68777079743,619.68777079743,780.31222920257,0,0,4,0,horizontal,horizontal,horizontal,vertical
2b,13,100357,2,24,56,18,F,NA,constant,homogeneous,4,present,0.946726083755493,1,vertical,vertical,1,3,green,4,3,619.68777079743,780.31222920257,619.68777079743,419.68777079743,980.31222920257,780.31222920257,980.31222920257,419.68777079743,619.68777079743,419.68777079743,619.68777079743,780.31222920257,0,0,0,4,horizontal,vertical,vertical,vertical
2b,13,100357,2,25,57,18,F,NA,constant,homogeneous,4,present,0.753762006759644,1,vertical,vertical,1,3,green,3,2,619.68777079743,419.68777079743,980.31222920257,419.68777079743,980.31222920257,780.31222920257,980.31222920257,419.68777079743,619.68777079743,419.68777079743,619.68777079743,780.31222920257,0,0,4,0,horizontal,vertical,vertical,vertical
2b,13,100357,2,26,58,18,F,NA,constant,homogeneous,4,absent,1.29308485984802,1,vertical,vertical,1,3,green,2,NaN,980.31222920257,419.68777079743,NaN,NaN,980.31222920257,780.31222920257,980.31222920257,419.68777079743,619.68777079743,419.68777079743,619.68777079743,780.31222920257,0,4,0,0,vertical,vertical,vertical,horizontal
2b,13,100357,2,27,59,18,F,NA,constant,homogeneous,4,absent,1.10734486579895,1,vertical,vertical,1,2,green,4,NaN,619.68777079743,780.31222920257,NaN,NaN,980.31222920257,780.31222920257,980.31222920257,419.68777079743,619.68777079743,419.68777079743,619.68777079743,780.31222920257,0,0,0,4,horizontal,horizontal,vertical,vertical
2b,13,100357,2,28,60,18,F,NA,constant,homogeneous,4,absent,0.869752883911133,1,vertical,vertical,1,8,green,3,NaN,619.68777079743,419.68777079743,NaN,NaN,980.31222920257,780.31222920257,980.31222920257,419.68777079743,619.68777079743,419.68777079743,619.68777079743,780.31222920257,0,0,4,0,vertical,horizontal,vertical,vertical
2b,13,100357,2,29,61,18,F,NA,constant,homogeneous,4,absent,1.04362297058105,1,vertical,vertical,1,2,green,1,NaN,980.31222920257,780.31222920257,NaN,NaN,980.31222920257,780.31222920257,980.31222920257,419.68777079743,619.68777079743,419.68777079743,619.68777079743,780.31222920257,4,0,0,0,vertical,vertical,horizontal,horizontal
2b,13,100357,2,30,62,18,F,NA,constant,homogeneous,4,absent,1.17262887954712,1,vertical,vertical,1,3,green,2,NaN,980.31222920257,419.68777079743,NaN,NaN,980.31222920257,780.31222920257,980.31222920257,419.68777079743,619.68777079743,419.68777079743,619.68777079743,780.31222920257,0,4,0,0,horizontal,vertical,horizontal,horizontal
2b,13,100357,2,31,63,18,F,NA,constant,homogeneous,4,absent,0.915940046310425,1,horizontal,horizontal,1,3,green,1,NaN,980.31222920257,780.31222920257,NaN,NaN,980.31222920257,780.31222920257,980.31222920257,419.68777079743,619.68777079743,419.68777079743,619.68777079743,780.31222920257,4,0,0,0,horizontal,horizontal,vertical,vertical
2b,13,100357,2,32,64,18,F,NA,constant,homogeneous,4,present,1.18269300460815,1,horizontal,horizontal,1,2,green,2,4,980.31222920257,419.68777079743,619.68777079743,780.31222920257,980.31222920257,780.31222920257,980.31222920257,419.68777079743,619.68777079743,419.68777079743,619.68777079743,780.31222920257,0,4,0,0,horizontal,horizontal,vertical,horizontal
2b,13,100357,3,1,65,18,F,NA,constant,homogeneous,4,present,1.2290210723877,1,vertical,vertical,1,5,green,1,3,980.31222920257,780.31222920257,619.68777079743,419.68777079743,980.31222920257,780.31222920257,980.31222920257,419.68777079743,619.68777079743,419.68777079743,619.68777079743,780.31222920257,4,0,0,0,vertical,vertical,vertical,vertical
2b,13,100357,3,2,66,18,F,NA,constant,homogeneous,4,absent,0.930270910263062,1,horizontal,horizontal,1,5,green,4,NaN,619.68777079743,780.31222920257,NaN,NaN,980.31222920257,780.31222920257,980.31222920257,419.68777079743,619.68777079743,419.68777079743,619.68777079743,780.31222920257,0,0,0,4,horizontal,vertical,horizontal,horizontal
2b,13,100357,3,3,67,18,F,NA,constant,homogeneous,4,absent,0.860759973526001,1,horizontal,horizontal,1,3,green,3,NaN,619.68777079743,419.68777079743,NaN,NaN,980.31222920257,780.31222920257,980.31222920257,419.68777079743,619.68777079743,419.68777079743,619.68777079743,780.31222920257,0,0,4,0,vertical,horizontal,horizontal,vertical
2b,13,100357,3,4,68,18,F,NA,constant,homogeneous,4,present,0.86254096031189,1,vertical,vertical,1,3,green,4,1,619.68777079743,780.31222920257,980.31222920257,780.31222920257,980.31222920257,780.31222920257,980.31222920257,419.68777079743,619.68777079743,419.68777079743,619.68777079743,780.31222920257,0,0,0,4,vertical,vertical,horizontal,vertical
2b,13,100357,3,5,69,18,F,NA,constant,homogeneous,4,absent,0.743991851806641,1,horizontal,horizontal,1,2,green,4,NaN,619.68777079743,780.31222920257,NaN,NaN,980.31222920257,780.31222920257,980.31222920257,419.68777079743,619.68777079743,419.68777079743,619.68777079743,780.31222920257,0,0,0,4,vertical,vertical,horizontal,horizontal
2b,13,100357,3,6,70,18,F,NA,constant,homogeneous,4,present,0.8471360206604,1,vertical,vertical,1,5,green,1,4,980.31222920257,780.31222920257,619.68777079743,780.31222920257,980.31222920257,780.31222920257,980.31222920257,419.68777079743,619.68777079743,419.68777079743,619.68777079743,780.31222920257,4,0,0,0,vertical,vertical,vertical,horizontal
2b,13,100357,3,7,71,18,F,NA,constant,homogeneous,4,present,0.740050077438354,1,vertical,vertical,1,2,green,2,4,980.31222920257,419.68777079743,619.68777079743,780.31222920257,980.31222920257,780.31222920257,980.31222920257,419.68777079743,619.68777079743,419.68777079743,619.68777079743,780.31222920257,0,4,0,0,horizontal,vertical,horizontal,vertical
2b,13,100357,3,8,72,18,F,NA,constant,homogeneous,4,absent,0.843140840530396,1,vertical,vertical,1,3,green,4,NaN,619.68777079743,780.31222920257,NaN,NaN,980.31222920257,780.31222920257,980.31222920257,419.68777079743,619.68777079743,419.68777079743,619.68777079743,780.31222920257,0,0,0,4,horizontal,horizontal,vertical,vertical
2b,13,100357,3,9,73,18,F,NA,constant,homogeneous,4,present,0.700212955474854,1,vertical,vertical,1,2,green,3,1,619.68777079743,419.68777079743,980.31222920257,780.31222920257,980.31222920257,780.31222920257,980.31222920257,419.68777079743,619.68777079743,419.68777079743,619.68777079743,780.31222920257,0,0,4,0,horizontal,horizontal,vertical,horizontal
2b,13,100357,3,10,74,18,F,NA,constant,homogeneous,4,absent,0.978672027587891,1,vertical,vertical,1,5,green,4,NaN,619.68777079743,780.31222920257,NaN,NaN,980.31222920257,780.31222920257,980.31222920257,419.68777079743,619.68777079743,419.68777079743,619.68777079743,780.31222920257,0,0,0,4,vertical,vertical,vertical,vertical
2b,13,100357,3,11,75,18,F,NA,constant,homogeneous,4,absent,1.1584849357605,1,vertical,vertical,1,2,green,3,NaN,619.68777079743,419.68777079743,NaN,NaN,980.31222920257,780.31222920257,980.31222920257,419.68777079743,619.68777079743,419.68777079743,619.68777079743,780.31222920257,0,0,4,0,horizontal,horizontal,vertical,horizontal
2b,13,100357,3,12,76,18,F,NA,constant,homogeneous,4,absent,0.673852920532227,1,vertical,vertical,1,5,green,3,NaN,619.68777079743,419.68777079743,NaN,NaN,980.31222920257,780.31222920257,980.31222920257,419.68777079743,619.68777079743,419.68777079743,619.68777079743,780.31222920257,0,0,4,0,vertical,horizontal,vertical,vertical
2b,13,100357,3,13,77,18,F,NA,constant,homogeneous,4,present,0.775590181350708,1,horizontal,horizontal,1,2,green,4,1,619.68777079743,780.31222920257,980.31222920257,780.31222920257,980.31222920257,780.31222920257,980.31222920257,419.68777079743,619.68777079743,419.68777079743,619.68777079743,780.31222920257,0,0,0,4,horizontal,horizontal,vertical,horizontal
2b,13,100357,3,14,78,18,F,NA,constant,homogeneous,4,present,0.731596946716309,1,vertical,vertical,1,3,green,2,4,980.31222920257,419.68777079743,619.68777079743,780.31222920257,980.31222920257,780.31222920257,980.31222920257,419.68777079743,619.68777079743,419.68777079743,619.68777079743,780.31222920257,0,4,0,0,horizontal,vertical,vertical,vertical
2b,13,100357,3,15,79,18,F,NA,constant,homogeneous,4,present,0.734214067459106,1,horizontal,horizontal,1,3,green,3,2,619.68777079743,419.68777079743,980.31222920257,419.68777079743,980.31222920257,780.31222920257,980.31222920257,419.68777079743,619.68777079743,419.68777079743,619.68777079743,780.31222920257,0,0,4,0,vertical,vertical,horizontal,vertical
2b,13,100357,3,16,80,18,F,NA,constant,homogeneous,4,present,0.641009092330933,1,horizontal,horizontal,1,5,green,3,1,619.68777079743,419.68777079743,980.31222920257,780.31222920257,980.31222920257,780.31222920257,980.31222920257,419.68777079743,619.68777079743,419.68777079743,619.68777079743,780.31222920257,0,0,4,0,vertical,vertical,horizontal,vertical
2b,13,100357,3,17,81,18,F,NA,constant,homogeneous,4,absent,1.70620203018188,1,vertical,vertical,1,8,green,1,NaN,980.31222920257,780.31222920257,NaN,NaN,980.31222920257,780.31222920257,980.31222920257,419.68777079743,619.68777079743,419.68777079743,619.68777079743,780.31222920257,4,0,0,0,vertical,vertical,vertical,horizontal
2b,13,100357,3,18,82,18,F,NA,constant,homogeneous,4,absent,0.628618001937866,1,vertical,vertical,1,2,green,1,NaN,980.31222920257,780.31222920257,NaN,NaN,980.31222920257,780.31222920257,980.31222920257,419.68777079743,619.68777079743,419.68777079743,619.68777079743,780.31222920257,4,0,0,0,vertical,vertical,horizontal,vertical
2b,13,100357,3,19,83,18,F,NA,constant,homogeneous,4,present,0.553488969802856,1,vertical,vertical,1,8,green,1,4,980.31222920257,780.31222920257,619.68777079743,780.31222920257,980.31222920257,780.31222920257,980.31222920257,419.68777079743,619.68777079743,419.68777079743,619.68777079743,780.31222920257,4,0,0,0,vertical,vertical,vertical,vertical
2b,13,100357,3,20,84,18,F,NA,constant,homogeneous,4,absent,0.82098913192749,1,horizontal,horizontal,1,8,green,2,NaN,980.31222920257,419.68777079743,NaN,NaN,980.31222920257,780.31222920257,980.31222920257,419.68777079743,619.68777079743,419.68777079743,619.68777079743,780.31222920257,0,4,0,0,vertical,horizontal,horizontal,vertical
2b,13,100357,3,21,85,18,F,NA,constant,homogeneous,4,present,0.63713812828064,1,horizontal,horizontal,1,2,green,2,4,980.31222920257,419.68777079743,619.68777079743,780.31222920257,980.31222920257,780.31222920257,980.31222920257,419.68777079743,619.68777079743,419.68777079743,619.68777079743,780.31222920257,0,4,0,0,vertical,horizontal,vertical,vertical
2b,13,100357,3,22,86,18,F,NA,constant,homogeneous,4,absent,0.734584093093872,1,horizontal,horizontal,1,5,green,3,NaN,619.68777079743,419.68777079743,NaN,NaN,980.31222920257,780.31222920257,980.31222920257,419.68777079743,619.68777079743,419.68777079743,619.68777079743,780.31222920257,0,0,4,0,vertical,horizontal,horizontal,vertical
2b,13,100357,3,23,87,18,F,NA,constant,homogeneous,4,absent,0.889400005340576,1,vertical,vertical,1,2,green,1,NaN,980.31222920257,780.31222920257,NaN,NaN,980.31222920257,780.31222920257,980.31222920257,419.68777079743,619.68777079743,419.68777079743,619.68777079743,780.31222920257,4,0,0,0,vertical,horizontal,vertical,vertical
2b,13,100357,3,24,88,18,F,NA,constant,homogeneous,4,absent,0.682940006256104,1,horizontal,horizontal,1,2,green,1,NaN,980.31222920257,780.31222920257,NaN,NaN,980.31222920257,780.31222920257,980.31222920257,419.68777079743,619.68777079743,419.68777079743,619.68777079743,780.31222920257,4,0,0,0,horizontal,horizontal,vertical,horizontal
2b,13,100357,3,25,89,18,F,NA,constant,homogeneous,4,present,0.661370992660522,1,vertical,vertical,1,2,green,4,1,619.68777079743,780.31222920257,980.31222920257,780.31222920257,980.31222920257,780.31222920257,980.31222920257,419.68777079743,619.68777079743,419.68777079743,619.68777079743,780.31222920257,0,0,0,4,horizontal,vertical,horizontal,vertical
2b,13,100357,3,26,90,18,F,NA,constant,homogeneous,4,present,0.758536815643311,1,horizontal,horizontal,1,8,green,1,2,980.31222920257,780.31222920257,980.31222920257,419.68777079743,980.31222920257,780.31222920257,980.31222920257,419.68777079743,619.68777079743,419.68777079743,619.68777079743,780.31222920257,4,0,0,0,horizontal,vertical,vertical,horizontal
2b,13,100357,3,27,91,18,F,NA,constant,homogeneous,4,present,1.16220092773438,1,horizontal,horizontal,1,2,green,4,2,619.68777079743,780.31222920257,980.31222920257,419.68777079743,980.31222920257,780.31222920257,980.31222920257,419.68777079743,619.68777079743,419.68777079743,619.68777079743,780.31222920257,0,0,0,4,vertical,vertical,vertical,horizontal
2b,13,100357,3,28,92,18,F,NA,constant,homogeneous,4,absent,0.717545032501221,1,horizontal,horizontal,1,2,green,1,NaN,980.31222920257,780.31222920257,NaN,NaN,980.31222920257,780.31222920257,980.31222920257,419.68777079743,619.68777079743,419.68777079743,619.68777079743,780.31222920257,4,0,0,0,horizontal,vertical,horizontal,vertical
2b,13,100357,3,29,93,18,F,NA,constant,homogeneous,4,absent,1.06799292564392,1,vertical,vertical,1,3,green,2,NaN,980.31222920257,419.68777079743,NaN,NaN,980.31222920257,780.31222920257,980.31222920257,419.68777079743,619.68777079743,419.68777079743,619.68777079743,780.31222920257,0,4,0,0,vertical,vertical,horizontal,vertical
2b,13,100357,3,30,94,18,F,NA,constant,homogeneous,4,present,0.629731893539429,1,horizontal,horizontal,1,5,green,4,2,619.68777079743,780.31222920257,980.31222920257,419.68777079743,980.31222920257,780.31222920257,980.31222920257,419.68777079743,619.68777079743,419.68777079743,619.68777079743,780.31222920257,0,0,0,4,horizontal,vertical,vertical,horizontal
2b,13,100357,3,31,95,18,F,NA,constant,homogeneous,4,absent,0.674418926239014,1,horizontal,horizontal,1,3,green,3,NaN,619.68777079743,419.68777079743,NaN,NaN,980.31222920257,780.31222920257,980.31222920257,419.68777079743,619.68777079743,419.68777079743,619.68777079743,780.31222920257,0,0,4,0,horizontal,vertical,horizontal,vertical
2b,13,100357,3,32,96,18,F,NA,constant,homogeneous,4,present,0.720376968383789,1,horizontal,horizontal,1,3,green,3,2,619.68777079743,419.68777079743,980.31222920257,419.68777079743,980.31222920257,780.31222920257,980.31222920257,419.68777079743,619.68777079743,419.68777079743,619.68777079743,780.31222920257,0,0,4,0,horizontal,vertical,horizontal,horizontal
2b,13,100357,4,1,97,18,F,NA,constant,homogeneous,4,present,1.42156386375427,1,vertical,vertical,1,2,green,2,3,980.31222920257,419.68777079743,619.68777079743,419.68777079743,980.31222920257,780.31222920257,980.31222920257,419.68777079743,619.68777079743,419.68777079743,619.68777079743,780.31222920257,0,4,0,0,horizontal,vertical,vertical,vertical
2b,13,100357,4,2,98,18,F,NA,constant,homogeneous,4,absent,0.88597297668457,1,horizontal,horizontal,1,5,green,4,NaN,619.68777079743,780.31222920257,NaN,NaN,980.31222920257,780.31222920257,980.31222920257,419.68777079743,619.68777079743,419.68777079743,619.68777079743,780.31222920257,0,0,0,4,horizontal,horizontal,horizontal,horizontal
2b,13,100357,4,3,99,18,F,NA,constant,homogeneous,4,present,0.984143018722534,1,horizontal,horizontal,1,8,green,1,3,980.31222920257,780.31222920257,619.68777079743,419.68777079743,980.31222920257,780.31222920257,980.31222920257,419.68777079743,619.68777079743,419.68777079743,619.68777079743,780.31222920257,4,0,0,0,horizontal,vertical,vertical,horizontal
2b,13,100357,4,4,100,18,F,NA,constant,homogeneous,4,absent,0.604071140289307,1,horizontal,horizontal,1,2,green,1,NaN,980.31222920257,780.31222920257,NaN,NaN,980.31222920257,780.31222920257,980.31222920257,419.68777079743,619.68777079743,419.68777079743,619.68777079743,780.31222920257,4,0,0,0,horizontal,vertical,vertical,vertical
2b,13,100357,4,5,101,18,F,NA,constant,homogeneous,4,present,0.512667894363403,1,vertical,vertical,1,5,green,1,3,980.31222920257,780.31222920257,619.68777079743,419.68777079743,980.31222920257,780.31222920257,980.31222920257,419.68777079743,619.68777079743,419.68777079743,619.68777079743,780.31222920257,4,0,0,0,vertical,horizontal,horizontal,vertical
2b,13,100357,4,6,102,18,F,NA,constant,homogeneous,4,absent,0.594732999801636,1,horizontal,horizontal,1,3,green,1,NaN,980.31222920257,780.31222920257,NaN,NaN,980.31222920257,780.31222920257,980.31222920257,419.68777079743,619.68777079743,419.68777079743,619.68777079743,780.31222920257,4,0,0,0,horizontal,vertical,vertical,horizontal
2b,13,100357,4,7,103,18,F,NA,constant,homogeneous,4,present,0.634696960449219,1,horizontal,horizontal,1,2,green,3,1,619.68777079743,419.68777079743,980.31222920257,780.31222920257,980.31222920257,780.31222920257,980.31222920257,419.68777079743,619.68777079743,419.68777079743,619.68777079743,780.31222920257,0,0,4,0,horizontal,horizontal,horizontal,horizontal
2b,13,100357,4,8,104,18,F,NA,constant,homogeneous,4,absent,0.627913951873779,1,horizontal,horizontal,1,8,green,2,NaN,980.31222920257,419.68777079743,NaN,NaN,980.31222920257,780.31222920257,980.31222920257,419.68777079743,619.68777079743,419.68777079743,619.68777079743,780.31222920257,0,4,0,0,vertical,horizontal,horizontal,horizontal
2b,13,100357,4,9,105,18,F,NA,constant,homogeneous,4,absent,0.752490997314453,1,vertical,vertical,1,5,green,2,NaN,980.31222920257,419.68777079743,NaN,NaN,980.31222920257,780.31222920257,980.31222920257,419.68777079743,619.68777079743,419.68777079743,619.68777079743,780.31222920257,0,4,0,0,horizontal,vertical,vertical,vertical
2b,13,100357,4,10,106,18,F,NA,constant,homogeneous,4,present,0.66010308265686,0,vertical,horizontal,1,2,green,4,2,619.68777079743,780.31222920257,980.31222920257,419.68777079743,980.31222920257,780.31222920257,980.31222920257,419.68777079743,619.68777079743,419.68777079743,619.68777079743,780.31222920257,0,0,0,4,horizontal,vertical,horizontal,vertical
2b,13,100357,4,11,107,18,F,NA,constant,homogeneous,4,present,1.05355787277222,1,vertical,vertical,1,5,green,3,1,619.68777079743,419.68777079743,980.31222920257,780.31222920257,980.31222920257,780.31222920257,980.31222920257,419.68777079743,619.68777079743,419.68777079743,619.68777079743,780.31222920257,0,0,4,0,horizontal,horizontal,vertical,horizontal
2b,13,100357,4,12,108,18,F,NA,constant,homogeneous,4,present,1.11460614204407,1,horizontal,horizontal,1,2,green,4,2,619.68777079743,780.31222920257,980.31222920257,419.68777079743,980.31222920257,780.31222920257,980.31222920257,419.68777079743,619.68777079743,419.68777079743,619.68777079743,780.31222920257,0,0,0,4,vertical,horizontal,vertical,horizontal
2b,13,100357,4,13,109,18,F,NA,constant,homogeneous,4,present,1.34924507141113,1,horizontal,horizontal,1,3,green,2,1,980.31222920257,419.68777079743,980.31222920257,780.31222920257,980.31222920257,780.31222920257,980.31222920257,419.68777079743,619.68777079743,419.68777079743,619.68777079743,780.31222920257,0,4,0,0,vertical,horizontal,horizontal,vertical
2b,13,100357,4,14,110,18,F,NA,constant,homogeneous,4,absent,0.95645809173584,1,vertical,vertical,1,2,green,4,NaN,619.68777079743,780.31222920257,NaN,NaN,980.31222920257,780.31222920257,980.31222920257,419.68777079743,619.68777079743,419.68777079743,619.68777079743,780.31222920257,0,0,0,4,horizontal,vertical,horizontal,vertical
2b,13,100357,4,15,111,18,F,NA,constant,homogeneous,4,present,1.03167009353638,1,vertical,vertical,1,2,green,1,4,980.31222920257,780.31222920257,619.68777079743,780.31222920257,980.31222920257,780.31222920257,980.31222920257,419.68777079743,619.68777079743,419.68777079743,619.68777079743,780.31222920257,4,0,0,0,vertical,horizontal,vertical,vertical
2b,13,100357,4,16,112,18,F,NA,constant,homogeneous,4,absent,1.03635191917419,1,horizontal,horizontal,1,2,green,2,NaN,980.31222920257,419.68777079743,NaN,NaN,980.31222920257,780.31222920257,980.31222920257,419.68777079743,619.68777079743,419.68777079743,619.68777079743,780.31222920257,0,4,0,0,vertical,horizontal,horizontal,vertical
2b,13,100357,4,17,113,18,F,NA,constant,homogeneous,4,present,0.853499889373779,1,horizontal,horizontal,1,2,green,2,4,980.31222920257,419.68777079743,619.68777079743,780.31222920257,980.31222920257,780.31222920257,980.31222920257,419.68777079743,619.68777079743,419.68777079743,619.68777079743,780.31222920257,0,4,0,0,vertical,horizontal,horizontal,horizontal
2b,13,100357,4,18,114,18,F,NA,constant,homogeneous,4,absent,0.754536151885986,1,vertical,vertical,1,5,green,2,NaN,980.31222920257,419.68777079743,NaN,NaN,980.31222920257,780.31222920257,980.31222920257,419.68777079743,619.68777079743,419.68777079743,619.68777079743,780.31222920257,0,4,0,0,vertical,vertical,horizontal,horizontal
2b,13,100357,4,19,115,18,F,NA,constant,homogeneous,4,absent,1.0539379119873,1,horizontal,horizontal,1,5,green,2,NaN,980.31222920257,419.68777079743,NaN,NaN,980.31222920257,780.31222920257,980.31222920257,419.68777079743,619.68777079743,419.68777079743,619.68777079743,780.31222920257,0,4,0,0,vertical,horizontal,horizontal,vertical
2b,13,100357,4,20,116,18,F,NA,constant,homogeneous,4,present,1.07513689994812,1,horizontal,horizontal,1,5,green,1,2,980.31222920257,780.31222920257,980.31222920257,419.68777079743,980.31222920257,780.31222920257,980.31222920257,419.68777079743,619.68777079743,419.68777079743,619.68777079743,780.31222920257,4,0,0,0,horizontal,horizontal,vertical,horizontal
2b,13,100357,4,21,117,18,F,NA,constant,homogeneous,4,present,0.672959089279175,1,horizontal,horizontal,1,3,green,2,3,980.31222920257,419.68777079743,619.68777079743,419.68777079743,980.31222920257,780.31222920257,980.31222920257,419.68777079743,619.68777079743,419.68777079743,619.68777079743,780.31222920257,0,4,0,0,horizontal,horizontal,vertical,vertical
2b,13,100357,4,22,118,18,F,NA,constant,homogeneous,4,present,0.718713045120239,1,vertical,vertical,1,3,green,2,3,980.31222920257,419.68777079743,619.68777079743,419.68777079743,980.31222920257,780.31222920257,980.31222920257,419.68777079743,619.68777079743,419.68777079743,619.68777079743,780.31222920257,0,4,0,0,horizontal,vertical,vertical,vertical
2b,13,100357,4,23,119,18,F,NA,constant,homogeneous,4,absent,1.01351690292358,0,vertical,horizontal,1,2,green,2,NaN,980.31222920257,419.68777079743,NaN,NaN,980.31222920257,780.31222920257,980.31222920257,419.68777079743,619.68777079743,419.68777079743,619.68777079743,780.31222920257,0,4,0,0,horizontal,vertical,vertical,vertical
2b,13,100357,4,24,120,18,F,NA,constant,homogeneous,4,absent,0.918097019195557,0,vertical,horizontal,1,2,green,3,NaN,619.68777079743,419.68777079743,NaN,NaN,980.31222920257,780.31222920257,980.31222920257,419.68777079743,619.68777079743,419.68777079743,619.68777079743,780.31222920257,0,0,4,0,horizontal,horizontal,vertical,horizontal
2b,13,100357,4,25,121,18,F,NA,constant,homogeneous,4,absent,1.22070002555847,1,vertical,vertical,1,8,green,4,NaN,619.68777079743,780.31222920257,NaN,NaN,980.31222920257,780.31222920257,980.31222920257,419.68777079743,619.68777079743,419.68777079743,619.68777079743,780.31222920257,0,0,0,4,horizontal,horizontal,vertical,vertical
2b,13,100357,4,26,122,18,F,NA,constant,homogeneous,4,absent,0.989175081253052,1,horizontal,horizontal,1,2,green,1,NaN,980.31222920257,780.31222920257,NaN,NaN,980.31222920257,780.31222920257,980.31222920257,419.68777079743,619.68777079743,419.68777079743,619.68777079743,780.31222920257,4,0,0,0,horizontal,vertical,horizontal,vertical
2b,13,100357,4,27,123,18,F,NA,constant,homogeneous,4,present,1.33319401741028,1,vertical,vertical,1,8,green,3,4,619.68777079743,419.68777079743,619.68777079743,780.31222920257,980.31222920257,780.31222920257,980.31222920257,419.68777079743,619.68777079743,419.68777079743,619.68777079743,780.31222920257,0,0,4,0,horizontal,vertical,vertical,horizontal
2b,13,100357,4,28,124,18,F,NA,constant,homogeneous,4,absent,0.720088958740234,1,horizontal,horizontal,1,3,green,3,NaN,619.68777079743,419.68777079743,NaN,NaN,980.31222920257,780.31222920257,980.31222920257,419.68777079743,619.68777079743,419.68777079743,619.68777079743,780.31222920257,0,0,4,0,vertical,vertical,horizontal,horizontal
2b,13,100357,4,29,125,18,F,NA,constant,homogeneous,4,absent,1.51878309249878,1,vertical,vertical,1,3,green,2,NaN,980.31222920257,419.68777079743,NaN,NaN,980.31222920257,780.31222920257,980.31222920257,419.68777079743,619.68777079743,419.68777079743,619.68777079743,780.31222920257,0,4,0,0,horizontal,vertical,vertical,horizontal
2b,13,100357,4,30,126,18,F,NA,constant,homogeneous,4,present,0.925404071807861,1,horizontal,horizontal,1,5,green,4,2,619.68777079743,780.31222920257,980.31222920257,419.68777079743,980.31222920257,780.31222920257,980.31222920257,419.68777079743,619.68777079743,419.68777079743,619.68777079743,780.31222920257,0,0,0,4,horizontal,vertical,vertical,horizontal
2b,13,100357,4,31,127,18,F,NA,constant,homogeneous,4,present,1.38033199310303,1,vertical,vertical,1,3,green,2,1,980.31222920257,419.68777079743,980.31222920257,780.31222920257,980.31222920257,780.31222920257,980.31222920257,419.68777079743,619.68777079743,419.68777079743,619.68777079743,780.31222920257,0,4,0,0,horizontal,vertical,vertical,horizontal
2b,13,100357,4,32,128,18,F,NA,constant,homogeneous,4,absent,1.20022201538086,1,vertical,vertical,1,3,green,3,NaN,619.68777079743,419.68777079743,NaN,NaN,980.31222920257,780.31222920257,980.31222920257,419.68777079743,619.68777079743,419.68777079743,619.68777079743,780.31222920257,0,0,4,0,horizontal,horizontal,vertical,horizontal
2b,13,100357,5,1,129,18,F,NA,constant,homogeneous,4,absent,1.01721286773682,1,horizontal,horizontal,1,8,green,4,NaN,619.68777079743,780.31222920257,NaN,NaN,980.31222920257,780.31222920257,980.31222920257,419.68777079743,619.68777079743,419.68777079743,619.68777079743,780.31222920257,0,0,0,4,vertical,vertical,vertical,horizontal
2b,13,100357,5,2,130,18,F,NA,constant,homogeneous,4,absent,0.977769136428833,1,horizontal,horizontal,1,3,green,3,NaN,619.68777079743,419.68777079743,NaN,NaN,980.31222920257,780.31222920257,980.31222920257,419.68777079743,619.68777079743,419.68777079743,619.68777079743,780.31222920257,0,0,4,0,horizontal,vertical,horizontal,horizontal
2b,13,100357,5,3,131,18,F,NA,constant,homogeneous,4,present,0.813433170318604,1,vertical,vertical,1,5,green,1,2,980.31222920257,780.31222920257,980.31222920257,419.68777079743,980.31222920257,780.31222920257,980.31222920257,419.68777079743,619.68777079743,419.68777079743,619.68777079743,780.31222920257,4,0,0,0,vertical,horizontal,vertical,horizontal
2b,13,100357,5,4,132,18,F,NA,constant,homogeneous,4,present,0.662436962127686,1,horizontal,horizontal,1,8,green,4,3,619.68777079743,780.31222920257,619.68777079743,419.68777079743,980.31222920257,780.31222920257,980.31222920257,419.68777079743,619.68777079743,419.68777079743,619.68777079743,780.31222920257,0,0,0,4,horizontal,vertical,vertical,horizontal
2b,13,100357,5,5,133,18,F,NA,constant,homogeneous,4,present,0.639843940734863,1,horizontal,horizontal,1,3,green,4,2,619.68777079743,780.31222920257,980.31222920257,419.68777079743,980.31222920257,780.31222920257,980.31222920257,419.68777079743,619.68777079743,419.68777079743,619.68777079743,780.31222920257,0,0,0,4,vertical,horizontal,vertical,horizontal
2b,13,100357,5,6,134,18,F,NA,constant,homogeneous,4,absent,0.729079008102417,1,horizontal,horizontal,1,2,green,1,NaN,980.31222920257,780.31222920257,NaN,NaN,980.31222920257,780.31222920257,980.31222920257,419.68777079743,619.68777079743,419.68777079743,619.68777079743,780.31222920257,4,0,0,0,horizontal,horizontal,horizontal,horizontal
2b,13,100357,5,7,135,18,F,NA,constant,homogeneous,4,present,0.539546012878418,1,vertical,vertical,1,3,green,1,3,980.31222920257,780.31222920257,619.68777079743,419.68777079743,980.31222920257,780.31222920257,980.31222920257,419.68777079743,619.68777079743,419.68777079743,619.68777079743,780.31222920257,4,0,0,0,vertical,horizontal,horizontal,horizontal
2b,13,100357,5,8,136,18,F,NA,constant,homogeneous,4,absent,0.662286996841431,1,vertical,vertical,1,5,green,3,NaN,619.68777079743,419.68777079743,NaN,NaN,980.31222920257,780.31222920257,980.31222920257,419.68777079743,619.68777079743,419.68777079743,619.68777079743,780.31222920257,0,0,4,0,horizontal,vertical,vertical,vertical
2b,13,100357,5,9,137,18,F,NA,constant,homogeneous,4,absent,0.752072811126709,1,vertical,vertical,1,3,green,4,NaN,619.68777079743,780.31222920257,NaN,NaN,980.31222920257,780.31222920257,980.31222920257,419.68777079743,619.68777079743,419.68777079743,619.68777079743,780.31222920257,0,0,0,4,vertical,vertical,horizontal,vertical
2b,13,100357,5,10,138,18,F,NA,constant,homogeneous,4,present,0.771353006362915,1,horizontal,horizontal,1,2,green,1,4,980.31222920257,780.31222920257,619.68777079743,780.31222920257,980.31222920257,780.31222920257,980.31222920257,419.68777079743,619.68777079743,419.68777079743,619.68777079743,780.31222920257,4,0,0,0,horizontal,vertical,vertical,vertical
2b,13,100357,5,11,139,18,F,NA,constant,homogeneous,4,absent,1.01101493835449,1,horizontal,horizontal,1,3,green,2,NaN,980.31222920257,419.68777079743,NaN,NaN,980.31222920257,780.31222920257,980.31222920257,419.68777079743,619.68777079743,419.68777079743,619.68777079743,780.31222920257,0,4,0,0,vertical,horizontal,vertical,horizontal
2b,13,100357,5,12,140,18,F,NA,constant,homogeneous,4,present,0.611265897750854,1,horizontal,horizontal,1,2,green,4,1,619.68777079743,780.31222920257,980.31222920257,780.31222920257,980.31222920257,780.31222920257,980.31222920257,419.68777079743,619.68777079743,419.68777079743,619.68777079743,780.31222920257,0,0,0,4,vertical,vertical,horizontal,horizontal
2b,13,100357,5,13,141,18,F,NA,constant,homogeneous,4,absent,0.651943922042847,1,vertical,vertical,1,5,green,1,NaN,980.31222920257,780.31222920257,NaN,NaN,980.31222920257,780.31222920257,980.31222920257,419.68777079743,619.68777079743,419.68777079743,619.68777079743,780.31222920257,4,0,0,0,vertical,horizontal,horizontal,vertical
2b,13,100357,5,14,142,18,F,NA,constant,homogeneous,4,absent,0.761322975158691,1,vertical,vertical,1,2,green,3,NaN,619.68777079743,419.68777079743,NaN,NaN,980.31222920257,780.31222920257,980.31222920257,419.68777079743,619.68777079743,419.68777079743,619.68777079743,780.31222920257,0,0,4,0,horizontal,horizontal,vertical,horizontal
2b,13,100357,5,15,143,18,F,NA,constant,homogeneous,4,absent,0.732723951339722,1,vertical,vertical,1,2,green,2,NaN,980.31222920257,419.68777079743,NaN,NaN,980.31222920257,780.31222920257,980.31222920257,419.68777079743,619.68777079743,419.68777079743,619.68777079743,780.31222920257,0,4,0,0,vertical,vertical,horizontal,horizontal
2b,13,100357,5,16,144,18,F,NA,constant,homogeneous,4,absent,0.575271844863892,1,vertical,vertical,1,3,green,2,NaN,980.31222920257,419.68777079743,NaN,NaN,980.31222920257,780.31222920257,980.31222920257,419.68777079743,619.68777079743,419.68777079743,619.68777079743,780.31222920257,0,4,0,0,vertical,vertical,vertical,horizontal
2b,13,100357,5,17,145,18,F,NA,constant,homogeneous,4,absent,0.803222179412842,1,vertical,vertical,1,2,green,4,NaN,619.68777079743,780.31222920257,NaN,NaN,980.31222920257,780.31222920257,980.31222920257,419.68777079743,619.68777079743,419.68777079743,619.68777079743,780.31222920257,0,0,0,4,horizontal,horizontal,horizontal,vertical
2b,13,100357,5,18,146,18,F,NA,constant,homogeneous,4,present,0.711394071578979,1,horizontal,horizontal,1,2,green,3,2,619.68777079743,419.68777079743,980.31222920257,419.68777079743,980.31222920257,780.31222920257,980.31222920257,419.68777079743,619.68777079743,419.68777079743,619.68777079743,780.31222920257,0,0,4,0,vertical,horizontal,horizontal,vertical
2b,13,100357,5,19,147,18,F,NA,constant,homogeneous,4,present,0.841784954071045,1,vertical,vertical,1,8,green,4,1,619.68777079743,780.31222920257,980.31222920257,780.31222920257,980.31222920257,780.31222920257,980.31222920257,419.68777079743,619.68777079743,419.68777079743,619.68777079743,780.31222920257,0,0,0,4,vertical,vertical,horizontal,vertical
2b,13,100357,5,20,148,18,F,NA,constant,homogeneous,4,present,0.731127977371216,1,vertical,vertical,1,2,green,3,4,619.68777079743,419.68777079743,619.68777079743,780.31222920257,980.31222920257,780.31222920257,980.31222920257,419.68777079743,619.68777079743,419.68777079743,619.68777079743,780.31222920257,0,0,4,0,horizontal,horizontal,vertical,horizontal
2b,13,100357,5,21,149,18,F,NA,constant,homogeneous,4,present,0.733999013900757,1,vertical,vertical,1,3,green,4,1,619.68777079743,780.31222920257,980.31222920257,780.31222920257,980.31222920257,780.31222920257,980.31222920257,419.68777079743,619.68777079743,419.68777079743,619.68777079743,780.31222920257,0,0,0,4,vertical,vertical,vertical,vertical
2b,13,100357,5,22,150,18,F,NA,constant,homogeneous,4,absent,0.760883092880249,1,horizontal,horizontal,1,2,green,2,NaN,980.31222920257,419.68777079743,NaN,NaN,980.31222920257,780.31222920257,980.31222920257,419.68777079743,619.68777079743,419.68777079743,619.68777079743,780.31222920257,0,4,0,0,horizontal,horizontal,vertical,horizontal
2b,13,100357,5,23,151,18,F,NA,constant,homogeneous,4,present,0.707866191864014,1,horizontal,horizontal,1,5,green,1,3,980.31222920257,780.31222920257,619.68777079743,419.68777079743,980.31222920257,780.31222920257,980.31222920257,419.68777079743,619.68777079743,419.68777079743,619.68777079743,780.31222920257,4,0,0,0,horizontal,vertical,vertical,vertical
2b,13,100357,5,24,152,18,F,NA,constant,homogeneous,4,absent,0.742460966110229,1,vertical,vertical,1,8,green,2,NaN,980.31222920257,419.68777079743,NaN,NaN,980.31222920257,780.31222920257,980.31222920257,419.68777079743,619.68777079743,419.68777079743,619.68777079743,780.31222920257,0,4,0,0,vertical,vertical,vertical,vertical
2b,13,100357,5,25,153,18,F,NA,constant,homogeneous,4,present,0.749629020690918,1,horizontal,horizontal,1,3,green,2,3,980.31222920257,419.68777079743,619.68777079743,419.68777079743,980.31222920257,780.31222920257,980.31222920257,419.68777079743,619.68777079743,419.68777079743,619.68777079743,780.31222920257,0,4,0,0,horizontal,horizontal,horizontal,horizontal
2b,13,100357,5,26,154,18,F,NA,constant,homogeneous,4,absent,1.50878596305847,1,horizontal,horizontal,1,5,green,1,NaN,980.31222920257,780.31222920257,NaN,NaN,980.31222920257,780.31222920257,980.31222920257,419.68777079743,619.68777079743,419.68777079743,619.68777079743,780.31222920257,4,0,0,0,horizontal,horizontal,vertical,horizontal
2b,13,100357,5,27,155,18,F,NA,constant,homogeneous,4,present,0.983376026153564,1,vertical,vertical,1,2,green,3,4,619.68777079743,419.68777079743,619.68777079743,780.31222920257,980.31222920257,780.31222920257,980.31222920257,419.68777079743,619.68777079743,419.68777079743,619.68777079743,780.31222920257,0,0,4,0,horizontal,vertical,vertical,vertical
2b,13,100357,5,28,156,18,F,NA,constant,homogeneous,4,present,1.27524995803833,1,vertical,vertical,1,2,green,3,4,619.68777079743,419.68777079743,619.68777079743,780.31222920257,980.31222920257,780.31222920257,980.31222920257,419.68777079743,619.68777079743,419.68777079743,619.68777079743,780.31222920257,0,0,4,0,horizontal,vertical,vertical,horizontal
2b,13,100357,5,29,157,18,F,NA,constant,homogeneous,4,present,0.832725048065186,1,horizontal,horizontal,1,5,green,1,4,980.31222920257,780.31222920257,619.68777079743,780.31222920257,980.31222920257,780.31222920257,980.31222920257,419.68777079743,619.68777079743,419.68777079743,619.68777079743,780.31222920257,4,0,0,0,horizontal,horizontal,horizontal,vertical
2b,13,100357,5,30,158,18,F,NA,constant,homogeneous,4,absent,0.541549921035767,1,horizontal,horizontal,1,2,green,1,NaN,980.31222920257,780.31222920257,NaN,NaN,980.31222920257,780.31222920257,980.31222920257,419.68777079743,619.68777079743,419.68777079743,619.68777079743,780.31222920257,4,0,0,0,horizontal,vertical,vertical,vertical
2b,13,100357,5,31,159,18,F,NA,constant,homogeneous,4,present,1.30866479873657,1,vertical,vertical,1,5,green,4,3,619.68777079743,780.31222920257,619.68777079743,419.68777079743,980.31222920257,780.31222920257,980.31222920257,419.68777079743,619.68777079743,419.68777079743,619.68777079743,780.31222920257,0,0,0,4,horizontal,vertical,horizontal,vertical
2b,13,100357,5,32,160,18,F,NA,constant,homogeneous,4,absent,0.879379987716675,1,horizontal,horizontal,1,5,green,2,NaN,980.31222920257,419.68777079743,NaN,NaN,980.31222920257,780.31222920257,980.31222920257,419.68777079743,619.68777079743,419.68777079743,619.68777079743,780.31222920257,0,4,0,0,horizontal,horizontal,vertical,horizontal
2b,13,100357,6,1,161,18,F,NA,constant,homogeneous,4,present,1.2217869758606,1,horizontal,horizontal,1,2,green,2,3,980.31222920257,419.68777079743,619.68777079743,419.68777079743,980.31222920257,780.31222920257,980.31222920257,419.68777079743,619.68777079743,419.68777079743,619.68777079743,780.31222920257,0,4,0,0,horizontal,horizontal,horizontal,horizontal
2b,13,100357,6,2,162,18,F,NA,constant,homogeneous,4,present,0.83840012550354,1,vertical,vertical,1,5,green,2,4,980.31222920257,419.68777079743,619.68777079743,780.31222920257,980.31222920257,780.31222920257,980.31222920257,419.68777079743,619.68777079743,419.68777079743,619.68777079743,780.31222920257,0,4,0,0,horizontal,vertical,horizontal,vertical
2b,13,100357,6,3,163,18,F,NA,constant,homogeneous,4,absent,0.999191999435425,1,vertical,vertical,1,2,green,3,NaN,619.68777079743,419.68777079743,NaN,NaN,980.31222920257,780.31222920257,980.31222920257,419.68777079743,619.68777079743,419.68777079743,619.68777079743,780.31222920257,0,0,4,0,horizontal,horizontal,vertical,vertical
2b,13,100357,6,4,164,18,F,NA,constant,homogeneous,4,present,0.63552713394165,1,horizontal,horizontal,1,5,green,4,2,619.68777079743,780.31222920257,980.31222920257,419.68777079743,980.31222920257,780.31222920257,980.31222920257,419.68777079743,619.68777079743,419.68777079743,619.68777079743,780.31222920257,0,0,0,4,vertical,vertical,vertical,horizontal
2b,13,100357,6,5,165,18,F,NA,constant,homogeneous,4,absent,0.756542205810547,0,horizontal,vertical,1,2,green,3,NaN,619.68777079743,419.68777079743,NaN,NaN,980.31222920257,780.31222920257,980.31222920257,419.68777079743,619.68777079743,419.68777079743,619.68777079743,780.31222920257,0,0,4,0,vertical,horizontal,horizontal,vertical
2b,13,100357,6,6,166,18,F,NA,constant,homogeneous,4,present,0.736021995544434,1,horizontal,horizontal,1,5,green,2,3,980.31222920257,419.68777079743,619.68777079743,419.68777079743,980.31222920257,780.31222920257,980.31222920257,419.68777079743,619.68777079743,419.68777079743,619.68777079743,780.31222920257,0,4,0,0,vertical,horizontal,vertical,vertical
2b,13,100357,6,7,167,18,F,NA,constant,homogeneous,4,absent,0.610962152481079,1,vertical,vertical,1,5,green,2,NaN,980.31222920257,419.68777079743,NaN,NaN,980.31222920257,780.31222920257,980.31222920257,419.68777079743,619.68777079743,419.68777079743,619.68777079743,780.31222920257,0,4,0,0,horizontal,vertical,vertical,vertical
2b,13,100357,6,8,168,18,F,NA,constant,homogeneous,4,present,0.699496984481812,1,vertical,vertical,1,3,green,3,2,619.68777079743,419.68777079743,980.31222920257,419.68777079743,980.31222920257,780.31222920257,980.31222920257,419.68777079743,619.68777079743,419.68777079743,619.68777079743,780.31222920257,0,0,4,0,horizontal,horizontal,vertical,vertical
2b,13,100357,6,9,169,18,F,NA,constant,homogeneous,4,absent,0.610008955001831,1,horizontal,horizontal,1,5,green,4,NaN,619.68777079743,780.31222920257,NaN,NaN,980.31222920257,780.31222920257,980.31222920257,419.68777079743,619.68777079743,419.68777079743,619.68777079743,780.31222920257,0,0,0,4,horizontal,horizontal,horizontal,horizontal
2b,13,100357,6,10,170,18,F,NA,constant,homogeneous,4,present,0.726016044616699,1,horizontal,horizontal,1,3,green,3,1,619.68777079743,419.68777079743,980.31222920257,780.31222920257,980.31222920257,780.31222920257,980.31222920257,419.68777079743,619.68777079743,419.68777079743,619.68777079743,780.31222920257,0,0,4,0,vertical,vertical,horizontal,vertical
2b,13,100357,6,11,171,18,F,NA,constant,homogeneous,4,present,0.636514186859131,1,horizontal,horizontal,1,8,green,2,3,980.31222920257,419.68777079743,619.68777079743,419.68777079743,980.31222920257,780.31222920257,980.31222920257,419.68777079743,619.68777079743,419.68777079743,619.68777079743,780.31222920257,0,4,0,0,vertical,horizontal,horizontal,vertical
2b,13,100357,6,12,172,18,F,NA,constant,homogeneous,4,present,1.09343910217285,1,vertical,vertical,1,2,green,1,3,980.31222920257,780.31222920257,619.68777079743,419.68777079743,980.31222920257,780.31222920257,980.31222920257,419.68777079743,619.68777079743,419.68777079743,619.68777079743,780.31222920257,4,0,0,0,vertical,horizontal,horizontal,vertical
2b,13,100357,6,13,173,18,F,NA,constant,homogeneous,4,absent,0.827965974807739,1,vertical,vertical,1,5,green,2,NaN,980.31222920257,419.68777079743,NaN,NaN,980.31222920257,780.31222920257,980.31222920257,419.68777079743,619.68777079743,419.68777079743,619.68777079743,780.31222920257,0,4,0,0,vertical,vertical,horizontal,horizontal
2b,13,100357,6,14,174,18,F,NA,constant,homogeneous,4,present,0.776556015014648,1,vertical,vertical,1,8,green,2,3,980.31222920257,419.68777079743,619.68777079743,419.68777079743,980.31222920257,780.31222920257,980.31222920257,419.68777079743,619.68777079743,419.68777079743,619.68777079743,780.31222920257,0,4,0,0,horizontal,vertical,horizontal,horizontal
2b,13,100357,6,15,175,18,F,NA,constant,homogeneous,4,present,0.836595058441162,1,vertical,vertical,1,2,green,4,3,619.68777079743,780.31222920257,619.68777079743,419.68777079743,980.31222920257,780.31222920257,980.31222920257,419.68777079743,619.68777079743,419.68777079743,619.68777079743,780.31222920257,0,0,0,4,horizontal,horizontal,horizontal,vertical
2b,13,100357,6,16,176,18,F,NA,constant,homogeneous,4,absent,1.8215000629425,1,horizontal,horizontal,1,5,green,1,NaN,980.31222920257,780.31222920257,NaN,NaN,980.31222920257,780.31222920257,980.31222920257,419.68777079743,619.68777079743,419.68777079743,619.68777079743,780.31222920257,4,0,0,0,horizontal,horizontal,horizontal,vertical
2b,13,100357,6,17,177,18,F,NA,constant,homogeneous,4,absent,0.621938943862915,1,horizontal,horizontal,1,2,green,1,NaN,980.31222920257,780.31222920257,NaN,NaN,980.31222920257,780.31222920257,980.31222920257,419.68777079743,619.68777079743,419.68777079743,619.68777079743,780.31222920257,4,0,0,0,horizontal,vertical,horizontal,vertical
2b,13,100357,6,18,178,18,F,NA,constant,homogeneous,4,present,0.794909954071045,1,vertical,vertical,1,5,green,3,4,619.68777079743,419.68777079743,619.68777079743,780.31222920257,980.31222920257,780.31222920257,980.31222920257,419.68777079743,619.68777079743,419.68777079743,619.68777079743,780.31222920257,0,0,4,0,vertical,horizontal,vertical,vertical
2b,13,100357,6,19,179,18,F,NA,constant,homogeneous,4,absent,1.02676200866699,1,horizontal,horizontal,1,3,green,2,NaN,980.31222920257,419.68777079743,NaN,NaN,980.31222920257,780.31222920257,980.31222920257,419.68777079743,619.68777079743,419.68777079743,619.68777079743,780.31222920257,0,4,0,0,horizontal,horizontal,vertical,horizontal
2b,13,100357,6,20,180,18,F,NA,constant,homogeneous,4,absent,0.887794017791748,1,vertical,vertical,1,2,green,1,NaN,980.31222920257,780.31222920257,NaN,NaN,980.31222920257,780.31222920257,980.31222920257,419.68777079743,619.68777079743,419.68777079743,619.68777079743,780.31222920257,4,0,0,0,vertical,horizontal,horizontal,horizontal
2b,13,100357,6,21,181,18,F,NA,constant,homogeneous,4,present,0.665745973587036,1,horizontal,horizontal,1,2,green,1,3,980.31222920257,780.31222920257,619.68777079743,419.68777079743,980.31222920257,780.31222920257,980.31222920257,419.68777079743,619.68777079743,419.68777079743,619.68777079743,780.31222920257,4,0,0,0,horizontal,vertical,horizontal,horizontal
2b,13,100357,6,22,182,18,F,NA,constant,homogeneous,4,present,0.754981994628906,1,horizontal,horizontal,1,3,green,3,4,619.68777079743,419.68777079743,619.68777079743,780.31222920257,980.31222920257,780.31222920257,980.31222920257,419.68777079743,619.68777079743,419.68777079743,619.68777079743,780.31222920257,0,0,4,0,horizontal,horizontal,horizontal,horizontal
2b,13,100357,6,23,183,18,F,NA,constant,homogeneous,4,present,0.598397970199585,1,horizontal,horizontal,1,2,green,3,4,619.68777079743,419.68777079743,619.68777079743,780.31222920257,980.31222920257,780.31222920257,980.31222920257,419.68777079743,619.68777079743,419.68777079743,619.68777079743,780.31222920257,0,0,4,0,horizontal,horizontal,horizontal,horizontal
2b,13,100357,6,24,184,18,F,NA,constant,homogeneous,4,absent,0.746852159500122,1,vertical,vertical,1,3,green,4,NaN,619.68777079743,780.31222920257,NaN,NaN,980.31222920257,780.31222920257,980.31222920257,419.68777079743,619.68777079743,419.68777079743,619.68777079743,780.31222920257,0,0,0,4,horizontal,vertical,horizontal,vertical
2b,13,100357,6,25,185,18,F,NA,constant,homogeneous,4,absent,0.849752902984619,1,vertical,vertical,1,3,green,1,NaN,980.31222920257,780.31222920257,NaN,NaN,980.31222920257,780.31222920257,980.31222920257,419.68777079743,619.68777079743,419.68777079743,619.68777079743,780.31222920257,4,0,0,0,vertical,vertical,horizontal,horizontal
2b,13,100357,6,26,186,18,F,NA,constant,homogeneous,4,present,0.639234066009521,1,vertical,vertical,1,3,green,1,4,980.31222920257,780.31222920257,619.68777079743,780.31222920257,980.31222920257,780.31222920257,980.31222920257,419.68777079743,619.68777079743,419.68777079743,619.68777079743,780.31222920257,4,0,0,0,vertical,vertical,vertical,horizontal
2b,13,100357,6,27,187,18,F,NA,constant,homogeneous,4,absent,0.568170070648193,1,vertical,vertical,1,8,green,1,NaN,980.31222920257,780.31222920257,NaN,NaN,980.31222920257,780.31222920257,980.31222920257,419.68777079743,619.68777079743,419.68777079743,619.68777079743,780.31222920257,4,0,0,0,vertical,horizontal,horizontal,horizontal
2b,13,100357,6,28,188,18,F,NA,constant,homogeneous,4,absent,0.615909099578857,1,horizontal,horizontal,1,8,green,3,NaN,619.68777079743,419.68777079743,NaN,NaN,980.31222920257,780.31222920257,980.31222920257,419.68777079743,619.68777079743,419.68777079743,619.68777079743,780.31222920257,0,0,4,0,vertical,horizontal,horizontal,vertical
2b,13,100357,6,29,189,18,F,NA,constant,homogeneous,4,absent,0.656620979309082,1,horizontal,horizontal,1,3,green,1,NaN,980.31222920257,780.31222920257,NaN,NaN,980.31222920257,780.31222920257,980.31222920257,419.68777079743,619.68777079743,419.68777079743,619.68777079743,780.31222920257,4,0,0,0,horizontal,vertical,vertical,vertical
2b,13,100357,6,30,190,18,F,NA,constant,homogeneous,4,present,0.813678026199341,1,vertical,vertical,1,2,green,3,1,619.68777079743,419.68777079743,980.31222920257,780.31222920257,980.31222920257,780.31222920257,980.31222920257,419.68777079743,619.68777079743,419.68777079743,619.68777079743,780.31222920257,0,0,4,0,vertical,vertical,vertical,vertical
2b,13,100357,6,31,191,18,F,NA,constant,homogeneous,4,absent,0.598411798477173,1,horizontal,horizontal,1,2,green,4,NaN,619.68777079743,780.31222920257,NaN,NaN,980.31222920257,780.31222920257,980.31222920257,419.68777079743,619.68777079743,419.68777079743,619.68777079743,780.31222920257,0,0,0,4,vertical,vertical,horizontal,horizontal
2b,13,100357,6,32,192,18,F,NA,constant,homogeneous,4,absent,0.974054098129272,1,vertical,vertical,1,2,green,4,NaN,619.68777079743,780.31222920257,NaN,NaN,980.31222920257,780.31222920257,980.31222920257,419.68777079743,619.68777079743,419.68777079743,619.68777079743,780.31222920257,0,0,0,4,horizontal,horizontal,vertical,vertical
2b,13,100357,7,1,193,18,F,NA,constant,homogeneous,4,absent,0.587478876113892,1,vertical,vertical,1,2,green,1,NaN,980.31222920257,780.31222920257,NaN,NaN,980.31222920257,780.31222920257,980.31222920257,419.68777079743,619.68777079743,419.68777079743,619.68777079743,780.31222920257,4,0,0,0,vertical,horizontal,horizontal,horizontal
2b,13,100357,7,2,194,18,F,NA,constant,homogeneous,4,absent,0.579483032226562,1,vertical,vertical,1,8,green,3,NaN,619.68777079743,419.68777079743,NaN,NaN,980.31222920257,780.31222920257,980.31222920257,419.68777079743,619.68777079743,419.68777079743,619.68777079743,780.31222920257,0,0,4,0,vertical,vertical,vertical,vertical
2b,13,100357,7,3,195,18,F,NA,constant,homogeneous,4,present,0.591400861740112,1,horizontal,horizontal,1,3,green,4,3,619.68777079743,780.31222920257,619.68777079743,419.68777079743,980.31222920257,780.31222920257,980.31222920257,419.68777079743,619.68777079743,419.68777079743,619.68777079743,780.31222920257,0,0,0,4,horizontal,vertical,vertical,horizontal
2b,13,100357,7,4,196,18,F,NA,constant,homogeneous,4,present,0.831369876861572,1,vertical,vertical,1,3,green,2,1,980.31222920257,419.68777079743,980.31222920257,780.31222920257,980.31222920257,780.31222920257,980.31222920257,419.68777079743,619.68777079743,419.68777079743,619.68777079743,780.31222920257,0,4,0,0,horizontal,vertical,vertical,vertical
2b,13,100357,7,5,197,18,F,NA,constant,homogeneous,4,present,0.716227054595947,1,horizontal,horizontal,1,8,green,1,4,980.31222920257,780.31222920257,619.68777079743,780.31222920257,980.31222920257,780.31222920257,980.31222920257,419.68777079743,619.68777079743,419.68777079743,619.68777079743,780.31222920257,4,0,0,0,horizontal,horizontal,vertical,horizontal
2b,13,100357,7,6,198,18,F,NA,constant,homogeneous,4,absent,0.570773124694824,1,horizontal,horizontal,1,3,green,1,NaN,980.31222920257,780.31222920257,NaN,NaN,980.31222920257,780.31222920257,980.31222920257,419.68777079743,619.68777079743,419.68777079743,619.68777079743,780.31222920257,4,0,0,0,horizontal,vertical,vertical,horizontal
2b,13,100357,7,7,199,18,F,NA,constant,homogeneous,4,absent,0.594703912734985,1,horizontal,horizontal,1,3,green,2,NaN,980.31222920257,419.68777079743,NaN,NaN,980.31222920257,780.31222920257,980.31222920257,419.68777079743,619.68777079743,419.68777079743,619.68777079743,780.31222920257,0,4,0,0,vertical,horizontal,vertical,vertical
2b,13,100357,7,8,200,18,F,NA,constant,homogeneous,4,present,0.68258810043335,1,vertical,vertical,1,2,green,1,4,980.31222920257,780.31222920257,619.68777079743,780.31222920257,980.31222920257,780.31222920257,980.31222920257,419.68777079743,619.68777079743,419.68777079743,619.68777079743,780.31222920257,4,0,0,0,vertical,horizontal,horizontal,horizontal
2b,13,100357,7,9,201,18,F,NA,constant,homogeneous,4,present,0.724549055099487,1,horizontal,horizontal,1,2,green,1,3,980.31222920257,780.31222920257,619.68777079743,419.68777079743,980.31222920257,780.31222920257,980.31222920257,419.68777079743,619.68777079743,419.68777079743,619.68777079743,780.31222920257,4,0,0,0,horizontal,vertical,vertical,vertical
2b,13,100357,7,10,202,18,F,NA,constant,homogeneous,4,absent,0.515387058258057,1,vertical,vertical,1,3,green,1,NaN,980.31222920257,780.31222920257,NaN,NaN,980.31222920257,780.31222920257,980.31222920257,419.68777079743,619.68777079743,419.68777079743,619.68777079743,780.31222920257,4,0,0,0,vertical,vertical,vertical,vertical
2b,13,100357,7,11,203,18,F,NA,constant,homogeneous,4,absent,0.749708890914917,1,horizontal,horizontal,1,2,green,3,NaN,619.68777079743,419.68777079743,NaN,NaN,980.31222920257,780.31222920257,980.31222920257,419.68777079743,619.68777079743,419.68777079743,619.68777079743,780.31222920257,0,0,4,0,vertical,horizontal,horizontal,vertical
2b,13,100357,7,12,204,18,F,NA,constant,homogeneous,4,absent,0.508620023727417,1,horizontal,horizontal,1,2,green,3,NaN,619.68777079743,419.68777079743,NaN,NaN,980.31222920257,780.31222920257,980.31222920257,419.68777079743,619.68777079743,419.68777079743,619.68777079743,780.31222920257,0,0,4,0,horizontal,vertical,horizontal,vertical
2b,13,100357,7,13,205,18,F,NA,constant,homogeneous,4,present,0.527335166931152,1,horizontal,horizontal,1,3,green,3,4,619.68777079743,419.68777079743,619.68777079743,780.31222920257,980.31222920257,780.31222920257,980.31222920257,419.68777079743,619.68777079743,419.68777079743,619.68777079743,780.31222920257,0,0,4,0,horizontal,vertical,horizontal,horizontal
2b,13,100357,7,14,206,18,F,NA,constant,homogeneous,4,absent,0.741750001907349,1,vertical,vertical,1,3,green,4,NaN,619.68777079743,780.31222920257,NaN,NaN,980.31222920257,780.31222920257,980.31222920257,419.68777079743,619.68777079743,419.68777079743,619.68777079743,780.31222920257,0,0,0,4,vertical,horizontal,horizontal,vertical
2b,13,100357,7,15,207,18,F,NA,constant,homogeneous,4,absent,0.72498893737793,1,horizontal,horizontal,1,2,green,4,NaN,619.68777079743,780.31222920257,NaN,NaN,980.31222920257,780.31222920257,980.31222920257,419.68777079743,619.68777079743,419.68777079743,619.68777079743,780.31222920257,0,0,0,4,vertical,horizontal,horizontal,horizontal
2b,13,100357,7,16,208,18,F,NA,constant,homogeneous,4,present,0.8036789894104,1,horizontal,horizontal,1,5,green,2,3,980.31222920257,419.68777079743,619.68777079743,419.68777079743,980.31222920257,780.31222920257,980.31222920257,419.68777079743,619.68777079743,419.68777079743,619.68777079743,780.31222920257,0,4,0,0,horizontal,horizontal,vertical,vertical
2b,13,100357,7,17,209,18,F,NA,constant,homogeneous,4,present,0.951769113540649,1,vertical,vertical,1,2,green,4,1,619.68777079743,780.31222920257,980.31222920257,780.31222920257,980.31222920257,780.31222920257,980.31222920257,419.68777079743,619.68777079743,419.68777079743,619.68777079743,780.31222920257,0,0,0,4,horizontal,vertical,vertical,vertical
2b,13,100357,7,18,210,18,F,NA,constant,homogeneous,4,absent,1.68311309814453,1,horizontal,horizontal,1,8,green,1,NaN,980.31222920257,780.31222920257,NaN,NaN,980.31222920257,780.31222920257,980.31222920257,419.68777079743,619.68777079743,419.68777079743,619.68777079743,780.31222920257,4,0,0,0,horizontal,horizontal,horizontal,vertical
2b,13,100357,7,19,211,18,F,NA,constant,homogeneous,4,present,0.613035917282104,1,vertical,vertical,1,2,green,4,1,619.68777079743,780.31222920257,980.31222920257,780.31222920257,980.31222920257,780.31222920257,980.31222920257,419.68777079743,619.68777079743,419.68777079743,619.68777079743,780.31222920257,0,0,0,4,horizontal,horizontal,horizontal,vertical
2b,13,100357,7,20,212,18,F,NA,constant,homogeneous,4,present,0.757772922515869,1,vertical,vertical,1,8,green,4,2,619.68777079743,780.31222920257,980.31222920257,419.68777079743,980.31222920257,780.31222920257,980.31222920257,419.68777079743,619.68777079743,419.68777079743,619.68777079743,780.31222920257,0,0,0,4,vertical,horizontal,horizontal,vertical
2b,13,100357,7,21,213,18,F,NA,constant,homogeneous,4,absent,0.849158048629761,1,vertical,vertical,1,5,green,3,NaN,619.68777079743,419.68777079743,NaN,NaN,980.31222920257,780.31222920257,980.31222920257,419.68777079743,619.68777079743,419.68777079743,619.68777079743,780.31222920257,0,0,4,0,vertical,horizontal,vertical,horizontal
2b,13,100357,7,22,214,18,F,NA,constant,homogeneous,4,present,0.90259313583374,1,horizontal,horizontal,1,2,green,4,2,619.68777079743,780.31222920257,980.31222920257,419.68777079743,980.31222920257,780.31222920257,980.31222920257,419.68777079743,619.68777079743,419.68777079743,619.68777079743,780.31222920257,0,0,0,4,vertical,vertical,horizontal,horizontal
2b,13,100357,7,23,215,18,F,NA,constant,homogeneous,4,absent,0.636547803878784,1,vertical,vertical,1,2,green,4,NaN,619.68777079743,780.31222920257,NaN,NaN,980.31222920257,780.31222920257,980.31222920257,419.68777079743,619.68777079743,419.68777079743,619.68777079743,780.31222920257,0,0,0,4,horizontal,vertical,vertical,vertical
2b,13,100357,7,24,216,18,F,NA,constant,homogeneous,4,present,0.7654709815979,1,vertical,vertical,1,5,green,1,4,980.31222920257,780.31222920257,619.68777079743,780.31222920257,980.31222920257,780.31222920257,980.31222920257,419.68777079743,619.68777079743,419.68777079743,619.68777079743,780.31222920257,4,0,0,0,vertical,horizontal,vertical,horizontal
2b,13,100357,7,25,217,18,F,NA,constant,homogeneous,4,present,0.717410087585449,1,vertical,vertical,1,5,green,4,3,619.68777079743,780.31222920257,619.68777079743,419.68777079743,980.31222920257,780.31222920257,980.31222920257,419.68777079743,619.68777079743,419.68777079743,619.68777079743,780.31222920257,0,0,0,4,horizontal,vertical,vertical,vertical
2b,13,100357,7,26,218,18,F,NA,constant,homogeneous,4,present,1.26786804199219,1,horizontal,horizontal,1,2,green,3,1,619.68777079743,419.68777079743,980.31222920257,780.31222920257,980.31222920257,780.31222920257,980.31222920257,419.68777079743,619.68777079743,419.68777079743,619.68777079743,780.31222920257,0,0,4,0,vertical,horizontal,horizontal,horizontal
2b,13,100357,7,27,219,18,F,NA,constant,homogeneous,4,present,0.741218090057373,1,vertical,vertical,1,3,green,1,4,980.31222920257,780.31222920257,619.68777079743,780.31222920257,980.31222920257,780.31222920257,980.31222920257,419.68777079743,619.68777079743,419.68777079743,619.68777079743,780.31222920257,4,0,0,0,vertical,horizontal,horizontal,vertical
2b,13,100357,7,28,220,18,F,NA,constant,homogeneous,4,absent,0.684551954269409,1,horizontal,horizontal,1,5,green,1,NaN,980.31222920257,780.31222920257,NaN,NaN,980.31222920257,780.31222920257,980.31222920257,419.68777079743,619.68777079743,419.68777079743,619.68777079743,780.31222920257,4,0,0,0,horizontal,vertical,vertical,vertical
2b,13,100357,7,29,221,18,F,NA,constant,homogeneous,4,absent,0.702741146087646,1,horizontal,horizontal,1,5,green,4,NaN,619.68777079743,780.31222920257,NaN,NaN,980.31222920257,780.31222920257,980.31222920257,419.68777079743,619.68777079743,419.68777079743,619.68777079743,780.31222920257,0,0,0,4,vertical,horizontal,vertical,horizontal
2b,13,100357,7,30,222,18,F,NA,constant,homogeneous,4,present,0.613083124160767,1,horizontal,horizontal,1,5,green,4,1,619.68777079743,780.31222920257,980.31222920257,780.31222920257,980.31222920257,780.31222920257,980.31222920257,419.68777079743,619.68777079743,419.68777079743,619.68777079743,780.31222920257,0,0,0,4,horizontal,vertical,horizontal,horizontal
2b,13,100357,7,31,223,18,F,NA,constant,homogeneous,4,absent,0.965216159820557,1,vertical,vertical,1,2,green,1,NaN,980.31222920257,780.31222920257,NaN,NaN,980.31222920257,780.31222920257,980.31222920257,419.68777079743,619.68777079743,419.68777079743,619.68777079743,780.31222920257,4,0,0,0,vertical,horizontal,horizontal,horizontal
2b,13,100357,7,32,224,18,F,NA,constant,homogeneous,4,absent,0.732729911804199,1,vertical,vertical,1,5,green,4,NaN,619.68777079743,780.31222920257,NaN,NaN,980.31222920257,780.31222920257,980.31222920257,419.68777079743,619.68777079743,419.68777079743,619.68777079743,780.31222920257,0,0,0,4,horizontal,vertical,horizontal,vertical
2b,13,100357,8,1,225,18,F,NA,constant,homogeneous,4,present,1.85432386398315,1,vertical,vertical,1,3,green,2,3,980.31222920257,419.68777079743,619.68777079743,419.68777079743,980.31222920257,780.31222920257,980.31222920257,419.68777079743,619.68777079743,419.68777079743,619.68777079743,780.31222920257,0,4,0,0,vertical,vertical,horizontal,horizontal
2b,13,100357,8,2,226,18,F,NA,constant,homogeneous,4,present,1.38730692863464,1,vertical,vertical,1,2,green,1,2,980.31222920257,780.31222920257,980.31222920257,419.68777079743,980.31222920257,780.31222920257,980.31222920257,419.68777079743,619.68777079743,419.68777079743,619.68777079743,780.31222920257,4,0,0,0,vertical,vertical,vertical,horizontal
2b,13,100357,8,3,227,18,F,NA,constant,homogeneous,4,absent,0.915487051010132,1,vertical,vertical,1,2,green,1,NaN,980.31222920257,780.31222920257,NaN,NaN,980.31222920257,780.31222920257,980.31222920257,419.68777079743,619.68777079743,419.68777079743,619.68777079743,780.31222920257,4,0,0,0,vertical,vertical,vertical,vertical
2b,13,100357,8,4,228,18,F,NA,constant,homogeneous,4,absent,0.661636829376221,1,horizontal,horizontal,1,3,green,2,NaN,980.31222920257,419.68777079743,NaN,NaN,980.31222920257,780.31222920257,980.31222920257,419.68777079743,619.68777079743,419.68777079743,619.68777079743,780.31222920257,0,4,0,0,horizontal,horizontal,vertical,horizontal
2b,13,100357,8,5,229,18,F,NA,constant,homogeneous,4,absent,0.83955979347229,1,horizontal,horizontal,1,2,green,4,NaN,619.68777079743,780.31222920257,NaN,NaN,980.31222920257,780.31222920257,980.31222920257,419.68777079743,619.68777079743,419.68777079743,619.68777079743,780.31222920257,0,0,0,4,vertical,horizontal,vertical,horizontal
2b,13,100357,8,6,230,18,F,NA,constant,homogeneous,4,absent,1.7124011516571,1,horizontal,horizontal,1,3,green,3,NaN,619.68777079743,419.68777079743,NaN,NaN,980.31222920257,780.31222920257,980.31222920257,419.68777079743,619.68777079743,419.68777079743,619.68777079743,780.31222920257,0,0,4,0,horizontal,vertical,horizontal,horizontal
2b,13,100357,8,7,231,18,F,NA,constant,homogeneous,4,present,0.602751970291138,1,horizontal,horizontal,1,2,green,3,1,619.68777079743,419.68777079743,980.31222920257,780.31222920257,980.31222920257,780.31222920257,980.31222920257,419.68777079743,619.68777079743,419.68777079743,619.68777079743,780.31222920257,0,0,4,0,horizontal,horizontal,horizontal,vertical
2b,13,100357,8,8,232,18,F,NA,constant,homogeneous,4,present,0.694972991943359,1,horizontal,horizontal,1,8,green,2,3,980.31222920257,419.68777079743,619.68777079743,419.68777079743,980.31222920257,780.31222920257,980.31222920257,419.68777079743,619.68777079743,419.68777079743,619.68777079743,780.31222920257,0,4,0,0,horizontal,horizontal,vertical,vertical
2b,13,100357,8,9,233,18,F,NA,constant,homogeneous,4,present,0.517343997955322,1,horizontal,horizontal,1,2,green,3,1,619.68777079743,419.68777079743,980.31222920257,780.31222920257,980.31222920257,780.31222920257,980.31222920257,419.68777079743,619.68777079743,419.68777079743,619.68777079743,780.31222920257,0,0,4,0,horizontal,vertical,horizontal,vertical
2b,13,100357,8,10,234,18,F,NA,constant,homogeneous,4,present,0.66770601272583,1,vertical,vertical,1,5,green,1,4,980.31222920257,780.31222920257,619.68777079743,780.31222920257,980.31222920257,780.31222920257,980.31222920257,419.68777079743,619.68777079743,419.68777079743,619.68777079743,780.31222920257,4,0,0,0,vertical,horizontal,vertical,vertical
2b,13,100357,8,11,235,18,F,NA,constant,homogeneous,4,absent,0.693333864212036,1,horizontal,horizontal,1,5,green,2,NaN,980.31222920257,419.68777079743,NaN,NaN,980.31222920257,780.31222920257,980.31222920257,419.68777079743,619.68777079743,419.68777079743,619.68777079743,780.31222920257,0,4,0,0,vertical,horizontal,horizontal,horizontal
2b,13,100357,8,12,236,18,F,NA,constant,homogeneous,4,absent,1.44361209869385,1,vertical,vertical,1,2,green,4,NaN,619.68777079743,780.31222920257,NaN,NaN,980.31222920257,780.31222920257,980.31222920257,419.68777079743,619.68777079743,419.68777079743,619.68777079743,780.31222920257,0,0,0,4,horizontal,vertical,horizontal,vertical
2b,13,100357,8,13,237,18,F,NA,constant,homogeneous,4,present,0.740514039993286,1,vertical,vertical,1,5,green,4,1,619.68777079743,780.31222920257,980.31222920257,780.31222920257,980.31222920257,780.31222920257,980.31222920257,419.68777079743,619.68777079743,419.68777079743,619.68777079743,780.31222920257,0,0,0,4,horizontal,vertical,horizontal,vertical
2b,13,100357,8,14,238,18,F,NA,constant,homogeneous,4,absent,0.63569712638855,1,vertical,vertical,1,5,green,4,NaN,619.68777079743,780.31222920257,NaN,NaN,980.31222920257,780.31222920257,980.31222920257,419.68777079743,619.68777079743,419.68777079743,619.68777079743,780.31222920257,0,0,0,4,horizontal,vertical,vertical,vertical
2b,13,100357,8,15,239,18,F,NA,constant,homogeneous,4,absent,1.02073001861572,1,vertical,vertical,1,3,green,2,NaN,980.31222920257,419.68777079743,NaN,NaN,980.31222920257,780.31222920257,980.31222920257,419.68777079743,619.68777079743,419.68777079743,619.68777079743,780.31222920257,0,4,0,0,vertical,vertical,horizontal,horizontal
2b,13,100357,8,16,240,18,F,NA,constant,homogeneous,4,present,1.37318706512451,1,horizontal,horizontal,1,2,green,3,2,619.68777079743,419.68777079743,980.31222920257,419.68777079743,980.31222920257,780.31222920257,980.31222920257,419.68777079743,619.68777079743,419.68777079743,619.68777079743,780.31222920257,0,0,4,0,horizontal,horizontal,horizontal,vertical
2b,13,100357,8,17,241,18,F,NA,constant,homogeneous,4,present,0.820672035217285,1,horizontal,horizontal,1,3,green,2,3,980.31222920257,419.68777079743,619.68777079743,419.68777079743,980.31222920257,780.31222920257,980.31222920257,419.68777079743,619.68777079743,419.68777079743,619.68777079743,780.31222920257,0,4,0,0,vertical,horizontal,vertical,vertical
2b,13,100357,8,18,242,18,F,NA,constant,homogeneous,4,present,1.51743102073669,1,vertical,vertical,1,2,green,3,4,619.68777079743,419.68777079743,619.68777079743,780.31222920257,980.31222920257,780.31222920257,980.31222920257,419.68777079743,619.68777079743,419.68777079743,619.68777079743,780.31222920257,0,0,4,0,horizontal,vertical,vertical,horizontal
2b,13,100357,8,19,243,18,F,NA,constant,homogeneous,4,absent,0.868030786514282,1,vertical,vertical,1,2,green,2,NaN,980.31222920257,419.68777079743,NaN,NaN,980.31222920257,780.31222920257,980.31222920257,419.68777079743,619.68777079743,419.68777079743,619.68777079743,780.31222920257,0,4,0,0,vertical,vertical,vertical,vertical
2b,13,100357,8,20,244,18,F,NA,constant,homogeneous,4,absent,0.62945294380188,1,horizontal,horizontal,1,5,green,4,NaN,619.68777079743,780.31222920257,NaN,NaN,980.31222920257,780.31222920257,980.31222920257,419.68777079743,619.68777079743,419.68777079743,619.68777079743,780.31222920257,0,0,0,4,vertical,vertical,horizontal,horizontal
2b,13,100357,8,21,245,18,F,NA,constant,homogeneous,4,present,0.858306884765625,1,vertical,vertical,1,8,green,3,4,619.68777079743,419.68777079743,619.68777079743,780.31222920257,980.31222920257,780.31222920257,980.31222920257,419.68777079743,619.68777079743,419.68777079743,619.68777079743,780.31222920257,0,0,4,0,vertical,horizontal,vertical,horizontal
2b,13,100357,8,22,246,18,F,NA,constant,homogeneous,4,absent,0.651835918426514,1,vertical,vertical,1,5,green,3,NaN,619.68777079743,419.68777079743,NaN,NaN,980.31222920257,780.31222920257,980.31222920257,419.68777079743,619.68777079743,419.68777079743,619.68777079743,780.31222920257,0,0,4,0,horizontal,vertical,vertical,horizontal
2b,13,100357,8,23,247,18,F,NA,constant,homogeneous,4,present,0.881228923797607,1,horizontal,horizontal,1,3,green,4,2,619.68777079743,780.31222920257,980.31222920257,419.68777079743,980.31222920257,780.31222920257,980.31222920257,419.68777079743,619.68777079743,419.68777079743,619.68777079743,780.31222920257,0,0,0,4,horizontal,horizontal,vertical,horizontal
2b,13,100357,8,24,248,18,F,NA,constant,homogeneous,4,absent,0.835015058517456,1,vertical,vertical,1,8,green,4,NaN,619.68777079743,780.31222920257,NaN,NaN,980.31222920257,780.31222920257,980.31222920257,419.68777079743,619.68777079743,419.68777079743,619.68777079743,780.31222920257,0,0,0,4,vertical,horizontal,vertical,vertical
2b,13,100357,8,25,249,18,F,NA,constant,homogeneous,4,present,0.796273946762085,1,horizontal,horizontal,1,5,green,2,3,980.31222920257,419.68777079743,619.68777079743,419.68777079743,980.31222920257,780.31222920257,980.31222920257,419.68777079743,619.68777079743,419.68777079743,619.68777079743,780.31222920257,0,4,0,0,horizontal,horizontal,horizontal,horizontal
2b,13,100357,8,26,250,18,F,NA,constant,homogeneous,4,absent,0.68439793586731,1,horizontal,horizontal,1,2,green,2,NaN,980.31222920257,419.68777079743,NaN,NaN,980.31222920257,780.31222920257,980.31222920257,419.68777079743,619.68777079743,419.68777079743,619.68777079743,780.31222920257,0,4,0,0,horizontal,horizontal,horizontal,vertical
2b,13,100357,8,27,251,18,F,NA,constant,homogeneous,4,absent,0.630069017410278,1,horizontal,horizontal,1,2,green,2,NaN,980.31222920257,419.68777079743,NaN,NaN,980.31222920257,780.31222920257,980.31222920257,419.68777079743,619.68777079743,419.68777079743,619.68777079743,780.31222920257,0,4,0,0,horizontal,horizontal,horizontal,vertical
2b,13,100357,8,28,252,18,F,NA,constant,homogeneous,4,absent,0.682953119277954,1,horizontal,horizontal,1,8,green,1,NaN,980.31222920257,780.31222920257,NaN,NaN,980.31222920257,780.31222920257,980.31222920257,419.68777079743,619.68777079743,419.68777079743,619.68777079743,780.31222920257,4,0,0,0,horizontal,vertical,vertical,horizontal
2b,13,100357,8,29,253,18,F,NA,constant,homogeneous,4,present,0.541149139404297,1,horizontal,horizontal,1,5,green,4,1,619.68777079743,780.31222920257,980.31222920257,780.31222920257,980.31222920257,780.31222920257,980.31222920257,419.68777079743,619.68777079743,419.68777079743,619.68777079743,780.31222920257,0,0,0,4,horizontal,horizontal,vertical,horizontal
2b,13,100357,8,30,254,18,F,NA,constant,homogeneous,4,present,0.652178049087524,1,vertical,vertical,1,3,green,4,3,619.68777079743,780.31222920257,619.68777079743,419.68777079743,980.31222920257,780.31222920257,980.31222920257,419.68777079743,619.68777079743,419.68777079743,619.68777079743,780.31222920257,0,0,0,4,vertical,horizontal,vertical,vertical
2b,13,100357,8,31,255,18,F,NA,constant,homogeneous,4,absent,0.673310041427612,1,vertical,vertical,1,3,green,3,NaN,619.68777079743,419.68777079743,NaN,NaN,980.31222920257,780.31222920257,980.31222920257,419.68777079743,619.68777079743,419.68777079743,619.68777079743,780.31222920257,0,0,4,0,horizontal,vertical,vertical,horizontal
2b,13,100357,8,32,256,18,F,NA,constant,homogeneous,4,present,0.63103199005127,1,vertical,vertical,1,2,green,4,1,619.68777079743,780.31222920257,980.31222920257,780.31222920257,980.31222920257,780.31222920257,980.31222920257,419.68777079743,619.68777079743,419.68777079743,619.68777079743,780.31222920257,0,0,0,4,vertical,vertical,horizontal,vertical
2b,13,100357,9,1,257,18,F,NA,constant,homogeneous,4,present,0.725979089736938,1,vertical,vertical,1,8,green,4,1,619.68777079743,780.31222920257,980.31222920257,780.31222920257,980.31222920257,780.31222920257,980.31222920257,419.68777079743,619.68777079743,419.68777079743,619.68777079743,780.31222920257,0,0,0,4,horizontal,vertical,vertical,vertical
2b,13,100357,9,2,258,18,F,NA,constant,homogeneous,4,present,0.82859992980957,0,horizontal,vertical,1,2,green,2,3,980.31222920257,419.68777079743,619.68777079743,419.68777079743,980.31222920257,780.31222920257,980.31222920257,419.68777079743,619.68777079743,419.68777079743,619.68777079743,780.31222920257,0,4,0,0,horizontal,horizontal,vertical,horizontal
2b,13,100357,9,3,259,18,F,NA,constant,homogeneous,4,absent,0.961092948913574,1,vertical,vertical,1,5,green,4,NaN,619.68777079743,780.31222920257,NaN,NaN,980.31222920257,780.31222920257,980.31222920257,419.68777079743,619.68777079743,419.68777079743,619.68777079743,780.31222920257,0,0,0,4,horizontal,horizontal,vertical,vertical
2b,13,100357,9,4,260,18,F,NA,constant,homogeneous,4,absent,0.740574836730957,0,vertical,horizontal,1,3,green,2,NaN,980.31222920257,419.68777079743,NaN,NaN,980.31222920257,780.31222920257,980.31222920257,419.68777079743,619.68777079743,419.68777079743,619.68777079743,780.31222920257,0,4,0,0,vertical,vertical,vertical,horizontal
2b,13,100357,9,5,261,18,F,NA,constant,homogeneous,4,present,0.707742929458618,1,horizontal,horizontal,1,8,green,1,2,980.31222920257,780.31222920257,980.31222920257,419.68777079743,980.31222920257,780.31222920257,980.31222920257,419.68777079743,619.68777079743,419.68777079743,619.68777079743,780.31222920257,4,0,0,0,horizontal,horizontal,vertical,horizontal
2b,13,100357,9,6,262,18,F,NA,constant,homogeneous,4,absent,0.574435949325562,1,horizontal,horizontal,1,5,green,3,NaN,619.68777079743,419.68777079743,NaN,NaN,980.31222920257,780.31222920257,980.31222920257,419.68777079743,619.68777079743,419.68777079743,619.68777079743,780.31222920257,0,0,4,0,horizontal,vertical,horizontal,vertical
2b,13,100357,9,7,263,18,F,NA,constant,homogeneous,4,present,0.718015909194946,1,horizontal,horizontal,1,2,green,2,3,980.31222920257,419.68777079743,619.68777079743,419.68777079743,980.31222920257,780.31222920257,980.31222920257,419.68777079743,619.68777079743,419.68777079743,619.68777079743,780.31222920257,0,4,0,0,vertical,horizontal,vertical,horizontal
2b,13,100357,9,8,264,18,F,NA,constant,homogeneous,4,absent,1.388671875,1,vertical,vertical,1,3,green,4,NaN,619.68777079743,780.31222920257,NaN,NaN,980.31222920257,780.31222920257,980.31222920257,419.68777079743,619.68777079743,419.68777079743,619.68777079743,780.31222920257,0,0,0,4,vertical,horizontal,vertical,vertical
2b,13,100357,9,9,265,18,F,NA,constant,homogeneous,4,present,0.772743940353394,1,horizontal,horizontal,1,2,green,1,2,980.31222920257,780.31222920257,980.31222920257,419.68777079743,980.31222920257,780.31222920257,980.31222920257,419.68777079743,619.68777079743,419.68777079743,619.68777079743,780.31222920257,4,0,0,0,horizontal,vertical,horizontal,horizontal
2b,13,100357,9,10,266,18,F,NA,constant,homogeneous,4,present,0.580253839492798,1,horizontal,horizontal,1,5,green,1,4,980.31222920257,780.31222920257,619.68777079743,780.31222920257,980.31222920257,780.31222920257,980.31222920257,419.68777079743,619.68777079743,419.68777079743,619.68777079743,780.31222920257,4,0,0,0,horizontal,horizontal,vertical,horizontal
2b,13,100357,9,11,267,18,F,NA,constant,homogeneous,4,present,0.496133089065552,1,horizontal,horizontal,1,3,green,4,3,619.68777079743,780.31222920257,619.68777079743,419.68777079743,980.31222920257,780.31222920257,980.31222920257,419.68777079743,619.68777079743,419.68777079743,619.68777079743,780.31222920257,0,0,0,4,horizontal,horizontal,horizontal,horizontal
2b,13,100357,9,12,268,18,F,NA,constant,homogeneous,4,present,0.638457059860229,1,vertical,vertical,1,3,green,2,3,980.31222920257,419.68777079743,619.68777079743,419.68777079743,980.31222920257,780.31222920257,980.31222920257,419.68777079743,619.68777079743,419.68777079743,619.68777079743,780.31222920257,0,4,0,0,vertical,vertical,vertical,horizontal
2b,13,100357,9,13,269,18,F,NA,constant,homogeneous,4,absent,0.735327005386353,1,horizontal,horizontal,1,3,green,4,NaN,619.68777079743,780.31222920257,NaN,NaN,980.31222920257,780.31222920257,980.31222920257,419.68777079743,619.68777079743,419.68777079743,619.68777079743,780.31222920257,0,0,0,4,horizontal,vertical,vertical,horizontal
2b,13,100357,9,14,270,18,F,NA,constant,homogeneous,4,present,0.738062858581543,1,vertical,vertical,1,5,green,3,2,619.68777079743,419.68777079743,980.31222920257,419.68777079743,980.31222920257,780.31222920257,980.31222920257,419.68777079743,619.68777079743,419.68777079743,619.68777079743,780.31222920257,0,0,4,0,vertical,vertical,vertical,vertical
2b,13,100357,9,15,271,18,F,NA,constant,homogeneous,4,absent,0.685271978378296,1,horizontal,horizontal,1,8,green,4,NaN,619.68777079743,780.31222920257,NaN,NaN,980.31222920257,780.31222920257,980.31222920257,419.68777079743,619.68777079743,419.68777079743,619.68777079743,780.31222920257,0,0,0,4,vertical,vertical,horizontal,horizontal
2b,13,100357,9,16,272,18,F,NA,constant,homogeneous,4,absent,0.951361894607544,1,vertical,vertical,1,8,green,3,NaN,619.68777079743,419.68777079743,NaN,NaN,980.31222920257,780.31222920257,980.31222920257,419.68777079743,619.68777079743,419.68777079743,619.68777079743,780.31222920257,0,0,4,0,vertical,horizontal,vertical,horizontal
2b,13,100357,9,17,273,18,F,NA,constant,homogeneous,4,absent,0.798306941986084,1,horizontal,horizontal,1,2,green,1,NaN,980.31222920257,780.31222920257,NaN,NaN,980.31222920257,780.31222920257,980.31222920257,419.68777079743,619.68777079743,419.68777079743,619.68777079743,780.31222920257,4,0,0,0,horizontal,vertical,vertical,horizontal
2b,13,100357,9,18,274,18,F,NA,constant,homogeneous,4,absent,1.9903199672699,1,vertical,vertical,1,5,green,4,NaN,619.68777079743,780.31222920257,NaN,NaN,980.31222920257,780.31222920257,980.31222920257,419.68777079743,619.68777079743,419.68777079743,619.68777079743,780.31222920257,0,0,0,4,horizontal,vertical,horizontal,vertical
2b,13,100357,9,19,275,18,F,NA,constant,homogeneous,4,absent,0.766522884368896,1,horizontal,horizontal,1,3,green,3,NaN,619.68777079743,419.68777079743,NaN,NaN,980.31222920257,780.31222920257,980.31222920257,419.68777079743,619.68777079743,419.68777079743,619.68777079743,780.31222920257,0,0,4,0,horizontal,vertical,horizontal,vertical
2b,13,100357,9,20,276,18,F,NA,constant,homogeneous,4,absent,1.36623311042786,1,horizontal,horizontal,1,2,green,1,NaN,980.31222920257,780.31222920257,NaN,NaN,980.31222920257,780.31222920257,980.31222920257,419.68777079743,619.68777079743,419.68777079743,619.68777079743,780.31222920257,4,0,0,0,horizontal,horizontal,vertical,horizontal
2b,13,100357,9,21,277,18,F,NA,constant,homogeneous,4,present,0.621857881546021,1,horizontal,horizontal,1,5,green,1,4,980.31222920257,780.31222920257,619.68777079743,780.31222920257,980.31222920257,780.31222920257,980.31222920257,419.68777079743,619.68777079743,419.68777079743,619.68777079743,780.31222920257,4,0,0,0,horizontal,horizontal,vertical,horizontal
2b,13,100357,9,22,278,18,F,NA,constant,homogeneous,4,present,0.726486206054688,1,vertical,vertical,1,5,green,3,2,619.68777079743,419.68777079743,980.31222920257,419.68777079743,980.31222920257,780.31222920257,980.31222920257,419.68777079743,619.68777079743,419.68777079743,619.68777079743,780.31222920257,0,0,4,0,horizontal,vertical,vertical,vertical
2b,13,100357,9,23,279,18,F,NA,constant,homogeneous,4,absent,1.08514904975891,1,vertical,vertical,1,2,green,4,NaN,619.68777079743,780.31222920257,NaN,NaN,980.31222920257,780.31222920257,980.31222920257,419.68777079743,619.68777079743,419.68777079743,619.68777079743,780.31222920257,0,0,0,4,horizontal,horizontal,vertical,vertical
2b,13,100357,9,24,280,18,F,NA,constant,homogeneous,4,present,0.567044973373413,1,vertical,vertical,1,2,green,4,2,619.68777079743,780.31222920257,980.31222920257,419.68777079743,980.31222920257,780.31222920257,980.31222920257,419.68777079743,619.68777079743,419.68777079743,619.68777079743,780.31222920257,0,0,0,4,horizontal,horizontal,vertical,vertical
2b,13,100357,9,25,281,18,F,NA,constant,homogeneous,4,absent,0.782708883285522,1,horizontal,horizontal,1,5,green,1,NaN,980.31222920257,780.31222920257,NaN,NaN,980.31222920257,780.31222920257,980.31222920257,419.68777079743,619.68777079743,419.68777079743,619.68777079743,780.31222920257,4,0,0,0,horizontal,horizontal,horizontal,vertical
2b,13,100357,9,26,282,18,F,NA,constant,homogeneous,4,present,1.18644690513611,1,vertical,vertical,1,3,green,4,3,619.68777079743,780.31222920257,619.68777079743,419.68777079743,980.31222920257,780.31222920257,980.31222920257,419.68777079743,619.68777079743,419.68777079743,619.68777079743,780.31222920257,0,0,0,4,vertical,horizontal,horizontal,vertical
2b,13,100357,9,27,283,18,F,NA,constant,homogeneous,4,absent,0.814239025115967,1,vertical,vertical,1,2,green,2,NaN,980.31222920257,419.68777079743,NaN,NaN,980.31222920257,780.31222920257,980.31222920257,419.68777079743,619.68777079743,419.68777079743,619.68777079743,780.31222920257,0,4,0,0,vertical,vertical,horizontal,vertical
2b,13,100357,9,28,284,18,F,NA,constant,homogeneous,4,present,0.654603004455566,1,horizontal,horizontal,1,3,green,2,4,980.31222920257,419.68777079743,619.68777079743,780.31222920257,980.31222920257,780.31222920257,980.31222920257,419.68777079743,619.68777079743,419.68777079743,619.68777079743,780.31222920257,0,4,0,0,vertical,horizontal,horizontal,horizontal
2b,13,100357,9,29,285,18,F,NA,constant,homogeneous,4,present,0.699935913085938,1,vertical,vertical,1,2,green,4,1,619.68777079743,780.31222920257,980.31222920257,780.31222920257,980.31222920257,780.31222920257,980.31222920257,419.68777079743,619.68777079743,419.68777079743,619.68777079743,780.31222920257,0,0,0,4,horizontal,horizontal,vertical,vertical
2b,13,100357,9,30,286,18,F,NA,constant,homogeneous,4,absent,0.665865898132324,1,vertical,vertical,1,2,green,4,NaN,619.68777079743,780.31222920257,NaN,NaN,980.31222920257,780.31222920257,980.31222920257,419.68777079743,619.68777079743,419.68777079743,619.68777079743,780.31222920257,0,0,0,4,horizontal,horizontal,horizontal,vertical
2b,13,100357,9,31,287,18,F,NA,constant,homogeneous,4,present,0.571733951568604,1,vertical,vertical,1,2,green,4,2,619.68777079743,780.31222920257,980.31222920257,419.68777079743,980.31222920257,780.31222920257,980.31222920257,419.68777079743,619.68777079743,419.68777079743,619.68777079743,780.31222920257,0,0,0,4,vertical,horizontal,vertical,vertical
2b,13,100357,9,32,288,18,F,NA,constant,homogeneous,4,absent,0.843162059783936,1,horizontal,horizontal,1,2,green,3,NaN,619.68777079743,419.68777079743,NaN,NaN,980.31222920257,780.31222920257,980.31222920257,419.68777079743,619.68777079743,419.68777079743,619.68777079743,780.31222920257,0,0,4,0,horizontal,vertical,horizontal,vertical
2b,13,100357,10,1,289,18,F,NA,constant,homogeneous,4,present,1.03520584106445,1,horizontal,horizontal,1,2,green,4,3,619.68777079743,780.31222920257,619.68777079743,419.68777079743,980.31222920257,780.31222920257,980.31222920257,419.68777079743,619.68777079743,419.68777079743,619.68777079743,780.31222920257,0,0,0,4,vertical,vertical,horizontal,horizontal
2b,13,100357,10,2,290,18,F,NA,constant,homogeneous,4,present,0.555972814559937,0,vertical,horizontal,1,3,green,3,4,619.68777079743,419.68777079743,619.68777079743,780.31222920257,980.31222920257,780.31222920257,980.31222920257,419.68777079743,619.68777079743,419.68777079743,619.68777079743,780.31222920257,0,0,4,0,horizontal,vertical,vertical,vertical
