experiment,subject,uniqueID,block,trial,trial_cumulative,age,gender,color_cond_blocking,color_history,shape_type,set_size,distractor,rt,acc,target_orient,response_key,response_made,iti,target_color,target_item,distractor_item,target_X,target_Y,distractor_X,distractor_Y,item1_X,item1_Y,item2_X,item2_Y,item3_X,item3_Y,item4_X,item4_Y,item1_shape,item2_shape,item3_shape,item4_shape,item1_line,item2_line,item3_line,item4_line
2b,15,100361,1,1,1,21,M,NA,constant,heterogeneous,4,absent,0.909716129302979,1,horizontal,horizontal,1,3,green,4,NaN,NaN,NaN,NaN,NaN,NaN,NaN,NaN,NaN,NaN,NaN,NaN,NaN,3,6,0,4,vertical,vertical,vertical,horizontal
2b,15,100361,1,2,2,21,M,NA,constant,heterogeneous,4,present,1.62460923194885,1,vertical,vertical,1,2,green,2,4,NaN,NaN,NaN,NaN,NaN,NaN,NaN,NaN,NaN,NaN,NaN,NaN,6,4,3,5,vertical,vertical,vertical,vertical
2b,15,100361,1,3,3,21,M,NA,constant,heterogeneous,4,present,0.732850074768066,1,vertical,vertical,1,8,green,4,2,NaN,NaN,NaN,NaN,NaN,NaN,NaN,NaN,NaN,NaN,NaN,NaN,0,5,6,4,vertical,vertical,horizontal,vertical
2b,15,100361,1,4,4,21,M,NA,constant,heterogeneous,4,present,1.25643992424011,1,horizontal,horizontal,1,8,green,4,2,NaN,NaN,NaN,NaN,NaN,NaN,NaN,NaN,NaN,NaN,NaN,NaN,0,6,3,4,horizontal,horizontal,horizontal,horizontal
2b,15,100361,1,5,5,21,M,NA,constant,heterogeneous,4,absent,0.885518074035645,1,vertical,vertical,1,2,green,2,NaN,NaN,NaN,NaN,NaN,NaN,NaN,NaN,NaN,NaN,NaN,NaN,NaN,5,4,0,3,vertical,vertical,vertical,vertical
2b,15,100361,1,6,6,21,M,NA,constant,heterogeneous,4,absent,1.32729601860046,1,vertical,vertical,1,5,green,3,NaN,NaN,NaN,NaN,NaN,NaN,NaN,NaN,NaN,NaN,NaN,NaN,NaN,0,3,4,5,vertical,horizontal,vertical,vertical
2b,15,100361,1,7,7,21,M,NA,constant,heterogeneous,4,absent,0.742218017578125,1,horizontal,horizontal,1,5,green,3,NaN,NaN,NaN,NaN,NaN,NaN,NaN,NaN,NaN,NaN,NaN,NaN,NaN,6,5,4,3,horizontal,horizontal,horizontal,horizontal
2b,15,100361,1,8,8,21,M,NA,constant,heterogeneous,4,present,1.23695993423462,1,vertical,vertical,1,2,green,4,2,NaN,NaN,NaN,NaN,NaN,NaN,NaN,NaN,NaN,NaN,NaN,NaN,5,0,3,4,vertical,horizontal,vertical,vertical
2b,15,100361,1,9,9,21,M,NA,constant,heterogeneous,4,present,0.774034976959229,1,horizontal,horizontal,1,3,green,3,1,NaN,NaN,NaN,NaN,NaN,NaN,NaN,NaN,NaN,NaN,NaN,NaN,6,5,4,0,vertical,horizontal,horizontal,vertical
2b,15,100361,1,10,10,21,M,NA,constant,heterogeneous,4,present,0.821624994277954,1,horizontal,horizontal,1,2,green,3,4,NaN,NaN,NaN,NaN,NaN,NaN,NaN,NaN,NaN,NaN,NaN,NaN,0,3,4,6,horizontal,horizontal,horizontal,horizontal
2b,15,100361,1,11,11,21,M,NA,constant,heterogeneous,4,present,0.542195081710815,1,horizontal,horizontal,1,5,green,3,2,NaN,NaN,NaN,NaN,NaN,NaN,NaN,NaN,NaN,NaN,NaN,NaN,0,5,4,3,vertical,horizontal,horizontal,horizontal
2b,15,100361,1,12,12,21,M,NA,constant,heterogeneous,4,present,0.669201850891113,1,vertical,vertical,1,3,green,2,1,NaN,NaN,NaN,NaN,NaN,NaN,NaN,NaN,NaN,NaN,NaN,NaN,3,4,5,0,horizontal,vertical,vertical,vertical
2b,15,100361,1,13,13,21,M,NA,constant,heterogeneous,4,absent,1.05093502998352,1,horizontal,horizontal,1,2,green,4,NaN,NaN,NaN,NaN,NaN,NaN,NaN,NaN,NaN,NaN,NaN,NaN,NaN,6,3,0,4,vertical,horizontal,vertical,horizontal
2b,15,100361,1,14,14,21,M,NA,constant,heterogeneous,4,present,0.736498832702637,1,vertical,vertical,1,3,green,2,1,NaN,NaN,NaN,NaN,NaN,NaN,NaN,NaN,NaN,NaN,NaN,NaN,3,4,0,6,horizontal,vertical,vertical,vertical
2b,15,100361,1,15,15,21,M,NA,constant,heterogeneous,4,absent,0.571245908737183,1,vertical,vertical,1,8,green,3,NaN,NaN,NaN,NaN,NaN,NaN,NaN,NaN,NaN,NaN,NaN,NaN,NaN,6,5,4,0,horizontal,horizontal,vertical,horizontal
2b,15,100361,1,16,16,21,M,NA,constant,heterogeneous,4,absent,0.930932998657227,1,horizontal,horizontal,1,2,green,2,NaN,NaN,NaN,NaN,NaN,NaN,NaN,NaN,NaN,NaN,NaN,NaN,NaN,3,4,6,5,horizontal,horizontal,vertical,horizontal
2b,15,100361,1,17,17,21,M,NA,constant,heterogeneous,4,present,0.557893991470337,1,horizontal,horizontal,1,2,green,2,4,NaN,NaN,NaN,NaN,NaN,NaN,NaN,NaN,NaN,NaN,NaN,NaN,6,4,3,0,horizontal,horizontal,vertical,vertical
2b,15,100361,1,18,18,21,M,NA,constant,heterogeneous,4,present,0.91336989402771,1,vertical,vertical,1,5,green,1,2,NaN,NaN,NaN,NaN,NaN,NaN,NaN,NaN,NaN,NaN,NaN,NaN,4,3,0,6,vertical,horizontal,vertical,horizontal
2b,15,100361,1,19,19,21,M,NA,constant,heterogeneous,4,absent,1.42746186256409,1,vertical,vertical,1,3,green,1,NaN,NaN,NaN,NaN,NaN,NaN,NaN,NaN,NaN,NaN,NaN,NaN,NaN,4,3,0,6,vertical,vertical,vertical,horizontal
2b,15,100361,1,20,20,21,M,NA,constant,heterogeneous,4,present,0.768308877944946,1,horizontal,horizontal,1,5,green,2,4,NaN,NaN,NaN,NaN,NaN,NaN,NaN,NaN,NaN,NaN,NaN,NaN,5,4,3,0,horizontal,horizontal,horizontal,vertical
2b,15,100361,1,21,21,21,M,NA,constant,heterogeneous,4,absent,0.840075969696045,1,vertical,vertical,1,5,green,4,NaN,NaN,NaN,NaN,NaN,NaN,NaN,NaN,NaN,NaN,NaN,NaN,NaN,5,6,0,4,horizontal,vertical,vertical,vertical
2b,15,100361,1,22,22,21,M,NA,constant,heterogeneous,4,absent,1.27305316925049,1,horizontal,horizontal,1,2,green,2,NaN,NaN,NaN,NaN,NaN,NaN,NaN,NaN,NaN,NaN,NaN,NaN,NaN,6,4,5,3,horizontal,horizontal,horizontal,horizontal
2b,15,100361,1,23,23,21,M,NA,constant,heterogeneous,4,absent,0.790873050689697,1,vertical,vertical,1,2,green,3,NaN,NaN,NaN,NaN,NaN,NaN,NaN,NaN,NaN,NaN,NaN,NaN,NaN,3,6,4,5,vertical,vertical,vertical,horizontal
2b,15,100361,1,24,24,21,M,NA,constant,heterogeneous,4,absent,1.35076999664307,1,horizontal,horizontal,1,8,green,2,NaN,NaN,NaN,NaN,NaN,NaN,NaN,NaN,NaN,NaN,NaN,NaN,NaN,3,4,6,5,vertical,horizontal,horizontal,vertical
2b,15,100361,1,25,25,21,M,NA,constant,heterogeneous,4,absent,0.774030923843384,0,horizontal,vertical,1,3,green,2,NaN,NaN,NaN,NaN,NaN,NaN,NaN,NaN,NaN,NaN,NaN,NaN,NaN,0,4,6,3,vertical,horizontal,horizontal,vertical
2b,15,100361,1,26,26,21,M,NA,constant,heterogeneous,4,present,0.861330986022949,1,vertical,vertical,1,2,green,4,3,NaN,NaN,NaN,NaN,NaN,NaN,NaN,NaN,NaN,NaN,NaN,NaN,0,6,5,4,horizontal,vertical,vertical,vertical
2b,15,100361,1,27,27,21,M,NA,constant,heterogeneous,4,present,0.847230911254883,1,horizontal,horizontal,1,2,green,2,1,NaN,NaN,NaN,NaN,NaN,NaN,NaN,NaN,NaN,NaN,NaN,NaN,0,4,5,6,vertical,horizontal,vertical,vertical
2b,15,100361,1,28,28,21,M,NA,constant,heterogeneous,4,present,0.740214109420776,1,horizontal,horizontal,1,3,green,4,2,NaN,NaN,NaN,NaN,NaN,NaN,NaN,NaN,NaN,NaN,NaN,NaN,5,0,3,4,vertical,horizontal,horizontal,horizontal
2b,15,100361,1,29,29,21,M,NA,constant,heterogeneous,4,present,0.835486888885498,1,vertical,vertical,1,5,green,4,2,NaN,NaN,NaN,NaN,NaN,NaN,NaN,NaN,NaN,NaN,NaN,NaN,3,6,0,4,vertical,horizontal,vertical,vertical
2b,15,100361,1,30,30,21,M,NA,constant,heterogeneous,4,absent,0.700564861297607,1,vertical,vertical,1,2,green,4,NaN,NaN,NaN,NaN,NaN,NaN,NaN,NaN,NaN,NaN,NaN,NaN,NaN,3,0,5,4,horizontal,vertical,horizontal,vertical
2b,15,100361,1,31,31,21,M,NA,constant,heterogeneous,4,absent,0.602600812911987,1,vertical,vertical,1,3,green,4,NaN,NaN,NaN,NaN,NaN,NaN,NaN,NaN,NaN,NaN,NaN,NaN,NaN,3,6,0,4,vertical,horizontal,horizontal,vertical
2b,15,100361,1,32,32,21,M,NA,constant,heterogeneous,4,absent,1.14311814308167,1,horizontal,horizontal,1,5,green,2,NaN,NaN,NaN,NaN,NaN,NaN,NaN,NaN,NaN,NaN,NaN,NaN,NaN,3,4,5,0,vertical,horizontal,horizontal,horizontal
2b,15,100361,2,1,33,21,M,NA,constant,heterogeneous,4,absent,1.52595901489258,1,vertical,vertical,1,5,green,4,NaN,NaN,NaN,NaN,NaN,NaN,NaN,NaN,NaN,NaN,NaN,NaN,NaN,6,0,3,4,vertical,horizontal,vertical,vertical
2b,15,100361,2,2,34,21,M,NA,constant,heterogeneous,4,present,0.677143096923828,1,vertical,vertical,1,2,green,3,1,NaN,NaN,NaN,NaN,NaN,NaN,NaN,NaN,NaN,NaN,NaN,NaN,0,3,4,5,vertical,vertical,vertical,horizontal
2b,15,100361,2,3,35,21,M,NA,constant,heterogeneous,4,absent,1.77862811088562,1,vertical,vertical,1,2,green,1,NaN,NaN,NaN,NaN,NaN,NaN,NaN,NaN,NaN,NaN,NaN,NaN,NaN,4,6,5,3,vertical,vertical,vertical,horizontal
2b,15,100361,2,4,36,21,M,NA,constant,heterogeneous,4,present,1.16633009910583,1,vertical,vertical,1,2,green,4,2,NaN,NaN,NaN,NaN,NaN,NaN,NaN,NaN,NaN,NaN,NaN,NaN,3,6,5,4,vertical,vertical,vertical,vertical
2b,15,100361,2,5,37,21,M,NA,constant,heterogeneous,4,present,0.829797983169556,1,vertical,vertical,1,2,green,2,1,NaN,NaN,NaN,NaN,NaN,NaN,NaN,NaN,NaN,NaN,NaN,NaN,3,4,6,5,vertical,vertical,horizontal,vertical
2b,15,100361,2,6,38,21,M,NA,constant,heterogeneous,4,absent,0.674757957458496,1,vertical,vertical,1,5,green,4,NaN,NaN,NaN,NaN,NaN,NaN,NaN,NaN,NaN,NaN,NaN,NaN,NaN,6,3,5,4,horizontal,horizontal,vertical,vertical
2b,15,100361,2,7,39,21,M,NA,constant,heterogeneous,4,present,0.688377141952515,1,horizontal,horizontal,1,2,green,3,4,NaN,NaN,NaN,NaN,NaN,NaN,NaN,NaN,NaN,NaN,NaN,NaN,6,0,4,5,vertical,vertical,horizontal,vertical
2b,15,100361,2,8,40,21,M,NA,constant,heterogeneous,4,absent,0.882560968399048,1,vertical,vertical,1,8,green,2,NaN,NaN,NaN,NaN,NaN,NaN,NaN,NaN,NaN,NaN,NaN,NaN,NaN,3,4,0,5,vertical,vertical,vertical,vertical
2b,15,100361,2,9,41,21,M,NA,constant,heterogeneous,4,absent,1.34025812149048,1,vertical,vertical,1,2,green,3,NaN,NaN,NaN,NaN,NaN,NaN,NaN,NaN,NaN,NaN,NaN,NaN,NaN,0,6,4,3,vertical,vertical,vertical,horizontal
2b,15,100361,2,10,42,21,M,NA,constant,heterogeneous,4,absent,1.25141310691833,1,horizontal,horizontal,1,3,green,1,NaN,NaN,NaN,NaN,NaN,NaN,NaN,NaN,NaN,NaN,NaN,NaN,NaN,4,0,3,6,horizontal,vertical,vertical,horizontal
2b,15,100361,2,11,43,21,M,NA,constant,heterogeneous,4,present,0.880868911743164,1,horizontal,horizontal,1,2,green,2,4,NaN,NaN,NaN,NaN,NaN,NaN,NaN,NaN,NaN,NaN,NaN,NaN,3,4,0,5,horizontal,horizontal,vertical,horizontal
2b,15,100361,2,12,44,21,M,NA,constant,heterogeneous,4,absent,1.85075998306274,1,vertical,vertical,1,3,green,3,NaN,NaN,NaN,NaN,NaN,NaN,NaN,NaN,NaN,NaN,NaN,NaN,NaN,6,0,4,5,horizontal,vertical,vertical,horizontal
2b,15,100361,2,13,45,21,M,NA,constant,heterogeneous,4,present,1.21603298187256,1,horizontal,horizontal,1,3,green,2,4,NaN,NaN,NaN,NaN,NaN,NaN,NaN,NaN,NaN,NaN,NaN,NaN,5,4,3,0,horizontal,horizontal,horizontal,horizontal
2b,15,100361,2,14,46,21,M,NA,constant,heterogeneous,4,absent,1.92836499214172,1,horizontal,horizontal,1,2,green,2,NaN,NaN,NaN,NaN,NaN,NaN,NaN,NaN,NaN,NaN,NaN,NaN,NaN,3,4,5,6,vertical,horizontal,horizontal,horizontal
2b,15,100361,2,15,47,21,M,NA,constant,heterogeneous,4,present,0.499634027481079,1,vertical,vertical,1,8,green,2,4,NaN,NaN,NaN,NaN,NaN,NaN,NaN,NaN,NaN,NaN,NaN,NaN,5,4,6,3,vertical,vertical,vertical,vertical
2b,15,100361,2,16,48,21,M,NA,constant,heterogeneous,4,absent,1.10571122169495,1,horizontal,horizontal,1,8,green,1,NaN,NaN,NaN,NaN,NaN,NaN,NaN,NaN,NaN,NaN,NaN,NaN,NaN,4,3,6,5,horizontal,horizontal,vertical,horizontal
2b,15,100361,2,17,49,21,M,NA,constant,heterogeneous,4,present,0.980257034301758,1,vertical,vertical,1,5,green,4,3,NaN,NaN,NaN,NaN,NaN,NaN,NaN,NaN,NaN,NaN,NaN,NaN,5,6,0,4,vertical,horizontal,vertical,vertical
2b,15,100361,2,18,50,21,M,NA,constant,heterogeneous,4,present,0.96821117401123,1,horizontal,horizontal,1,5,green,2,4,NaN,NaN,NaN,NaN,NaN,NaN,NaN,NaN,NaN,NaN,NaN,NaN,3,4,0,5,vertical,horizontal,vertical,vertical
2b,15,100361,2,19,51,21,M,NA,constant,heterogeneous,4,present,0.775871992111206,1,horizontal,horizontal,1,2,green,1,2,NaN,NaN,NaN,NaN,NaN,NaN,NaN,NaN,NaN,NaN,NaN,NaN,4,3,5,0,horizontal,vertical,horizontal,vertical
2b,15,100361,2,20,52,21,M,NA,constant,heterogeneous,4,present,0.81160306930542,1,vertical,vertical,1,3,green,1,4,NaN,NaN,NaN,NaN,NaN,NaN,NaN,NaN,NaN,NaN,NaN,NaN,4,3,6,5,vertical,vertical,horizontal,vertical
2b,15,100361,2,21,53,21,M,NA,constant,heterogeneous,4,absent,0.619807958602905,1,horizontal,horizontal,1,2,green,1,NaN,NaN,NaN,NaN,NaN,NaN,NaN,NaN,NaN,NaN,NaN,NaN,NaN,4,3,0,6,horizontal,horizontal,horizontal,horizontal
2b,15,100361,2,22,54,21,M,NA,constant,heterogeneous,4,absent,0.948832988739014,1,horizontal,horizontal,1,5,green,4,NaN,NaN,NaN,NaN,NaN,NaN,NaN,NaN,NaN,NaN,NaN,NaN,NaN,0,5,6,4,vertical,horizontal,horizontal,horizontal
2b,15,100361,2,23,55,21,M,NA,constant,heterogeneous,4,present,0.699711084365845,1,vertical,vertical,1,3,green,2,3,NaN,NaN,NaN,NaN,NaN,NaN,NaN,NaN,NaN,NaN,NaN,NaN,6,4,0,5,vertical,vertical,vertical,horizontal
2b,15,100361,2,24,56,21,M,NA,constant,heterogeneous,4,absent,1.31381487846375,1,horizontal,horizontal,1,3,green,1,NaN,NaN,NaN,NaN,NaN,NaN,NaN,NaN,NaN,NaN,NaN,NaN,NaN,4,3,5,6,horizontal,horizontal,vertical,vertical
2b,15,100361,2,25,57,21,M,NA,constant,heterogeneous,4,absent,1.67629814147949,1,horizontal,horizontal,1,2,green,4,NaN,NaN,NaN,NaN,NaN,NaN,NaN,NaN,NaN,NaN,NaN,NaN,NaN,5,3,6,4,horizontal,vertical,horizontal,horizontal
2b,15,100361,2,26,58,21,M,NA,constant,heterogeneous,4,present,1.02614188194275,1,horizontal,horizontal,1,3,green,3,2,NaN,NaN,NaN,NaN,NaN,NaN,NaN,NaN,NaN,NaN,NaN,NaN,6,0,4,3,vertical,vertical,horizontal,horizontal
2b,15,100361,2,27,59,21,M,NA,constant,heterogeneous,4,absent,1.35909199714661,1,vertical,vertical,1,3,green,2,NaN,NaN,NaN,NaN,NaN,NaN,NaN,NaN,NaN,NaN,NaN,NaN,NaN,6,4,3,5,vertical,vertical,vertical,horizontal
2b,15,100361,2,28,60,21,M,NA,constant,heterogeneous,4,present,0.81022310256958,1,horizontal,horizontal,1,8,green,4,2,NaN,NaN,NaN,NaN,NaN,NaN,NaN,NaN,NaN,NaN,NaN,NaN,3,6,0,4,horizontal,horizontal,vertical,horizontal
2b,15,100361,2,29,61,21,M,NA,constant,heterogeneous,4,absent,0.706753969192505,1,vertical,vertical,1,2,green,2,NaN,NaN,NaN,NaN,NaN,NaN,NaN,NaN,NaN,NaN,NaN,NaN,NaN,0,4,6,5,vertical,vertical,vertical,horizontal
2b,15,100361,2,30,62,21,M,NA,constant,heterogeneous,4,present,1.53318405151367,1,vertical,vertical,1,5,green,4,2,NaN,NaN,NaN,NaN,NaN,NaN,NaN,NaN,NaN,NaN,NaN,NaN,5,0,3,4,horizontal,vertical,horizontal,vertical
2b,15,100361,2,31,63,21,M,NA,constant,heterogeneous,4,absent,0.792474985122681,1,horizontal,horizontal,1,5,green,2,NaN,NaN,NaN,NaN,NaN,NaN,NaN,NaN,NaN,NaN,NaN,NaN,NaN,5,4,6,0,vertical,horizontal,horizontal,horizontal
2b,15,100361,2,32,64,21,M,NA,constant,heterogeneous,4,present,0.760220050811768,1,horizontal,horizontal,1,5,green,2,3,NaN,NaN,NaN,NaN,NaN,NaN,NaN,NaN,NaN,NaN,NaN,NaN,3,4,5,0,horizontal,horizontal,horizontal,vertical
2b,15,100361,3,1,65,21,M,NA,constant,heterogeneous,4,present,0.964874029159546,1,horizontal,horizontal,1,5,green,2,4,NaN,NaN,NaN,NaN,NaN,NaN,NaN,NaN,NaN,NaN,NaN,NaN,5,4,0,6,horizontal,horizontal,horizontal,vertical
2b,15,100361,3,2,66,21,M,NA,constant,heterogeneous,4,absent,0.548392057418823,1,horizontal,horizontal,1,3,green,2,NaN,NaN,NaN,NaN,NaN,NaN,NaN,NaN,NaN,NaN,NaN,NaN,NaN,3,4,0,6,horizontal,horizontal,vertical,vertical
2b,15,100361,3,3,67,21,M,NA,constant,heterogeneous,4,absent,0.947475910186768,1,vertical,vertical,1,2,green,1,NaN,NaN,NaN,NaN,NaN,NaN,NaN,NaN,NaN,NaN,NaN,NaN,NaN,4,5,0,3,vertical,horizontal,horizontal,horizontal
2b,15,100361,3,4,68,21,M,NA,constant,heterogeneous,4,present,1.10669207572937,1,horizontal,horizontal,1,2,green,1,3,NaN,NaN,NaN,NaN,NaN,NaN,NaN,NaN,NaN,NaN,NaN,NaN,4,3,0,5,horizontal,vertical,horizontal,horizontal
2b,15,100361,3,5,69,21,M,NA,constant,heterogeneous,4,absent,1.34097290039062,1,vertical,vertical,1,2,green,3,NaN,NaN,NaN,NaN,NaN,NaN,NaN,NaN,NaN,NaN,NaN,NaN,NaN,6,0,4,5,vertical,horizontal,vertical,horizontal
2b,15,100361,3,6,70,21,M,NA,constant,heterogeneous,4,absent,1.20438194274902,1,vertical,vertical,1,5,green,3,NaN,NaN,NaN,NaN,NaN,NaN,NaN,NaN,NaN,NaN,NaN,NaN,NaN,0,3,4,6,horizontal,horizontal,vertical,horizontal
2b,15,100361,3,7,71,21,M,NA,constant,heterogeneous,4,present,1.1045229434967,1,vertical,vertical,1,2,green,4,2,NaN,NaN,NaN,NaN,NaN,NaN,NaN,NaN,NaN,NaN,NaN,NaN,0,5,3,4,vertical,horizontal,vertical,vertical
2b,15,100361,3,8,72,21,M,NA,constant,heterogeneous,4,present,0.483044862747192,1,horizontal,horizontal,1,5,green,3,1,NaN,NaN,NaN,NaN,NaN,NaN,NaN,NaN,NaN,NaN,NaN,NaN,3,6,4,0,horizontal,horizontal,horizontal,vertical
2b,15,100361,3,9,73,21,M,NA,constant,heterogeneous,4,absent,1.05299806594849,1,vertical,vertical,1,5,green,3,NaN,NaN,NaN,NaN,NaN,NaN,NaN,NaN,NaN,NaN,NaN,NaN,NaN,0,5,4,6,horizontal,vertical,vertical,horizontal
2b,15,100361,3,10,74,21,M,NA,constant,heterogeneous,4,absent,0.969993114471436,1,vertical,vertical,1,3,green,1,NaN,NaN,NaN,NaN,NaN,NaN,NaN,NaN,NaN,NaN,NaN,NaN,NaN,4,0,3,5,vertical,vertical,horizontal,horizontal
2b,15,100361,3,11,75,21,M,NA,constant,heterogeneous,4,absent,1.42568397521973,1,vertical,vertical,1,3,green,2,NaN,NaN,NaN,NaN,NaN,NaN,NaN,NaN,NaN,NaN,NaN,NaN,NaN,5,4,0,3,vertical,vertical,horizontal,vertical
2b,15,100361,3,12,76,21,M,NA,constant,heterogeneous,4,absent,1.71892499923706,1,vertical,vertical,1,8,green,3,NaN,NaN,NaN,NaN,NaN,NaN,NaN,NaN,NaN,NaN,NaN,NaN,NaN,6,3,4,0,horizontal,horizontal,vertical,horizontal
2b,15,100361,3,13,77,21,M,NA,constant,heterogeneous,4,present,1.04532504081726,1,horizontal,horizontal,1,3,green,1,2,NaN,NaN,NaN,NaN,NaN,NaN,NaN,NaN,NaN,NaN,NaN,NaN,4,3,6,5,horizontal,vertical,vertical,vertical
2b,15,100361,3,14,78,21,M,NA,constant,heterogeneous,4,present,0.902234077453613,1,horizontal,horizontal,1,2,green,4,3,NaN,NaN,NaN,NaN,NaN,NaN,NaN,NaN,NaN,NaN,NaN,NaN,0,5,3,4,horizontal,vertical,vertical,horizontal
2b,15,100361,3,15,79,21,M,NA,constant,heterogeneous,4,present,1.46051096916199,1,vertical,vertical,1,3,green,1,2,NaN,NaN,NaN,NaN,NaN,NaN,NaN,NaN,NaN,NaN,NaN,NaN,4,0,5,6,vertical,vertical,horizontal,vertical
2b,15,100361,3,16,80,21,M,NA,constant,heterogeneous,4,present,0.510017156600952,1,horizontal,horizontal,1,8,green,3,4,NaN,NaN,NaN,NaN,NaN,NaN,NaN,NaN,NaN,NaN,NaN,NaN,3,0,4,6,horizontal,horizontal,horizontal,vertical
2b,15,100361,3,17,81,21,M,NA,constant,heterogeneous,4,present,1.6163969039917,1,vertical,vertical,1,2,green,4,3,NaN,NaN,NaN,NaN,NaN,NaN,NaN,NaN,NaN,NaN,NaN,NaN,3,6,0,4,horizontal,vertical,horizontal,vertical
2b,15,100361,3,18,82,21,M,NA,constant,heterogeneous,4,present,0.865003824234009,1,vertical,vertical,1,2,green,2,4,NaN,NaN,NaN,NaN,NaN,NaN,NaN,NaN,NaN,NaN,NaN,NaN,5,4,0,6,horizontal,vertical,horizontal,horizontal
2b,15,100361,3,19,83,21,M,NA,constant,heterogeneous,4,present,1.24234509468079,1,vertical,vertical,1,8,green,3,1,NaN,NaN,NaN,NaN,NaN,NaN,NaN,NaN,NaN,NaN,NaN,NaN,0,6,4,3,vertical,vertical,vertical,horizontal
2b,15,100361,3,20,84,21,M,NA,constant,heterogeneous,4,absent,0.85962700843811,1,vertical,vertical,1,2,green,3,NaN,NaN,NaN,NaN,NaN,NaN,NaN,NaN,NaN,NaN,NaN,NaN,NaN,6,0,4,5,horizontal,vertical,vertical,horizontal
2b,15,100361,3,21,85,21,M,NA,constant,heterogeneous,4,present,0.485098123550415,1,vertical,vertical,1,5,green,3,1,NaN,NaN,NaN,NaN,NaN,NaN,NaN,NaN,NaN,NaN,NaN,NaN,6,5,4,0,vertical,vertical,vertical,vertical
2b,15,100361,3,22,86,21,M,NA,constant,heterogeneous,4,absent,0.686898946762085,1,horizontal,horizontal,1,3,green,3,NaN,NaN,NaN,NaN,NaN,NaN,NaN,NaN,NaN,NaN,NaN,NaN,NaN,5,0,4,3,vertical,vertical,horizontal,horizontal
2b,15,100361,3,23,87,21,M,NA,constant,heterogeneous,4,present,0.865194082260132,1,vertical,vertical,1,3,green,3,4,NaN,NaN,NaN,NaN,NaN,NaN,NaN,NaN,NaN,NaN,NaN,NaN,6,5,4,0,horizontal,vertical,vertical,vertical
2b,15,100361,3,24,88,21,M,NA,constant,heterogeneous,4,absent,0.474570989608765,1,horizontal,horizontal,1,8,green,3,NaN,NaN,NaN,NaN,NaN,NaN,NaN,NaN,NaN,NaN,NaN,NaN,NaN,3,5,4,0,horizontal,horizontal,horizontal,vertical
2b,15,100361,3,25,89,21,M,NA,constant,heterogeneous,4,absent,1.72030997276306,1,horizontal,horizontal,1,5,green,2,NaN,NaN,NaN,NaN,NaN,NaN,NaN,NaN,NaN,NaN,NaN,NaN,NaN,5,4,3,0,vertical,horizontal,vertical,horizontal
2b,15,100361,3,26,90,21,M,NA,constant,heterogeneous,4,absent,0.662897109985352,1,horizontal,horizontal,1,5,green,3,NaN,NaN,NaN,NaN,NaN,NaN,NaN,NaN,NaN,NaN,NaN,NaN,NaN,6,3,4,0,horizontal,horizontal,horizontal,vertical
2b,15,100361,3,27,91,21,M,NA,constant,heterogeneous,4,absent,1.36823797225952,1,horizontal,horizontal,1,2,green,2,NaN,NaN,NaN,NaN,NaN,NaN,NaN,NaN,NaN,NaN,NaN,NaN,NaN,3,4,6,0,vertical,horizontal,vertical,vertical
2b,15,100361,3,28,92,21,M,NA,constant,heterogeneous,4,absent,1.10387802124023,0,horizontal,vertical,1,2,green,1,NaN,NaN,NaN,NaN,NaN,NaN,NaN,NaN,NaN,NaN,NaN,NaN,NaN,4,0,5,3,horizontal,horizontal,vertical,vertical
2b,15,100361,3,29,93,21,M,NA,constant,heterogeneous,4,present,1.0300600528717,1,horizontal,horizontal,1,2,green,1,3,NaN,NaN,NaN,NaN,NaN,NaN,NaN,NaN,NaN,NaN,NaN,NaN,4,6,5,0,horizontal,vertical,horizontal,horizontal
2b,15,100361,3,30,94,21,M,NA,constant,heterogeneous,4,present,1.29103899002075,1,vertical,vertical,1,5,green,1,3,NaN,NaN,NaN,NaN,NaN,NaN,NaN,NaN,NaN,NaN,NaN,NaN,4,0,5,3,vertical,vertical,vertical,vertical
2b,15,100361,3,31,95,21,M,NA,constant,heterogeneous,4,present,0.885097026824951,1,horizontal,horizontal,1,3,green,4,1,NaN,NaN,NaN,NaN,NaN,NaN,NaN,NaN,NaN,NaN,NaN,NaN,3,5,6,4,vertical,vertical,vertical,horizontal
2b,15,100361,3,32,96,21,M,NA,constant,heterogeneous,4,absent,1.55900979042053,1,horizontal,horizontal,1,2,green,1,NaN,NaN,NaN,NaN,NaN,NaN,NaN,NaN,NaN,NaN,NaN,NaN,NaN,4,5,3,6,horizontal,vertical,horizontal,vertical
2b,15,100361,4,1,97,21,M,NA,constant,heterogeneous,4,absent,0.811831951141357,1,horizontal,horizontal,1,8,green,1,NaN,NaN,NaN,NaN,NaN,NaN,NaN,NaN,NaN,NaN,NaN,NaN,NaN,4,5,6,0,horizontal,vertical,horizontal,horizontal
2b,15,100361,4,2,98,21,M,NA,constant,heterogeneous,4,present,0.780772924423218,1,horizontal,horizontal,1,3,green,2,4,NaN,NaN,NaN,NaN,NaN,NaN,NaN,NaN,NaN,NaN,NaN,NaN,5,4,0,3,horizontal,horizontal,vertical,horizontal
2b,15,100361,4,3,99,21,M,NA,constant,heterogeneous,4,present,0.936262130737305,0,horizontal,vertical,1,5,green,3,4,NaN,NaN,NaN,NaN,NaN,NaN,NaN,NaN,NaN,NaN,NaN,NaN,6,5,4,0,horizontal,horizontal,horizontal,vertical
2b,15,100361,4,4,100,21,M,NA,constant,heterogeneous,4,present,1.76329612731934,1,horizontal,horizontal,1,2,green,3,4,NaN,NaN,NaN,NaN,NaN,NaN,NaN,NaN,NaN,NaN,NaN,NaN,6,3,4,5,vertical,horizontal,horizontal,vertical
2b,15,100361,4,5,101,21,M,NA,constant,heterogeneous,4,present,0.794842004776001,1,horizontal,horizontal,1,2,green,3,1,NaN,NaN,NaN,NaN,NaN,NaN,NaN,NaN,NaN,NaN,NaN,NaN,0,6,4,5,horizontal,horizontal,horizontal,vertical
2b,15,100361,4,6,102,21,M,NA,constant,heterogeneous,4,absent,0.491184949874878,1,horizontal,horizontal,1,3,green,3,NaN,NaN,NaN,NaN,NaN,NaN,NaN,NaN,NaN,NaN,NaN,NaN,NaN,5,0,4,6,vertical,vertical,horizontal,horizontal
2b,15,100361,4,7,103,21,M,NA,constant,heterogeneous,4,present,0.508767127990723,0,vertical,horizontal,1,3,green,4,1,NaN,NaN,NaN,NaN,NaN,NaN,NaN,NaN,NaN,NaN,NaN,NaN,3,0,6,4,vertical,vertical,horizontal,vertical
2b,15,100361,4,8,104,21,M,NA,constant,heterogeneous,4,absent,1.04726982116699,1,vertical,vertical,1,2,green,3,NaN,NaN,NaN,NaN,NaN,NaN,NaN,NaN,NaN,NaN,NaN,NaN,NaN,0,6,4,3,vertical,vertical,vertical,vertical
2b,15,100361,4,9,105,21,M,NA,constant,heterogeneous,4,present,0.620343208312988,1,vertical,vertical,1,2,green,3,2,NaN,NaN,NaN,NaN,NaN,NaN,NaN,NaN,NaN,NaN,NaN,NaN,3,6,4,0,horizontal,horizontal,vertical,horizontal
2b,15,100361,4,10,106,21,M,NA,constant,heterogeneous,4,absent,1.14900588989258,1,vertical,vertical,1,8,green,1,NaN,NaN,NaN,NaN,NaN,NaN,NaN,NaN,NaN,NaN,NaN,NaN,NaN,4,6,3,0,vertical,vertical,vertical,horizontal
2b,15,100361,4,11,107,21,M,NA,constant,heterogeneous,4,present,1.04399299621582,1,horizontal,horizontal,1,3,green,1,2,NaN,NaN,NaN,NaN,NaN,NaN,NaN,NaN,NaN,NaN,NaN,NaN,4,6,0,5,horizontal,vertical,horizontal,vertical
2b,15,100361,4,12,108,21,M,NA,constant,heterogeneous,4,absent,1.58122897148132,1,horizontal,horizontal,1,2,green,4,NaN,NaN,NaN,NaN,NaN,NaN,NaN,NaN,NaN,NaN,NaN,NaN,NaN,5,3,0,4,vertical,vertical,horizontal,horizontal
2b,15,100361,4,13,109,21,M,NA,constant,heterogeneous,4,present,0.92125391960144,1,vertical,vertical,1,2,green,1,4,NaN,NaN,NaN,NaN,NaN,NaN,NaN,NaN,NaN,NaN,NaN,NaN,4,0,3,6,vertical,vertical,vertical,horizontal
2b,15,100361,4,14,110,21,M,NA,constant,heterogeneous,4,present,0.99182915687561,1,horizontal,horizontal,1,5,green,3,1,NaN,NaN,NaN,NaN,NaN,NaN,NaN,NaN,NaN,NaN,NaN,NaN,3,5,4,0,vertical,vertical,horizontal,horizontal
2b,15,100361,4,15,111,21,M,NA,constant,heterogeneous,4,absent,0.951817035675049,1,horizontal,horizontal,1,2,green,4,NaN,NaN,NaN,NaN,NaN,NaN,NaN,NaN,NaN,NaN,NaN,NaN,NaN,6,3,0,4,horizontal,horizontal,vertical,horizontal
2b,15,100361,4,16,112,21,M,NA,constant,heterogeneous,4,present,0.682904005050659,1,vertical,vertical,1,5,green,1,2,NaN,NaN,NaN,NaN,NaN,NaN,NaN,NaN,NaN,NaN,NaN,NaN,4,6,5,0,vertical,vertical,vertical,vertical
2b,15,100361,4,17,113,21,M,NA,constant,heterogeneous,4,absent,0.989162921905518,1,vertical,vertical,1,3,green,2,NaN,NaN,NaN,NaN,NaN,NaN,NaN,NaN,NaN,NaN,NaN,NaN,NaN,5,4,3,6,vertical,vertical,vertical,vertical
2b,15,100361,4,18,114,21,M,NA,constant,heterogeneous,4,present,1.18912506103516,1,vertical,vertical,1,2,green,2,3,NaN,NaN,NaN,NaN,NaN,NaN,NaN,NaN,NaN,NaN,NaN,NaN,5,4,0,3,vertical,vertical,vertical,horizontal
2b,15,100361,4,19,115,21,M,NA,constant,heterogeneous,4,present,1.50936913490295,0,vertical,horizontal,1,3,green,4,1,NaN,NaN,NaN,NaN,NaN,NaN,NaN,NaN,NaN,NaN,NaN,NaN,6,5,0,4,vertical,horizontal,horizontal,vertical
2b,15,100361,4,20,116,21,M,NA,constant,heterogeneous,4,absent,1.14390301704407,1,vertical,vertical,1,5,green,1,NaN,NaN,NaN,NaN,NaN,NaN,NaN,NaN,NaN,NaN,NaN,NaN,NaN,4,6,5,0,vertical,vertical,horizontal,horizontal
2b,15,100361,4,21,117,21,M,NA,constant,heterogeneous,4,absent,1.11902093887329,1,vertical,vertical,1,3,green,1,NaN,NaN,NaN,NaN,NaN,NaN,NaN,NaN,NaN,NaN,NaN,NaN,NaN,4,0,6,5,vertical,vertical,vertical,horizontal
2b,15,100361,4,22,118,21,M,NA,constant,heterogeneous,4,present,0.717469930648804,1,vertical,vertical,1,8,green,3,1,NaN,NaN,NaN,NaN,NaN,NaN,NaN,NaN,NaN,NaN,NaN,NaN,6,0,4,5,horizontal,horizontal,vertical,vertical
2b,15,100361,4,23,119,21,M,NA,constant,heterogeneous,4,absent,1.62848401069641,1,vertical,vertical,1,2,green,4,NaN,NaN,NaN,NaN,NaN,NaN,NaN,NaN,NaN,NaN,NaN,NaN,NaN,3,5,0,4,horizontal,vertical,horizontal,vertical
2b,15,100361,4,24,120,21,M,NA,constant,heterogeneous,4,absent,0.568946123123169,1,horizontal,horizontal,1,3,green,4,NaN,NaN,NaN,NaN,NaN,NaN,NaN,NaN,NaN,NaN,NaN,NaN,NaN,6,0,5,4,vertical,vertical,horizontal,horizontal
2b,15,100361,4,25,121,21,M,NA,constant,heterogeneous,4,absent,0.944670915603638,1,vertical,vertical,1,2,green,2,NaN,NaN,NaN,NaN,NaN,NaN,NaN,NaN,NaN,NaN,NaN,NaN,NaN,0,4,3,6,vertical,vertical,horizontal,horizontal
2b,15,100361,4,26,122,21,M,NA,constant,heterogeneous,4,present,0.62368106842041,1,horizontal,horizontal,1,8,green,3,4,NaN,NaN,NaN,NaN,NaN,NaN,NaN,NaN,NaN,NaN,NaN,NaN,3,5,4,6,vertical,vertical,horizontal,horizontal
2b,15,100361,4,27,123,21,M,NA,constant,heterogeneous,4,absent,0.84470009803772,1,horizontal,horizontal,1,5,green,3,NaN,NaN,NaN,NaN,NaN,NaN,NaN,NaN,NaN,NaN,NaN,NaN,NaN,6,3,4,5,horizontal,horizontal,horizontal,horizontal
2b,15,100361,4,28,124,21,M,NA,constant,heterogeneous,4,present,1.58168196678162,1,horizontal,horizontal,1,2,green,4,2,NaN,NaN,NaN,NaN,NaN,NaN,NaN,NaN,NaN,NaN,NaN,NaN,3,6,5,4,vertical,horizontal,vertical,horizontal
2b,15,100361,4,29,125,21,M,NA,constant,heterogeneous,4,present,1.15371108055115,1,vertical,vertical,1,5,green,2,1,NaN,NaN,NaN,NaN,NaN,NaN,NaN,NaN,NaN,NaN,NaN,NaN,6,4,3,0,vertical,vertical,horizontal,horizontal
2b,15,100361,4,30,126,21,M,NA,constant,heterogeneous,4,absent,0.596973180770874,1,vertical,vertical,1,5,green,2,NaN,NaN,NaN,NaN,NaN,NaN,NaN,NaN,NaN,NaN,NaN,NaN,NaN,3,4,0,6,vertical,vertical,vertical,vertical
2b,15,100361,4,31,127,21,M,NA,constant,heterogeneous,4,absent,1.09292912483215,1,horizontal,horizontal,1,5,green,4,NaN,NaN,NaN,NaN,NaN,NaN,NaN,NaN,NaN,NaN,NaN,NaN,NaN,0,3,5,4,vertical,horizontal,horizontal,horizontal
2b,15,100361,4,32,128,21,M,NA,constant,heterogeneous,4,absent,0.691462993621826,1,horizontal,horizontal,1,2,green,3,NaN,NaN,NaN,NaN,NaN,NaN,NaN,NaN,NaN,NaN,NaN,NaN,NaN,0,6,4,5,horizontal,vertical,horizontal,horizontal
2b,15,100361,5,1,129,21,M,NA,constant,heterogeneous,4,absent,0.828761100769043,0,vertical,horizontal,1,8,green,2,NaN,NaN,NaN,NaN,NaN,NaN,NaN,NaN,NaN,NaN,NaN,NaN,NaN,5,4,0,6,horizontal,vertical,vertical,horizontal
2b,15,100361,5,2,130,21,M,NA,constant,heterogeneous,4,present,0.585638999938965,1,horizontal,horizontal,1,2,green,4,2,NaN,NaN,NaN,NaN,NaN,NaN,NaN,NaN,NaN,NaN,NaN,NaN,5,3,6,4,horizontal,horizontal,vertical,horizontal
2b,15,100361,5,3,131,21,M,NA,constant,heterogeneous,4,present,0.757407903671265,1,vertical,vertical,1,3,green,1,2,NaN,NaN,NaN,NaN,NaN,NaN,NaN,NaN,NaN,NaN,NaN,NaN,4,3,0,6,vertical,horizontal,horizontal,horizontal
2b,15,100361,5,4,132,21,M,NA,constant,heterogeneous,4,absent,1.48875999450684,0,horizontal,vertical,1,2,green,2,NaN,NaN,NaN,NaN,NaN,NaN,NaN,NaN,NaN,NaN,NaN,NaN,NaN,6,4,5,0,horizontal,horizontal,horizontal,vertical
2b,15,100361,5,5,133,21,M,NA,constant,heterogeneous,4,present,0.39482593536377,1,vertical,vertical,1,3,green,3,1,NaN,NaN,NaN,NaN,NaN,NaN,NaN,NaN,NaN,NaN,NaN,NaN,6,3,4,0,horizontal,horizontal,vertical,vertical
2b,15,100361,5,6,134,21,M,NA,constant,heterogeneous,4,absent,0.642783880233765,1,horizontal,horizontal,1,3,green,1,NaN,NaN,NaN,NaN,NaN,NaN,NaN,NaN,NaN,NaN,NaN,NaN,NaN,4,0,5,3,horizontal,vertical,vertical,vertical
2b,15,100361,5,7,135,21,M,NA,constant,heterogeneous,4,present,0.78805685043335,1,horizontal,horizontal,1,2,green,2,1,NaN,NaN,NaN,NaN,NaN,NaN,NaN,NaN,NaN,NaN,NaN,NaN,5,4,0,6,horizontal,horizontal,horizontal,vertical
2b,15,100361,5,8,136,21,M,NA,constant,heterogeneous,4,absent,0.531944990158081,0,horizontal,vertical,1,5,green,4,NaN,NaN,NaN,NaN,NaN,NaN,NaN,NaN,NaN,NaN,NaN,NaN,NaN,0,5,3,4,vertical,horizontal,vertical,horizontal
2b,15,100361,5,9,137,21,M,NA,constant,heterogeneous,4,present,0.838896036148071,1,vertical,vertical,1,8,green,4,3,NaN,NaN,NaN,NaN,NaN,NaN,NaN,NaN,NaN,NaN,NaN,NaN,5,3,0,4,horizontal,horizontal,vertical,vertical
2b,15,100361,5,10,138,21,M,NA,constant,heterogeneous,4,absent,0.455981969833374,1,vertical,vertical,1,3,green,4,NaN,NaN,NaN,NaN,NaN,NaN,NaN,NaN,NaN,NaN,NaN,NaN,NaN,6,5,0,4,horizontal,vertical,horizontal,vertical
2b,15,100361,5,11,139,21,M,NA,constant,heterogeneous,4,present,0.805343866348267,1,horizontal,horizontal,1,8,green,1,2,NaN,NaN,NaN,NaN,NaN,NaN,NaN,NaN,NaN,NaN,NaN,NaN,4,0,6,3,horizontal,horizontal,horizontal,vertical
2b,15,100361,5,12,140,21,M,NA,constant,heterogeneous,4,absent,0.793620109558105,1,vertical,vertical,1,2,green,4,NaN,NaN,NaN,NaN,NaN,NaN,NaN,NaN,NaN,NaN,NaN,NaN,NaN,0,6,3,4,vertical,horizontal,horizontal,vertical
2b,15,100361,5,13,141,21,M,NA,constant,heterogeneous,4,absent,0.769563913345337,1,vertical,vertical,1,2,green,2,NaN,NaN,NaN,NaN,NaN,NaN,NaN,NaN,NaN,NaN,NaN,NaN,NaN,3,4,0,6,vertical,vertical,horizontal,vertical
2b,15,100361,5,14,142,21,M,NA,constant,heterogeneous,4,absent,0.681504964828491,1,horizontal,horizontal,1,8,green,4,NaN,NaN,NaN,NaN,NaN,NaN,NaN,NaN,NaN,NaN,NaN,NaN,NaN,5,3,6,4,horizontal,horizontal,vertical,horizontal
2b,15,100361,5,15,143,21,M,NA,constant,heterogeneous,4,absent,1.13935208320618,1,vertical,vertical,1,3,green,4,NaN,NaN,NaN,NaN,NaN,NaN,NaN,NaN,NaN,NaN,NaN,NaN,NaN,3,6,0,4,horizontal,vertical,vertical,vertical
2b,15,100361,5,16,144,21,M,NA,constant,heterogeneous,4,present,0.614151000976562,1,vertical,vertical,1,5,green,3,4,NaN,NaN,NaN,NaN,NaN,NaN,NaN,NaN,NaN,NaN,NaN,NaN,6,0,4,5,vertical,vertical,vertical,vertical
2b,15,100361,5,17,145,21,M,NA,constant,heterogeneous,4,present,0.56670880317688,1,vertical,vertical,1,2,green,3,4,NaN,NaN,NaN,NaN,NaN,NaN,NaN,NaN,NaN,NaN,NaN,NaN,3,0,4,6,horizontal,horizontal,vertical,vertical
2b,15,100361,5,18,146,21,M,NA,constant,heterogeneous,4,absent,0.382256984710693,1,vertical,vertical,1,2,green,3,NaN,NaN,NaN,NaN,NaN,NaN,NaN,NaN,NaN,NaN,NaN,NaN,NaN,3,0,4,5,horizontal,horizontal,vertical,horizontal
2b,15,100361,5,19,147,21,M,NA,constant,heterogeneous,4,present,0.602116823196411,1,horizontal,horizontal,1,2,green,4,3,NaN,NaN,NaN,NaN,NaN,NaN,NaN,NaN,NaN,NaN,NaN,NaN,0,6,5,4,horizontal,vertical,vertical,horizontal
2b,15,100361,5,20,148,21,M,NA,constant,heterogeneous,4,present,0.502422094345093,1,horizontal,horizontal,1,3,green,4,2,NaN,NaN,NaN,NaN,NaN,NaN,NaN,NaN,NaN,NaN,NaN,NaN,0,6,5,4,horizontal,horizontal,vertical,horizontal
2b,15,100361,5,21,149,21,M,NA,constant,heterogeneous,4,present,0.636700868606567,1,vertical,vertical,1,5,green,3,1,NaN,NaN,NaN,NaN,NaN,NaN,NaN,NaN,NaN,NaN,NaN,NaN,3,6,4,5,vertical,vertical,vertical,vertical
2b,15,100361,5,22,150,21,M,NA,constant,heterogeneous,4,absent,0.533502817153931,1,horizontal,horizontal,1,3,green,4,NaN,NaN,NaN,NaN,NaN,NaN,NaN,NaN,NaN,NaN,NaN,NaN,NaN,0,3,5,4,horizontal,vertical,vertical,horizontal
2b,15,100361,5,23,151,21,M,NA,constant,heterogeneous,4,absent,0.656471014022827,1,horizontal,horizontal,1,2,green,4,NaN,NaN,NaN,NaN,NaN,NaN,NaN,NaN,NaN,NaN,NaN,NaN,NaN,6,3,5,4,vertical,horizontal,vertical,horizontal
2b,15,100361,5,24,152,21,M,NA,constant,heterogeneous,4,present,0.309882164001465,0,vertical,horizontal,1,2,green,2,1,NaN,NaN,NaN,NaN,NaN,NaN,NaN,NaN,NaN,NaN,NaN,NaN,6,4,5,3,vertical,vertical,vertical,vertical
2b,15,100361,5,25,153,21,M,NA,constant,heterogeneous,4,absent,0.568058967590332,1,vertical,vertical,1,5,green,4,NaN,NaN,NaN,NaN,NaN,NaN,NaN,NaN,NaN,NaN,NaN,NaN,NaN,0,3,6,4,horizontal,vertical,vertical,vertical
2b,15,100361,5,26,154,21,M,NA,constant,heterogeneous,4,present,0.455986976623535,1,vertical,vertical,1,2,green,2,1,NaN,NaN,NaN,NaN,NaN,NaN,NaN,NaN,NaN,NaN,NaN,NaN,3,4,0,6,horizontal,vertical,vertical,vertical
2b,15,100361,5,27,155,21,M,NA,constant,heterogeneous,4,absent,0.533166170120239,1,horizontal,horizontal,1,5,green,4,NaN,NaN,NaN,NaN,NaN,NaN,NaN,NaN,NaN,NaN,NaN,NaN,NaN,3,6,0,4,horizontal,horizontal,vertical,horizontal
2b,15,100361,5,28,156,21,M,NA,constant,heterogeneous,4,absent,1.54393196105957,1,horizontal,horizontal,1,2,green,2,NaN,NaN,NaN,NaN,NaN,NaN,NaN,NaN,NaN,NaN,NaN,NaN,NaN,6,4,3,0,vertical,horizontal,horizontal,vertical
2b,15,100361,5,29,157,21,M,NA,constant,heterogeneous,4,absent,0.583259105682373,1,vertical,vertical,1,5,green,2,NaN,NaN,NaN,NaN,NaN,NaN,NaN,NaN,NaN,NaN,NaN,NaN,NaN,5,4,6,0,vertical,vertical,horizontal,vertical
2b,15,100361,5,30,158,21,M,NA,constant,heterogeneous,4,present,0.930974006652832,0,horizontal,vertical,1,5,green,2,3,NaN,NaN,NaN,NaN,NaN,NaN,NaN,NaN,NaN,NaN,NaN,NaN,3,4,5,0,vertical,horizontal,vertical,horizontal
2b,15,100361,5,31,159,21,M,NA,constant,heterogeneous,4,present,0.909962177276611,1,horizontal,horizontal,1,3,green,4,3,NaN,NaN,NaN,NaN,NaN,NaN,NaN,NaN,NaN,NaN,NaN,NaN,3,0,5,4,horizontal,horizontal,vertical,horizontal
2b,15,100361,5,32,160,21,M,NA,constant,heterogeneous,4,present,0.800167083740234,1,horizontal,horizontal,1,5,green,1,4,NaN,NaN,NaN,NaN,NaN,NaN,NaN,NaN,NaN,NaN,NaN,NaN,4,6,0,3,horizontal,horizontal,horizontal,horizontal
2b,15,100361,6,1,161,21,M,NA,constant,heterogeneous,4,present,0.723180055618286,1,horizontal,horizontal,1,3,green,1,4,NaN,NaN,NaN,NaN,NaN,NaN,NaN,NaN,NaN,NaN,NaN,NaN,4,6,0,3,horizontal,horizontal,horizontal,vertical
2b,15,100361,6,2,162,21,M,NA,constant,heterogeneous,4,absent,0.569709062576294,1,vertical,vertical,1,2,green,4,NaN,NaN,NaN,NaN,NaN,NaN,NaN,NaN,NaN,NaN,NaN,NaN,NaN,6,5,0,4,vertical,horizontal,horizontal,vertical
2b,15,100361,6,3,163,21,M,NA,constant,heterogeneous,4,absent,0.633504152297974,0,horizontal,vertical,1,8,green,1,NaN,NaN,NaN,NaN,NaN,NaN,NaN,NaN,NaN,NaN,NaN,NaN,NaN,4,3,0,6,horizontal,vertical,vertical,vertical
2b,15,100361,6,4,164,21,M,NA,constant,heterogeneous,4,absent,0.878293037414551,1,horizontal,horizontal,1,5,green,3,NaN,NaN,NaN,NaN,NaN,NaN,NaN,NaN,NaN,NaN,NaN,NaN,NaN,3,6,4,5,horizontal,vertical,horizontal,vertical
2b,15,100361,6,5,165,21,M,NA,constant,heterogeneous,4,absent,0.876020908355713,0,vertical,horizontal,1,5,green,4,NaN,NaN,NaN,NaN,NaN,NaN,NaN,NaN,NaN,NaN,NaN,NaN,NaN,6,0,3,4,vertical,horizontal,horizontal,vertical
2b,15,100361,6,6,166,21,M,NA,constant,heterogeneous,4,present,0.809814929962158,1,vertical,vertical,1,3,green,1,3,NaN,NaN,NaN,NaN,NaN,NaN,NaN,NaN,NaN,NaN,NaN,NaN,4,6,3,5,vertical,vertical,vertical,horizontal
2b,15,100361,6,7,167,21,M,NA,constant,heterogeneous,4,absent,0.80642294883728,1,horizontal,horizontal,1,2,green,1,NaN,NaN,NaN,NaN,NaN,NaN,NaN,NaN,NaN,NaN,NaN,NaN,NaN,4,6,3,5,horizontal,horizontal,horizontal,horizontal
2b,15,100361,6,8,168,21,M,NA,constant,heterogeneous,4,absent,0.554380178451538,1,vertical,vertical,1,8,green,1,NaN,NaN,NaN,NaN,NaN,NaN,NaN,NaN,NaN,NaN,NaN,NaN,NaN,4,6,3,0,vertical,vertical,vertical,vertical
2b,15,100361,6,9,169,21,M,NA,constant,heterogeneous,4,present,0.477972030639648,1,vertical,vertical,1,3,green,3,1,NaN,NaN,NaN,NaN,NaN,NaN,NaN,NaN,NaN,NaN,NaN,NaN,6,5,4,0,vertical,horizontal,vertical,horizontal
2b,15,100361,6,10,170,21,M,NA,constant,heterogeneous,4,absent,0.755851030349731,1,horizontal,horizontal,1,3,green,1,NaN,NaN,NaN,NaN,NaN,NaN,NaN,NaN,NaN,NaN,NaN,NaN,NaN,4,6,3,0,horizontal,horizontal,vertical,horizontal
2b,15,100361,6,11,171,21,M,NA,constant,heterogeneous,4,absent,0.775206089019775,1,vertical,vertical,1,3,green,4,NaN,NaN,NaN,NaN,NaN,NaN,NaN,NaN,NaN,NaN,NaN,NaN,NaN,5,3,6,4,vertical,vertical,horizontal,vertical
2b,15,100361,6,12,172,21,M,NA,constant,heterogeneous,4,present,0.794852018356323,1,horizontal,horizontal,1,3,green,2,1,NaN,NaN,NaN,NaN,NaN,NaN,NaN,NaN,NaN,NaN,NaN,NaN,5,4,3,6,vertical,horizontal,horizontal,horizontal
2b,15,100361,6,13,173,21,M,NA,constant,heterogeneous,4,present,0.938665866851807,1,vertical,vertical,1,5,green,4,2,NaN,NaN,NaN,NaN,NaN,NaN,NaN,NaN,NaN,NaN,NaN,NaN,5,6,3,4,horizontal,horizontal,vertical,vertical
2b,15,100361,6,14,174,21,M,NA,constant,heterogeneous,4,present,0.49385404586792,1,vertical,vertical,1,2,green,4,2,NaN,NaN,NaN,NaN,NaN,NaN,NaN,NaN,NaN,NaN,NaN,NaN,5,6,3,4,vertical,horizontal,vertical,vertical
2b,15,100361,6,15,175,21,M,NA,constant,heterogeneous,4,present,0.691953897476196,0,vertical,horizontal,1,5,green,2,4,NaN,NaN,NaN,NaN,NaN,NaN,NaN,NaN,NaN,NaN,NaN,NaN,3,4,6,0,horizontal,vertical,horizontal,horizontal
2b,15,100361,6,16,176,21,M,NA,constant,heterogeneous,4,absent,0.797934055328369,0,vertical,horizontal,1,2,green,4,NaN,NaN,NaN,NaN,NaN,NaN,NaN,NaN,NaN,NaN,NaN,NaN,NaN,3,5,0,4,vertical,vertical,horizontal,vertical
2b,15,100361,6,17,177,21,M,NA,constant,heterogeneous,4,present,0.574113845825195,1,horizontal,horizontal,1,8,green,4,3,NaN,NaN,NaN,NaN,NaN,NaN,NaN,NaN,NaN,NaN,NaN,NaN,0,5,6,4,horizontal,vertical,horizontal,horizontal
2b,15,100361,6,18,178,21,M,NA,constant,heterogeneous,4,absent,0.741724014282227,1,vertical,vertical,1,3,green,4,NaN,NaN,NaN,NaN,NaN,NaN,NaN,NaN,NaN,NaN,NaN,NaN,NaN,6,3,0,4,vertical,horizontal,vertical,vertical
2b,15,100361,6,19,179,21,M,NA,constant,heterogeneous,4,absent,0.756655931472778,1,horizontal,horizontal,1,3,green,1,NaN,NaN,NaN,NaN,NaN,NaN,NaN,NaN,NaN,NaN,NaN,NaN,NaN,4,0,5,6,horizontal,horizontal,horizontal,vertical
2b,15,100361,6,20,180,21,M,NA,constant,heterogeneous,4,absent,0.912200927734375,1,vertical,vertical,1,2,green,1,NaN,NaN,NaN,NaN,NaN,NaN,NaN,NaN,NaN,NaN,NaN,NaN,NaN,4,3,6,5,vertical,vertical,horizontal,horizontal
2b,15,100361,6,21,181,21,M,NA,constant,heterogeneous,4,present,0.962453126907349,1,horizontal,horizontal,1,5,green,4,2,NaN,NaN,NaN,NaN,NaN,NaN,NaN,NaN,NaN,NaN,NaN,NaN,6,5,3,4,vertical,horizontal,vertical,horizontal
2b,15,100361,6,22,182,21,M,NA,constant,heterogeneous,4,absent,0.597970962524414,1,vertical,vertical,1,5,green,3,NaN,NaN,NaN,NaN,NaN,NaN,NaN,NaN,NaN,NaN,NaN,NaN,NaN,6,5,4,0,vertical,vertical,vertical,vertical
2b,15,100361,6,23,183,21,M,NA,constant,heterogeneous,4,present,1.02992606163025,1,vertical,vertical,1,2,green,2,1,NaN,NaN,NaN,NaN,NaN,NaN,NaN,NaN,NaN,NaN,NaN,NaN,3,4,0,6,vertical,vertical,horizontal,vertical
2b,15,100361,6,24,184,21,M,NA,constant,heterogeneous,4,present,0.738639116287231,1,horizontal,horizontal,1,2,green,2,3,NaN,NaN,NaN,NaN,NaN,NaN,NaN,NaN,NaN,NaN,NaN,NaN,5,4,0,3,horizontal,horizontal,horizontal,horizontal
2b,15,100361,6,25,185,21,M,NA,constant,heterogeneous,4,present,0.51758599281311,1,horizontal,horizontal,1,2,green,2,3,NaN,NaN,NaN,NaN,NaN,NaN,NaN,NaN,NaN,NaN,NaN,NaN,0,4,3,6,vertical,horizontal,horizontal,vertical
2b,15,100361,6,26,186,21,M,NA,constant,heterogeneous,4,present,1.12426900863647,1,horizontal,horizontal,1,2,green,3,1,NaN,NaN,NaN,NaN,NaN,NaN,NaN,NaN,NaN,NaN,NaN,NaN,5,3,4,0,horizontal,vertical,horizontal,vertical
2b,15,100361,6,27,187,21,M,NA,constant,heterogeneous,4,absent,0.874878883361816,1,horizontal,horizontal,1,5,green,1,NaN,NaN,NaN,NaN,NaN,NaN,NaN,NaN,NaN,NaN,NaN,NaN,NaN,4,5,0,3,horizontal,vertical,vertical,vertical
2b,15,100361,6,28,188,21,M,NA,constant,heterogeneous,4,present,0.632562160491943,1,vertical,vertical,1,8,green,1,2,NaN,NaN,NaN,NaN,NaN,NaN,NaN,NaN,NaN,NaN,NaN,NaN,4,6,3,5,vertical,horizontal,vertical,horizontal
2b,15,100361,6,29,189,21,M,NA,constant,heterogeneous,4,absent,0.645592927932739,1,horizontal,horizontal,1,2,green,2,NaN,NaN,NaN,NaN,NaN,NaN,NaN,NaN,NaN,NaN,NaN,NaN,NaN,5,4,0,6,vertical,horizontal,vertical,vertical
2b,15,100361,6,30,190,21,M,NA,constant,heterogeneous,4,present,0.962862968444824,1,vertical,vertical,1,2,green,1,4,NaN,NaN,NaN,NaN,NaN,NaN,NaN,NaN,NaN,NaN,NaN,NaN,4,3,6,0,vertical,horizontal,horizontal,vertical
2b,15,100361,6,31,191,21,M,NA,constant,heterogeneous,4,present,0.678224802017212,1,horizontal,horizontal,1,5,green,2,3,NaN,NaN,NaN,NaN,NaN,NaN,NaN,NaN,NaN,NaN,NaN,NaN,0,4,6,5,horizontal,horizontal,horizontal,horizontal
2b,15,100361,6,32,192,21,M,NA,constant,heterogeneous,4,absent,1.07557797431946,1,horizontal,horizontal,1,2,green,3,NaN,NaN,NaN,NaN,NaN,NaN,NaN,NaN,NaN,NaN,NaN,NaN,NaN,6,0,4,3,horizontal,vertical,horizontal,vertical
2b,15,100361,7,1,193,21,M,NA,constant,heterogeneous,4,present,0.580908060073853,1,horizontal,horizontal,1,3,green,2,1,NaN,NaN,NaN,NaN,NaN,NaN,NaN,NaN,NaN,NaN,NaN,NaN,6,4,0,3,horizontal,horizontal,vertical,vertical
2b,15,100361,7,2,194,21,M,NA,constant,heterogeneous,4,absent,0.792502880096436,1,horizontal,horizontal,1,3,green,1,NaN,NaN,NaN,NaN,NaN,NaN,NaN,NaN,NaN,NaN,NaN,NaN,NaN,4,5,6,3,horizontal,horizontal,horizontal,vertical
2b,15,100361,7,3,195,21,M,NA,constant,heterogeneous,4,absent,0.552966833114624,1,vertical,vertical,1,3,green,3,NaN,NaN,NaN,NaN,NaN,NaN,NaN,NaN,NaN,NaN,NaN,NaN,NaN,0,6,4,5,vertical,vertical,vertical,vertical
2b,15,100361,7,4,196,21,M,NA,constant,heterogeneous,4,present,0.532013893127441,1,horizontal,horizontal,1,8,green,1,2,NaN,NaN,NaN,NaN,NaN,NaN,NaN,NaN,NaN,NaN,NaN,NaN,4,0,5,6,horizontal,horizontal,horizontal,vertical
2b,15,100361,7,5,197,21,M,NA,constant,heterogeneous,4,absent,0.527297019958496,1,vertical,vertical,1,5,green,3,NaN,NaN,NaN,NaN,NaN,NaN,NaN,NaN,NaN,NaN,NaN,NaN,NaN,5,0,4,3,vertical,vertical,vertical,vertical
2b,15,100361,7,6,198,21,M,NA,constant,heterogeneous,4,present,1.16558289527893,1,vertical,vertical,1,2,green,1,3,NaN,NaN,NaN,NaN,NaN,NaN,NaN,NaN,NaN,NaN,NaN,NaN,4,3,5,6,vertical,vertical,vertical,horizontal
2b,15,100361,7,7,199,21,M,NA,constant,heterogeneous,4,present,0.805482864379883,1,horizontal,horizontal,1,3,green,4,3,NaN,NaN,NaN,NaN,NaN,NaN,NaN,NaN,NaN,NaN,NaN,NaN,6,3,5,4,horizontal,horizontal,vertical,horizontal
2b,15,100361,7,8,200,21,M,NA,constant,heterogeneous,4,present,0.609684944152832,1,vertical,vertical,1,5,green,3,2,NaN,NaN,NaN,NaN,NaN,NaN,NaN,NaN,NaN,NaN,NaN,NaN,3,0,4,5,horizontal,horizontal,vertical,horizontal
2b,15,100361,7,9,201,21,M,NA,constant,heterogeneous,4,present,0.974148988723755,1,horizontal,horizontal,1,5,green,3,4,NaN,NaN,NaN,NaN,NaN,NaN,NaN,NaN,NaN,NaN,NaN,NaN,0,6,4,5,horizontal,horizontal,horizontal,horizontal
2b,15,100361,7,10,202,21,M,NA,constant,heterogeneous,4,absent,0.613526105880737,1,horizontal,horizontal,1,2,green,3,NaN,NaN,NaN,NaN,NaN,NaN,NaN,NaN,NaN,NaN,NaN,NaN,NaN,5,6,4,0,vertical,horizontal,horizontal,horizontal
2b,15,100361,7,11,203,21,M,NA,constant,heterogeneous,4,absent,0.734189987182617,1,vertical,vertical,1,5,green,2,NaN,NaN,NaN,NaN,NaN,NaN,NaN,NaN,NaN,NaN,NaN,NaN,NaN,6,4,0,5,horizontal,vertical,horizontal,vertical
2b,15,100361,7,12,204,21,M,NA,constant,heterogeneous,4,absent,0.793195962905884,1,horizontal,horizontal,1,2,green,2,NaN,NaN,NaN,NaN,NaN,NaN,NaN,NaN,NaN,NaN,NaN,NaN,NaN,6,4,0,3,vertical,horizontal,vertical,horizontal
2b,15,100361,7,13,205,21,M,NA,constant,heterogeneous,4,present,0.753171920776367,1,horizontal,horizontal,1,5,green,1,3,NaN,NaN,NaN,NaN,NaN,NaN,NaN,NaN,NaN,NaN,NaN,NaN,4,6,0,3,horizontal,vertical,vertical,vertical
2b,15,100361,7,14,206,21,M,NA,constant,heterogeneous,4,present,0.764577150344849,1,horizontal,horizontal,1,2,green,1,2,NaN,NaN,NaN,NaN,NaN,NaN,NaN,NaN,NaN,NaN,NaN,NaN,4,5,0,3,horizontal,vertical,vertical,horizontal
2b,15,100361,7,15,207,21,M,NA,constant,heterogeneous,4,absent,0.564056873321533,1,horizontal,horizontal,1,5,green,1,NaN,NaN,NaN,NaN,NaN,NaN,NaN,NaN,NaN,NaN,NaN,NaN,NaN,4,3,5,6,horizontal,horizontal,vertical,horizontal
2b,15,100361,7,16,208,21,M,NA,constant,heterogeneous,4,present,0.652076005935669,1,vertical,vertical,1,2,green,3,1,NaN,NaN,NaN,NaN,NaN,NaN,NaN,NaN,NaN,NaN,NaN,NaN,3,6,4,0,vertical,vertical,vertical,horizontal
2b,15,100361,7,17,209,21,M,NA,constant,heterogeneous,4,absent,0.513016939163208,1,vertical,vertical,1,8,green,2,NaN,NaN,NaN,NaN,NaN,NaN,NaN,NaN,NaN,NaN,NaN,NaN,NaN,5,4,3,6,vertical,vertical,vertical,vertical
2b,15,100361,7,18,210,21,M,NA,constant,heterogeneous,4,absent,0.467319965362549,0,horizontal,vertical,1,3,green,4,NaN,NaN,NaN,NaN,NaN,NaN,NaN,NaN,NaN,NaN,NaN,NaN,NaN,3,0,6,4,vertical,vertical,vertical,horizontal
2b,15,100361,7,19,211,21,M,NA,constant,heterogeneous,4,absent,0.589051961898804,1,vertical,vertical,1,2,green,4,NaN,NaN,NaN,NaN,NaN,NaN,NaN,NaN,NaN,NaN,NaN,NaN,NaN,5,6,0,4,vertical,horizontal,horizontal,vertical
2b,15,100361,7,20,212,21,M,NA,constant,heterogeneous,4,absent,0.837142944335938,1,vertical,vertical,1,3,green,3,NaN,NaN,NaN,NaN,NaN,NaN,NaN,NaN,NaN,NaN,NaN,NaN,NaN,0,5,4,3,horizontal,vertical,vertical,horizontal
2b,15,100361,7,21,213,21,M,NA,constant,heterogeneous,4,present,0.990267992019653,1,vertical,vertical,1,3,green,1,3,NaN,NaN,NaN,NaN,NaN,NaN,NaN,NaN,NaN,NaN,NaN,NaN,4,0,6,5,vertical,horizontal,horizontal,vertical
2b,15,100361,7,22,214,21,M,NA,constant,heterogeneous,4,present,0.846158027648926,1,horizontal,horizontal,1,2,green,4,3,NaN,NaN,NaN,NaN,NaN,NaN,NaN,NaN,NaN,NaN,NaN,NaN,0,5,3,4,horizontal,vertical,horizontal,horizontal
2b,15,100361,7,23,215,21,M,NA,constant,heterogeneous,4,absent,0.851386785507202,1,horizontal,horizontal,1,5,green,2,NaN,NaN,NaN,NaN,NaN,NaN,NaN,NaN,NaN,NaN,NaN,NaN,NaN,5,4,6,3,horizontal,horizontal,vertical,horizontal
2b,15,100361,7,24,216,21,M,NA,constant,heterogeneous,4,present,0.584750175476074,1,vertical,vertical,1,3,green,1,4,NaN,NaN,NaN,NaN,NaN,NaN,NaN,NaN,NaN,NaN,NaN,NaN,4,5,0,3,vertical,vertical,vertical,vertical
2b,15,100361,7,25,217,21,M,NA,constant,heterogeneous,4,absent,0.572402954101562,1,vertical,vertical,1,2,green,1,NaN,NaN,NaN,NaN,NaN,NaN,NaN,NaN,NaN,NaN,NaN,NaN,NaN,4,6,3,5,vertical,horizontal,horizontal,horizontal
2b,15,100361,7,26,218,21,M,NA,constant,heterogeneous,4,present,0.596075057983398,1,horizontal,horizontal,1,2,green,4,2,NaN,NaN,NaN,NaN,NaN,NaN,NaN,NaN,NaN,NaN,NaN,NaN,0,3,5,4,horizontal,vertical,vertical,horizontal
2b,15,100361,7,27,219,21,M,NA,constant,heterogeneous,4,absent,0.691998958587646,1,vertical,vertical,1,2,green,3,NaN,NaN,NaN,NaN,NaN,NaN,NaN,NaN,NaN,NaN,NaN,NaN,NaN,6,5,4,3,vertical,horizontal,vertical,horizontal
2b,15,100361,7,28,220,21,M,NA,constant,heterogeneous,4,absent,0.573935985565186,1,horizontal,horizontal,1,2,green,3,NaN,NaN,NaN,NaN,NaN,NaN,NaN,NaN,NaN,NaN,NaN,NaN,NaN,3,6,4,5,vertical,horizontal,horizontal,horizontal
2b,15,100361,7,29,221,21,M,NA,constant,heterogeneous,4,present,0.645463943481445,1,vertical,vertical,1,2,green,4,2,NaN,NaN,NaN,NaN,NaN,NaN,NaN,NaN,NaN,NaN,NaN,NaN,5,6,3,4,vertical,vertical,vertical,vertical
2b,15,100361,7,30,222,21,M,NA,constant,heterogeneous,4,present,0.506914138793945,0,vertical,horizontal,1,8,green,1,4,NaN,NaN,NaN,NaN,NaN,NaN,NaN,NaN,NaN,NaN,NaN,NaN,4,3,5,0,vertical,vertical,horizontal,horizontal
2b,15,100361,7,31,223,21,M,NA,constant,heterogeneous,4,present,0.653242826461792,1,vertical,vertical,1,5,green,3,1,NaN,NaN,NaN,NaN,NaN,NaN,NaN,NaN,NaN,NaN,NaN,NaN,0,3,4,5,horizontal,horizontal,vertical,horizontal
2b,15,100361,7,32,224,21,M,NA,constant,heterogeneous,4,absent,0.562638998031616,1,horizontal,horizontal,1,8,green,4,NaN,NaN,NaN,NaN,NaN,NaN,NaN,NaN,NaN,NaN,NaN,NaN,NaN,3,6,0,4,vertical,vertical,vertical,horizontal
2b,15,100361,8,1,225,21,M,NA,constant,heterogeneous,4,present,0.268967151641846,0,vertical,horizontal,1,5,green,2,1,NaN,NaN,NaN,NaN,NaN,NaN,NaN,NaN,NaN,NaN,NaN,NaN,6,4,5,0,vertical,vertical,vertical,vertical
2b,15,100361,8,2,226,21,M,NA,constant,heterogeneous,4,present,0.326373100280762,1,horizontal,horizontal,1,2,green,4,2,NaN,NaN,NaN,NaN,NaN,NaN,NaN,NaN,NaN,NaN,NaN,NaN,0,6,5,4,vertical,horizontal,horizontal,horizontal
2b,15,100361,8,3,227,21,M,NA,constant,heterogeneous,4,present,0.221111059188843,1,horizontal,horizontal,1,5,green,4,3,NaN,NaN,NaN,NaN,NaN,NaN,NaN,NaN,NaN,NaN,NaN,NaN,3,6,0,4,vertical,horizontal,horizontal,horizontal
2b,15,100361,8,4,228,21,M,NA,constant,heterogeneous,4,present,0.437590837478638,1,vertical,vertical,1,3,green,3,1,NaN,NaN,NaN,NaN,NaN,NaN,NaN,NaN,NaN,NaN,NaN,NaN,3,6,4,0,horizontal,vertical,vertical,horizontal
2b,15,100361,8,5,229,21,M,NA,constant,heterogeneous,4,absent,0.51849102973938,1,vertical,vertical,1,5,green,1,NaN,NaN,NaN,NaN,NaN,NaN,NaN,NaN,NaN,NaN,NaN,NaN,NaN,4,5,3,6,vertical,vertical,vertical,horizontal
2b,15,100361,8,6,230,21,M,NA,constant,heterogeneous,4,absent,0.500955104827881,1,vertical,vertical,1,3,green,1,NaN,NaN,NaN,NaN,NaN,NaN,NaN,NaN,NaN,NaN,NaN,NaN,NaN,4,3,0,6,vertical,horizontal,horizontal,vertical
2b,15,100361,8,7,231,21,M,NA,constant,heterogeneous,4,present,0.46723198890686,1,vertical,vertical,1,2,green,4,2,NaN,NaN,NaN,NaN,NaN,NaN,NaN,NaN,NaN,NaN,NaN,NaN,6,0,5,4,vertical,horizontal,vertical,vertical
2b,15,100361,8,8,232,21,M,NA,constant,heterogeneous,4,present,0.437001943588257,1,vertical,vertical,1,8,green,2,3,NaN,NaN,NaN,NaN,NaN,NaN,NaN,NaN,NaN,NaN,NaN,NaN,3,4,5,0,vertical,vertical,vertical,vertical
2b,15,100361,8,9,233,21,M,NA,constant,heterogeneous,4,absent,0.470034122467041,1,vertical,vertical,1,2,green,2,NaN,NaN,NaN,NaN,NaN,NaN,NaN,NaN,NaN,NaN,NaN,NaN,NaN,3,4,5,0,vertical,vertical,vertical,horizontal
2b,15,100361,8,10,234,21,M,NA,constant,heterogeneous,4,absent,0.443698883056641,0,horizontal,vertical,1,3,green,4,NaN,NaN,NaN,NaN,NaN,NaN,NaN,NaN,NaN,NaN,NaN,NaN,NaN,3,0,6,4,horizontal,horizontal,vertical,horizontal
2b,15,100361,8,11,235,21,M,NA,constant,heterogeneous,4,absent,1.18043994903564,1,horizontal,horizontal,1,8,green,1,NaN,NaN,NaN,NaN,NaN,NaN,NaN,NaN,NaN,NaN,NaN,NaN,NaN,4,0,6,3,horizontal,vertical,vertical,horizontal
2b,15,100361,8,12,236,21,M,NA,constant,heterogeneous,4,present,0.840237140655518,1,horizontal,horizontal,1,5,green,1,3,NaN,NaN,NaN,NaN,NaN,NaN,NaN,NaN,NaN,NaN,NaN,NaN,4,6,0,3,horizontal,vertical,horizontal,vertical
2b,15,100361,8,13,237,21,M,NA,constant,heterogeneous,4,absent,0.401702880859375,1,horizontal,horizontal,1,5,green,3,NaN,NaN,NaN,NaN,NaN,NaN,NaN,NaN,NaN,NaN,NaN,NaN,NaN,6,3,4,5,vertical,vertical,horizontal,horizontal
2b,15,100361,8,14,238,21,M,NA,constant,heterogeneous,4,absent,0.878051996231079,1,vertical,vertical,1,2,green,1,NaN,NaN,NaN,NaN,NaN,NaN,NaN,NaN,NaN,NaN,NaN,NaN,NaN,4,3,0,5,vertical,vertical,vertical,horizontal
2b,15,100361,8,15,239,21,M,NA,constant,heterogeneous,4,present,1.09175300598145,1,vertical,vertical,1,2,green,3,4,NaN,NaN,NaN,NaN,NaN,NaN,NaN,NaN,NaN,NaN,NaN,NaN,0,6,4,3,vertical,horizontal,vertical,horizontal
2b,15,100361,8,16,240,21,M,NA,constant,heterogeneous,4,absent,0.773581981658936,1,vertical,vertical,1,3,green,2,NaN,NaN,NaN,NaN,NaN,NaN,NaN,NaN,NaN,NaN,NaN,NaN,NaN,5,4,3,6,vertical,vertical,horizontal,vertical
2b,15,100361,8,17,241,21,M,NA,constant,heterogeneous,4,present,0.653292179107666,0,horizontal,vertical,1,3,green,3,4,NaN,NaN,NaN,NaN,NaN,NaN,NaN,NaN,NaN,NaN,NaN,NaN,6,3,4,5,horizontal,vertical,horizontal,vertical
2b,15,100361,8,18,242,21,M,NA,constant,heterogeneous,4,absent,0.474387884140015,0,horizontal,vertical,1,3,green,2,NaN,NaN,NaN,NaN,NaN,NaN,NaN,NaN,NaN,NaN,NaN,NaN,NaN,5,4,6,0,horizontal,horizontal,vertical,horizontal
2b,15,100361,8,19,243,21,M,NA,constant,heterogeneous,4,present,0.656005859375,0,vertical,horizontal,1,5,green,2,1,NaN,NaN,NaN,NaN,NaN,NaN,NaN,NaN,NaN,NaN,NaN,NaN,0,4,3,5,vertical,vertical,vertical,horizontal
2b,15,100361,8,20,244,21,M,NA,constant,heterogeneous,4,present,1.03737902641296,1,horizontal,horizontal,1,2,green,1,3,NaN,NaN,NaN,NaN,NaN,NaN,NaN,NaN,NaN,NaN,NaN,NaN,4,3,6,0,horizontal,horizontal,horizontal,vertical
2b,15,100361,8,21,245,21,M,NA,constant,heterogeneous,4,present,1.01456379890442,1,vertical,vertical,1,2,green,4,1,NaN,NaN,NaN,NaN,NaN,NaN,NaN,NaN,NaN,NaN,NaN,NaN,6,0,3,4,horizontal,vertical,horizontal,vertical
2b,15,100361,8,22,246,21,M,NA,constant,heterogeneous,4,absent,0.654983043670654,1,horizontal,horizontal,1,5,green,1,NaN,NaN,NaN,NaN,NaN,NaN,NaN,NaN,NaN,NaN,NaN,NaN,NaN,4,5,3,0,horizontal,horizontal,horizontal,horizontal
2b,15,100361,8,23,247,21,M,NA,constant,heterogeneous,4,absent,0.77245306968689,1,vertical,vertical,1,8,green,4,NaN,NaN,NaN,NaN,NaN,NaN,NaN,NaN,NaN,NaN,NaN,NaN,NaN,5,0,3,4,horizontal,horizontal,horizontal,vertical
2b,15,100361,8,24,248,21,M,NA,constant,heterogeneous,4,absent,0.819727897644043,1,horizontal,horizontal,1,2,green,3,NaN,NaN,NaN,NaN,NaN,NaN,NaN,NaN,NaN,NaN,NaN,NaN,NaN,0,5,4,6,vertical,vertical,horizontal,horizontal
2b,15,100361,8,25,249,21,M,NA,constant,heterogeneous,4,present,0.700546026229858,1,vertical,vertical,1,3,green,4,2,NaN,NaN,NaN,NaN,NaN,NaN,NaN,NaN,NaN,NaN,NaN,NaN,0,6,3,4,horizontal,vertical,vertical,vertical
2b,15,100361,8,26,250,21,M,NA,constant,heterogeneous,4,present,0.618607997894287,1,horizontal,horizontal,1,2,green,2,1,NaN,NaN,NaN,NaN,NaN,NaN,NaN,NaN,NaN,NaN,NaN,NaN,0,4,5,6,horizontal,horizontal,vertical,vertical
2b,15,100361,8,27,251,21,M,NA,constant,heterogeneous,4,absent,0.755300045013428,0,horizontal,vertical,1,2,green,1,NaN,NaN,NaN,NaN,NaN,NaN,NaN,NaN,NaN,NaN,NaN,NaN,NaN,4,5,6,3,horizontal,horizontal,horizontal,vertical
2b,15,100361,8,28,252,21,M,NA,constant,heterogeneous,4,absent,0.686257123947144,1,horizontal,horizontal,1,2,green,4,NaN,NaN,NaN,NaN,NaN,NaN,NaN,NaN,NaN,NaN,NaN,NaN,NaN,3,0,5,4,vertical,horizontal,vertical,horizontal
2b,15,100361,8,29,253,21,M,NA,constant,heterogeneous,4,absent,1.67227911949158,1,vertical,vertical,1,5,green,2,NaN,NaN,NaN,NaN,NaN,NaN,NaN,NaN,NaN,NaN,NaN,NaN,NaN,3,4,5,6,horizontal,vertical,horizontal,horizontal
2b,15,100361,8,30,254,21,M,NA,constant,heterogeneous,4,present,0.54219913482666,1,horizontal,horizontal,1,8,green,4,2,NaN,NaN,NaN,NaN,NaN,NaN,NaN,NaN,NaN,NaN,NaN,NaN,0,6,3,4,horizontal,vertical,horizontal,horizontal
2b,15,100361,8,31,255,21,M,NA,constant,heterogeneous,4,absent,0.365128993988037,0,vertical,horizontal,1,2,green,3,NaN,NaN,NaN,NaN,NaN,NaN,NaN,NaN,NaN,NaN,NaN,NaN,NaN,0,3,4,5,vertical,vertical,vertical,horizontal
2b,15,100361,8,32,256,21,M,NA,constant,heterogeneous,4,present,0.868685960769653,1,horizontal,horizontal,1,3,green,2,4,NaN,NaN,NaN,NaN,NaN,NaN,NaN,NaN,NaN,NaN,NaN,NaN,3,4,0,5,vertical,horizontal,vertical,vertical
2b,15,100361,9,1,257,21,M,NA,constant,heterogeneous,4,absent,0.384952068328857,1,horizontal,horizontal,1,2,green,3,NaN,NaN,NaN,NaN,NaN,NaN,NaN,NaN,NaN,NaN,NaN,NaN,NaN,3,6,4,5,vertical,vertical,horizontal,horizontal
2b,15,100361,9,2,258,21,M,NA,constant,heterogeneous,4,present,0.252473115921021,1,horizontal,horizontal,1,2,green,2,3,NaN,NaN,NaN,NaN,NaN,NaN,NaN,NaN,NaN,NaN,NaN,NaN,5,4,6,3,vertical,horizontal,vertical,horizontal
2b,15,100361,9,3,259,21,M,NA,constant,heterogeneous,4,present,0.457850933074951,0,vertical,horizontal,1,5,green,1,3,NaN,NaN,NaN,NaN,NaN,NaN,NaN,NaN,NaN,NaN,NaN,NaN,4,0,5,3,vertical,vertical,horizontal,horizontal
2b,15,100361,9,4,260,21,M,NA,constant,heterogeneous,4,present,0.459393978118896,1,horizontal,horizontal,1,3,green,4,2,NaN,NaN,NaN,NaN,NaN,NaN,NaN,NaN,NaN,NaN,NaN,NaN,6,5,0,4,vertical,vertical,vertical,horizontal
2b,15,100361,9,5,261,21,M,NA,constant,heterogeneous,4,present,0.701092004776001,1,vertical,vertical,1,3,green,2,3,NaN,NaN,NaN,NaN,NaN,NaN,NaN,NaN,NaN,NaN,NaN,NaN,5,4,0,3,vertical,vertical,vertical,horizontal
2b,15,100361,9,6,262,21,M,NA,constant,heterogeneous,4,absent,0.6509690284729,1,horizontal,horizontal,1,5,green,4,NaN,NaN,NaN,NaN,NaN,NaN,NaN,NaN,NaN,NaN,NaN,NaN,NaN,6,5,3,4,horizontal,horizontal,horizontal,horizontal
2b,15,100361,9,7,263,21,M,NA,constant,heterogeneous,4,present,0.520351886749268,1,horizontal,horizontal,1,2,green,1,4,NaN,NaN,NaN,NaN,NaN,NaN,NaN,NaN,NaN,NaN,NaN,NaN,4,0,3,6,horizontal,horizontal,horizontal,vertical
2b,15,100361,9,8,264,21,M,NA,constant,heterogeneous,4,present,0.910835027694702,0,horizontal,vertical,1,3,green,3,1,NaN,NaN,NaN,NaN,NaN,NaN,NaN,NaN,NaN,NaN,NaN,NaN,5,6,4,3,horizontal,horizontal,horizontal,vertical
2b,15,100361,9,9,265,21,M,NA,constant,heterogeneous,4,absent,0.545261859893799,0,horizontal,vertical,1,5,green,3,NaN,NaN,NaN,NaN,NaN,NaN,NaN,NaN,NaN,NaN,NaN,NaN,NaN,6,3,4,0,vertical,vertical,horizontal,horizontal
2b,15,100361,9,10,266,21,M,NA,constant,heterogeneous,4,absent,0.704571008682251,1,horizontal,horizontal,1,3,green,1,NaN,NaN,NaN,NaN,NaN,NaN,NaN,NaN,NaN,NaN,NaN,NaN,NaN,4,6,5,0,horizontal,vertical,horizontal,vertical
2b,15,100361,9,11,267,21,M,NA,constant,heterogeneous,4,present,0.482851982116699,1,vertical,vertical,1,5,green,3,1,NaN,NaN,NaN,NaN,NaN,NaN,NaN,NaN,NaN,NaN,NaN,NaN,3,0,4,6,vertical,horizontal,vertical,horizontal
2b,15,100361,9,12,268,21,M,NA,constant,heterogeneous,4,present,0.85276985168457,1,horizontal,horizontal,1,2,green,1,3,NaN,NaN,NaN,NaN,NaN,NaN,NaN,NaN,NaN,NaN,NaN,NaN,4,0,3,6,horizontal,horizontal,vertical,vertical
2b,15,100361,9,13,269,21,M,NA,constant,heterogeneous,4,absent,0.562394857406616,1,vertical,vertical,1,5,green,3,NaN,NaN,NaN,NaN,NaN,NaN,NaN,NaN,NaN,NaN,NaN,NaN,NaN,3,6,4,0,horizontal,horizontal,vertical,vertical
2b,15,100361,9,14,270,21,M,NA,constant,heterogeneous,4,present,0.653607130050659,1,vertical,vertical,1,2,green,4,2,NaN,NaN,NaN,NaN,NaN,NaN,NaN,NaN,NaN,NaN,NaN,NaN,6,3,0,4,horizontal,vertical,vertical,vertical
2b,15,100361,9,15,271,21,M,NA,constant,heterogeneous,4,absent,0.642897129058838,1,vertical,vertical,1,3,green,4,NaN,NaN,NaN,NaN,NaN,NaN,NaN,NaN,NaN,NaN,NaN,NaN,NaN,6,5,3,4,vertical,vertical,vertical,vertical
2b,15,100361,9,16,272,21,M,NA,constant,heterogeneous,4,present,0.707662105560303,1,horizontal,horizontal,1,5,green,2,4,NaN,NaN,NaN,NaN,NaN,NaN,NaN,NaN,NaN,NaN,NaN,NaN,6,4,3,5,horizontal,horizontal,vertical,horizontal
2b,15,100361,9,17,273,21,M,NA,constant,heterogeneous,4,present,1.36620402336121,1,vertical,vertical,1,2,green,2,1,NaN,NaN,NaN,NaN,NaN,NaN,NaN,NaN,NaN,NaN,NaN,NaN,6,4,5,0,horizontal,vertical,vertical,horizontal
2b,15,100361,9,18,274,21,M,NA,constant,heterogeneous,4,absent,0.685873031616211,1,vertical,vertical,1,3,green,3,NaN,NaN,NaN,NaN,NaN,NaN,NaN,NaN,NaN,NaN,NaN,NaN,NaN,6,5,4,0,horizontal,horizontal,vertical,vertical
2b,15,100361,9,19,275,21,M,NA,constant,heterogeneous,4,absent,0.55194616317749,1,vertical,vertical,1,5,green,2,NaN,NaN,NaN,NaN,NaN,NaN,NaN,NaN,NaN,NaN,NaN,NaN,NaN,5,4,0,6,vertical,vertical,vertical,vertical
2b,15,100361,9,20,276,21,M,NA,constant,heterogeneous,4,absent,0.731339931488037,1,horizontal,horizontal,1,2,green,1,NaN,NaN,NaN,NaN,NaN,NaN,NaN,NaN,NaN,NaN,NaN,NaN,NaN,4,5,6,0,horizontal,vertical,horizontal,horizontal
2b,15,100361,9,21,277,21,M,NA,constant,heterogeneous,4,present,0.574333906173706,1,horizontal,horizontal,1,8,green,2,1,NaN,NaN,NaN,NaN,NaN,NaN,NaN,NaN,NaN,NaN,NaN,NaN,5,4,0,6,vertical,horizontal,horizontal,horizontal
2b,15,100361,9,22,278,21,M,NA,constant,heterogeneous,4,present,1.10965704917908,1,vertical,vertical,1,8,green,4,3,NaN,NaN,NaN,NaN,NaN,NaN,NaN,NaN,NaN,NaN,NaN,NaN,0,5,3,4,horizontal,horizontal,horizontal,vertical
2b,15,100361,9,23,279,21,M,NA,constant,heterogeneous,4,absent,0.56836199760437,1,vertical,vertical,1,2,green,4,NaN,NaN,NaN,NaN,NaN,NaN,NaN,NaN,NaN,NaN,NaN,NaN,NaN,0,3,5,4,vertical,horizontal,horizontal,vertical
2b,15,100361,9,24,280,21,M,NA,constant,heterogeneous,4,absent,1.01562690734863,1,vertical,vertical,1,2,green,2,NaN,NaN,NaN,NaN,NaN,NaN,NaN,NaN,NaN,NaN,NaN,NaN,NaN,5,4,0,6,horizontal,vertical,vertical,horizontal
2b,15,100361,9,25,281,21,M,NA,constant,heterogeneous,4,absent,0.688610076904297,1,horizontal,horizontal,1,2,green,2,NaN,NaN,NaN,NaN,NaN,NaN,NaN,NaN,NaN,NaN,NaN,NaN,NaN,3,4,5,6,horizontal,horizontal,horizontal,horizontal
2b,15,100361,9,26,282,21,M,NA,constant,heterogeneous,4,absent,0.674127817153931,1,horizontal,horizontal,1,8,green,1,NaN,NaN,NaN,NaN,NaN,NaN,NaN,NaN,NaN,NaN,NaN,NaN,NaN,4,3,0,5,horizontal,horizontal,vertical,horizontal
2b,15,100361,9,27,283,21,M,NA,constant,heterogeneous,4,absent,0.696136951446533,1,vertical,vertical,1,8,green,2,NaN,NaN,NaN,NaN,NaN,NaN,NaN,NaN,NaN,NaN,NaN,NaN,NaN,3,4,6,5,vertical,vertical,horizontal,horizontal
2b,15,100361,9,28,284,21,M,NA,constant,heterogeneous,4,absent,0.766618967056274,1,horizontal,horizontal,1,3,green,2,NaN,NaN,NaN,NaN,NaN,NaN,NaN,NaN,NaN,NaN,NaN,NaN,NaN,0,4,3,5,horizontal,horizontal,vertical,horizontal
2b,15,100361,9,29,285,21,M,NA,constant,heterogeneous,4,present,0.637809038162231,1,vertical,vertical,1,2,green,4,3,NaN,NaN,NaN,NaN,NaN,NaN,NaN,NaN,NaN,NaN,NaN,NaN,6,5,3,4,vertical,vertical,horizontal,vertical
2b,15,100361,9,30,286,21,M,NA,constant,heterogeneous,4,absent,0.814809083938599,1,vertical,vertical,1,2,green,2,NaN,NaN,NaN,NaN,NaN,NaN,NaN,NaN,NaN,NaN,NaN,NaN,NaN,5,4,6,3,vertical,vertical,vertical,vertical
2b,15,100361,9,31,287,21,M,NA,constant,heterogeneous,4,present,1.45530986785889,1,vertical,vertical,1,3,green,2,1,NaN,NaN,NaN,NaN,NaN,NaN,NaN,NaN,NaN,NaN,NaN,NaN,6,4,3,5,vertical,vertical,vertical,horizontal
2b,15,100361,9,32,288,21,M,NA,constant,heterogeneous,4,present,0.836763858795166,1,horizontal,horizontal,1,5,green,1,3,NaN,NaN,NaN,NaN,NaN,NaN,NaN,NaN,NaN,NaN,NaN,NaN,4,3,0,5,horizontal,vertical,vertical,vertical
2b,15,100361,10,1,289,21,M,NA,constant,heterogeneous,4,present,0.283447980880737,1,horizontal,horizontal,1,3,green,1,4,NaN,NaN,NaN,NaN,NaN,NaN,NaN,NaN,NaN,NaN,NaN,NaN,4,6,5,0,horizontal,horizontal,horizontal,vertical
2b,15,100361,10,2,290,21,M,NA,constant,heterogeneous,4,absent,0.261466979980469,0,vertical,horizontal,1,8,green,4,NaN,NaN,NaN,NaN,NaN,NaN,NaN,NaN,NaN,NaN,NaN,NaN,NaN,6,5,0,4,vertical,vertical,vertical,vertical
2b,15,100361,10,3,291,21,M,NA,constant,heterogeneous,4,absent,0.302894115447998,0,vertical,horizontal,1,3,green,1,NaN,NaN,NaN,NaN,NaN,NaN,NaN,NaN,NaN,NaN,NaN,NaN,NaN,4,6,0,3,vertical,horizontal,horizontal,horizontal
2b,15,100361,10,4,292,21,M,NA,constant,heterogeneous,4,absent,0.397283792495728,0,vertical,horizontal,1,2,green,2,NaN,NaN,NaN,NaN,NaN,NaN,NaN,NaN,NaN,NaN,NaN,NaN,NaN,3,4,0,5,horizontal,vertical,vertical,vertical
2b,15,100361,10,5,293,21,M,NA,constant,heterogeneous,4,absent,0.605244874954224,1,horizontal,horizontal,1,2,green,3,NaN,NaN,NaN,NaN,NaN,NaN,NaN,NaN,NaN,NaN,NaN,NaN,NaN,6,3,4,0,vertical,horizontal,horizontal,horizontal
2b,15,100361,10,6,294,21,M,NA,constant,heterogeneous,4,absent,0.265558958053589,1,horizontal,horizontal,1,3,green,4,NaN,NaN,NaN,NaN,NaN,NaN,NaN,NaN,NaN,NaN,NaN,NaN,NaN,3,5,6,4,horizontal,horizontal,horizontal,horizontal
2b,15,100361,10,7,295,21,M,NA,constant,heterogeneous,4,present,0.25904393196106,1,horizontal,horizontal,1,5,green,2,1,NaN,NaN,NaN,NaN,NaN,NaN,NaN,NaN,NaN,NaN,NaN,NaN,0,4,3,5,vertical,horizontal,vertical,vertical
2b,15,100361,10,8,296,21,M,NA,constant,heterogeneous,4,absent,0.244697093963623,0,vertical,horizontal,1,5,green,3,NaN,NaN,NaN,NaN,NaN,NaN,NaN,NaN,NaN,NaN,NaN,NaN,NaN,5,0,4,6,vertical,vertical,vertical,horizontal
2b,15,100361,10,9,297,21,M,NA,constant,heterogeneous,4,absent,0.253767013549805,1,horizontal,horizontal,1,8,green,2,NaN,NaN,NaN,NaN,NaN,NaN,NaN,NaN,NaN,NaN,NaN,NaN,NaN,5,4,6,0,horizontal,horizontal,vertical,horizontal
2b,15,100361,10,10,298,21,M,NA,constant,heterogeneous,4,absent,0.266818046569824,1,horizontal,horizontal,1,5,green,4,NaN,NaN,NaN,NaN,NaN,NaN,NaN,NaN,NaN,NaN,NaN,NaN,NaN,0,3,5,4,horizontal,vertical,horizontal,horizontal
2b,15,100361,10,11,299,21,M,NA,constant,heterogeneous,4,present,0.292374134063721,0,vertical,horizontal,1,3,green,1,4,NaN,NaN,NaN,NaN,NaN,NaN,NaN,NaN,NaN,NaN,NaN,NaN,4,3,6,0,vertical,horizontal,vertical,vertical
2b,15,100361,10,12,300,21,M,NA,constant,heterogeneous,4,absent,0.254302978515625,0,vertical,horizontal,1,5,green,2,NaN,NaN,NaN,NaN,NaN,NaN,NaN,NaN,NaN,NaN,NaN,NaN,NaN,5,4,6,0,horizontal,vertical,vertical,vertical
2b,15,100361,10,13,301,21,M,NA,constant,heterogeneous,4,present,0.387737989425659,1,horizontal,horizontal,1,2,green,1,4,NaN,NaN,NaN,NaN,NaN,NaN,NaN,NaN,NaN,NaN,NaN,NaN,4,5,3,0,horizontal,horizontal,vertical,vertical
2b,15,100361,10,14,302,21,M,NA,constant,heterogeneous,4,absent,0.307852983474731,0,vertical,horizontal,1,2,green,4,NaN,NaN,NaN,NaN,NaN,NaN,NaN,NaN,NaN,NaN,NaN,NaN,NaN,6,0,5,4,vertical,horizontal,horizontal,vertical
2b,15,100361,10,15,303,21,M,NA,constant,heterogeneous,4,present,0.262202978134155,1,horizontal,horizontal,1,2,green,1,4,NaN,NaN,NaN,NaN,NaN,NaN,NaN,NaN,NaN,NaN,NaN,NaN,4,0,5,6,horizontal,vertical,horizontal,horizontal
2b,15,100361,10,16,304,21,M,NA,constant,heterogeneous,4,absent,0.383407831192017,0,vertical,horizontal,1,3,green,3,NaN,NaN,NaN,NaN,NaN,NaN,NaN,NaN,NaN,NaN,NaN,NaN,NaN,0,3,4,5,horizontal,vertical,vertical,horizontal
2b,15,100361,10,17,305,21,M,NA,constant,heterogeneous,4,absent,0.31501293182373,1,horizontal,horizontal,1,2,green,2,NaN,NaN,NaN,NaN,NaN,NaN,NaN,NaN,NaN,NaN,NaN,NaN,NaN,0,4,5,6,horizontal,horizontal,vertical,horizontal
2b,15,100361,10,18,306,21,M,NA,constant,heterogeneous,4,present,0.261645793914795,0,vertical,horizontal,1,8,green,1,4,NaN,NaN,NaN,NaN,NaN,NaN,NaN,NaN,NaN,NaN,NaN,NaN,4,0,5,6,vertical,horizontal,vertical,vertical
2b,15,100361,10,19,307,21,M,NA,constant,heterogeneous,4,present,0.359426975250244,0,vertical,horizontal,1,2,green,1,3,NaN,NaN,NaN,NaN,NaN,NaN,NaN,NaN,NaN,NaN,NaN,NaN,4,6,5,0,vertical,vertical,horizontal,horizontal
2b,15,100361,10,20,308,21,M,NA,constant,heterogeneous,4,absent,0.314764022827148,0,vertical,horizontal,1,2,green,3,NaN,NaN,NaN,NaN,NaN,NaN,NaN,NaN,NaN,NaN,NaN,NaN,NaN,3,0,4,6,vertical,vertical,vertical,vertical
2b,15,100361,10,21,309,21,M,NA,constant,heterogeneous,4,present,0.341042995452881,0,vertical,horizontal,1,3,green,1,2,NaN,NaN,NaN,NaN,NaN,NaN,NaN,NaN,NaN,NaN,NaN,NaN,4,5,3,0,vertical,vertical,horizontal,horizontal
2b,15,100361,10,22,310,21,M,NA,constant,heterogeneous,4,absent,0.396013021469116,1,horizontal,horizontal,1,2,green,3,NaN,NaN,NaN,NaN,NaN,NaN,NaN,NaN,NaN,NaN,NaN,NaN,NaN,0,6,4,5,vertical,horizontal,horizontal,vertical
2b,15,100361,10,23,311,21,M,NA,constant,heterogeneous,4,present,0.396243810653687,1,horizontal,horizontal,1,5,green,1,2,NaN,NaN,NaN,NaN,NaN,NaN,NaN,NaN,NaN,NaN,NaN,NaN,4,0,5,3,horizontal,horizontal,horizontal,horizontal
2b,15,100361,10,24,312,21,M,NA,constant,heterogeneous,4,absent,0.236175060272217,1,horizontal,horizontal,1,5,green,3,NaN,NaN,NaN,NaN,NaN,NaN,NaN,NaN,NaN,NaN,NaN,NaN,NaN,3,5,4,6,vertical,vertical,horizontal,vertical
2b,15,100361,10,25,313,21,M,NA,constant,heterogeneous,4,present,0.261320114135742,0,vertical,horizontal,1,5,green,2,1,NaN,NaN,NaN,NaN,NaN,NaN,NaN,NaN,NaN,NaN,NaN,NaN,0,4,3,6,horizontal,vertical,horizontal,vertical
2b,15,100361,10,26,314,21,M,NA,constant,heterogeneous,4,present,0.56695294380188,0,vertical,horizontal,1,2,green,4,1,NaN,NaN,NaN,NaN,NaN,NaN,NaN,NaN,NaN,NaN,NaN,NaN,6,0,5,4,horizontal,horizontal,horizontal,vertical
2b,15,100361,10,27,315,21,M,NA,constant,heterogeneous,4,absent,0.34225606918335,1,horizontal,horizontal,1,3,green,3,NaN,NaN,NaN,NaN,NaN,NaN,NaN,NaN,NaN,NaN,NaN,NaN,NaN,0,5,4,3,vertical,vertical,horizontal,vertical
2b,15,100361,10,28,316,21,M,NA,constant,heterogeneous,4,present,0.373404979705811,0,vertical,horizontal,1,2,green,2,4,NaN,NaN,NaN,NaN,NaN,NaN,NaN,NaN,NaN,NaN,NaN,NaN,3,4,0,5,vertical,vertical,horizontal,horizontal
2b,15,100361,10,29,317,21,M,NA,constant,heterogeneous,4,present,0.605154037475586,1,horizontal,horizontal,1,2,green,4,2,NaN,NaN,NaN,NaN,NaN,NaN,NaN,NaN,NaN,NaN,NaN,NaN,5,0,3,4,vertical,vertical,vertical,horizontal
2b,15,100361,10,30,318,21,M,NA,constant,heterogeneous,4,present,0.241250991821289,1,horizontal,horizontal,1,8,green,3,1,NaN,NaN,NaN,NaN,NaN,NaN,NaN,NaN,NaN,NaN,NaN,NaN,6,0,4,3,vertical,horizontal,horizontal,horizontal
2b,15,100361,10,31,319,21,M,NA,constant,heterogeneous,4,present,0.314434051513672,0,vertical,horizontal,1,5,green,2,1,NaN,NaN,NaN,NaN,NaN,NaN,NaN,NaN,NaN,NaN,NaN,NaN,5,4,6,0,vertical,vertical,horizontal,horizontal
2b,15,100361,10,32,320,21,M,NA,constant,heterogeneous,4,present,0.404780864715576,1,horizontal,horizontal,1,3,green,1,3,NaN,NaN,NaN,NaN,NaN,NaN,NaN,NaN,NaN,NaN,NaN,NaN,4,5,6,0,horizontal,vertical,horizontal,vertical
2b,15,100361,11,1,321,21,M,NA,constant,homogeneous,4,absent,0.611893177032471,1,vertical,vertical,1,8,green,4,NaN,619.68777079743,780.31222920257,NaN,NaN,980.31222920257,780.31222920257,980.31222920257,419.68777079743,619.68777079743,419.68777079743,619.68777079743,780.31222920257,0,0,0,4,horizontal,horizontal,vertical,vertical
2b,15,100361,11,2,322,21,M,NA,constant,homogeneous,4,absent,0.684516191482544,1,horizontal,horizontal,1,2,green,4,NaN,619.68777079743,780.31222920257,NaN,NaN,980.31222920257,780.31222920257,980.31222920257,419.68777079743,619.68777079743,419.68777079743,619.68777079743,780.31222920257,0,0,0,4,horizontal,horizontal,horizontal,horizontal
2b,15,100361,11,3,323,21,M,NA,constant,homogeneous,4,present,0.838468074798584,0,vertical,horizontal,1,8,green,1,4,980.31222920257,780.31222920257,619.68777079743,780.31222920257,980.31222920257,780.31222920257,980.31222920257,419.68777079743,619.68777079743,419.68777079743,619.68777079743,780.31222920257,4,0,0,0,vertical,horizontal,vertical,horizontal
2b,15,100361,11,4,324,21,M,NA,constant,homogeneous,4,absent,0.535521030426025,1,horizontal,horizontal,1,5,green,1,NaN,980.31222920257,780.31222920257,NaN,NaN,980.31222920257,780.31222920257,980.31222920257,419.68777079743,619.68777079743,419.68777079743,619.68777079743,780.31222920257,4,0,0,0,horizontal,vertical,vertical,vertical
2b,15,100361,11,5,325,21,M,NA,constant,homogeneous,4,present,0.754547119140625,1,vertical,vertical,1,5,green,4,2,619.68777079743,780.31222920257,980.31222920257,419.68777079743,980.31222920257,780.31222920257,980.31222920257,419.68777079743,619.68777079743,419.68777079743,619.68777079743,780.31222920257,0,0,0,4,horizontal,horizontal,vertical,vertical
2b,15,100361,11,6,326,21,M,NA,constant,homogeneous,4,absent,0.581707000732422,1,vertical,vertical,1,5,green,3,NaN,619.68777079743,419.68777079743,NaN,NaN,980.31222920257,780.31222920257,980.31222920257,419.68777079743,619.68777079743,419.68777079743,619.68777079743,780.31222920257,0,0,4,0,vertical,vertical,vertical,horizontal
2b,15,100361,11,7,327,21,M,NA,constant,homogeneous,4,absent,0.985611915588379,1,horizontal,horizontal,1,3,green,2,NaN,980.31222920257,419.68777079743,NaN,NaN,980.31222920257,780.31222920257,980.31222920257,419.68777079743,619.68777079743,419.68777079743,619.68777079743,780.31222920257,0,4,0,0,vertical,horizontal,horizontal,vertical
2b,15,100361,11,8,328,21,M,NA,constant,homogeneous,4,absent,0.477421998977661,1,vertical,vertical,1,5,green,2,NaN,980.31222920257,419.68777079743,NaN,NaN,980.31222920257,780.31222920257,980.31222920257,419.68777079743,619.68777079743,419.68777079743,619.68777079743,780.31222920257,0,4,0,0,horizontal,vertical,vertical,vertical
2b,15,100361,11,9,329,21,M,NA,constant,homogeneous,4,present,0.555494070053101,1,vertical,vertical,1,2,green,1,4,980.31222920257,780.31222920257,619.68777079743,780.31222920257,980.31222920257,780.31222920257,980.31222920257,419.68777079743,619.68777079743,419.68777079743,619.68777079743,780.31222920257,4,0,0,0,vertical,horizontal,vertical,horizontal
2b,15,100361,11,10,330,21,M,NA,constant,homogeneous,4,absent,0.622544050216675,1,vertical,vertical,1,3,green,2,NaN,980.31222920257,419.68777079743,NaN,NaN,980.31222920257,780.31222920257,980.31222920257,419.68777079743,619.68777079743,419.68777079743,619.68777079743,780.31222920257,0,4,0,0,vertical,vertical,horizontal,horizontal
2b,15,100361,11,11,331,21,M,NA,constant,homogeneous,4,absent,0.579309940338135,1,vertical,vertical,1,2,green,4,NaN,619.68777079743,780.31222920257,NaN,NaN,980.31222920257,780.31222920257,980.31222920257,419.68777079743,619.68777079743,419.68777079743,619.68777079743,780.31222920257,0,0,0,4,vertical,horizontal,horizontal,vertical
2b,15,100361,11,12,332,21,M,NA,constant,homogeneous,4,present,0.527175903320312,1,vertical,vertical,1,5,green,3,1,619.68777079743,419.68777079743,980.31222920257,780.31222920257,980.31222920257,780.31222920257,980.31222920257,419.68777079743,619.68777079743,419.68777079743,619.68777079743,780.31222920257,0,0,4,0,vertical,vertical,vertical,horizontal
2b,15,100361,11,13,333,21,M,NA,constant,homogeneous,4,present,0.509804964065552,1,horizontal,horizontal,1,3,green,1,2,980.31222920257,780.31222920257,980.31222920257,419.68777079743,980.31222920257,780.31222920257,980.31222920257,419.68777079743,619.68777079743,419.68777079743,619.68777079743,780.31222920257,4,0,0,0,horizontal,vertical,vertical,horizontal
2b,15,100361,11,14,334,21,M,NA,constant,homogeneous,4,present,0.656166076660156,1,horizontal,horizontal,1,2,green,4,3,619.68777079743,780.31222920257,619.68777079743,419.68777079743,980.31222920257,780.31222920257,980.31222920257,419.68777079743,619.68777079743,419.68777079743,619.68777079743,780.31222920257,0,0,0,4,horizontal,horizontal,horizontal,horizontal
2b,15,100361,11,15,335,21,M,NA,constant,homogeneous,4,present,0.557361841201782,1,horizontal,horizontal,1,2,green,4,1,619.68777079743,780.31222920257,980.31222920257,780.31222920257,980.31222920257,780.31222920257,980.31222920257,419.68777079743,619.68777079743,419.68777079743,619.68777079743,780.31222920257,0,0,0,4,vertical,vertical,horizontal,horizontal
2b,15,100361,11,16,336,21,M,NA,constant,homogeneous,4,present,0.51295280456543,1,horizontal,horizontal,1,2,green,4,2,619.68777079743,780.31222920257,980.31222920257,419.68777079743,980.31222920257,780.31222920257,980.31222920257,419.68777079743,619.68777079743,419.68777079743,619.68777079743,780.31222920257,0,0,0,4,vertical,vertical,vertical,horizontal
2b,15,100361,11,17,337,21,M,NA,constant,homogeneous,4,absent,0.435087919235229,0,horizontal,vertical,1,2,green,2,NaN,980.31222920257,419.68777079743,NaN,NaN,980.31222920257,780.31222920257,980.31222920257,419.68777079743,619.68777079743,419.68777079743,619.68777079743,780.31222920257,0,4,0,0,horizontal,horizontal,vertical,horizontal
2b,15,100361,11,18,338,21,M,NA,constant,homogeneous,4,absent,0.468185901641846,1,vertical,vertical,1,2,green,4,NaN,619.68777079743,780.31222920257,NaN,NaN,980.31222920257,780.31222920257,980.31222920257,419.68777079743,619.68777079743,419.68777079743,619.68777079743,780.31222920257,0,0,0,4,vertical,vertical,vertical,vertical
2b,15,100361,11,19,339,21,M,NA,constant,homogeneous,4,present,0.38149619102478,1,vertical,vertical,1,3,green,1,2,980.31222920257,780.31222920257,980.31222920257,419.68777079743,980.31222920257,780.31222920257,980.31222920257,419.68777079743,619.68777079743,419.68777079743,619.68777079743,780.31222920257,4,0,0,0,vertical,horizontal,horizontal,vertical
2b,15,100361,11,20,340,21,M,NA,constant,homogeneous,4,present,0.513453960418701,1,horizontal,horizontal,1,5,green,1,2,980.31222920257,780.31222920257,980.31222920257,419.68777079743,980.31222920257,780.31222920257,980.31222920257,419.68777079743,619.68777079743,419.68777079743,619.68777079743,780.31222920257,4,0,0,0,horizontal,horizontal,horizontal,horizontal
2b,15,100361,11,21,341,21,M,NA,constant,homogeneous,4,absent,0.371917963027954,1,horizontal,horizontal,1,5,green,4,NaN,619.68777079743,780.31222920257,NaN,NaN,980.31222920257,780.31222920257,980.31222920257,419.68777079743,619.68777079743,419.68777079743,619.68777079743,780.31222920257,0,0,0,4,vertical,horizontal,horizontal,horizontal
2b,15,100361,11,22,342,21,M,NA,constant,homogeneous,4,present,0.443345069885254,0,vertical,horizontal,1,3,green,1,3,980.31222920257,780.31222920257,619.68777079743,419.68777079743,980.31222920257,780.31222920257,980.31222920257,419.68777079743,619.68777079743,419.68777079743,619.68777079743,780.31222920257,4,0,0,0,vertical,vertical,vertical,horizontal
2b,15,100361,11,23,343,21,M,NA,constant,homogeneous,4,present,1.10853910446167,0,vertical,horizontal,1,2,green,2,4,980.31222920257,419.68777079743,619.68777079743,780.31222920257,980.31222920257,780.31222920257,980.31222920257,419.68777079743,619.68777079743,419.68777079743,619.68777079743,780.31222920257,0,4,0,0,vertical,vertical,horizontal,horizontal
2b,15,100361,11,24,344,21,M,NA,constant,homogeneous,4,present,0.430774927139282,1,vertical,vertical,1,2,green,3,4,619.68777079743,419.68777079743,619.68777079743,780.31222920257,980.31222920257,780.31222920257,980.31222920257,419.68777079743,619.68777079743,419.68777079743,619.68777079743,780.31222920257,0,0,4,0,vertical,vertical,vertical,horizontal
2b,15,100361,11,25,345,21,M,NA,constant,homogeneous,4,absent,0.507474899291992,1,vertical,vertical,1,3,green,2,NaN,980.31222920257,419.68777079743,NaN,NaN,980.31222920257,780.31222920257,980.31222920257,419.68777079743,619.68777079743,419.68777079743,619.68777079743,780.31222920257,0,4,0,0,vertical,vertical,horizontal,vertical
2b,15,100361,11,26,346,21,M,NA,constant,homogeneous,4,present,0.502117156982422,1,horizontal,horizontal,1,8,green,2,1,980.31222920257,419.68777079743,980.31222920257,780.31222920257,980.31222920257,780.31222920257,980.31222920257,419.68777079743,619.68777079743,419.68777079743,619.68777079743,780.31222920257,0,4,0,0,horizontal,horizontal,vertical,vertical
2b,15,100361,11,27,347,21,M,NA,constant,homogeneous,4,absent,0.564440965652466,0,horizontal,vertical,1,8,green,3,NaN,619.68777079743,419.68777079743,NaN,NaN,980.31222920257,780.31222920257,980.31222920257,419.68777079743,619.68777079743,419.68777079743,619.68777079743,780.31222920257,0,0,4,0,vertical,vertical,horizontal,horizontal
2b,15,100361,11,28,348,21,M,NA,constant,homogeneous,4,absent,0.396235942840576,1,vertical,vertical,1,2,green,3,NaN,619.68777079743,419.68777079743,NaN,NaN,980.31222920257,780.31222920257,980.31222920257,419.68777079743,619.68777079743,419.68777079743,619.68777079743,780.31222920257,0,0,4,0,vertical,horizontal,vertical,vertical
2b,15,100361,11,29,349,21,M,NA,constant,homogeneous,4,absent,0.532201051712036,1,horizontal,horizontal,1,2,green,3,NaN,619.68777079743,419.68777079743,NaN,NaN,980.31222920257,780.31222920257,980.31222920257,419.68777079743,619.68777079743,419.68777079743,619.68777079743,780.31222920257,0,0,4,0,vertical,horizontal,horizontal,vertical
2b,15,100361,11,30,350,21,M,NA,constant,homogeneous,4,present,0.606895923614502,1,horizontal,horizontal,1,5,green,3,1,619.68777079743,419.68777079743,980.31222920257,780.31222920257,980.31222920257,780.31222920257,980.31222920257,419.68777079743,619.68777079743,419.68777079743,619.68777079743,780.31222920257,0,0,4,0,horizontal,vertical,horizontal,horizontal
2b,15,100361,11,31,351,21,M,NA,constant,homogeneous,4,absent,0.547140836715698,1,horizontal,horizontal,1,3,green,1,NaN,980.31222920257,780.31222920257,NaN,NaN,980.31222920257,780.31222920257,980.31222920257,419.68777079743,619.68777079743,419.68777079743,619.68777079743,780.31222920257,4,0,0,0,horizontal,horizontal,horizontal,horizontal
2b,15,100361,11,32,352,21,M,NA,constant,homogeneous,4,present,0.482407808303833,1,horizontal,horizontal,1,3,green,3,2,619.68777079743,419.68777079743,980.31222920257,419.68777079743,980.31222920257,780.31222920257,980.31222920257,419.68777079743,619.68777079743,419.68777079743,619.68777079743,780.31222920257,0,0,4,0,horizontal,horizontal,horizontal,vertical
2b,15,100361,12,1,353,21,M,NA,constant,homogeneous,4,absent,0.417022943496704,1,vertical,vertical,1,5,green,1,NaN,980.31222920257,780.31222920257,NaN,NaN,980.31222920257,780.31222920257,980.31222920257,419.68777079743,619.68777079743,419.68777079743,619.68777079743,780.31222920257,4,0,0,0,vertical,vertical,vertical,horizontal
2b,15,100361,12,2,354,21,M,NA,constant,homogeneous,4,present,0.617820978164673,1,horizontal,horizontal,1,2,green,2,1,980.31222920257,419.68777079743,980.31222920257,780.31222920257,980.31222920257,780.31222920257,980.31222920257,419.68777079743,619.68777079743,419.68777079743,619.68777079743,780.31222920257,0,4,0,0,vertical,horizontal,vertical,horizontal
2b,15,100361,12,3,355,21,M,NA,constant,homogeneous,4,present,0.506323099136353,1,vertical,vertical,1,5,green,2,1,980.31222920257,419.68777079743,980.31222920257,780.31222920257,980.31222920257,780.31222920257,980.31222920257,419.68777079743,619.68777079743,419.68777079743,619.68777079743,780.31222920257,0,4,0,0,horizontal,vertical,vertical,vertical
2b,15,100361,12,4,356,21,M,NA,constant,homogeneous,4,absent,0.56477689743042,0,horizontal,vertical,1,2,green,4,NaN,619.68777079743,780.31222920257,NaN,NaN,980.31222920257,780.31222920257,980.31222920257,419.68777079743,619.68777079743,419.68777079743,619.68777079743,780.31222920257,0,0,0,4,horizontal,horizontal,horizontal,horizontal
2b,15,100361,12,5,357,21,M,NA,constant,homogeneous,4,present,0.740379095077515,1,vertical,vertical,1,3,green,1,3,980.31222920257,780.31222920257,619.68777079743,419.68777079743,980.31222920257,780.31222920257,980.31222920257,419.68777079743,619.68777079743,419.68777079743,619.68777079743,780.31222920257,4,0,0,0,vertical,vertical,horizontal,horizontal
2b,15,100361,12,6,358,21,M,NA,constant,homogeneous,4,present,0.787451028823853,1,vertical,vertical,1,8,green,2,3,980.31222920257,419.68777079743,619.68777079743,419.68777079743,980.31222920257,780.31222920257,980.31222920257,419.68777079743,619.68777079743,419.68777079743,619.68777079743,780.31222920257,0,4,0,0,vertical,vertical,vertical,horizontal
2b,15,100361,12,7,359,21,M,NA,constant,homogeneous,4,absent,0.587813854217529,1,vertical,vertical,1,5,green,4,NaN,619.68777079743,780.31222920257,NaN,NaN,980.31222920257,780.31222920257,980.31222920257,419.68777079743,619.68777079743,419.68777079743,619.68777079743,780.31222920257,0,0,0,4,vertical,horizontal,horizontal,vertical
2b,15,100361,12,8,360,21,M,NA,constant,homogeneous,4,absent,0.747767925262451,1,horizontal,horizontal,1,2,green,1,NaN,980.31222920257,780.31222920257,NaN,NaN,980.31222920257,780.31222920257,980.31222920257,419.68777079743,619.68777079743,419.68777079743,619.68777079743,780.31222920257,4,0,0,0,horizontal,horizontal,horizontal,vertical
2b,15,100361,12,9,361,21,M,NA,constant,homogeneous,4,absent,0.794639825820923,1,vertical,vertical,1,2,green,2,NaN,980.31222920257,419.68777079743,NaN,NaN,980.31222920257,780.31222920257,980.31222920257,419.68777079743,619.68777079743,419.68777079743,619.68777079743,780.31222920257,0,4,0,0,horizontal,vertical,vertical,vertical
2b,15,100361,12,10,362,21,M,NA,constant,homogeneous,4,present,0.586785078048706,1,horizontal,horizontal,1,3,green,1,4,980.31222920257,780.31222920257,619.68777079743,780.31222920257,980.31222920257,780.31222920257,980.31222920257,419.68777079743,619.68777079743,419.68777079743,619.68777079743,780.31222920257,4,0,0,0,horizontal,vertical,vertical,vertical
2b,15,100361,12,11,363,21,M,NA,constant,homogeneous,4,present,0.490943908691406,1,horizontal,horizontal,1,2,green,2,4,980.31222920257,419.68777079743,619.68777079743,780.31222920257,980.31222920257,780.31222920257,980.31222920257,419.68777079743,619.68777079743,419.68777079743,619.68777079743,780.31222920257,0,4,0,0,horizontal,horizontal,horizontal,vertical
2b,15,100361,12,12,364,21,M,NA,constant,homogeneous,4,absent,0.676810026168823,1,vertical,vertical,1,3,green,1,NaN,980.31222920257,780.31222920257,NaN,NaN,980.31222920257,780.31222920257,980.31222920257,419.68777079743,619.68777079743,419.68777079743,619.68777079743,780.31222920257,4,0,0,0,vertical,vertical,horizontal,horizontal
2b,15,100361,12,13,365,21,M,NA,constant,homogeneous,4,present,0.634714126586914,1,horizontal,horizontal,1,8,green,3,2,619.68777079743,419.68777079743,980.31222920257,419.68777079743,980.31222920257,780.31222920257,980.31222920257,419.68777079743,619.68777079743,419.68777079743,619.68777079743,780.31222920257,0,0,4,0,horizontal,vertical,horizontal,horizontal
2b,15,100361,12,14,366,21,M,NA,constant,homogeneous,4,absent,0.644000053405762,1,vertical,vertical,1,2,green,3,NaN,619.68777079743,419.68777079743,NaN,NaN,980.31222920257,780.31222920257,980.31222920257,419.68777079743,619.68777079743,419.68777079743,619.68777079743,780.31222920257,0,0,4,0,horizontal,horizontal,vertical,vertical
2b,15,100361,12,15,367,21,M,NA,constant,homogeneous,4,absent,0.548490047454834,1,horizontal,horizontal,1,5,green,4,NaN,619.68777079743,780.31222920257,NaN,NaN,980.31222920257,780.31222920257,980.31222920257,419.68777079743,619.68777079743,419.68777079743,619.68777079743,780.31222920257,0,0,0,4,horizontal,vertical,horizontal,horizontal
2b,15,100361,12,16,368,21,M,NA,constant,homogeneous,4,present,0.467864990234375,1,vertical,vertical,1,2,green,1,3,980.31222920257,780.31222920257,619.68777079743,419.68777079743,980.31222920257,780.31222920257,980.31222920257,419.68777079743,619.68777079743,419.68777079743,619.68777079743,780.31222920257,4,0,0,0,vertical,vertical,vertical,horizontal
2b,15,100361,12,17,369,21,M,NA,constant,homogeneous,4,present,0.525424957275391,1,vertical,vertical,1,3,green,3,4,619.68777079743,419.68777079743,619.68777079743,780.31222920257,980.31222920257,780.31222920257,980.31222920257,419.68777079743,619.68777079743,419.68777079743,619.68777079743,780.31222920257,0,0,4,0,vertical,horizontal,vertical,horizontal
2b,15,100361,12,18,370,21,M,NA,constant,homogeneous,4,present,0.65985894203186,1,vertical,vertical,1,2,green,4,3,619.68777079743,780.31222920257,619.68777079743,419.68777079743,980.31222920257,780.31222920257,980.31222920257,419.68777079743,619.68777079743,419.68777079743,619.68777079743,780.31222920257,0,0,0,4,horizontal,horizontal,horizontal,vertical
2b,15,100361,12,19,371,21,M,NA,constant,homogeneous,4,absent,0.629331111907959,1,horizontal,horizontal,1,3,green,4,NaN,619.68777079743,780.31222920257,NaN,NaN,980.31222920257,780.31222920257,980.31222920257,419.68777079743,619.68777079743,419.68777079743,619.68777079743,780.31222920257,0,0,0,4,vertical,vertical,vertical,horizontal
2b,15,100361,12,20,372,21,M,NA,constant,homogeneous,4,absent,0.562193870544434,1,horizontal,horizontal,1,8,green,1,NaN,980.31222920257,780.31222920257,NaN,NaN,980.31222920257,780.31222920257,980.31222920257,419.68777079743,619.68777079743,419.68777079743,619.68777079743,780.31222920257,4,0,0,0,horizontal,horizontal,vertical,vertical
2b,15,100361,12,21,373,21,M,NA,constant,homogeneous,4,present,0.517721176147461,1,horizontal,horizontal,1,5,green,1,3,980.31222920257,780.31222920257,619.68777079743,419.68777079743,980.31222920257,780.31222920257,980.31222920257,419.68777079743,619.68777079743,419.68777079743,619.68777079743,780.31222920257,4,0,0,0,horizontal,vertical,horizontal,vertical
2b,15,100361,12,22,374,21,M,NA,constant,homogeneous,4,present,0.468304872512817,1,horizontal,horizontal,1,5,green,1,2,980.31222920257,780.31222920257,980.31222920257,419.68777079743,980.31222920257,780.31222920257,980.31222920257,419.68777079743,619.68777079743,419.68777079743,619.68777079743,780.31222920257,4,0,0,0,horizontal,horizontal,vertical,horizontal
2b,15,100361,12,23,375,21,M,NA,constant,homogeneous,4,absent,0.397594928741455,0,vertical,horizontal,1,2,green,2,NaN,980.31222920257,419.68777079743,NaN,NaN,980.31222920257,780.31222920257,980.31222920257,419.68777079743,619.68777079743,419.68777079743,619.68777079743,780.31222920257,0,4,0,0,vertical,vertical,horizontal,vertical
2b,15,100361,12,24,376,21,M,NA,constant,homogeneous,4,absent,0.741898059844971,1,vertical,vertical,1,3,green,3,NaN,619.68777079743,419.68777079743,NaN,NaN,980.31222920257,780.31222920257,980.31222920257,419.68777079743,619.68777079743,419.68777079743,619.68777079743,780.31222920257,0,0,4,0,vertical,horizontal,vertical,horizontal
2b,15,100361,12,25,377,21,M,NA,constant,homogeneous,4,absent,0.629374980926514,1,horizontal,horizontal,1,3,green,3,NaN,619.68777079743,419.68777079743,NaN,NaN,980.31222920257,780.31222920257,980.31222920257,419.68777079743,619.68777079743,419.68777079743,619.68777079743,780.31222920257,0,0,4,0,vertical,vertical,horizontal,vertical
2b,15,100361,12,26,378,21,M,NA,constant,homogeneous,4,present,0.625859022140503,1,horizontal,horizontal,1,2,green,3,4,619.68777079743,419.68777079743,619.68777079743,780.31222920257,980.31222920257,780.31222920257,980.31222920257,419.68777079743,619.68777079743,419.68777079743,619.68777079743,780.31222920257,0,0,4,0,horizontal,horizontal,horizontal,vertical
2b,15,100361,12,27,379,21,M,NA,constant,homogeneous,4,absent,0.326585054397583,1,horizontal,horizontal,1,2,green,3,NaN,619.68777079743,419.68777079743,NaN,NaN,980.31222920257,780.31222920257,980.31222920257,419.68777079743,619.68777079743,419.68777079743,619.68777079743,780.31222920257,0,0,4,0,horizontal,vertical,horizontal,vertical
2b,15,100361,12,28,380,21,M,NA,constant,homogeneous,4,present,0.517065048217773,1,horizontal,horizontal,1,3,green,1,3,980.31222920257,780.31222920257,619.68777079743,419.68777079743,980.31222920257,780.31222920257,980.31222920257,419.68777079743,619.68777079743,419.68777079743,619.68777079743,780.31222920257,4,0,0,0,horizontal,vertical,vertical,horizontal
2b,15,100361,12,29,381,21,M,NA,constant,homogeneous,4,present,0.331815004348755,0,vertical,horizontal,1,2,green,4,3,619.68777079743,780.31222920257,619.68777079743,419.68777079743,980.31222920257,780.31222920257,980.31222920257,419.68777079743,619.68777079743,419.68777079743,619.68777079743,780.31222920257,0,0,0,4,horizontal,horizontal,vertical,vertical
2b,15,100361,12,30,382,21,M,NA,constant,homogeneous,4,absent,0.486648797988892,1,horizontal,horizontal,1,5,green,1,NaN,980.31222920257,780.31222920257,NaN,NaN,980.31222920257,780.31222920257,980.31222920257,419.68777079743,619.68777079743,419.68777079743,619.68777079743,780.31222920257,4,0,0,0,horizontal,vertical,vertical,horizontal
2b,15,100361,12,31,383,21,M,NA,constant,homogeneous,4,present,0.576865911483765,1,vertical,vertical,1,5,green,3,2,619.68777079743,419.68777079743,980.31222920257,419.68777079743,980.31222920257,780.31222920257,980.31222920257,419.68777079743,619.68777079743,419.68777079743,619.68777079743,780.31222920257,0,0,4,0,vertical,horizontal,vertical,vertical
2b,15,100361,12,32,384,21,M,NA,constant,homogeneous,4,absent,0.66088604927063,1,vertical,vertical,1,8,green,2,NaN,980.31222920257,419.68777079743,NaN,NaN,980.31222920257,780.31222920257,980.31222920257,419.68777079743,619.68777079743,419.68777079743,619.68777079743,780.31222920257,0,4,0,0,vertical,vertical,horizontal,vertical
2b,15,100361,13,1,385,21,M,NA,constant,homogeneous,4,present,0.233063936233521,0,vertical,horizontal,1,8,green,4,1,619.68777079743,780.31222920257,980.31222920257,780.31222920257,980.31222920257,780.31222920257,980.31222920257,419.68777079743,619.68777079743,419.68777079743,619.68777079743,780.31222920257,0,0,0,4,horizontal,vertical,horizontal,vertical
2b,15,100361,13,2,386,21,M,NA,constant,homogeneous,4,absent,0.365869998931885,1,horizontal,horizontal,1,2,green,4,NaN,619.68777079743,780.31222920257,NaN,NaN,980.31222920257,780.31222920257,980.31222920257,419.68777079743,619.68777079743,419.68777079743,619.68777079743,780.31222920257,0,0,0,4,vertical,vertical,horizontal,horizontal
2b,15,100361,13,3,387,21,M,NA,constant,homogeneous,4,absent,0.237365961074829,0,vertical,horizontal,1,2,green,2,NaN,980.31222920257,419.68777079743,NaN,NaN,980.31222920257,780.31222920257,980.31222920257,419.68777079743,619.68777079743,419.68777079743,619.68777079743,780.31222920257,0,4,0,0,vertical,vertical,horizontal,horizontal
2b,15,100361,13,4,388,21,M,NA,constant,homogeneous,4,present,0.310463190078735,1,horizontal,horizontal,1,2,green,1,2,980.31222920257,780.31222920257,980.31222920257,419.68777079743,980.31222920257,780.31222920257,980.31222920257,419.68777079743,619.68777079743,419.68777079743,619.68777079743,780.31222920257,4,0,0,0,horizontal,horizontal,horizontal,vertical
2b,15,100361,13,5,389,21,M,NA,constant,homogeneous,4,absent,0.320846080780029,0,vertical,horizontal,1,8,green,1,NaN,980.31222920257,780.31222920257,NaN,NaN,980.31222920257,780.31222920257,980.31222920257,419.68777079743,619.68777079743,419.68777079743,619.68777079743,780.31222920257,4,0,0,0,vertical,horizontal,vertical,horizontal
2b,15,100361,13,6,390,21,M,NA,constant,homogeneous,4,present,0.447439908981323,0,vertical,horizontal,1,2,green,1,2,980.31222920257,780.31222920257,980.31222920257,419.68777079743,980.31222920257,780.31222920257,980.31222920257,419.68777079743,619.68777079743,419.68777079743,619.68777079743,780.31222920257,4,0,0,0,vertical,vertical,vertical,vertical
2b,15,100361,13,7,391,21,M,NA,constant,homogeneous,4,absent,0.404664993286133,0,vertical,horizontal,1,3,green,1,NaN,980.31222920257,780.31222920257,NaN,NaN,980.31222920257,780.31222920257,980.31222920257,419.68777079743,619.68777079743,419.68777079743,619.68777079743,780.31222920257,4,0,0,0,vertical,horizontal,horizontal,horizontal
2b,15,100361,13,8,392,21,M,NA,constant,homogeneous,4,absent,0.353024959564209,0,vertical,horizontal,1,5,green,4,NaN,619.68777079743,780.31222920257,NaN,NaN,980.31222920257,780.31222920257,980.31222920257,419.68777079743,619.68777079743,419.68777079743,619.68777079743,780.31222920257,0,0,0,4,vertical,horizontal,horizontal,vertical
2b,15,100361,13,9,393,21,M,NA,constant,homogeneous,4,present,0.284414052963257,1,horizontal,horizontal,1,5,green,1,4,980.31222920257,780.31222920257,619.68777079743,780.31222920257,980.31222920257,780.31222920257,980.31222920257,419.68777079743,619.68777079743,419.68777079743,619.68777079743,780.31222920257,4,0,0,0,horizontal,horizontal,vertical,vertical
2b,15,100361,13,10,394,21,M,NA,constant,homogeneous,4,present,0.374326944351196,0,vertical,horizontal,1,2,green,4,2,619.68777079743,780.31222920257,980.31222920257,419.68777079743,980.31222920257,780.31222920257,980.31222920257,419.68777079743,619.68777079743,419.68777079743,619.68777079743,780.31222920257,0,0,0,4,horizontal,horizontal,vertical,vertical
2b,15,100361,13,11,395,21,M,NA,constant,homogeneous,4,present,0.429863929748535,0,vertical,horizontal,1,2,green,1,2,980.31222920257,780.31222920257,980.31222920257,419.68777079743,980.31222920257,780.31222920257,980.31222920257,419.68777079743,619.68777079743,419.68777079743,619.68777079743,780.31222920257,4,0,0,0,vertical,horizontal,horizontal,vertical
2b,15,100361,13,12,396,21,M,NA,constant,homogeneous,4,present,0.746701002120972,1,horizontal,horizontal,1,3,green,3,2,619.68777079743,419.68777079743,980.31222920257,419.68777079743,980.31222920257,780.31222920257,980.31222920257,419.68777079743,619.68777079743,419.68777079743,619.68777079743,780.31222920257,0,0,4,0,vertical,vertical,horizontal,vertical
2b,15,100361,13,13,397,21,M,NA,constant,homogeneous,4,present,0.457864046096802,0,vertical,horizontal,1,3,green,3,1,619.68777079743,419.68777079743,980.31222920257,780.31222920257,980.31222920257,780.31222920257,980.31222920257,419.68777079743,619.68777079743,419.68777079743,619.68777079743,780.31222920257,0,0,4,0,vertical,horizontal,vertical,vertical
2b,15,100361,13,14,398,21,M,NA,constant,homogeneous,4,absent,0.451358079910278,0,horizontal,vertical,1,5,green,4,NaN,619.68777079743,780.31222920257,NaN,NaN,980.31222920257,780.31222920257,980.31222920257,419.68777079743,619.68777079743,419.68777079743,619.68777079743,780.31222920257,0,0,0,4,horizontal,vertical,vertical,horizontal
2b,15,100361,13,15,399,21,M,NA,constant,homogeneous,4,present,1.03281116485596,1,horizontal,horizontal,1,2,green,3,4,619.68777079743,419.68777079743,619.68777079743,780.31222920257,980.31222920257,780.31222920257,980.31222920257,419.68777079743,619.68777079743,419.68777079743,619.68777079743,780.31222920257,0,0,4,0,vertical,vertical,horizontal,vertical
2b,15,100361,13,16,400,21,M,NA,constant,homogeneous,4,absent,0.965467929840088,1,horizontal,horizontal,1,2,green,2,NaN,980.31222920257,419.68777079743,NaN,NaN,980.31222920257,780.31222920257,980.31222920257,419.68777079743,619.68777079743,419.68777079743,619.68777079743,780.31222920257,0,4,0,0,horizontal,horizontal,vertical,horizontal
2b,15,100361,13,17,401,21,M,NA,constant,homogeneous,4,absent,0.621165990829468,1,vertical,vertical,1,2,green,2,NaN,980.31222920257,419.68777079743,NaN,NaN,980.31222920257,780.31222920257,980.31222920257,419.68777079743,619.68777079743,419.68777079743,619.68777079743,780.31222920257,0,4,0,0,horizontal,vertical,horizontal,horizontal
2b,15,100361,13,18,402,21,M,NA,constant,homogeneous,4,absent,0.597470998764038,1,vertical,vertical,1,3,green,3,NaN,619.68777079743,419.68777079743,NaN,NaN,980.31222920257,780.31222920257,980.31222920257,419.68777079743,619.68777079743,419.68777079743,619.68777079743,780.31222920257,0,0,4,0,horizontal,horizontal,vertical,vertical
2b,15,100361,13,19,403,21,M,NA,constant,homogeneous,4,present,0.549680948257446,1,vertical,vertical,1,5,green,2,4,980.31222920257,419.68777079743,619.68777079743,780.31222920257,980.31222920257,780.31222920257,980.31222920257,419.68777079743,619.68777079743,419.68777079743,619.68777079743,780.31222920257,0,4,0,0,horizontal,vertical,horizontal,vertical
2b,15,100361,13,20,404,21,M,NA,constant,homogeneous,4,present,0.612854957580566,1,vertical,vertical,1,3,green,4,3,619.68777079743,780.31222920257,619.68777079743,419.68777079743,980.31222920257,780.31222920257,980.31222920257,419.68777079743,619.68777079743,419.68777079743,619.68777079743,780.31222920257,0,0,0,4,vertical,horizontal,vertical,vertical
2b,15,100361,13,21,405,21,M,NA,constant,homogeneous,4,absent,0.549685001373291,1,horizontal,horizontal,1,8,green,3,NaN,619.68777079743,419.68777079743,NaN,NaN,980.31222920257,780.31222920257,980.31222920257,419.68777079743,619.68777079743,419.68777079743,619.68777079743,780.31222920257,0,0,4,0,horizontal,vertical,horizontal,horizontal
2b,15,100361,13,22,406,21,M,NA,constant,homogeneous,4,present,0.500363111495972,1,horizontal,horizontal,1,3,green,2,3,980.31222920257,419.68777079743,619.68777079743,419.68777079743,980.31222920257,780.31222920257,980.31222920257,419.68777079743,619.68777079743,419.68777079743,619.68777079743,780.31222920257,0,4,0,0,horizontal,horizontal,vertical,vertical
2b,15,100361,13,23,407,21,M,NA,constant,homogeneous,4,present,0.474644899368286,1,horizontal,horizontal,1,5,green,3,1,619.68777079743,419.68777079743,980.31222920257,780.31222920257,980.31222920257,780.31222920257,980.31222920257,419.68777079743,619.68777079743,419.68777079743,619.68777079743,780.31222920257,0,0,4,0,vertical,horizontal,horizontal,vertical
2b,15,100361,13,24,408,21,M,NA,constant,homogeneous,4,present,0.640635013580322,1,horizontal,horizontal,1,8,green,4,2,619.68777079743,780.31222920257,980.31222920257,419.68777079743,980.31222920257,780.31222920257,980.31222920257,419.68777079743,619.68777079743,419.68777079743,619.68777079743,780.31222920257,0,0,0,4,horizontal,vertical,horizontal,horizontal
2b,15,100361,13,25,409,21,M,NA,constant,homogeneous,4,present,0.529420852661133,1,horizontal,horizontal,1,2,green,1,3,980.31222920257,780.31222920257,619.68777079743,419.68777079743,980.31222920257,780.31222920257,980.31222920257,419.68777079743,619.68777079743,419.68777079743,619.68777079743,780.31222920257,4,0,0,0,horizontal,vertical,horizontal,horizontal
2b,15,100361,13,26,410,21,M,NA,constant,homogeneous,4,absent,0.500381946563721,1,vertical,vertical,1,5,green,3,NaN,619.68777079743,419.68777079743,NaN,NaN,980.31222920257,780.31222920257,980.31222920257,419.68777079743,619.68777079743,419.68777079743,619.68777079743,780.31222920257,0,0,4,0,horizontal,vertical,vertical,vertical
2b,15,100361,13,27,411,21,M,NA,constant,homogeneous,4,absent,0.402436017990112,1,vertical,vertical,1,2,green,3,NaN,619.68777079743,419.68777079743,NaN,NaN,980.31222920257,780.31222920257,980.31222920257,419.68777079743,619.68777079743,419.68777079743,619.68777079743,780.31222920257,0,0,4,0,vertical,vertical,vertical,vertical
