experiment,subject,uniqueID,block,trial,trial_cumulative,age,gender,color_cond_blocking,color_history,shape_type,set_size,distractor,rt,acc,target_orient,response_key,response_made,iti,target_color,target_item,distractor_item,target_X,target_Y,distractor_X,distractor_Y,item1_X,item1_Y,item2_X,item2_Y,item3_X,item3_Y,item4_X,item4_Y,item1_shape,item2_shape,item3_shape,item4_shape,item1_line,item2_line,item3_line,item4_line
2b,16,100360,1,1,1,21,F,NA,constant,heterogeneous,4,absent,1.44323706626892,0,horizontal,vertical,1,5,red,1,NaN,NaN,NaN,NaN,NaN,NaN,NaN,NaN,NaN,NaN,NaN,NaN,NaN,4,3,6,0,horizontal,vertical,horizontal,horizontal
2b,16,100360,1,2,2,21,F,NA,constant,heterogeneous,4,absent,NaN,0,horizontal,none,0,3,red,3,NaN,NaN,NaN,NaN,NaN,NaN,NaN,NaN,NaN,NaN,NaN,NaN,NaN,3,5,4,0,vertical,horizontal,horizontal,horizontal
2b,16,100360,1,3,3,21,F,NA,constant,heterogeneous,4,absent,0.776679992675781,1,horizontal,horizontal,1,2,red,3,NaN,NaN,NaN,NaN,NaN,NaN,NaN,NaN,NaN,NaN,NaN,NaN,NaN,5,3,4,0,vertical,horizontal,horizontal,vertical
2b,16,100360,1,4,4,21,F,NA,constant,heterogeneous,4,present,1.62031698226929,0,horizontal,vertical,1,2,red,4,3,NaN,NaN,NaN,NaN,NaN,NaN,NaN,NaN,NaN,NaN,NaN,NaN,5,3,6,4,horizontal,horizontal,horizontal,horizontal
2b,16,100360,1,5,5,21,F,NA,constant,heterogeneous,4,absent,1.25260782241821,1,vertical,vertical,1,3,red,4,NaN,NaN,NaN,NaN,NaN,NaN,NaN,NaN,NaN,NaN,NaN,NaN,NaN,0,6,3,4,horizontal,vertical,horizontal,vertical
2b,16,100360,1,6,6,21,F,NA,constant,heterogeneous,4,present,1.00208306312561,1,horizontal,horizontal,1,2,red,4,3,NaN,NaN,NaN,NaN,NaN,NaN,NaN,NaN,NaN,NaN,NaN,NaN,6,5,3,4,vertical,vertical,horizontal,horizontal
2b,16,100360,1,7,7,21,F,NA,constant,heterogeneous,4,absent,NaN,0,horizontal,none,0,3,red,1,NaN,NaN,NaN,NaN,NaN,NaN,NaN,NaN,NaN,NaN,NaN,NaN,NaN,4,0,6,5,horizontal,vertical,vertical,vertical
2b,16,100360,1,8,8,21,F,NA,constant,heterogeneous,4,present,NaN,0,vertical,none,0,3,red,3,1,NaN,NaN,NaN,NaN,NaN,NaN,NaN,NaN,NaN,NaN,NaN,NaN,5,3,4,6,vertical,vertical,vertical,vertical
2b,16,100360,1,9,9,21,F,NA,constant,heterogeneous,4,present,1.6150221824646,0,horizontal,vertical,1,2,red,4,2,NaN,NaN,NaN,NaN,NaN,NaN,NaN,NaN,NaN,NaN,NaN,NaN,3,0,6,4,vertical,vertical,vertical,horizontal
2b,16,100360,1,10,10,21,F,NA,constant,heterogeneous,4,absent,NaN,0,vertical,none,0,8,red,3,NaN,NaN,NaN,NaN,NaN,NaN,NaN,NaN,NaN,NaN,NaN,NaN,NaN,3,0,4,6,horizontal,horizontal,vertical,horizontal
2b,16,100360,1,11,11,21,F,NA,constant,heterogeneous,4,absent,1.48398685455322,1,horizontal,horizontal,1,2,red,4,NaN,NaN,NaN,NaN,NaN,NaN,NaN,NaN,NaN,NaN,NaN,NaN,NaN,3,6,5,4,horizontal,vertical,vertical,horizontal
2b,16,100360,1,12,12,21,F,NA,constant,heterogeneous,4,present,1.27783513069153,1,vertical,vertical,1,5,red,4,3,NaN,NaN,NaN,NaN,NaN,NaN,NaN,NaN,NaN,NaN,NaN,NaN,0,5,3,4,vertical,vertical,horizontal,vertical
2b,16,100360,1,13,13,21,F,NA,constant,heterogeneous,4,absent,1.5320520401001,1,horizontal,horizontal,1,8,red,2,NaN,NaN,NaN,NaN,NaN,NaN,NaN,NaN,NaN,NaN,NaN,NaN,NaN,3,4,0,5,vertical,horizontal,vertical,horizontal
2b,16,100360,1,14,14,21,F,NA,constant,heterogeneous,4,absent,1.19880318641663,1,vertical,vertical,1,5,red,3,NaN,NaN,NaN,NaN,NaN,NaN,NaN,NaN,NaN,NaN,NaN,NaN,NaN,6,3,4,5,vertical,horizontal,vertical,horizontal
2b,16,100360,1,15,15,21,F,NA,constant,heterogeneous,4,absent,0.811409950256348,1,vertical,vertical,1,5,red,3,NaN,NaN,NaN,NaN,NaN,NaN,NaN,NaN,NaN,NaN,NaN,NaN,NaN,3,5,4,6,horizontal,vertical,vertical,vertical
2b,16,100360,1,16,16,21,F,NA,constant,heterogeneous,4,absent,1.12363886833191,1,vertical,vertical,1,2,red,2,NaN,NaN,NaN,NaN,NaN,NaN,NaN,NaN,NaN,NaN,NaN,NaN,NaN,6,4,0,5,vertical,vertical,vertical,vertical
2b,16,100360,1,17,17,21,F,NA,constant,heterogeneous,4,present,0.914628028869629,1,horizontal,horizontal,1,3,red,1,4,NaN,NaN,NaN,NaN,NaN,NaN,NaN,NaN,NaN,NaN,NaN,NaN,4,0,6,3,horizontal,horizontal,horizontal,horizontal
2b,16,100360,1,18,18,21,F,NA,constant,heterogeneous,4,present,1.22919702529907,0,horizontal,vertical,1,8,red,1,3,NaN,NaN,NaN,NaN,NaN,NaN,NaN,NaN,NaN,NaN,NaN,NaN,4,3,5,0,horizontal,horizontal,vertical,horizontal
2b,16,100360,1,19,19,21,F,NA,constant,heterogeneous,4,absent,1.29793906211853,1,vertical,vertical,1,3,red,4,NaN,NaN,NaN,NaN,NaN,NaN,NaN,NaN,NaN,NaN,NaN,NaN,NaN,3,5,6,4,vertical,vertical,horizontal,vertical
2b,16,100360,1,20,20,21,F,NA,constant,heterogeneous,4,present,1.56006097793579,1,vertical,vertical,1,2,red,1,3,NaN,NaN,NaN,NaN,NaN,NaN,NaN,NaN,NaN,NaN,NaN,NaN,4,5,0,6,vertical,horizontal,horizontal,vertical
2b,16,100360,1,21,21,21,F,NA,constant,heterogeneous,4,present,0.939410924911499,1,vertical,vertical,1,2,red,4,3,NaN,NaN,NaN,NaN,NaN,NaN,NaN,NaN,NaN,NaN,NaN,NaN,5,0,6,4,horizontal,horizontal,vertical,vertical
2b,16,100360,1,22,22,21,F,NA,constant,heterogeneous,4,absent,1.02238821983337,1,vertical,vertical,1,2,red,1,NaN,NaN,NaN,NaN,NaN,NaN,NaN,NaN,NaN,NaN,NaN,NaN,NaN,4,0,5,6,vertical,vertical,vertical,vertical
2b,16,100360,1,23,23,21,F,NA,constant,heterogeneous,4,present,0.859198093414307,1,horizontal,horizontal,1,3,red,4,2,NaN,NaN,NaN,NaN,NaN,NaN,NaN,NaN,NaN,NaN,NaN,NaN,6,3,0,4,vertical,horizontal,horizontal,horizontal
2b,16,100360,1,24,24,21,F,NA,constant,heterogeneous,4,absent,1.90860319137573,1,vertical,vertical,1,2,red,2,NaN,NaN,NaN,NaN,NaN,NaN,NaN,NaN,NaN,NaN,NaN,NaN,NaN,5,4,3,0,horizontal,vertical,vertical,vertical
2b,16,100360,1,25,25,21,F,NA,constant,heterogeneous,4,absent,0.959078073501587,1,horizontal,horizontal,1,5,red,4,NaN,NaN,NaN,NaN,NaN,NaN,NaN,NaN,NaN,NaN,NaN,NaN,NaN,3,0,6,4,vertical,vertical,vertical,horizontal
2b,16,100360,1,26,26,21,F,NA,constant,heterogeneous,4,present,1.2823851108551,1,vertical,vertical,1,3,red,3,2,NaN,NaN,NaN,NaN,NaN,NaN,NaN,NaN,NaN,NaN,NaN,NaN,5,3,4,0,horizontal,vertical,vertical,horizontal
2b,16,100360,1,27,27,21,F,NA,constant,heterogeneous,4,present,1.30868601799011,1,horizontal,horizontal,1,5,red,1,2,NaN,NaN,NaN,NaN,NaN,NaN,NaN,NaN,NaN,NaN,NaN,NaN,4,3,5,0,horizontal,vertical,vertical,horizontal
2b,16,100360,1,28,28,21,F,NA,constant,heterogeneous,4,absent,1.46323895454407,1,horizontal,horizontal,1,2,red,2,NaN,NaN,NaN,NaN,NaN,NaN,NaN,NaN,NaN,NaN,NaN,NaN,NaN,0,4,5,3,horizontal,horizontal,horizontal,horizontal
2b,16,100360,1,29,29,21,F,NA,constant,heterogeneous,4,present,1.11277413368225,1,vertical,vertical,1,8,red,1,3,NaN,NaN,NaN,NaN,NaN,NaN,NaN,NaN,NaN,NaN,NaN,NaN,4,5,3,6,vertical,horizontal,horizontal,vertical
2b,16,100360,1,30,30,21,F,NA,constant,heterogeneous,4,present,0.93114709854126,1,vertical,vertical,1,5,red,1,4,NaN,NaN,NaN,NaN,NaN,NaN,NaN,NaN,NaN,NaN,NaN,NaN,4,0,3,5,vertical,vertical,vertical,vertical
2b,16,100360,1,31,31,21,F,NA,constant,heterogeneous,4,present,1.64615297317505,1,horizontal,horizontal,1,5,red,3,1,NaN,NaN,NaN,NaN,NaN,NaN,NaN,NaN,NaN,NaN,NaN,NaN,3,5,4,6,horizontal,vertical,horizontal,vertical
2b,16,100360,1,32,32,21,F,NA,constant,heterogeneous,4,present,0.963327884674072,1,vertical,vertical,1,2,red,3,2,NaN,NaN,NaN,NaN,NaN,NaN,NaN,NaN,NaN,NaN,NaN,NaN,0,6,4,5,vertical,horizontal,vertical,horizontal
2b,16,100360,2,1,33,21,F,NA,constant,heterogeneous,4,present,1.87225985527039,1,horizontal,horizontal,1,3,red,4,3,NaN,NaN,NaN,NaN,NaN,NaN,NaN,NaN,NaN,NaN,NaN,NaN,3,0,5,4,vertical,horizontal,vertical,horizontal
2b,16,100360,2,2,34,21,F,NA,constant,heterogeneous,4,present,1.42184495925903,1,vertical,vertical,1,5,red,1,2,NaN,NaN,NaN,NaN,NaN,NaN,NaN,NaN,NaN,NaN,NaN,NaN,4,5,6,3,vertical,vertical,vertical,vertical
2b,16,100360,2,3,35,21,F,NA,constant,heterogeneous,4,present,1.92282009124756,1,horizontal,horizontal,1,8,red,2,4,NaN,NaN,NaN,NaN,NaN,NaN,NaN,NaN,NaN,NaN,NaN,NaN,6,4,0,5,vertical,horizontal,horizontal,horizontal
2b,16,100360,2,4,36,21,F,NA,constant,heterogeneous,4,absent,1.38564705848694,1,horizontal,horizontal,1,2,red,4,NaN,NaN,NaN,NaN,NaN,NaN,NaN,NaN,NaN,NaN,NaN,NaN,NaN,5,0,6,4,horizontal,vertical,horizontal,horizontal
2b,16,100360,2,5,37,21,F,NA,constant,heterogeneous,4,absent,1.06945395469666,1,vertical,vertical,1,2,red,4,NaN,NaN,NaN,NaN,NaN,NaN,NaN,NaN,NaN,NaN,NaN,NaN,NaN,0,3,5,4,vertical,vertical,vertical,vertical
2b,16,100360,2,6,38,21,F,NA,constant,heterogeneous,4,present,1.48319101333618,1,horizontal,horizontal,1,5,red,2,4,NaN,NaN,NaN,NaN,NaN,NaN,NaN,NaN,NaN,NaN,NaN,NaN,3,4,5,0,vertical,horizontal,horizontal,horizontal
2b,16,100360,2,7,39,21,F,NA,constant,heterogeneous,4,present,1.5093560218811,1,vertical,vertical,1,2,red,1,4,NaN,NaN,NaN,NaN,NaN,NaN,NaN,NaN,NaN,NaN,NaN,NaN,4,6,5,0,vertical,horizontal,horizontal,vertical
2b,16,100360,2,8,40,21,F,NA,constant,heterogeneous,4,present,1.61559915542603,1,horizontal,horizontal,1,5,red,2,3,NaN,NaN,NaN,NaN,NaN,NaN,NaN,NaN,NaN,NaN,NaN,NaN,5,4,3,6,horizontal,horizontal,vertical,vertical
2b,16,100360,2,9,41,21,F,NA,constant,heterogeneous,4,present,0.984456062316895,1,horizontal,horizontal,1,2,red,3,1,NaN,NaN,NaN,NaN,NaN,NaN,NaN,NaN,NaN,NaN,NaN,NaN,0,5,4,6,vertical,vertical,horizontal,horizontal
2b,16,100360,2,10,42,21,F,NA,constant,heterogeneous,4,absent,NaN,0,horizontal,none,0,5,red,2,NaN,NaN,NaN,NaN,NaN,NaN,NaN,NaN,NaN,NaN,NaN,NaN,NaN,5,4,3,6,vertical,horizontal,vertical,vertical
2b,16,100360,2,11,43,21,F,NA,constant,heterogeneous,4,present,1.02440786361694,1,vertical,vertical,1,3,red,3,4,NaN,NaN,NaN,NaN,NaN,NaN,NaN,NaN,NaN,NaN,NaN,NaN,6,0,4,3,horizontal,vertical,vertical,horizontal
2b,16,100360,2,12,44,21,F,NA,constant,heterogeneous,4,absent,1.50149297714233,1,horizontal,horizontal,1,5,red,3,NaN,NaN,NaN,NaN,NaN,NaN,NaN,NaN,NaN,NaN,NaN,NaN,NaN,5,3,4,0,vertical,horizontal,horizontal,vertical
2b,16,100360,2,13,45,21,F,NA,constant,heterogeneous,4,absent,1.64359402656555,0,horizontal,vertical,1,2,red,2,NaN,NaN,NaN,NaN,NaN,NaN,NaN,NaN,NaN,NaN,NaN,NaN,NaN,0,4,5,3,horizontal,horizontal,horizontal,vertical
2b,16,100360,2,14,46,21,F,NA,constant,heterogeneous,4,absent,1.58061909675598,1,vertical,vertical,1,2,red,1,NaN,NaN,NaN,NaN,NaN,NaN,NaN,NaN,NaN,NaN,NaN,NaN,NaN,4,5,3,0,vertical,vertical,horizontal,vertical
2b,16,100360,2,15,47,21,F,NA,constant,heterogeneous,4,absent,1.58443903923035,1,vertical,vertical,1,3,red,1,NaN,NaN,NaN,NaN,NaN,NaN,NaN,NaN,NaN,NaN,NaN,NaN,NaN,4,0,6,3,vertical,horizontal,vertical,horizontal
2b,16,100360,2,16,48,21,F,NA,constant,heterogeneous,4,present,1.59659290313721,1,vertical,vertical,1,8,red,2,4,NaN,NaN,NaN,NaN,NaN,NaN,NaN,NaN,NaN,NaN,NaN,NaN,5,4,6,3,vertical,vertical,horizontal,horizontal
2b,16,100360,2,17,49,21,F,NA,constant,heterogeneous,4,present,0.916571140289307,1,vertical,vertical,1,5,red,3,2,NaN,NaN,NaN,NaN,NaN,NaN,NaN,NaN,NaN,NaN,NaN,NaN,3,0,4,6,vertical,horizontal,vertical,vertical
2b,16,100360,2,18,50,21,F,NA,constant,heterogeneous,4,absent,1.10740399360657,1,vertical,vertical,1,2,red,4,NaN,NaN,NaN,NaN,NaN,NaN,NaN,NaN,NaN,NaN,NaN,NaN,NaN,5,0,3,4,horizontal,vertical,horizontal,vertical
2b,16,100360,2,19,51,21,F,NA,constant,heterogeneous,4,present,1.89365792274475,1,horizontal,horizontal,1,2,red,2,3,NaN,NaN,NaN,NaN,NaN,NaN,NaN,NaN,NaN,NaN,NaN,NaN,0,4,3,5,vertical,horizontal,horizontal,horizontal
2b,16,100360,2,20,52,21,F,NA,constant,heterogeneous,4,absent,1.53200697898865,1,vertical,vertical,1,5,red,2,NaN,NaN,NaN,NaN,NaN,NaN,NaN,NaN,NaN,NaN,NaN,NaN,NaN,6,4,3,0,horizontal,vertical,vertical,horizontal
2b,16,100360,2,21,53,21,F,NA,constant,heterogeneous,4,absent,1.40703511238098,1,horizontal,horizontal,1,3,red,4,NaN,NaN,NaN,NaN,NaN,NaN,NaN,NaN,NaN,NaN,NaN,NaN,NaN,3,0,6,4,vertical,vertical,horizontal,horizontal
2b,16,100360,2,22,54,21,F,NA,constant,heterogeneous,4,absent,1.63547587394714,1,vertical,vertical,1,5,red,3,NaN,NaN,NaN,NaN,NaN,NaN,NaN,NaN,NaN,NaN,NaN,NaN,NaN,0,3,4,5,vertical,horizontal,vertical,vertical
2b,16,100360,2,23,55,21,F,NA,constant,heterogeneous,4,present,1.58833408355713,1,horizontal,horizontal,1,2,red,4,1,NaN,NaN,NaN,NaN,NaN,NaN,NaN,NaN,NaN,NaN,NaN,NaN,0,3,5,4,vertical,horizontal,vertical,horizontal
2b,16,100360,2,24,56,21,F,NA,constant,heterogeneous,4,present,1.31656098365784,1,vertical,vertical,1,2,red,4,2,NaN,NaN,NaN,NaN,NaN,NaN,NaN,NaN,NaN,NaN,NaN,NaN,0,6,5,4,horizontal,horizontal,vertical,vertical
2b,16,100360,2,25,57,21,F,NA,constant,heterogeneous,4,present,1.05914807319641,1,vertical,vertical,1,2,red,3,2,NaN,NaN,NaN,NaN,NaN,NaN,NaN,NaN,NaN,NaN,NaN,NaN,3,0,4,5,horizontal,horizontal,vertical,horizontal
2b,16,100360,2,26,58,21,F,NA,constant,heterogeneous,4,absent,1.0688099861145,1,horizontal,horizontal,1,3,red,2,NaN,NaN,NaN,NaN,NaN,NaN,NaN,NaN,NaN,NaN,NaN,NaN,NaN,3,4,5,0,horizontal,horizontal,vertical,horizontal
2b,16,100360,2,27,59,21,F,NA,constant,heterogeneous,4,absent,1.24631810188293,1,horizontal,horizontal,1,8,red,4,NaN,NaN,NaN,NaN,NaN,NaN,NaN,NaN,NaN,NaN,NaN,NaN,NaN,3,5,6,4,vertical,vertical,horizontal,horizontal
2b,16,100360,2,28,60,21,F,NA,constant,heterogeneous,4,present,0.875716209411621,1,horizontal,horizontal,1,3,red,2,3,NaN,NaN,NaN,NaN,NaN,NaN,NaN,NaN,NaN,NaN,NaN,NaN,3,4,0,5,vertical,horizontal,vertical,horizontal
2b,16,100360,2,29,61,21,F,NA,constant,heterogeneous,4,absent,0.85753607749939,1,vertical,vertical,1,8,red,2,NaN,NaN,NaN,NaN,NaN,NaN,NaN,NaN,NaN,NaN,NaN,NaN,NaN,0,4,3,5,vertical,vertical,vertical,vertical
2b,16,100360,2,30,62,21,F,NA,constant,heterogeneous,4,present,1.0830409526825,1,vertical,vertical,1,3,red,1,2,NaN,NaN,NaN,NaN,NaN,NaN,NaN,NaN,NaN,NaN,NaN,NaN,4,6,0,5,vertical,horizontal,horizontal,horizontal
2b,16,100360,2,31,63,21,F,NA,constant,heterogeneous,4,absent,1.49333095550537,1,horizontal,horizontal,1,2,red,1,NaN,NaN,NaN,NaN,NaN,NaN,NaN,NaN,NaN,NaN,NaN,NaN,NaN,4,3,0,5,horizontal,vertical,vertical,vertical
2b,16,100360,2,32,64,21,F,NA,constant,heterogeneous,4,absent,1.03507804870605,1,vertical,vertical,1,3,red,4,NaN,NaN,NaN,NaN,NaN,NaN,NaN,NaN,NaN,NaN,NaN,NaN,NaN,6,3,5,4,vertical,horizontal,horizontal,vertical
2b,16,100360,3,1,65,21,F,NA,constant,heterogeneous,4,absent,1.17377614974976,1,vertical,vertical,1,2,red,3,NaN,NaN,NaN,NaN,NaN,NaN,NaN,NaN,NaN,NaN,NaN,NaN,NaN,3,5,4,0,vertical,horizontal,vertical,horizontal
2b,16,100360,3,2,66,21,F,NA,constant,heterogeneous,4,absent,1.75752687454224,0,horizontal,vertical,1,8,red,4,NaN,NaN,NaN,NaN,NaN,NaN,NaN,NaN,NaN,NaN,NaN,NaN,NaN,6,3,5,4,horizontal,vertical,horizontal,horizontal
2b,16,100360,3,3,67,21,F,NA,constant,heterogeneous,4,absent,0.985051870346069,1,vertical,vertical,1,8,red,3,NaN,NaN,NaN,NaN,NaN,NaN,NaN,NaN,NaN,NaN,NaN,NaN,NaN,6,5,4,0,vertical,horizontal,vertical,vertical
2b,16,100360,3,4,68,21,F,NA,constant,heterogeneous,4,absent,NaN,0,horizontal,none,0,2,red,2,NaN,NaN,NaN,NaN,NaN,NaN,NaN,NaN,NaN,NaN,NaN,NaN,NaN,0,4,3,5,vertical,horizontal,vertical,vertical
2b,16,100360,3,5,69,21,F,NA,constant,heterogeneous,4,absent,1.51355385780334,1,horizontal,horizontal,1,3,red,1,NaN,NaN,NaN,NaN,NaN,NaN,NaN,NaN,NaN,NaN,NaN,NaN,NaN,4,6,5,3,horizontal,horizontal,horizontal,vertical
2b,16,100360,3,6,70,21,F,NA,constant,heterogeneous,4,present,0.995887041091919,1,vertical,vertical,1,3,red,3,2,NaN,NaN,NaN,NaN,NaN,NaN,NaN,NaN,NaN,NaN,NaN,NaN,5,3,4,0,horizontal,vertical,vertical,vertical
2b,16,100360,3,7,71,21,F,NA,constant,heterogeneous,4,absent,1.69982194900513,0,vertical,horizontal,1,5,red,2,NaN,NaN,NaN,NaN,NaN,NaN,NaN,NaN,NaN,NaN,NaN,NaN,NaN,6,4,5,3,vertical,vertical,vertical,vertical
2b,16,100360,3,8,72,21,F,NA,constant,heterogeneous,4,absent,1.83396601676941,1,horizontal,horizontal,1,2,red,1,NaN,NaN,NaN,NaN,NaN,NaN,NaN,NaN,NaN,NaN,NaN,NaN,NaN,4,0,3,6,horizontal,horizontal,vertical,horizontal
2b,16,100360,3,9,73,21,F,NA,constant,heterogeneous,4,present,1.41130709648132,0,horizontal,vertical,1,8,red,1,3,NaN,NaN,NaN,NaN,NaN,NaN,NaN,NaN,NaN,NaN,NaN,NaN,4,0,5,6,horizontal,horizontal,horizontal,vertical
2b,16,100360,3,10,74,21,F,NA,constant,heterogeneous,4,present,1.41995787620544,1,vertical,vertical,1,5,red,3,1,NaN,NaN,NaN,NaN,NaN,NaN,NaN,NaN,NaN,NaN,NaN,NaN,3,0,4,6,horizontal,horizontal,vertical,horizontal
2b,16,100360,3,11,75,21,F,NA,constant,heterogeneous,4,present,0.948561906814575,1,horizontal,horizontal,1,3,red,1,3,NaN,NaN,NaN,NaN,NaN,NaN,NaN,NaN,NaN,NaN,NaN,NaN,4,0,5,6,horizontal,vertical,horizontal,vertical
2b,16,100360,3,12,76,21,F,NA,constant,heterogeneous,4,absent,1.65202498435974,1,vertical,vertical,1,5,red,1,NaN,NaN,NaN,NaN,NaN,NaN,NaN,NaN,NaN,NaN,NaN,NaN,NaN,4,0,5,3,vertical,vertical,vertical,horizontal
2b,16,100360,3,13,77,21,F,NA,constant,heterogeneous,4,present,1.17709803581238,1,horizontal,horizontal,1,2,red,4,2,NaN,NaN,NaN,NaN,NaN,NaN,NaN,NaN,NaN,NaN,NaN,NaN,6,5,0,4,horizontal,vertical,horizontal,horizontal
2b,16,100360,3,14,78,21,F,NA,constant,heterogeneous,4,absent,NaN,0,horizontal,none,0,5,red,4,NaN,NaN,NaN,NaN,NaN,NaN,NaN,NaN,NaN,NaN,NaN,NaN,NaN,3,5,0,4,vertical,vertical,vertical,horizontal
2b,16,100360,3,15,79,21,F,NA,constant,heterogeneous,4,present,0.905313014984131,1,vertical,vertical,1,3,red,1,2,NaN,NaN,NaN,NaN,NaN,NaN,NaN,NaN,NaN,NaN,NaN,NaN,4,5,6,0,vertical,vertical,horizontal,horizontal
2b,16,100360,3,16,80,21,F,NA,constant,heterogeneous,4,present,0.827646017074585,1,horizontal,horizontal,1,5,red,4,3,NaN,NaN,NaN,NaN,NaN,NaN,NaN,NaN,NaN,NaN,NaN,NaN,5,0,3,4,vertical,horizontal,horizontal,horizontal
2b,16,100360,3,17,81,21,F,NA,constant,heterogeneous,4,present,1.21681690216064,1,horizontal,horizontal,1,5,red,2,4,NaN,NaN,NaN,NaN,NaN,NaN,NaN,NaN,NaN,NaN,NaN,NaN,5,4,6,0,horizontal,horizontal,horizontal,horizontal
2b,16,100360,3,18,82,21,F,NA,constant,heterogeneous,4,present,1.58526492118835,1,vertical,vertical,1,5,red,4,2,NaN,NaN,NaN,NaN,NaN,NaN,NaN,NaN,NaN,NaN,NaN,NaN,3,6,5,4,horizontal,vertical,vertical,vertical
2b,16,100360,3,19,83,21,F,NA,constant,heterogeneous,4,present,1.50109195709229,1,vertical,vertical,1,2,red,2,3,NaN,NaN,NaN,NaN,NaN,NaN,NaN,NaN,NaN,NaN,NaN,NaN,5,4,0,6,vertical,vertical,horizontal,vertical
2b,16,100360,3,20,84,21,F,NA,constant,heterogeneous,4,present,1.54752016067505,1,vertical,vertical,1,2,red,1,3,NaN,NaN,NaN,NaN,NaN,NaN,NaN,NaN,NaN,NaN,NaN,NaN,4,5,3,6,vertical,horizontal,horizontal,vertical
2b,16,100360,3,21,85,21,F,NA,constant,heterogeneous,4,absent,1.42682504653931,1,horizontal,horizontal,1,5,red,4,NaN,NaN,NaN,NaN,NaN,NaN,NaN,NaN,NaN,NaN,NaN,NaN,NaN,6,3,5,4,horizontal,horizontal,horizontal,horizontal
2b,16,100360,3,22,86,21,F,NA,constant,heterogeneous,4,absent,1.4795241355896,1,vertical,vertical,1,2,red,2,NaN,NaN,NaN,NaN,NaN,NaN,NaN,NaN,NaN,NaN,NaN,NaN,NaN,5,4,3,6,vertical,vertical,horizontal,vertical
2b,16,100360,3,23,87,21,F,NA,constant,heterogeneous,4,absent,1.53306198120117,1,horizontal,horizontal,1,2,red,1,NaN,NaN,NaN,NaN,NaN,NaN,NaN,NaN,NaN,NaN,NaN,NaN,NaN,4,0,5,3,horizontal,horizontal,vertical,vertical
2b,16,100360,3,24,88,21,F,NA,constant,heterogeneous,4,absent,1.13599681854248,1,horizontal,horizontal,1,3,red,4,NaN,NaN,NaN,NaN,NaN,NaN,NaN,NaN,NaN,NaN,NaN,NaN,NaN,0,5,3,4,horizontal,horizontal,vertical,horizontal
2b,16,100360,3,25,89,21,F,NA,constant,heterogeneous,4,present,1.12310695648193,1,horizontal,horizontal,1,3,red,4,2,NaN,NaN,NaN,NaN,NaN,NaN,NaN,NaN,NaN,NaN,NaN,NaN,3,5,6,4,vertical,horizontal,horizontal,horizontal
2b,16,100360,3,26,90,21,F,NA,constant,heterogeneous,4,absent,1.39386010169983,1,vertical,vertical,1,3,red,3,NaN,NaN,NaN,NaN,NaN,NaN,NaN,NaN,NaN,NaN,NaN,NaN,NaN,0,6,4,3,horizontal,horizontal,vertical,horizontal
2b,16,100360,3,27,91,21,F,NA,constant,heterogeneous,4,present,1.13001394271851,1,vertical,vertical,1,2,red,2,1,NaN,NaN,NaN,NaN,NaN,NaN,NaN,NaN,NaN,NaN,NaN,NaN,6,4,0,5,horizontal,vertical,horizontal,vertical
2b,16,100360,3,28,92,21,F,NA,constant,heterogeneous,4,absent,1.11690902709961,0,vertical,horizontal,1,3,red,3,NaN,NaN,NaN,NaN,NaN,NaN,NaN,NaN,NaN,NaN,NaN,NaN,NaN,6,3,4,0,horizontal,horizontal,vertical,vertical
2b,16,100360,3,29,93,21,F,NA,constant,heterogeneous,4,present,1.37933802604675,1,vertical,vertical,1,8,red,4,2,NaN,NaN,NaN,NaN,NaN,NaN,NaN,NaN,NaN,NaN,NaN,NaN,0,6,5,4,horizontal,vertical,vertical,vertical
2b,16,100360,3,30,94,21,F,NA,constant,heterogeneous,4,absent,0.887582063674927,1,vertical,vertical,1,2,red,3,NaN,NaN,NaN,NaN,NaN,NaN,NaN,NaN,NaN,NaN,NaN,NaN,NaN,3,0,4,5,vertical,vertical,vertical,vertical
2b,16,100360,3,31,95,21,F,NA,constant,heterogeneous,4,present,0.953332901000977,1,horizontal,horizontal,1,2,red,3,1,NaN,NaN,NaN,NaN,NaN,NaN,NaN,NaN,NaN,NaN,NaN,NaN,6,3,4,5,vertical,horizontal,horizontal,horizontal
2b,16,100360,3,32,96,21,F,NA,constant,heterogeneous,4,present,0.708785057067871,1,horizontal,horizontal,1,2,red,3,1,NaN,NaN,NaN,NaN,NaN,NaN,NaN,NaN,NaN,NaN,NaN,NaN,5,6,4,3,horizontal,horizontal,horizontal,vertical
2b,16,100360,4,1,97,21,F,NA,constant,heterogeneous,4,present,0.998042821884155,1,vertical,vertical,1,3,red,3,4,NaN,NaN,NaN,NaN,NaN,NaN,NaN,NaN,NaN,NaN,NaN,NaN,3,5,4,0,vertical,vertical,vertical,horizontal
2b,16,100360,4,2,98,21,F,NA,constant,heterogeneous,4,present,0.862089872360229,1,vertical,vertical,1,2,red,2,4,NaN,NaN,NaN,NaN,NaN,NaN,NaN,NaN,NaN,NaN,NaN,NaN,3,4,6,5,horizontal,vertical,vertical,horizontal
2b,16,100360,4,3,99,21,F,NA,constant,heterogeneous,4,absent,1.60777378082275,1,vertical,vertical,1,8,red,1,NaN,NaN,NaN,NaN,NaN,NaN,NaN,NaN,NaN,NaN,NaN,NaN,NaN,4,3,6,5,vertical,vertical,vertical,horizontal
2b,16,100360,4,4,100,21,F,NA,constant,heterogeneous,4,present,1.35616612434387,1,horizontal,horizontal,1,8,red,2,1,NaN,NaN,NaN,NaN,NaN,NaN,NaN,NaN,NaN,NaN,NaN,NaN,5,4,0,6,vertical,horizontal,vertical,vertical
2b,16,100360,4,5,101,21,F,NA,constant,heterogeneous,4,absent,0.855561971664429,1,horizontal,horizontal,1,2,red,2,NaN,NaN,NaN,NaN,NaN,NaN,NaN,NaN,NaN,NaN,NaN,NaN,NaN,3,4,6,0,horizontal,horizontal,vertical,horizontal
2b,16,100360,4,6,102,21,F,NA,constant,heterogeneous,4,present,1.38097095489502,1,vertical,vertical,1,5,red,4,2,NaN,NaN,NaN,NaN,NaN,NaN,NaN,NaN,NaN,NaN,NaN,NaN,0,6,3,4,horizontal,vertical,vertical,vertical
2b,16,100360,4,7,103,21,F,NA,constant,heterogeneous,4,absent,1.41696286201477,1,vertical,vertical,1,2,red,1,NaN,NaN,NaN,NaN,NaN,NaN,NaN,NaN,NaN,NaN,NaN,NaN,NaN,4,6,3,5,vertical,horizontal,vertical,vertical
2b,16,100360,4,8,104,21,F,NA,constant,heterogeneous,4,present,0.921615839004517,1,vertical,vertical,1,2,red,3,1,NaN,NaN,NaN,NaN,NaN,NaN,NaN,NaN,NaN,NaN,NaN,NaN,0,3,4,6,horizontal,horizontal,vertical,horizontal
2b,16,100360,4,9,105,21,F,NA,constant,heterogeneous,4,present,1.23197102546692,1,horizontal,horizontal,1,5,red,1,2,NaN,NaN,NaN,NaN,NaN,NaN,NaN,NaN,NaN,NaN,NaN,NaN,4,6,3,5,horizontal,horizontal,vertical,vertical
2b,16,100360,4,10,106,21,F,NA,constant,heterogeneous,4,present,1.52482581138611,1,vertical,vertical,1,3,red,2,3,NaN,NaN,NaN,NaN,NaN,NaN,NaN,NaN,NaN,NaN,NaN,NaN,0,4,3,5,horizontal,vertical,vertical,vertical
2b,16,100360,4,11,107,21,F,NA,constant,heterogeneous,4,absent,0.9078369140625,1,vertical,vertical,1,2,red,3,NaN,NaN,NaN,NaN,NaN,NaN,NaN,NaN,NaN,NaN,NaN,NaN,NaN,6,5,4,3,vertical,horizontal,vertical,horizontal
2b,16,100360,4,12,108,21,F,NA,constant,heterogeneous,4,absent,1.1740288734436,1,horizontal,horizontal,1,2,red,4,NaN,NaN,NaN,NaN,NaN,NaN,NaN,NaN,NaN,NaN,NaN,NaN,NaN,6,5,0,4,vertical,horizontal,horizontal,horizontal
2b,16,100360,4,13,109,21,F,NA,constant,heterogeneous,4,present,1.0533721446991,1,horizontal,horizontal,1,2,red,3,1,NaN,NaN,NaN,NaN,NaN,NaN,NaN,NaN,NaN,NaN,NaN,NaN,0,5,4,6,vertical,vertical,horizontal,horizontal
2b,16,100360,4,14,110,21,F,NA,constant,heterogeneous,4,present,0.922791957855225,1,horizontal,horizontal,1,2,red,2,3,NaN,NaN,NaN,NaN,NaN,NaN,NaN,NaN,NaN,NaN,NaN,NaN,3,4,6,5,horizontal,horizontal,horizontal,vertical
2b,16,100360,4,15,111,21,F,NA,constant,heterogeneous,4,absent,NaN,0,vertical,none,0,3,red,3,NaN,NaN,NaN,NaN,NaN,NaN,NaN,NaN,NaN,NaN,NaN,NaN,NaN,0,3,4,6,horizontal,horizontal,vertical,horizontal
2b,16,100360,4,16,112,21,F,NA,constant,heterogeneous,4,present,1.14160394668579,1,vertical,vertical,1,2,red,1,3,NaN,NaN,NaN,NaN,NaN,NaN,NaN,NaN,NaN,NaN,NaN,NaN,4,6,5,0,vertical,horizontal,horizontal,horizontal
2b,16,100360,4,17,113,21,F,NA,constant,heterogeneous,4,absent,1.0928270816803,1,horizontal,horizontal,1,2,red,3,NaN,NaN,NaN,NaN,NaN,NaN,NaN,NaN,NaN,NaN,NaN,NaN,NaN,5,3,4,0,horizontal,vertical,horizontal,horizontal
2b,16,100360,4,18,114,21,F,NA,constant,heterogeneous,4,absent,1.90700507164001,1,vertical,vertical,1,2,red,1,NaN,NaN,NaN,NaN,NaN,NaN,NaN,NaN,NaN,NaN,NaN,NaN,NaN,4,6,0,3,vertical,horizontal,vertical,horizontal
2b,16,100360,4,19,115,21,F,NA,constant,heterogeneous,4,present,1.35764694213867,1,horizontal,horizontal,1,3,red,3,1,NaN,NaN,NaN,NaN,NaN,NaN,NaN,NaN,NaN,NaN,NaN,NaN,3,6,4,0,horizontal,vertical,horizontal,vertical
2b,16,100360,4,20,116,21,F,NA,constant,heterogeneous,4,present,1.5211238861084,1,horizontal,horizontal,1,3,red,2,4,NaN,NaN,NaN,NaN,NaN,NaN,NaN,NaN,NaN,NaN,NaN,NaN,3,4,5,0,vertical,horizontal,vertical,horizontal
2b,16,100360,4,21,117,21,F,NA,constant,heterogeneous,4,absent,1.45584917068481,1,horizontal,horizontal,1,5,red,4,NaN,NaN,NaN,NaN,NaN,NaN,NaN,NaN,NaN,NaN,NaN,NaN,NaN,3,0,5,4,horizontal,vertical,vertical,horizontal
2b,16,100360,4,22,118,21,F,NA,constant,heterogeneous,4,present,1.16512989997864,1,horizontal,horizontal,1,2,red,1,2,NaN,NaN,NaN,NaN,NaN,NaN,NaN,NaN,NaN,NaN,NaN,NaN,4,3,5,0,horizontal,horizontal,horizontal,horizontal
2b,16,100360,4,23,119,21,F,NA,constant,heterogeneous,4,absent,1.32462215423584,1,vertical,vertical,1,3,red,4,NaN,NaN,NaN,NaN,NaN,NaN,NaN,NaN,NaN,NaN,NaN,NaN,NaN,5,3,0,4,vertical,horizontal,horizontal,vertical
2b,16,100360,4,24,120,21,F,NA,constant,heterogeneous,4,present,1.03560900688171,1,vertical,vertical,1,8,red,4,2,NaN,NaN,NaN,NaN,NaN,NaN,NaN,NaN,NaN,NaN,NaN,NaN,6,5,0,4,horizontal,vertical,vertical,vertical
2b,16,100360,4,25,121,21,F,NA,constant,heterogeneous,4,absent,1.67645788192749,1,horizontal,horizontal,1,5,red,3,NaN,NaN,NaN,NaN,NaN,NaN,NaN,NaN,NaN,NaN,NaN,NaN,NaN,3,5,4,0,vertical,vertical,horizontal,vertical
2b,16,100360,4,26,122,21,F,NA,constant,heterogeneous,4,absent,1.07415986061096,1,horizontal,horizontal,1,3,red,4,NaN,NaN,NaN,NaN,NaN,NaN,NaN,NaN,NaN,NaN,NaN,NaN,NaN,3,5,0,4,horizontal,horizontal,vertical,horizontal
2b,16,100360,4,27,123,21,F,NA,constant,heterogeneous,4,absent,1.78417301177979,1,horizontal,horizontal,1,8,red,2,NaN,NaN,NaN,NaN,NaN,NaN,NaN,NaN,NaN,NaN,NaN,NaN,NaN,6,4,0,5,horizontal,horizontal,vertical,vertical
2b,16,100360,4,28,124,21,F,NA,constant,heterogeneous,4,present,1.66806817054749,1,horizontal,horizontal,1,5,red,4,1,NaN,NaN,NaN,NaN,NaN,NaN,NaN,NaN,NaN,NaN,NaN,NaN,0,6,5,4,horizontal,vertical,vertical,horizontal
2b,16,100360,4,29,125,21,F,NA,constant,heterogeneous,4,absent,1.70177102088928,1,horizontal,horizontal,1,3,red,3,NaN,NaN,NaN,NaN,NaN,NaN,NaN,NaN,NaN,NaN,NaN,NaN,NaN,3,0,4,5,vertical,vertical,horizontal,vertical
2b,16,100360,4,30,126,21,F,NA,constant,heterogeneous,4,absent,1.04380106925964,1,vertical,vertical,1,5,red,4,NaN,NaN,NaN,NaN,NaN,NaN,NaN,NaN,NaN,NaN,NaN,NaN,NaN,0,5,6,4,vertical,horizontal,horizontal,vertical
2b,16,100360,4,31,127,21,F,NA,constant,heterogeneous,4,absent,1.04496693611145,1,vertical,vertical,1,5,red,4,NaN,NaN,NaN,NaN,NaN,NaN,NaN,NaN,NaN,NaN,NaN,NaN,NaN,5,0,3,4,vertical,horizontal,vertical,vertical
2b,16,100360,4,32,128,21,F,NA,constant,heterogeneous,4,present,1.20619297027588,1,vertical,vertical,1,5,red,4,2,NaN,NaN,NaN,NaN,NaN,NaN,NaN,NaN,NaN,NaN,NaN,NaN,3,5,0,4,vertical,horizontal,vertical,vertical
2b,16,100360,5,1,129,21,F,NA,constant,heterogeneous,4,present,1.21674013137817,1,vertical,vertical,1,3,red,4,3,NaN,NaN,NaN,NaN,NaN,NaN,NaN,NaN,NaN,NaN,NaN,NaN,5,0,6,4,vertical,vertical,horizontal,vertical
2b,16,100360,5,2,130,21,F,NA,constant,heterogeneous,4,absent,1.35361909866333,1,horizontal,horizontal,1,8,red,4,NaN,NaN,NaN,NaN,NaN,NaN,NaN,NaN,NaN,NaN,NaN,NaN,NaN,3,5,6,4,vertical,vertical,horizontal,horizontal
2b,16,100360,5,3,131,21,F,NA,constant,heterogeneous,4,absent,1.66908502578735,1,horizontal,horizontal,1,2,red,2,NaN,NaN,NaN,NaN,NaN,NaN,NaN,NaN,NaN,NaN,NaN,NaN,NaN,3,4,6,0,horizontal,horizontal,vertical,vertical
2b,16,100360,5,4,132,21,F,NA,constant,heterogeneous,4,present,1.57463908195496,1,vertical,vertical,1,5,red,4,3,NaN,NaN,NaN,NaN,NaN,NaN,NaN,NaN,NaN,NaN,NaN,NaN,0,3,5,4,vertical,horizontal,horizontal,vertical
2b,16,100360,5,5,133,21,F,NA,constant,heterogeneous,4,present,1.14995217323303,1,vertical,vertical,1,2,red,3,1,NaN,NaN,NaN,NaN,NaN,NaN,NaN,NaN,NaN,NaN,NaN,NaN,6,0,4,5,vertical,horizontal,vertical,vertical
2b,16,100360,5,6,134,21,F,NA,constant,heterogeneous,4,present,0.997236013412476,1,horizontal,horizontal,1,5,red,3,1,NaN,NaN,NaN,NaN,NaN,NaN,NaN,NaN,NaN,NaN,NaN,NaN,6,3,4,5,vertical,vertical,horizontal,horizontal
2b,16,100360,5,7,135,21,F,NA,constant,heterogeneous,4,present,1.3415060043335,1,vertical,vertical,1,2,red,3,2,NaN,NaN,NaN,NaN,NaN,NaN,NaN,NaN,NaN,NaN,NaN,NaN,0,3,4,5,horizontal,horizontal,vertical,horizontal
2b,16,100360,5,8,136,21,F,NA,constant,heterogeneous,4,absent,1.42072510719299,1,horizontal,horizontal,1,3,red,2,NaN,NaN,NaN,NaN,NaN,NaN,NaN,NaN,NaN,NaN,NaN,NaN,NaN,5,4,0,3,vertical,horizontal,horizontal,vertical
2b,16,100360,5,9,137,21,F,NA,constant,heterogeneous,4,absent,1.54123091697693,1,horizontal,horizontal,1,5,red,2,NaN,NaN,NaN,NaN,NaN,NaN,NaN,NaN,NaN,NaN,NaN,NaN,NaN,6,4,5,3,horizontal,horizontal,horizontal,horizontal
2b,16,100360,5,10,138,21,F,NA,constant,heterogeneous,4,absent,1.46843695640564,1,horizontal,horizontal,1,3,red,4,NaN,NaN,NaN,NaN,NaN,NaN,NaN,NaN,NaN,NaN,NaN,NaN,NaN,0,6,5,4,vertical,horizontal,horizontal,horizontal
2b,16,100360,5,11,139,21,F,NA,constant,heterogeneous,4,present,1.53415513038635,1,vertical,vertical,1,8,red,1,2,NaN,NaN,NaN,NaN,NaN,NaN,NaN,NaN,NaN,NaN,NaN,NaN,4,6,3,0,vertical,horizontal,horizontal,vertical
2b,16,100360,5,12,140,21,F,NA,constant,heterogeneous,4,absent,1.16888904571533,1,vertical,vertical,1,5,red,4,NaN,NaN,NaN,NaN,NaN,NaN,NaN,NaN,NaN,NaN,NaN,NaN,NaN,5,3,0,4,vertical,horizontal,vertical,vertical
2b,16,100360,5,13,141,21,F,NA,constant,heterogeneous,4,present,1.04874515533447,1,horizontal,horizontal,1,2,red,1,2,NaN,NaN,NaN,NaN,NaN,NaN,NaN,NaN,NaN,NaN,NaN,NaN,4,6,0,5,horizontal,vertical,horizontal,vertical
2b,16,100360,5,14,142,21,F,NA,constant,heterogeneous,4,present,1.15814185142517,1,horizontal,horizontal,1,8,red,3,1,NaN,NaN,NaN,NaN,NaN,NaN,NaN,NaN,NaN,NaN,NaN,NaN,3,5,4,6,horizontal,horizontal,horizontal,vertical
2b,16,100360,5,15,143,21,F,NA,constant,heterogeneous,4,present,1.58540081977844,1,horizontal,horizontal,1,3,red,2,3,NaN,NaN,NaN,NaN,NaN,NaN,NaN,NaN,NaN,NaN,NaN,NaN,5,4,3,0,horizontal,horizontal,vertical,horizontal
2b,16,100360,5,16,144,21,F,NA,constant,heterogeneous,4,absent,1.09331107139587,1,horizontal,horizontal,1,5,red,4,NaN,NaN,NaN,NaN,NaN,NaN,NaN,NaN,NaN,NaN,NaN,NaN,NaN,0,5,3,4,vertical,vertical,vertical,horizontal
2b,16,100360,5,17,145,21,F,NA,constant,heterogeneous,4,present,0.931984186172485,1,horizontal,horizontal,1,2,red,1,4,NaN,NaN,NaN,NaN,NaN,NaN,NaN,NaN,NaN,NaN,NaN,NaN,4,5,6,0,horizontal,vertical,horizontal,horizontal
2b,16,100360,5,18,146,21,F,NA,constant,heterogeneous,4,absent,1.07842707633972,1,vertical,vertical,1,2,red,4,NaN,NaN,NaN,NaN,NaN,NaN,NaN,NaN,NaN,NaN,NaN,NaN,NaN,6,3,5,4,vertical,vertical,vertical,vertical
2b,16,100360,5,19,147,21,F,NA,constant,heterogeneous,4,present,1.30813312530518,1,vertical,vertical,1,2,red,3,4,NaN,NaN,NaN,NaN,NaN,NaN,NaN,NaN,NaN,NaN,NaN,NaN,5,0,4,3,vertical,vertical,vertical,vertical
2b,16,100360,5,20,148,21,F,NA,constant,heterogeneous,4,absent,0.926645040512085,1,vertical,vertical,1,3,red,4,NaN,NaN,NaN,NaN,NaN,NaN,NaN,NaN,NaN,NaN,NaN,NaN,NaN,5,0,3,4,vertical,horizontal,vertical,vertical
2b,16,100360,5,21,149,21,F,NA,constant,heterogeneous,4,present,0.853361129760742,1,vertical,vertical,1,3,red,2,3,NaN,NaN,NaN,NaN,NaN,NaN,NaN,NaN,NaN,NaN,NaN,NaN,6,4,5,0,vertical,vertical,vertical,horizontal
2b,16,100360,5,22,150,21,F,NA,constant,heterogeneous,4,absent,0.859081029891968,1,vertical,vertical,1,8,red,2,NaN,NaN,NaN,NaN,NaN,NaN,NaN,NaN,NaN,NaN,NaN,NaN,NaN,3,4,5,6,horizontal,vertical,horizontal,horizontal
2b,16,100360,5,23,151,21,F,NA,constant,heterogeneous,4,present,1.21234798431396,1,vertical,vertical,1,5,red,4,3,NaN,NaN,NaN,NaN,NaN,NaN,NaN,NaN,NaN,NaN,NaN,NaN,3,0,5,4,vertical,horizontal,vertical,vertical
2b,16,100360,5,24,152,21,F,NA,constant,heterogeneous,4,absent,1.22877597808838,1,vertical,vertical,1,5,red,2,NaN,NaN,NaN,NaN,NaN,NaN,NaN,NaN,NaN,NaN,NaN,NaN,NaN,3,4,6,5,vertical,vertical,vertical,horizontal
2b,16,100360,5,25,153,21,F,NA,constant,heterogeneous,4,present,1.02602005004883,1,horizontal,horizontal,1,5,red,2,1,NaN,NaN,NaN,NaN,NaN,NaN,NaN,NaN,NaN,NaN,NaN,NaN,6,4,0,5,vertical,horizontal,vertical,horizontal
2b,16,100360,5,26,154,21,F,NA,constant,heterogeneous,4,absent,0.80669379234314,1,vertical,vertical,1,2,red,2,NaN,NaN,NaN,NaN,NaN,NaN,NaN,NaN,NaN,NaN,NaN,NaN,NaN,5,4,0,6,vertical,vertical,vertical,horizontal
2b,16,100360,5,27,155,21,F,NA,constant,heterogeneous,4,absent,1.61094212532043,1,vertical,vertical,1,2,red,1,NaN,NaN,NaN,NaN,NaN,NaN,NaN,NaN,NaN,NaN,NaN,NaN,NaN,4,0,5,3,vertical,vertical,horizontal,vertical
2b,16,100360,5,28,156,21,F,NA,constant,heterogeneous,4,absent,1.43569612503052,1,vertical,vertical,1,3,red,4,NaN,NaN,NaN,NaN,NaN,NaN,NaN,NaN,NaN,NaN,NaN,NaN,NaN,5,0,6,4,horizontal,vertical,horizontal,vertical
2b,16,100360,5,29,157,21,F,NA,constant,heterogeneous,4,present,1.26865315437317,1,horizontal,horizontal,1,2,red,2,4,NaN,NaN,NaN,NaN,NaN,NaN,NaN,NaN,NaN,NaN,NaN,NaN,5,4,6,3,vertical,horizontal,horizontal,horizontal
2b,16,100360,5,30,158,21,F,NA,constant,heterogeneous,4,absent,1.29391622543335,1,horizontal,horizontal,1,2,red,4,NaN,NaN,NaN,NaN,NaN,NaN,NaN,NaN,NaN,NaN,NaN,NaN,NaN,6,0,3,4,vertical,vertical,vertical,horizontal
2b,16,100360,5,31,159,21,F,NA,constant,heterogeneous,4,present,1.4524040222168,1,horizontal,horizontal,1,3,red,2,1,NaN,NaN,NaN,NaN,NaN,NaN,NaN,NaN,NaN,NaN,NaN,NaN,3,4,6,5,horizontal,horizontal,horizontal,horizontal
2b,16,100360,5,32,160,21,F,NA,constant,heterogeneous,4,absent,1.19362783432007,1,horizontal,horizontal,1,2,red,4,NaN,NaN,NaN,NaN,NaN,NaN,NaN,NaN,NaN,NaN,NaN,NaN,NaN,0,6,5,4,horizontal,horizontal,vertical,horizontal
2b,16,100360,6,1,161,21,F,NA,constant,heterogeneous,4,present,0.91294002532959,1,vertical,vertical,1,3,red,2,1,NaN,NaN,NaN,NaN,NaN,NaN,NaN,NaN,NaN,NaN,NaN,NaN,3,4,0,5,horizontal,vertical,vertical,horizontal
2b,16,100360,6,2,162,21,F,NA,constant,heterogeneous,4,present,1.08371591567993,1,horizontal,horizontal,1,2,red,4,2,NaN,NaN,NaN,NaN,NaN,NaN,NaN,NaN,NaN,NaN,NaN,NaN,6,0,5,4,horizontal,vertical,vertical,horizontal
2b,16,100360,6,3,163,21,F,NA,constant,heterogeneous,4,absent,1.54138994216919,1,vertical,vertical,1,8,red,1,NaN,NaN,NaN,NaN,NaN,NaN,NaN,NaN,NaN,NaN,NaN,NaN,NaN,4,0,5,3,vertical,vertical,horizontal,vertical
2b,16,100360,6,4,164,21,F,NA,constant,heterogeneous,4,absent,1.24481892585754,1,horizontal,horizontal,1,5,red,1,NaN,NaN,NaN,NaN,NaN,NaN,NaN,NaN,NaN,NaN,NaN,NaN,NaN,4,0,5,6,horizontal,vertical,horizontal,vertical
2b,16,100360,6,5,165,21,F,NA,constant,heterogeneous,4,absent,1.17381501197815,1,horizontal,horizontal,1,3,red,4,NaN,NaN,NaN,NaN,NaN,NaN,NaN,NaN,NaN,NaN,NaN,NaN,NaN,5,3,0,4,horizontal,vertical,vertical,horizontal
2b,16,100360,6,6,166,21,F,NA,constant,heterogeneous,4,absent,1.14961504936218,1,vertical,vertical,1,2,red,3,NaN,NaN,NaN,NaN,NaN,NaN,NaN,NaN,NaN,NaN,NaN,NaN,NaN,5,6,4,3,horizontal,vertical,vertical,horizontal
2b,16,100360,6,7,167,21,F,NA,constant,heterogeneous,4,present,0.980525970458984,1,horizontal,horizontal,1,5,red,4,3,NaN,NaN,NaN,NaN,NaN,NaN,NaN,NaN,NaN,NaN,NaN,NaN,6,3,5,4,vertical,vertical,vertical,horizontal
2b,16,100360,6,8,168,21,F,NA,constant,heterogeneous,4,absent,NaN,0,horizontal,none,0,2,red,1,NaN,NaN,NaN,NaN,NaN,NaN,NaN,NaN,NaN,NaN,NaN,NaN,NaN,4,6,5,3,horizontal,horizontal,horizontal,vertical
2b,16,100360,6,9,169,21,F,NA,constant,heterogeneous,4,present,0.740739107131958,1,vertical,vertical,1,3,red,1,4,NaN,NaN,NaN,NaN,NaN,NaN,NaN,NaN,NaN,NaN,NaN,NaN,4,5,6,3,vertical,horizontal,vertical,horizontal
2b,16,100360,6,10,170,21,F,NA,constant,heterogeneous,4,present,0.803874015808105,1,vertical,vertical,1,2,red,2,1,NaN,NaN,NaN,NaN,NaN,NaN,NaN,NaN,NaN,NaN,NaN,NaN,6,4,0,3,horizontal,vertical,vertical,vertical
2b,16,100360,6,11,171,21,F,NA,constant,heterogeneous,4,present,0.856528043746948,1,horizontal,horizontal,1,2,red,2,4,NaN,NaN,NaN,NaN,NaN,NaN,NaN,NaN,NaN,NaN,NaN,NaN,6,4,5,0,vertical,horizontal,vertical,vertical
2b,16,100360,6,12,172,21,F,NA,constant,heterogeneous,4,present,1.42955183982849,1,horizontal,horizontal,1,3,red,1,4,NaN,NaN,NaN,NaN,NaN,NaN,NaN,NaN,NaN,NaN,NaN,NaN,4,6,5,0,horizontal,vertical,vertical,vertical
2b,16,100360,6,13,173,21,F,NA,constant,heterogeneous,4,absent,1.19422388076782,1,vertical,vertical,1,2,red,1,NaN,NaN,NaN,NaN,NaN,NaN,NaN,NaN,NaN,NaN,NaN,NaN,NaN,4,6,5,0,vertical,vertical,vertical,horizontal
2b,16,100360,6,14,174,21,F,NA,constant,heterogeneous,4,absent,1.09043788909912,1,vertical,vertical,1,5,red,4,NaN,NaN,NaN,NaN,NaN,NaN,NaN,NaN,NaN,NaN,NaN,NaN,NaN,6,5,3,4,vertical,horizontal,horizontal,vertical
2b,16,100360,6,15,175,21,F,NA,constant,heterogeneous,4,present,0.988238096237183,1,horizontal,horizontal,1,2,red,3,2,NaN,NaN,NaN,NaN,NaN,NaN,NaN,NaN,NaN,NaN,NaN,NaN,6,3,4,0,horizontal,horizontal,horizontal,vertical
2b,16,100360,6,16,176,21,F,NA,constant,heterogeneous,4,present,1.18046808242798,1,horizontal,horizontal,1,5,red,4,2,NaN,NaN,NaN,NaN,NaN,NaN,NaN,NaN,NaN,NaN,NaN,NaN,5,6,0,4,horizontal,horizontal,horizontal,horizontal
2b,16,100360,6,17,177,21,F,NA,constant,heterogeneous,4,absent,0.720340013504028,1,horizontal,horizontal,1,3,red,4,NaN,NaN,NaN,NaN,NaN,NaN,NaN,NaN,NaN,NaN,NaN,NaN,NaN,3,6,0,4,horizontal,vertical,vertical,horizontal
2b,16,100360,6,18,178,21,F,NA,constant,heterogeneous,4,absent,1.09514212608337,1,horizontal,horizontal,1,2,red,3,NaN,NaN,NaN,NaN,NaN,NaN,NaN,NaN,NaN,NaN,NaN,NaN,NaN,5,3,4,0,vertical,horizontal,horizontal,horizontal
2b,16,100360,6,19,179,21,F,NA,constant,heterogeneous,4,absent,1.13326597213745,1,vertical,vertical,1,3,red,4,NaN,NaN,NaN,NaN,NaN,NaN,NaN,NaN,NaN,NaN,NaN,NaN,NaN,3,6,5,4,horizontal,horizontal,vertical,vertical
2b,16,100360,6,20,180,21,F,NA,constant,heterogeneous,4,absent,1.35259389877319,1,horizontal,horizontal,1,8,red,3,NaN,NaN,NaN,NaN,NaN,NaN,NaN,NaN,NaN,NaN,NaN,NaN,NaN,5,6,4,0,horizontal,vertical,horizontal,vertical
2b,16,100360,6,21,181,21,F,NA,constant,heterogeneous,4,absent,0.915732860565186,1,horizontal,horizontal,1,2,red,3,NaN,NaN,NaN,NaN,NaN,NaN,NaN,NaN,NaN,NaN,NaN,NaN,NaN,0,5,4,3,vertical,vertical,horizontal,horizontal
2b,16,100360,6,22,182,21,F,NA,constant,heterogeneous,4,present,1.18213605880737,1,vertical,vertical,1,2,red,3,1,NaN,NaN,NaN,NaN,NaN,NaN,NaN,NaN,NaN,NaN,NaN,NaN,5,6,4,3,vertical,vertical,vertical,vertical
2b,16,100360,6,23,183,21,F,NA,constant,heterogeneous,4,present,1.14650702476501,1,vertical,vertical,1,8,red,1,3,NaN,NaN,NaN,NaN,NaN,NaN,NaN,NaN,NaN,NaN,NaN,NaN,4,3,5,0,vertical,vertical,vertical,vertical
2b,16,100360,6,24,184,21,F,NA,constant,heterogeneous,4,present,1.17760801315308,1,horizontal,horizontal,1,8,red,2,4,NaN,NaN,NaN,NaN,NaN,NaN,NaN,NaN,NaN,NaN,NaN,NaN,3,4,5,0,horizontal,horizontal,vertical,vertical
2b,16,100360,6,25,185,21,F,NA,constant,heterogeneous,4,present,0.99711012840271,1,vertical,vertical,1,2,red,4,3,NaN,NaN,NaN,NaN,NaN,NaN,NaN,NaN,NaN,NaN,NaN,NaN,3,0,5,4,vertical,horizontal,horizontal,vertical
2b,16,100360,6,26,186,21,F,NA,constant,heterogeneous,4,absent,1.26142406463623,1,vertical,vertical,1,2,red,1,NaN,NaN,NaN,NaN,NaN,NaN,NaN,NaN,NaN,NaN,NaN,NaN,NaN,4,0,6,3,vertical,horizontal,vertical,horizontal
2b,16,100360,6,27,187,21,F,NA,constant,heterogeneous,4,absent,1.32689905166626,1,vertical,vertical,1,5,red,3,NaN,NaN,NaN,NaN,NaN,NaN,NaN,NaN,NaN,NaN,NaN,NaN,NaN,6,3,4,0,horizontal,vertical,vertical,horizontal
2b,16,100360,6,28,188,21,F,NA,constant,heterogeneous,4,present,0.917473077774048,1,vertical,vertical,1,5,red,4,1,NaN,NaN,NaN,NaN,NaN,NaN,NaN,NaN,NaN,NaN,NaN,NaN,6,5,3,4,vertical,vertical,horizontal,vertical
2b,16,100360,6,29,189,21,F,NA,constant,heterogeneous,4,absent,1.13223099708557,1,vertical,vertical,1,3,red,3,NaN,NaN,NaN,NaN,NaN,NaN,NaN,NaN,NaN,NaN,NaN,NaN,NaN,3,6,4,0,horizontal,vertical,vertical,horizontal
2b,16,100360,6,30,190,21,F,NA,constant,heterogeneous,4,absent,1.31110811233521,1,horizontal,horizontal,1,5,red,4,NaN,NaN,NaN,NaN,NaN,NaN,NaN,NaN,NaN,NaN,NaN,NaN,NaN,6,5,3,4,horizontal,vertical,vertical,horizontal
2b,16,100360,6,31,191,21,F,NA,constant,heterogeneous,4,present,1.02586388587952,1,horizontal,horizontal,1,3,red,4,3,NaN,NaN,NaN,NaN,NaN,NaN,NaN,NaN,NaN,NaN,NaN,NaN,6,5,0,4,vertical,horizontal,horizontal,horizontal
2b,16,100360,6,32,192,21,F,NA,constant,heterogeneous,4,present,1.00670504570007,1,vertical,vertical,1,5,red,4,3,NaN,NaN,NaN,NaN,NaN,NaN,NaN,NaN,NaN,NaN,NaN,NaN,0,5,3,4,vertical,vertical,vertical,vertical
2b,16,100360,7,1,193,21,F,NA,constant,heterogeneous,4,absent,1.48066306114197,1,horizontal,horizontal,1,8,red,4,NaN,NaN,NaN,NaN,NaN,NaN,NaN,NaN,NaN,NaN,NaN,NaN,NaN,6,0,5,4,vertical,horizontal,vertical,horizontal
2b,16,100360,7,2,194,21,F,NA,constant,heterogeneous,4,present,1.36645483970642,1,vertical,vertical,1,3,red,2,4,NaN,NaN,NaN,NaN,NaN,NaN,NaN,NaN,NaN,NaN,NaN,NaN,3,4,6,0,horizontal,vertical,horizontal,vertical
2b,16,100360,7,3,195,21,F,NA,constant,heterogeneous,4,absent,1.77419400215149,1,horizontal,horizontal,1,3,red,2,NaN,NaN,NaN,NaN,NaN,NaN,NaN,NaN,NaN,NaN,NaN,NaN,NaN,0,4,3,5,vertical,horizontal,horizontal,vertical
2b,16,100360,7,4,196,21,F,NA,constant,heterogeneous,4,absent,1.31772494316101,1,horizontal,horizontal,1,5,red,3,NaN,NaN,NaN,NaN,NaN,NaN,NaN,NaN,NaN,NaN,NaN,NaN,NaN,6,0,4,3,horizontal,vertical,horizontal,horizontal
2b,16,100360,7,5,197,21,F,NA,constant,heterogeneous,4,present,1.23690295219421,1,vertical,vertical,1,8,red,1,2,NaN,NaN,NaN,NaN,NaN,NaN,NaN,NaN,NaN,NaN,NaN,NaN,4,0,3,5,vertical,horizontal,vertical,horizontal
2b,16,100360,7,6,198,21,F,NA,constant,heterogeneous,4,present,0.957620859146118,1,vertical,vertical,1,5,red,3,1,NaN,NaN,NaN,NaN,NaN,NaN,NaN,NaN,NaN,NaN,NaN,NaN,6,0,4,3,vertical,horizontal,vertical,vertical
2b,16,100360,7,7,199,21,F,NA,constant,heterogeneous,4,present,1.19302797317505,1,horizontal,horizontal,1,8,red,4,3,NaN,NaN,NaN,NaN,NaN,NaN,NaN,NaN,NaN,NaN,NaN,NaN,5,3,0,4,horizontal,vertical,horizontal,horizontal
2b,16,100360,7,8,200,21,F,NA,constant,heterogeneous,4,absent,1.36148691177368,1,horizontal,horizontal,1,5,red,1,NaN,NaN,NaN,NaN,NaN,NaN,NaN,NaN,NaN,NaN,NaN,NaN,NaN,4,3,0,6,horizontal,vertical,vertical,vertical
2b,16,100360,7,9,201,21,F,NA,constant,heterogeneous,4,absent,1.28487205505371,1,vertical,vertical,1,5,red,2,NaN,NaN,NaN,NaN,NaN,NaN,NaN,NaN,NaN,NaN,NaN,NaN,NaN,6,4,0,5,horizontal,vertical,vertical,horizontal
2b,16,100360,7,10,202,21,F,NA,constant,heterogeneous,4,absent,1.09451699256897,1,vertical,vertical,1,2,red,3,NaN,NaN,NaN,NaN,NaN,NaN,NaN,NaN,NaN,NaN,NaN,NaN,NaN,0,3,4,5,vertical,vertical,vertical,vertical
2b,16,100360,7,11,203,21,F,NA,constant,heterogeneous,4,present,1.22065496444702,1,vertical,vertical,1,2,red,4,3,NaN,NaN,NaN,NaN,NaN,NaN,NaN,NaN,NaN,NaN,NaN,NaN,3,0,6,4,vertical,vertical,horizontal,vertical
2b,16,100360,7,12,204,21,F,NA,constant,heterogeneous,4,present,1.05328893661499,1,horizontal,horizontal,1,2,red,3,1,NaN,NaN,NaN,NaN,NaN,NaN,NaN,NaN,NaN,NaN,NaN,NaN,6,3,4,5,vertical,horizontal,horizontal,horizontal
2b,16,100360,7,13,205,21,F,NA,constant,heterogeneous,4,present,0.650882959365845,1,horizontal,horizontal,1,2,red,3,2,NaN,NaN,NaN,NaN,NaN,NaN,NaN,NaN,NaN,NaN,NaN,NaN,3,0,4,6,vertical,horizontal,horizontal,vertical
2b,16,100360,7,14,206,21,F,NA,constant,heterogeneous,4,absent,1.24825191497803,1,vertical,vertical,1,5,red,4,NaN,NaN,NaN,NaN,NaN,NaN,NaN,NaN,NaN,NaN,NaN,NaN,NaN,0,5,6,4,horizontal,vertical,vertical,vertical
2b,16,100360,7,15,207,21,F,NA,constant,heterogeneous,4,present,1.1654851436615,1,horizontal,horizontal,1,5,red,1,3,NaN,NaN,NaN,NaN,NaN,NaN,NaN,NaN,NaN,NaN,NaN,NaN,4,6,5,0,horizontal,vertical,horizontal,horizontal
2b,16,100360,7,16,208,21,F,NA,constant,heterogeneous,4,absent,0.981048107147217,1,horizontal,horizontal,1,2,red,4,NaN,NaN,NaN,NaN,NaN,NaN,NaN,NaN,NaN,NaN,NaN,NaN,NaN,6,5,3,4,vertical,horizontal,vertical,horizontal
2b,16,100360,7,17,209,21,F,NA,constant,heterogeneous,4,absent,0.688706159591675,1,horizontal,horizontal,1,3,red,4,NaN,NaN,NaN,NaN,NaN,NaN,NaN,NaN,NaN,NaN,NaN,NaN,NaN,0,6,3,4,vertical,vertical,horizontal,horizontal
2b,16,100360,7,18,210,21,F,NA,constant,heterogeneous,4,present,0.659029006958008,1,horizontal,horizontal,1,3,red,4,2,NaN,NaN,NaN,NaN,NaN,NaN,NaN,NaN,NaN,NaN,NaN,NaN,0,3,5,4,horizontal,vertical,vertical,horizontal
2b,16,100360,7,19,211,21,F,NA,constant,heterogeneous,4,present,0.636314153671265,1,horizontal,horizontal,1,3,red,4,2,NaN,NaN,NaN,NaN,NaN,NaN,NaN,NaN,NaN,NaN,NaN,NaN,3,5,6,4,horizontal,horizontal,vertical,horizontal
2b,16,100360,7,20,212,21,F,NA,constant,heterogeneous,4,present,1.15763807296753,1,vertical,vertical,1,2,red,3,2,NaN,NaN,NaN,NaN,NaN,NaN,NaN,NaN,NaN,NaN,NaN,NaN,0,3,4,6,horizontal,vertical,vertical,horizontal
2b,16,100360,7,21,213,21,F,NA,constant,heterogeneous,4,absent,0.688663005828857,1,vertical,vertical,1,3,red,3,NaN,NaN,NaN,NaN,NaN,NaN,NaN,NaN,NaN,NaN,NaN,NaN,NaN,3,0,4,5,vertical,vertical,vertical,vertical
2b,16,100360,7,22,214,21,F,NA,constant,heterogeneous,4,absent,1.73869800567627,1,vertical,vertical,1,2,red,1,NaN,NaN,NaN,NaN,NaN,NaN,NaN,NaN,NaN,NaN,NaN,NaN,NaN,4,5,6,3,vertical,horizontal,vertical,horizontal
2b,16,100360,7,23,215,21,F,NA,constant,heterogeneous,4,absent,1.49368810653687,1,vertical,vertical,1,3,red,4,NaN,NaN,NaN,NaN,NaN,NaN,NaN,NaN,NaN,NaN,NaN,NaN,NaN,0,6,3,4,vertical,vertical,vertical,vertical
2b,16,100360,7,24,216,21,F,NA,constant,heterogeneous,4,present,1.13983702659607,1,vertical,vertical,1,2,red,4,1,NaN,NaN,NaN,NaN,NaN,NaN,NaN,NaN,NaN,NaN,NaN,NaN,0,3,5,4,vertical,vertical,horizontal,vertical
2b,16,100360,7,25,217,21,F,NA,constant,heterogeneous,4,absent,1.41102313995361,1,horizontal,horizontal,1,2,red,1,NaN,NaN,NaN,NaN,NaN,NaN,NaN,NaN,NaN,NaN,NaN,NaN,NaN,4,5,0,6,horizontal,horizontal,vertical,horizontal
2b,16,100360,7,26,218,21,F,NA,constant,heterogeneous,4,present,1.05988788604736,1,horizontal,horizontal,1,2,red,4,1,NaN,NaN,NaN,NaN,NaN,NaN,NaN,NaN,NaN,NaN,NaN,NaN,0,3,5,4,horizontal,vertical,horizontal,horizontal
2b,16,100360,7,27,219,21,F,NA,constant,heterogeneous,4,present,1.00515103340149,1,vertical,vertical,1,5,red,3,4,NaN,NaN,NaN,NaN,NaN,NaN,NaN,NaN,NaN,NaN,NaN,NaN,6,0,4,5,vertical,horizontal,vertical,vertical
2b,16,100360,7,28,220,21,F,NA,constant,heterogeneous,4,present,0.977246046066284,1,vertical,vertical,1,3,red,4,2,NaN,NaN,NaN,NaN,NaN,NaN,NaN,NaN,NaN,NaN,NaN,NaN,6,0,3,4,vertical,vertical,vertical,vertical
2b,16,100360,7,29,221,21,F,NA,constant,heterogeneous,4,absent,1.34953379631042,1,vertical,vertical,1,8,red,3,NaN,NaN,NaN,NaN,NaN,NaN,NaN,NaN,NaN,NaN,NaN,NaN,NaN,3,5,4,6,vertical,vertical,vertical,horizontal
2b,16,100360,7,30,222,21,F,NA,constant,heterogeneous,4,present,1.33239817619324,1,horizontal,horizontal,1,5,red,1,3,NaN,NaN,NaN,NaN,NaN,NaN,NaN,NaN,NaN,NaN,NaN,NaN,4,6,0,5,horizontal,horizontal,vertical,vertical
2b,16,100360,7,31,223,21,F,NA,constant,heterogeneous,4,absent,NaN,0,horizontal,none,0,2,red,2,NaN,NaN,NaN,NaN,NaN,NaN,NaN,NaN,NaN,NaN,NaN,NaN,NaN,6,4,3,0,horizontal,horizontal,horizontal,vertical
2b,16,100360,7,32,224,21,F,NA,constant,heterogeneous,4,absent,1.91593194007874,1,vertical,vertical,1,2,red,1,NaN,NaN,NaN,NaN,NaN,NaN,NaN,NaN,NaN,NaN,NaN,NaN,NaN,4,5,6,0,vertical,horizontal,vertical,horizontal
2b,16,100360,8,1,225,21,F,NA,constant,heterogeneous,4,absent,1.23962593078613,0,horizontal,vertical,1,2,red,1,NaN,NaN,NaN,NaN,NaN,NaN,NaN,NaN,NaN,NaN,NaN,NaN,NaN,4,6,3,5,horizontal,horizontal,vertical,vertical
2b,16,100360,8,2,226,21,F,NA,constant,heterogeneous,4,present,1.46456909179688,1,vertical,vertical,1,2,red,3,1,NaN,NaN,NaN,NaN,NaN,NaN,NaN,NaN,NaN,NaN,NaN,NaN,0,3,4,5,horizontal,horizontal,vertical,horizontal
2b,16,100360,8,3,227,21,F,NA,constant,heterogeneous,4,present,1.14609313011169,1,horizontal,horizontal,1,8,red,4,2,NaN,NaN,NaN,NaN,NaN,NaN,NaN,NaN,NaN,NaN,NaN,NaN,0,6,3,4,horizontal,vertical,horizontal,horizontal
2b,16,100360,8,4,228,21,F,NA,constant,heterogeneous,4,absent,0.985406875610352,1,vertical,vertical,1,2,red,2,NaN,NaN,NaN,NaN,NaN,NaN,NaN,NaN,NaN,NaN,NaN,NaN,NaN,0,4,6,5,vertical,vertical,horizontal,horizontal
2b,16,100360,8,5,229,21,F,NA,constant,heterogeneous,4,present,1.23730206489563,1,vertical,vertical,1,5,red,1,4,NaN,NaN,NaN,NaN,NaN,NaN,NaN,NaN,NaN,NaN,NaN,NaN,4,5,6,3,vertical,horizontal,vertical,vertical
2b,16,100360,8,6,230,21,F,NA,constant,heterogeneous,4,present,0.950191974639893,1,vertical,vertical,1,2,red,3,2,NaN,NaN,NaN,NaN,NaN,NaN,NaN,NaN,NaN,NaN,NaN,NaN,3,0,4,6,horizontal,horizontal,vertical,horizontal
2b,16,100360,8,7,231,21,F,NA,constant,heterogeneous,4,absent,0.821390151977539,1,vertical,vertical,1,5,red,4,NaN,NaN,NaN,NaN,NaN,NaN,NaN,NaN,NaN,NaN,NaN,NaN,NaN,0,5,3,4,horizontal,horizontal,vertical,vertical
2b,16,100360,8,8,232,21,F,NA,constant,heterogeneous,4,absent,0.926105976104736,1,vertical,vertical,1,8,red,2,NaN,NaN,NaN,NaN,NaN,NaN,NaN,NaN,NaN,NaN,NaN,NaN,NaN,3,4,5,6,vertical,vertical,horizontal,horizontal
2b,16,100360,8,9,233,21,F,NA,constant,heterogeneous,4,present,0.788998126983643,1,horizontal,horizontal,1,5,red,2,1,NaN,NaN,NaN,NaN,NaN,NaN,NaN,NaN,NaN,NaN,NaN,NaN,6,4,0,3,horizontal,horizontal,horizontal,vertical
2b,16,100360,8,10,234,21,F,NA,constant,heterogeneous,4,present,1.33325910568237,1,horizontal,horizontal,1,2,red,3,2,NaN,NaN,NaN,NaN,NaN,NaN,NaN,NaN,NaN,NaN,NaN,NaN,3,5,4,0,vertical,horizontal,horizontal,vertical
2b,16,100360,8,11,235,21,F,NA,constant,heterogeneous,4,present,1.67197012901306,1,vertical,vertical,1,8,red,2,3,NaN,NaN,NaN,NaN,NaN,NaN,NaN,NaN,NaN,NaN,NaN,NaN,5,4,6,0,vertical,vertical,horizontal,horizontal
2b,16,100360,8,12,236,21,F,NA,constant,heterogeneous,4,absent,0.829746007919312,1,horizontal,horizontal,1,5,red,2,NaN,NaN,NaN,NaN,NaN,NaN,NaN,NaN,NaN,NaN,NaN,NaN,NaN,6,4,0,5,vertical,horizontal,horizontal,horizontal
2b,16,100360,8,13,237,21,F,NA,constant,heterogeneous,4,absent,0.890751123428345,1,vertical,vertical,1,2,red,3,NaN,NaN,NaN,NaN,NaN,NaN,NaN,NaN,NaN,NaN,NaN,NaN,NaN,5,0,4,6,vertical,vertical,vertical,horizontal
2b,16,100360,8,14,238,21,F,NA,constant,heterogeneous,4,present,0.820751905441284,1,horizontal,horizontal,1,5,red,2,1,NaN,NaN,NaN,NaN,NaN,NaN,NaN,NaN,NaN,NaN,NaN,NaN,6,4,5,3,vertical,horizontal,vertical,horizontal
2b,16,100360,8,15,239,21,F,NA,constant,heterogeneous,4,present,0.693213939666748,1,horizontal,horizontal,1,3,red,3,4,NaN,NaN,NaN,NaN,NaN,NaN,NaN,NaN,NaN,NaN,NaN,NaN,3,5,4,6,vertical,horizontal,horizontal,horizontal
2b,16,100360,8,16,240,21,F,NA,constant,heterogeneous,4,absent,1.43545007705688,1,horizontal,horizontal,1,3,red,1,NaN,NaN,NaN,NaN,NaN,NaN,NaN,NaN,NaN,NaN,NaN,NaN,NaN,4,3,6,5,horizontal,vertical,vertical,horizontal
2b,16,100360,8,17,241,21,F,NA,constant,heterogeneous,4,absent,0.812384128570557,1,vertical,vertical,1,3,red,2,NaN,NaN,NaN,NaN,NaN,NaN,NaN,NaN,NaN,NaN,NaN,NaN,NaN,0,4,3,5,horizontal,vertical,vertical,horizontal
2b,16,100360,8,18,242,21,F,NA,constant,heterogeneous,4,present,0.604898929595947,1,vertical,vertical,1,3,red,2,4,NaN,NaN,NaN,NaN,NaN,NaN,NaN,NaN,NaN,NaN,NaN,NaN,3,4,5,0,horizontal,vertical,horizontal,horizontal
2b,16,100360,8,19,243,21,F,NA,constant,heterogeneous,4,absent,1.01744103431702,1,horizontal,horizontal,1,8,red,3,NaN,NaN,NaN,NaN,NaN,NaN,NaN,NaN,NaN,NaN,NaN,NaN,NaN,5,0,4,3,vertical,vertical,horizontal,vertical
2b,16,100360,8,20,244,21,F,NA,constant,heterogeneous,4,present,0.969928979873657,1,horizontal,horizontal,1,2,red,3,1,NaN,NaN,NaN,NaN,NaN,NaN,NaN,NaN,NaN,NaN,NaN,NaN,0,5,4,3,horizontal,vertical,horizontal,horizontal
2b,16,100360,8,21,245,21,F,NA,constant,heterogeneous,4,present,0.689699172973633,1,horizontal,horizontal,1,3,red,2,3,NaN,NaN,NaN,NaN,NaN,NaN,NaN,NaN,NaN,NaN,NaN,NaN,6,4,5,0,horizontal,horizontal,horizontal,vertical
2b,16,100360,8,22,246,21,F,NA,constant,heterogeneous,4,absent,0.675746917724609,1,horizontal,horizontal,1,5,red,3,NaN,NaN,NaN,NaN,NaN,NaN,NaN,NaN,NaN,NaN,NaN,NaN,NaN,3,5,4,6,vertical,horizontal,horizontal,horizontal
2b,16,100360,8,23,247,21,F,NA,constant,heterogeneous,4,absent,0.841785192489624,0,horizontal,vertical,1,2,red,4,NaN,NaN,NaN,NaN,NaN,NaN,NaN,NaN,NaN,NaN,NaN,NaN,NaN,5,3,0,4,horizontal,vertical,vertical,horizontal
2b,16,100360,8,24,248,21,F,NA,constant,heterogeneous,4,absent,1.65059304237366,0,horizontal,vertical,1,3,red,3,NaN,NaN,NaN,NaN,NaN,NaN,NaN,NaN,NaN,NaN,NaN,NaN,NaN,0,6,4,3,horizontal,horizontal,horizontal,horizontal
2b,16,100360,8,25,249,21,F,NA,constant,heterogeneous,4,present,0.91958212852478,1,horizontal,horizontal,1,2,red,2,4,NaN,NaN,NaN,NaN,NaN,NaN,NaN,NaN,NaN,NaN,NaN,NaN,0,4,6,5,vertical,horizontal,horizontal,vertical
2b,16,100360,8,26,250,21,F,NA,constant,heterogeneous,4,absent,1.17420721054077,1,vertical,vertical,1,2,red,4,NaN,NaN,NaN,NaN,NaN,NaN,NaN,NaN,NaN,NaN,NaN,NaN,NaN,0,6,3,4,horizontal,vertical,vertical,vertical
2b,16,100360,8,27,251,21,F,NA,constant,heterogeneous,4,present,0.997907876968384,1,vertical,vertical,1,5,red,4,1,NaN,NaN,NaN,NaN,NaN,NaN,NaN,NaN,NaN,NaN,NaN,NaN,0,5,6,4,horizontal,horizontal,vertical,vertical
2b,16,100360,8,28,252,21,F,NA,constant,heterogeneous,4,present,0.742058038711548,1,vertical,vertical,1,3,red,3,4,NaN,NaN,NaN,NaN,NaN,NaN,NaN,NaN,NaN,NaN,NaN,NaN,5,6,4,0,vertical,vertical,vertical,horizontal
2b,16,100360,8,29,253,21,F,NA,constant,heterogeneous,4,absent,1.4371919631958,1,vertical,vertical,1,3,red,1,NaN,NaN,NaN,NaN,NaN,NaN,NaN,NaN,NaN,NaN,NaN,NaN,NaN,4,6,5,3,vertical,vertical,horizontal,horizontal
2b,16,100360,8,30,254,21,F,NA,constant,heterogeneous,4,absent,1.56631183624268,1,vertical,vertical,1,5,red,1,NaN,NaN,NaN,NaN,NaN,NaN,NaN,NaN,NaN,NaN,NaN,NaN,NaN,4,3,6,5,vertical,horizontal,vertical,vertical
2b,16,100360,8,31,255,21,F,NA,constant,heterogeneous,4,absent,1.65441107749939,1,horizontal,horizontal,1,2,red,4,NaN,NaN,NaN,NaN,NaN,NaN,NaN,NaN,NaN,NaN,NaN,NaN,NaN,0,3,5,4,vertical,vertical,vertical,horizontal
2b,16,100360,8,32,256,21,F,NA,constant,heterogeneous,4,present,1.56366896629333,1,vertical,vertical,1,2,red,2,4,NaN,NaN,NaN,NaN,NaN,NaN,NaN,NaN,NaN,NaN,NaN,NaN,0,4,6,5,horizontal,vertical,horizontal,vertical
2b,16,100360,9,1,257,21,F,NA,constant,heterogeneous,4,present,0.896322965621948,1,vertical,vertical,1,5,red,3,4,NaN,NaN,NaN,NaN,NaN,NaN,NaN,NaN,NaN,NaN,NaN,NaN,0,5,4,6,vertical,vertical,vertical,horizontal
2b,16,100360,9,2,258,21,F,NA,constant,heterogeneous,4,absent,0.854773044586182,1,horizontal,horizontal,1,2,red,3,NaN,NaN,NaN,NaN,NaN,NaN,NaN,NaN,NaN,NaN,NaN,NaN,NaN,5,0,4,3,vertical,vertical,horizontal,horizontal
2b,16,100360,9,3,259,21,F,NA,constant,heterogeneous,4,absent,0.899919986724854,1,horizontal,horizontal,1,3,red,2,NaN,NaN,NaN,NaN,NaN,NaN,NaN,NaN,NaN,NaN,NaN,NaN,NaN,0,4,3,5,vertical,horizontal,horizontal,horizontal
2b,16,100360,9,4,260,21,F,NA,constant,heterogeneous,4,present,1.00224590301514,1,vertical,vertical,1,2,red,1,4,NaN,NaN,NaN,NaN,NaN,NaN,NaN,NaN,NaN,NaN,NaN,NaN,4,3,5,6,vertical,horizontal,vertical,horizontal
2b,16,100360,9,5,261,21,F,NA,constant,heterogeneous,4,absent,0.966547966003418,1,horizontal,horizontal,1,2,red,2,NaN,NaN,NaN,NaN,NaN,NaN,NaN,NaN,NaN,NaN,NaN,NaN,NaN,5,4,3,0,horizontal,horizontal,vertical,horizontal
2b,16,100360,9,6,262,21,F,NA,constant,heterogeneous,4,present,1.1659049987793,1,horizontal,horizontal,1,3,red,1,4,NaN,NaN,NaN,NaN,NaN,NaN,NaN,NaN,NaN,NaN,NaN,NaN,4,6,0,5,horizontal,horizontal,horizontal,vertical
2b,16,100360,9,7,263,21,F,NA,constant,heterogeneous,4,absent,1.42975878715515,1,horizontal,horizontal,1,2,red,4,NaN,NaN,NaN,NaN,NaN,NaN,NaN,NaN,NaN,NaN,NaN,NaN,NaN,0,5,6,4,horizontal,vertical,vertical,horizontal
2b,16,100360,9,8,264,21,F,NA,constant,heterogeneous,4,present,0.690454959869385,1,vertical,vertical,1,3,red,2,3,NaN,NaN,NaN,NaN,NaN,NaN,NaN,NaN,NaN,NaN,NaN,NaN,6,4,3,5,horizontal,vertical,horizontal,horizontal
2b,16,100360,9,9,265,21,F,NA,constant,heterogeneous,4,present,0.972594976425171,1,vertical,vertical,1,8,red,3,4,NaN,NaN,NaN,NaN,NaN,NaN,NaN,NaN,NaN,NaN,NaN,NaN,0,3,4,5,vertical,horizontal,vertical,horizontal
2b,16,100360,9,10,266,21,F,NA,constant,heterogeneous,4,present,1.48416113853455,1,horizontal,horizontal,1,2,red,1,2,NaN,NaN,NaN,NaN,NaN,NaN,NaN,NaN,NaN,NaN,NaN,NaN,4,6,3,5,horizontal,vertical,horizontal,horizontal
2b,16,100360,9,11,267,21,F,NA,constant,heterogeneous,4,present,1.27814507484436,1,horizontal,horizontal,1,5,red,3,2,NaN,NaN,NaN,NaN,NaN,NaN,NaN,NaN,NaN,NaN,NaN,NaN,3,6,4,0,vertical,vertical,horizontal,vertical
2b,16,100360,9,12,268,21,F,NA,constant,heterogeneous,4,absent,0.835913896560669,1,vertical,vertical,1,5,red,3,NaN,NaN,NaN,NaN,NaN,NaN,NaN,NaN,NaN,NaN,NaN,NaN,NaN,3,5,4,6,vertical,vertical,vertical,vertical
2b,16,100360,9,13,269,21,F,NA,constant,heterogeneous,4,absent,1.4771831035614,1,vertical,vertical,1,2,red,2,NaN,NaN,NaN,NaN,NaN,NaN,NaN,NaN,NaN,NaN,NaN,NaN,NaN,3,4,0,5,vertical,vertical,horizontal,vertical
2b,16,100360,9,14,270,21,F,NA,constant,heterogeneous,4,absent,1.35473895072937,1,horizontal,horizontal,1,8,red,4,NaN,NaN,NaN,NaN,NaN,NaN,NaN,NaN,NaN,NaN,NaN,NaN,NaN,3,5,6,4,vertical,horizontal,horizontal,horizontal
2b,16,100360,9,15,271,21,F,NA,constant,heterogeneous,4,absent,1.27835702896118,1,vertical,vertical,1,3,red,1,NaN,NaN,NaN,NaN,NaN,NaN,NaN,NaN,NaN,NaN,NaN,NaN,NaN,4,3,0,5,vertical,vertical,vertical,horizontal
2b,16,100360,9,16,272,21,F,NA,constant,heterogeneous,4,absent,1.02814507484436,1,vertical,vertical,1,5,red,3,NaN,NaN,NaN,NaN,NaN,NaN,NaN,NaN,NaN,NaN,NaN,NaN,NaN,5,0,4,6,horizontal,vertical,vertical,vertical
2b,16,100360,9,17,273,21,F,NA,constant,heterogeneous,4,absent,0.961054086685181,1,horizontal,horizontal,1,3,red,2,NaN,NaN,NaN,NaN,NaN,NaN,NaN,NaN,NaN,NaN,NaN,NaN,NaN,6,4,5,3,horizontal,horizontal,vertical,vertical
2b,16,100360,9,18,274,21,F,NA,constant,heterogeneous,4,absent,1.53264498710632,1,vertical,vertical,1,2,red,4,NaN,NaN,NaN,NaN,NaN,NaN,NaN,NaN,NaN,NaN,NaN,NaN,NaN,3,6,0,4,horizontal,horizontal,vertical,vertical
2b,16,100360,9,19,275,21,F,NA,constant,heterogeneous,4,present,0.815447092056274,1,horizontal,horizontal,1,5,red,4,1,NaN,NaN,NaN,NaN,NaN,NaN,NaN,NaN,NaN,NaN,NaN,NaN,0,6,5,4,vertical,horizontal,vertical,horizontal
2b,16,100360,9,20,276,21,F,NA,constant,heterogeneous,4,absent,1.18413591384888,1,horizontal,horizontal,1,5,red,1,NaN,NaN,NaN,NaN,NaN,NaN,NaN,NaN,NaN,NaN,NaN,NaN,NaN,4,6,0,5,horizontal,vertical,horizontal,horizontal
2b,16,100360,9,21,277,21,F,NA,constant,heterogeneous,4,absent,0.915822982788086,1,horizontal,horizontal,1,5,red,4,NaN,NaN,NaN,NaN,NaN,NaN,NaN,NaN,NaN,NaN,NaN,NaN,NaN,6,0,3,4,horizontal,vertical,horizontal,horizontal
2b,16,100360,9,22,278,21,F,NA,constant,heterogeneous,4,absent,1.39051604270935,1,vertical,vertical,1,8,red,1,NaN,NaN,NaN,NaN,NaN,NaN,NaN,NaN,NaN,NaN,NaN,NaN,NaN,4,0,3,6,vertical,horizontal,vertical,horizontal
2b,16,100360,9,23,279,21,F,NA,constant,heterogeneous,4,present,1.19040989875793,1,horizontal,horizontal,1,2,red,2,1,NaN,NaN,NaN,NaN,NaN,NaN,NaN,NaN,NaN,NaN,NaN,NaN,3,4,6,5,horizontal,horizontal,horizontal,vertical
2b,16,100360,9,24,280,21,F,NA,constant,heterogeneous,4,present,1.03064799308777,0,vertical,horizontal,1,2,red,1,2,NaN,NaN,NaN,NaN,NaN,NaN,NaN,NaN,NaN,NaN,NaN,NaN,4,3,5,6,vertical,vertical,vertical,horizontal
2b,16,100360,9,25,281,21,F,NA,constant,heterogeneous,4,present,0.859308958053589,1,horizontal,horizontal,1,2,red,4,2,NaN,NaN,NaN,NaN,NaN,NaN,NaN,NaN,NaN,NaN,NaN,NaN,5,6,3,4,horizontal,vertical,horizontal,horizontal
2b,16,100360,9,26,282,21,F,NA,constant,heterogeneous,4,absent,0.957207918167114,1,vertical,vertical,1,3,red,1,NaN,NaN,NaN,NaN,NaN,NaN,NaN,NaN,NaN,NaN,NaN,NaN,NaN,4,6,0,5,vertical,vertical,horizontal,vertical
2b,16,100360,9,27,283,21,F,NA,constant,heterogeneous,4,present,1.07217311859131,1,vertical,vertical,1,5,red,3,4,NaN,NaN,NaN,NaN,NaN,NaN,NaN,NaN,NaN,NaN,NaN,NaN,3,0,4,6,horizontal,horizontal,vertical,horizontal
2b,16,100360,9,28,284,21,F,NA,constant,heterogeneous,4,present,0.838124990463257,1,vertical,vertical,1,2,red,2,3,NaN,NaN,NaN,NaN,NaN,NaN,NaN,NaN,NaN,NaN,NaN,NaN,0,4,3,5,vertical,vertical,horizontal,vertical
2b,16,100360,9,29,285,21,F,NA,constant,heterogeneous,4,absent,0.791079044342041,1,vertical,vertical,1,2,red,1,NaN,NaN,NaN,NaN,NaN,NaN,NaN,NaN,NaN,NaN,NaN,NaN,NaN,4,0,5,3,vertical,horizontal,horizontal,horizontal
2b,16,100360,9,30,286,21,F,NA,constant,heterogeneous,4,present,1.13517785072327,1,horizontal,horizontal,1,3,red,1,2,NaN,NaN,NaN,NaN,NaN,NaN,NaN,NaN,NaN,NaN,NaN,NaN,4,5,0,6,horizontal,horizontal,horizontal,horizontal
2b,16,100360,9,31,287,21,F,NA,constant,heterogeneous,4,present,1.19417810440063,1,horizontal,horizontal,1,8,red,4,3,NaN,NaN,NaN,NaN,NaN,NaN,NaN,NaN,NaN,NaN,NaN,NaN,5,0,3,4,vertical,horizontal,vertical,horizontal
2b,16,100360,9,32,288,21,F,NA,constant,heterogeneous,4,present,0.802143096923828,1,vertical,vertical,1,3,red,4,1,NaN,NaN,NaN,NaN,NaN,NaN,NaN,NaN,NaN,NaN,NaN,NaN,5,0,6,4,vertical,horizontal,vertical,vertical
2b,16,100360,10,1,289,21,F,NA,constant,heterogeneous,4,absent,1.04505085945129,1,horizontal,horizontal,1,2,red,3,NaN,NaN,NaN,NaN,NaN,NaN,NaN,NaN,NaN,NaN,NaN,NaN,NaN,0,6,4,5,horizontal,vertical,horizontal,vertical
2b,16,100360,10,2,290,21,F,NA,constant,heterogeneous,4,present,1.05415010452271,1,horizontal,horizontal,1,2,red,1,3,NaN,NaN,NaN,NaN,NaN,NaN,NaN,NaN,NaN,NaN,NaN,NaN,4,6,5,0,horizontal,horizontal,vertical,horizontal
2b,16,100360,10,3,291,21,F,NA,constant,heterogeneous,4,absent,1.01134991645813,1,vertical,vertical,1,3,red,4,NaN,NaN,NaN,NaN,NaN,NaN,NaN,NaN,NaN,NaN,NaN,NaN,NaN,3,0,6,4,vertical,horizontal,vertical,vertical
2b,16,100360,10,4,292,21,F,NA,constant,heterogeneous,4,absent,0.659938812255859,1,vertical,vertical,1,8,red,1,NaN,NaN,NaN,NaN,NaN,NaN,NaN,NaN,NaN,NaN,NaN,NaN,NaN,4,3,0,5,vertical,vertical,horizontal,vertical
2b,16,100360,10,5,293,21,F,NA,constant,heterogeneous,4,absent,1.02938485145569,1,vertical,vertical,1,2,red,2,NaN,NaN,NaN,NaN,NaN,NaN,NaN,NaN,NaN,NaN,NaN,NaN,NaN,6,4,5,3,horizontal,vertical,horizontal,horizontal
2b,16,100360,10,6,294,21,F,NA,constant,heterogeneous,4,absent,1.01057386398315,1,horizontal,horizontal,1,3,red,2,NaN,NaN,NaN,NaN,NaN,NaN,NaN,NaN,NaN,NaN,NaN,NaN,NaN,5,4,0,6,vertical,horizontal,vertical,horizontal
2b,16,100360,10,7,295,21,F,NA,constant,heterogeneous,4,present,0.954880952835083,1,horizontal,horizontal,1,5,red,1,2,NaN,NaN,NaN,NaN,NaN,NaN,NaN,NaN,NaN,NaN,NaN,NaN,4,6,0,5,horizontal,vertical,horizontal,horizontal
2b,16,100360,10,8,296,21,F,NA,constant,heterogeneous,4,absent,1.67842316627502,1,horizontal,horizontal,1,3,red,3,NaN,NaN,NaN,NaN,NaN,NaN,NaN,NaN,NaN,NaN,NaN,NaN,NaN,5,0,4,6,horizontal,horizontal,horizontal,vertical
2b,16,100360,10,9,297,21,F,NA,constant,heterogeneous,4,present,0.948134183883667,1,horizontal,horizontal,1,5,red,1,2,NaN,NaN,NaN,NaN,NaN,NaN,NaN,NaN,NaN,NaN,NaN,NaN,4,0,5,6,horizontal,vertical,horizontal,horizontal
2b,16,100360,10,10,298,21,F,NA,constant,heterogeneous,4,absent,1.53942799568176,1,horizontal,horizontal,1,5,red,4,NaN,NaN,NaN,NaN,NaN,NaN,NaN,NaN,NaN,NaN,NaN,NaN,NaN,5,3,0,4,horizontal,vertical,vertical,horizontal
2b,16,100360,10,11,299,21,F,NA,constant,heterogeneous,4,present,0.942193031311035,1,vertical,vertical,1,2,red,1,4,NaN,NaN,NaN,NaN,NaN,NaN,NaN,NaN,NaN,NaN,NaN,NaN,4,5,0,6,vertical,horizontal,vertical,vertical
2b,16,100360,10,12,300,21,F,NA,constant,heterogeneous,4,absent,1.09335494041443,1,horizontal,horizontal,1,2,red,2,NaN,NaN,NaN,NaN,NaN,NaN,NaN,NaN,NaN,NaN,NaN,NaN,NaN,5,4,6,0,horizontal,horizontal,horizontal,horizontal
2b,16,100360,10,13,301,21,F,NA,constant,heterogeneous,4,absent,0.843743085861206,1,vertical,vertical,1,5,red,1,NaN,NaN,NaN,NaN,NaN,NaN,NaN,NaN,NaN,NaN,NaN,NaN,NaN,4,6,5,0,vertical,horizontal,horizontal,horizontal
2b,16,100360,10,14,302,21,F,NA,constant,heterogeneous,4,present,1.06876707077026,1,horizontal,horizontal,1,2,red,3,1,NaN,NaN,NaN,NaN,NaN,NaN,NaN,NaN,NaN,NaN,NaN,NaN,3,5,4,6,horizontal,vertical,horizontal,horizontal
2b,16,100360,10,15,303,21,F,NA,constant,heterogeneous,4,present,0.94254207611084,1,vertical,vertical,1,2,red,2,1,NaN,NaN,NaN,NaN,NaN,NaN,NaN,NaN,NaN,NaN,NaN,NaN,5,4,0,6,horizontal,vertical,horizontal,vertical
2b,16,100360,10,16,304,21,F,NA,constant,heterogeneous,4,absent,1.06953501701355,1,horizontal,horizontal,1,5,red,3,NaN,NaN,NaN,NaN,NaN,NaN,NaN,NaN,NaN,NaN,NaN,NaN,NaN,6,5,4,0,vertical,vertical,horizontal,vertical
2b,16,100360,10,17,305,21,F,NA,constant,heterogeneous,4,absent,1.24311494827271,1,vertical,vertical,1,3,red,4,NaN,NaN,NaN,NaN,NaN,NaN,NaN,NaN,NaN,NaN,NaN,NaN,NaN,6,5,3,4,vertical,horizontal,vertical,vertical
2b,16,100360,10,18,306,21,F,NA,constant,heterogeneous,4,present,1.54025316238403,1,vertical,vertical,1,3,red,1,3,NaN,NaN,NaN,NaN,NaN,NaN,NaN,NaN,NaN,NaN,NaN,NaN,4,5,6,3,vertical,vertical,vertical,vertical
2b,16,100360,10,19,307,21,F,NA,constant,heterogeneous,4,present,1.42737317085266,1,horizontal,horizontal,1,2,red,2,1,NaN,NaN,NaN,NaN,NaN,NaN,NaN,NaN,NaN,NaN,NaN,NaN,5,4,6,3,vertical,horizontal,horizontal,vertical
2b,16,100360,10,20,308,21,F,NA,constant,heterogeneous,4,present,0.776196002960205,1,vertical,vertical,1,2,red,3,2,NaN,NaN,NaN,NaN,NaN,NaN,NaN,NaN,NaN,NaN,NaN,NaN,5,0,4,3,horizontal,horizontal,vertical,horizontal
2b,16,100360,10,21,309,21,F,NA,constant,heterogeneous,4,absent,0.763848066329956,1,vertical,vertical,1,5,red,1,NaN,NaN,NaN,NaN,NaN,NaN,NaN,NaN,NaN,NaN,NaN,NaN,NaN,4,5,6,3,vertical,horizontal,vertical,horizontal
2b,16,100360,10,22,310,21,F,NA,constant,heterogeneous,4,present,1.36359405517578,1,horizontal,horizontal,1,8,red,3,1,NaN,NaN,NaN,NaN,NaN,NaN,NaN,NaN,NaN,NaN,NaN,NaN,5,6,4,3,horizontal,horizontal,horizontal,horizontal
2b,16,100360,10,23,311,21,F,NA,constant,heterogeneous,4,absent,1.39546012878418,1,horizontal,horizontal,1,2,red,4,NaN,NaN,NaN,NaN,NaN,NaN,NaN,NaN,NaN,NaN,NaN,NaN,NaN,6,3,0,4,vertical,vertical,vertical,horizontal
2b,16,100360,10,24,312,21,F,NA,constant,heterogeneous,4,present,0.715517997741699,1,vertical,vertical,1,8,red,2,1,NaN,NaN,NaN,NaN,NaN,NaN,NaN,NaN,NaN,NaN,NaN,NaN,3,4,6,5,horizontal,vertical,vertical,horizontal
2b,16,100360,10,25,313,21,F,NA,constant,heterogeneous,4,absent,0.750343084335327,1,horizontal,horizontal,1,8,red,4,NaN,NaN,NaN,NaN,NaN,NaN,NaN,NaN,NaN,NaN,NaN,NaN,NaN,6,3,0,4,horizontal,horizontal,horizontal,horizontal
2b,16,100360,10,26,314,21,F,NA,constant,heterogeneous,4,present,0.981202125549316,1,vertical,vertical,1,5,red,3,1,NaN,NaN,NaN,NaN,NaN,NaN,NaN,NaN,NaN,NaN,NaN,NaN,5,3,4,0,vertical,vertical,vertical,vertical
2b,16,100360,10,27,315,21,F,NA,constant,heterogeneous,4,absent,1.25711393356323,1,vertical,vertical,1,2,red,1,NaN,NaN,NaN,NaN,NaN,NaN,NaN,NaN,NaN,NaN,NaN,NaN,NaN,4,5,6,0,vertical,horizontal,horizontal,vertical
2b,16,100360,10,28,316,21,F,NA,constant,heterogeneous,4,present,1.01482200622559,1,horizontal,horizontal,1,3,red,4,1,NaN,NaN,NaN,NaN,NaN,NaN,NaN,NaN,NaN,NaN,NaN,NaN,6,0,3,4,vertical,vertical,horizontal,horizontal
2b,16,100360,10,29,317,21,F,NA,constant,heterogeneous,4,absent,0.727391958236694,1,vertical,vertical,1,2,red,2,NaN,NaN,NaN,NaN,NaN,NaN,NaN,NaN,NaN,NaN,NaN,NaN,NaN,6,4,5,3,vertical,vertical,vertical,horizontal
2b,16,100360,10,30,318,21,F,NA,constant,heterogeneous,4,present,1.07808685302734,1,horizontal,horizontal,1,3,red,1,4,NaN,NaN,NaN,NaN,NaN,NaN,NaN,NaN,NaN,NaN,NaN,NaN,4,3,6,5,horizontal,horizontal,horizontal,vertical
2b,16,100360,10,31,319,21,F,NA,constant,heterogeneous,4,present,0.691567182540894,1,vertical,vertical,1,3,red,3,4,NaN,NaN,NaN,NaN,NaN,NaN,NaN,NaN,NaN,NaN,NaN,NaN,3,0,4,5,horizontal,vertical,vertical,horizontal
2b,16,100360,10,32,320,21,F,NA,constant,heterogeneous,4,present,1.06142497062683,1,vertical,vertical,1,5,red,2,3,NaN,NaN,NaN,NaN,NaN,NaN,NaN,NaN,NaN,NaN,NaN,NaN,5,4,6,0,horizontal,vertical,vertical,vertical
2b,16,100360,11,1,321,21,F,NA,constant,homogeneous,4,absent,1.14218711853027,1,vertical,vertical,1,5,red,1,NaN,980.31222920257,780.31222920257,NaN,NaN,980.31222920257,780.31222920257,980.31222920257,419.68777079743,619.68777079743,419.68777079743,619.68777079743,780.31222920257,4,0,0,0,vertical,horizontal,horizontal,vertical
2b,16,100360,11,2,322,21,F,NA,constant,homogeneous,4,present,0.629573822021484,1,vertical,vertical,1,2,red,3,1,619.68777079743,419.68777079743,980.31222920257,780.31222920257,980.31222920257,780.31222920257,980.31222920257,419.68777079743,619.68777079743,419.68777079743,619.68777079743,780.31222920257,0,0,4,0,horizontal,vertical,vertical,vertical
2b,16,100360,11,3,323,21,F,NA,constant,homogeneous,4,absent,1.25002598762512,1,vertical,vertical,1,3,red,4,NaN,619.68777079743,780.31222920257,NaN,NaN,980.31222920257,780.31222920257,980.31222920257,419.68777079743,619.68777079743,419.68777079743,619.68777079743,780.31222920257,0,0,0,4,horizontal,vertical,vertical,vertical
2b,16,100360,11,4,324,21,F,NA,constant,homogeneous,4,present,0.551337957382202,1,vertical,vertical,1,8,red,2,4,980.31222920257,419.68777079743,619.68777079743,780.31222920257,980.31222920257,780.31222920257,980.31222920257,419.68777079743,619.68777079743,419.68777079743,619.68777079743,780.31222920257,0,4,0,0,vertical,vertical,horizontal,horizontal
2b,16,100360,11,5,325,21,F,NA,constant,homogeneous,4,absent,0.987185001373291,1,horizontal,horizontal,1,5,red,3,NaN,619.68777079743,419.68777079743,NaN,NaN,980.31222920257,780.31222920257,980.31222920257,419.68777079743,619.68777079743,419.68777079743,619.68777079743,780.31222920257,0,0,4,0,vertical,vertical,horizontal,vertical
2b,16,100360,11,6,326,21,F,NA,constant,homogeneous,4,absent,0.899085998535156,1,horizontal,horizontal,1,2,red,1,NaN,980.31222920257,780.31222920257,NaN,NaN,980.31222920257,780.31222920257,980.31222920257,419.68777079743,619.68777079743,419.68777079743,619.68777079743,780.31222920257,4,0,0,0,horizontal,vertical,vertical,horizontal
2b,16,100360,11,7,327,21,F,NA,constant,homogeneous,4,absent,0.561408996582031,1,horizontal,horizontal,1,5,red,2,NaN,980.31222920257,419.68777079743,NaN,NaN,980.31222920257,780.31222920257,980.31222920257,419.68777079743,619.68777079743,419.68777079743,619.68777079743,780.31222920257,0,4,0,0,horizontal,horizontal,horizontal,vertical
2b,16,100360,11,8,328,21,F,NA,constant,homogeneous,4,present,0.772696971893311,1,vertical,vertical,1,5,red,2,4,980.31222920257,419.68777079743,619.68777079743,780.31222920257,980.31222920257,780.31222920257,980.31222920257,419.68777079743,619.68777079743,419.68777079743,619.68777079743,780.31222920257,0,4,0,0,horizontal,vertical,vertical,horizontal
2b,16,100360,11,9,329,21,F,NA,constant,homogeneous,4,absent,0.908159971237183,0,horizontal,vertical,1,2,red,1,NaN,980.31222920257,780.31222920257,NaN,NaN,980.31222920257,780.31222920257,980.31222920257,419.68777079743,619.68777079743,419.68777079743,619.68777079743,780.31222920257,4,0,0,0,horizontal,vertical,vertical,vertical
2b,16,100360,11,10,330,21,F,NA,constant,homogeneous,4,absent,0.998646974563599,1,vertical,vertical,1,2,red,4,NaN,619.68777079743,780.31222920257,NaN,NaN,980.31222920257,780.31222920257,980.31222920257,419.68777079743,619.68777079743,419.68777079743,619.68777079743,780.31222920257,0,0,0,4,vertical,vertical,vertical,vertical
2b,16,100360,11,11,331,21,F,NA,constant,homogeneous,4,absent,0.922903060913086,1,horizontal,horizontal,1,3,red,1,NaN,980.31222920257,780.31222920257,NaN,NaN,980.31222920257,780.31222920257,980.31222920257,419.68777079743,619.68777079743,419.68777079743,619.68777079743,780.31222920257,4,0,0,0,horizontal,vertical,vertical,horizontal
2b,16,100360,11,12,332,21,F,NA,constant,homogeneous,4,absent,0.682092905044556,1,vertical,vertical,1,8,red,1,NaN,980.31222920257,780.31222920257,NaN,NaN,980.31222920257,780.31222920257,980.31222920257,419.68777079743,619.68777079743,419.68777079743,619.68777079743,780.31222920257,4,0,0,0,vertical,horizontal,horizontal,horizontal
2b,16,100360,11,13,333,21,F,NA,constant,homogeneous,4,absent,0.988058090209961,1,horizontal,horizontal,1,3,red,4,NaN,619.68777079743,780.31222920257,NaN,NaN,980.31222920257,780.31222920257,980.31222920257,419.68777079743,619.68777079743,419.68777079743,619.68777079743,780.31222920257,0,0,0,4,horizontal,horizontal,vertical,horizontal
2b,16,100360,11,14,334,21,F,NA,constant,homogeneous,4,present,0.668210029602051,1,horizontal,horizontal,1,5,red,4,3,619.68777079743,780.31222920257,619.68777079743,419.68777079743,980.31222920257,780.31222920257,980.31222920257,419.68777079743,619.68777079743,419.68777079743,619.68777079743,780.31222920257,0,0,0,4,vertical,horizontal,vertical,horizontal
2b,16,100360,11,15,335,21,F,NA,constant,homogeneous,4,present,0.661652088165283,1,horizontal,horizontal,1,3,red,3,4,619.68777079743,419.68777079743,619.68777079743,780.31222920257,980.31222920257,780.31222920257,980.31222920257,419.68777079743,619.68777079743,419.68777079743,619.68777079743,780.31222920257,0,0,4,0,horizontal,horizontal,horizontal,horizontal
2b,16,100360,11,16,336,21,F,NA,constant,homogeneous,4,absent,1.14288687705994,1,horizontal,horizontal,1,8,red,3,NaN,619.68777079743,419.68777079743,NaN,NaN,980.31222920257,780.31222920257,980.31222920257,419.68777079743,619.68777079743,419.68777079743,619.68777079743,780.31222920257,0,0,4,0,vertical,horizontal,horizontal,vertical
2b,16,100360,11,17,337,21,F,NA,constant,homogeneous,4,present,0.878281116485596,1,vertical,vertical,1,5,red,3,4,619.68777079743,419.68777079743,619.68777079743,780.31222920257,980.31222920257,780.31222920257,980.31222920257,419.68777079743,619.68777079743,419.68777079743,619.68777079743,780.31222920257,0,0,4,0,vertical,vertical,vertical,horizontal
2b,16,100360,11,18,338,21,F,NA,constant,homogeneous,4,absent,0.644333124160767,1,vertical,vertical,1,5,red,3,NaN,619.68777079743,419.68777079743,NaN,NaN,980.31222920257,780.31222920257,980.31222920257,419.68777079743,619.68777079743,419.68777079743,619.68777079743,780.31222920257,0,0,4,0,horizontal,horizontal,vertical,vertical
2b,16,100360,11,19,339,21,F,NA,constant,homogeneous,4,present,1.212975025177,1,horizontal,horizontal,1,2,red,1,3,980.31222920257,780.31222920257,619.68777079743,419.68777079743,980.31222920257,780.31222920257,980.31222920257,419.68777079743,619.68777079743,419.68777079743,619.68777079743,780.31222920257,4,0,0,0,horizontal,horizontal,vertical,horizontal
2b,16,100360,11,20,340,21,F,NA,constant,homogeneous,4,present,1.10204601287842,0,vertical,horizontal,1,3,red,4,2,619.68777079743,780.31222920257,980.31222920257,419.68777079743,980.31222920257,780.31222920257,980.31222920257,419.68777079743,619.68777079743,419.68777079743,619.68777079743,780.31222920257,0,0,0,4,horizontal,horizontal,vertical,vertical
2b,16,100360,11,21,341,21,F,NA,constant,homogeneous,4,present,0.771963834762573,1,horizontal,horizontal,1,5,red,1,2,980.31222920257,780.31222920257,980.31222920257,419.68777079743,980.31222920257,780.31222920257,980.31222920257,419.68777079743,619.68777079743,419.68777079743,619.68777079743,780.31222920257,4,0,0,0,horizontal,horizontal,horizontal,horizontal
2b,16,100360,11,22,342,21,F,NA,constant,homogeneous,4,present,1.15575695037842,1,horizontal,horizontal,1,3,red,3,1,619.68777079743,419.68777079743,980.31222920257,780.31222920257,980.31222920257,780.31222920257,980.31222920257,419.68777079743,619.68777079743,419.68777079743,619.68777079743,780.31222920257,0,0,4,0,horizontal,vertical,horizontal,vertical
2b,16,100360,11,23,343,21,F,NA,constant,homogeneous,4,absent,0.806921005249023,1,vertical,vertical,1,2,red,3,NaN,619.68777079743,419.68777079743,NaN,NaN,980.31222920257,780.31222920257,980.31222920257,419.68777079743,619.68777079743,419.68777079743,619.68777079743,780.31222920257,0,0,4,0,horizontal,vertical,vertical,horizontal
2b,16,100360,11,24,344,21,F,NA,constant,homogeneous,4,present,0.971704006195068,1,vertical,vertical,1,2,red,4,2,619.68777079743,780.31222920257,980.31222920257,419.68777079743,980.31222920257,780.31222920257,980.31222920257,419.68777079743,619.68777079743,419.68777079743,619.68777079743,780.31222920257,0,0,0,4,vertical,vertical,vertical,vertical
2b,16,100360,11,25,345,21,F,NA,constant,homogeneous,4,present,0.939025163650513,1,horizontal,horizontal,1,2,red,3,2,619.68777079743,419.68777079743,980.31222920257,419.68777079743,980.31222920257,780.31222920257,980.31222920257,419.68777079743,619.68777079743,419.68777079743,619.68777079743,780.31222920257,0,0,4,0,horizontal,vertical,horizontal,vertical
2b,16,100360,11,26,346,21,F,NA,constant,homogeneous,4,absent,1.03820490837097,1,horizontal,horizontal,1,2,red,4,NaN,619.68777079743,780.31222920257,NaN,NaN,980.31222920257,780.31222920257,980.31222920257,419.68777079743,619.68777079743,419.68777079743,619.68777079743,780.31222920257,0,0,0,4,vertical,horizontal,horizontal,horizontal
2b,16,100360,11,27,347,21,F,NA,constant,homogeneous,4,present,0.983113050460815,1,horizontal,horizontal,1,8,red,2,1,980.31222920257,419.68777079743,980.31222920257,780.31222920257,980.31222920257,780.31222920257,980.31222920257,419.68777079743,619.68777079743,419.68777079743,619.68777079743,780.31222920257,0,4,0,0,horizontal,horizontal,vertical,horizontal
2b,16,100360,11,28,348,21,F,NA,constant,homogeneous,4,absent,1.69093799591064,1,vertical,vertical,1,2,red,4,NaN,619.68777079743,780.31222920257,NaN,NaN,980.31222920257,780.31222920257,980.31222920257,419.68777079743,619.68777079743,419.68777079743,619.68777079743,780.31222920257,0,0,0,4,horizontal,vertical,vertical,vertical
2b,16,100360,11,29,349,21,F,NA,constant,homogeneous,4,present,0.700855016708374,1,vertical,vertical,1,2,red,3,4,619.68777079743,419.68777079743,619.68777079743,780.31222920257,980.31222920257,780.31222920257,980.31222920257,419.68777079743,619.68777079743,419.68777079743,619.68777079743,780.31222920257,0,0,4,0,horizontal,vertical,vertical,vertical
2b,16,100360,11,30,350,21,F,NA,constant,homogeneous,4,absent,0.915034055709839,1,vertical,vertical,1,3,red,4,NaN,619.68777079743,780.31222920257,NaN,NaN,980.31222920257,780.31222920257,980.31222920257,419.68777079743,619.68777079743,419.68777079743,619.68777079743,780.31222920257,0,0,0,4,vertical,vertical,horizontal,vertical
2b,16,100360,11,31,351,21,F,NA,constant,homogeneous,4,present,1.0855929851532,1,horizontal,horizontal,1,2,red,1,4,980.31222920257,780.31222920257,619.68777079743,780.31222920257,980.31222920257,780.31222920257,980.31222920257,419.68777079743,619.68777079743,419.68777079743,619.68777079743,780.31222920257,4,0,0,0,horizontal,vertical,horizontal,vertical
2b,16,100360,11,32,352,21,F,NA,constant,homogeneous,4,present,0.623603105545044,1,vertical,vertical,1,3,red,2,3,980.31222920257,419.68777079743,619.68777079743,419.68777079743,980.31222920257,780.31222920257,980.31222920257,419.68777079743,619.68777079743,419.68777079743,619.68777079743,780.31222920257,0,4,0,0,vertical,vertical,horizontal,horizontal
2b,16,100360,12,1,353,21,F,NA,constant,homogeneous,4,absent,1.18815588951111,0,vertical,horizontal,1,2,red,4,NaN,619.68777079743,780.31222920257,NaN,NaN,980.31222920257,780.31222920257,980.31222920257,419.68777079743,619.68777079743,419.68777079743,619.68777079743,780.31222920257,0,0,0,4,horizontal,vertical,vertical,vertical
2b,16,100360,12,2,354,21,F,NA,constant,homogeneous,4,absent,0.884181022644043,1,vertical,vertical,1,2,red,2,NaN,980.31222920257,419.68777079743,NaN,NaN,980.31222920257,780.31222920257,980.31222920257,419.68777079743,619.68777079743,419.68777079743,619.68777079743,780.31222920257,0,4,0,0,horizontal,vertical,horizontal,vertical
2b,16,100360,12,3,355,21,F,NA,constant,homogeneous,4,present,0.974006175994873,1,vertical,vertical,1,3,red,4,2,619.68777079743,780.31222920257,980.31222920257,419.68777079743,980.31222920257,780.31222920257,980.31222920257,419.68777079743,619.68777079743,419.68777079743,619.68777079743,780.31222920257,0,0,0,4,vertical,vertical,vertical,vertical
2b,16,100360,12,4,356,21,F,NA,constant,homogeneous,4,present,0.910034894943237,1,vertical,vertical,1,2,red,1,4,980.31222920257,780.31222920257,619.68777079743,780.31222920257,980.31222920257,780.31222920257,980.31222920257,419.68777079743,619.68777079743,419.68777079743,619.68777079743,780.31222920257,4,0,0,0,vertical,vertical,horizontal,vertical
2b,16,100360,12,5,357,21,F,NA,constant,homogeneous,4,present,0.656270027160645,1,vertical,vertical,1,5,red,2,1,980.31222920257,419.68777079743,980.31222920257,780.31222920257,980.31222920257,780.31222920257,980.31222920257,419.68777079743,619.68777079743,419.68777079743,619.68777079743,780.31222920257,0,4,0,0,horizontal,vertical,horizontal,horizontal
2b,16,100360,12,6,358,21,F,NA,constant,homogeneous,4,present,1.45343708992004,1,horizontal,horizontal,1,2,red,2,4,980.31222920257,419.68777079743,619.68777079743,780.31222920257,980.31222920257,780.31222920257,980.31222920257,419.68777079743,619.68777079743,419.68777079743,619.68777079743,780.31222920257,0,4,0,0,vertical,horizontal,horizontal,vertical
2b,16,100360,12,7,359,21,F,NA,constant,homogeneous,4,present,1.07465410232544,1,vertical,vertical,1,3,red,4,3,619.68777079743,780.31222920257,619.68777079743,419.68777079743,980.31222920257,780.31222920257,980.31222920257,419.68777079743,619.68777079743,419.68777079743,619.68777079743,780.31222920257,0,0,0,4,horizontal,horizontal,vertical,vertical
2b,16,100360,12,8,360,21,F,NA,constant,homogeneous,4,absent,1.05657005310059,1,horizontal,horizontal,1,3,red,1,NaN,980.31222920257,780.31222920257,NaN,NaN,980.31222920257,780.31222920257,980.31222920257,419.68777079743,619.68777079743,419.68777079743,619.68777079743,780.31222920257,4,0,0,0,horizontal,horizontal,vertical,vertical
2b,16,100360,12,9,361,21,F,NA,constant,homogeneous,4,present,0.893928050994873,1,vertical,vertical,1,2,red,4,1,619.68777079743,780.31222920257,980.31222920257,780.31222920257,980.31222920257,780.31222920257,980.31222920257,419.68777079743,619.68777079743,419.68777079743,619.68777079743,780.31222920257,0,0,0,4,vertical,horizontal,vertical,vertical
2b,16,100360,12,10,362,21,F,NA,constant,homogeneous,4,present,1.59603786468506,1,horizontal,horizontal,1,3,red,2,4,980.31222920257,419.68777079743,619.68777079743,780.31222920257,980.31222920257,780.31222920257,980.31222920257,419.68777079743,619.68777079743,419.68777079743,619.68777079743,780.31222920257,0,4,0,0,vertical,horizontal,vertical,vertical
2b,16,100360,12,11,363,21,F,NA,constant,homogeneous,4,present,1.02829003334045,0,horizontal,vertical,1,5,red,3,4,619.68777079743,419.68777079743,619.68777079743,780.31222920257,980.31222920257,780.31222920257,980.31222920257,419.68777079743,619.68777079743,419.68777079743,619.68777079743,780.31222920257,0,0,4,0,horizontal,vertical,horizontal,vertical
2b,16,100360,12,12,364,21,F,NA,constant,homogeneous,4,absent,0.801196098327637,1,horizontal,horizontal,1,5,red,1,NaN,980.31222920257,780.31222920257,NaN,NaN,980.31222920257,780.31222920257,980.31222920257,419.68777079743,619.68777079743,419.68777079743,619.68777079743,780.31222920257,4,0,0,0,horizontal,horizontal,horizontal,horizontal
2b,16,100360,12,13,365,21,F,NA,constant,homogeneous,4,absent,1.17353415489197,1,vertical,vertical,1,8,red,3,NaN,619.68777079743,419.68777079743,NaN,NaN,980.31222920257,780.31222920257,980.31222920257,419.68777079743,619.68777079743,419.68777079743,619.68777079743,780.31222920257,0,0,4,0,horizontal,vertical,vertical,horizontal
2b,16,100360,12,14,366,21,F,NA,constant,homogeneous,4,present,1.16539597511292,1,horizontal,horizontal,1,2,red,3,2,619.68777079743,419.68777079743,980.31222920257,419.68777079743,980.31222920257,780.31222920257,980.31222920257,419.68777079743,619.68777079743,419.68777079743,619.68777079743,780.31222920257,0,0,4,0,vertical,horizontal,horizontal,vertical
2b,16,100360,12,15,367,21,F,NA,constant,homogeneous,4,absent,0.684930086135864,1,horizontal,horizontal,1,5,red,3,NaN,619.68777079743,419.68777079743,NaN,NaN,980.31222920257,780.31222920257,980.31222920257,419.68777079743,619.68777079743,419.68777079743,619.68777079743,780.31222920257,0,0,4,0,vertical,horizontal,horizontal,vertical
2b,16,100360,12,16,368,21,F,NA,constant,homogeneous,4,present,0.846809148788452,1,horizontal,horizontal,1,5,red,4,2,619.68777079743,780.31222920257,980.31222920257,419.68777079743,980.31222920257,780.31222920257,980.31222920257,419.68777079743,619.68777079743,419.68777079743,619.68777079743,780.31222920257,0,0,0,4,vertical,horizontal,vertical,horizontal
2b,16,100360,12,17,369,21,F,NA,constant,homogeneous,4,present,1.08421206474304,1,horizontal,horizontal,1,3,red,2,3,980.31222920257,419.68777079743,619.68777079743,419.68777079743,980.31222920257,780.31222920257,980.31222920257,419.68777079743,619.68777079743,419.68777079743,619.68777079743,780.31222920257,0,4,0,0,horizontal,horizontal,vertical,horizontal
2b,16,100360,12,18,370,21,F,NA,constant,homogeneous,4,absent,1.15017294883728,1,vertical,vertical,1,3,red,1,NaN,980.31222920257,780.31222920257,NaN,NaN,980.31222920257,780.31222920257,980.31222920257,419.68777079743,619.68777079743,419.68777079743,619.68777079743,780.31222920257,4,0,0,0,vertical,vertical,horizontal,horizontal
2b,16,100360,12,19,371,21,F,NA,constant,homogeneous,4,absent,1.03735518455505,1,horizontal,horizontal,1,2,red,1,NaN,980.31222920257,780.31222920257,NaN,NaN,980.31222920257,780.31222920257,980.31222920257,419.68777079743,619.68777079743,419.68777079743,619.68777079743,780.31222920257,4,0,0,0,horizontal,horizontal,horizontal,horizontal
2b,16,100360,12,20,372,21,F,NA,constant,homogeneous,4,absent,0.694266080856323,1,horizontal,horizontal,1,2,red,4,NaN,619.68777079743,780.31222920257,NaN,NaN,980.31222920257,780.31222920257,980.31222920257,419.68777079743,619.68777079743,419.68777079743,619.68777079743,780.31222920257,0,0,0,4,vertical,horizontal,vertical,horizontal
2b,16,100360,12,21,373,21,F,NA,constant,homogeneous,4,absent,0.740483999252319,1,vertical,vertical,1,2,red,1,NaN,980.31222920257,780.31222920257,NaN,NaN,980.31222920257,780.31222920257,980.31222920257,419.68777079743,619.68777079743,419.68777079743,619.68777079743,780.31222920257,4,0,0,0,vertical,horizontal,horizontal,vertical
2b,16,100360,12,22,374,21,F,NA,constant,homogeneous,4,present,0.90775990486145,1,vertical,vertical,1,5,red,4,2,619.68777079743,780.31222920257,980.31222920257,419.68777079743,980.31222920257,780.31222920257,980.31222920257,419.68777079743,619.68777079743,419.68777079743,619.68777079743,780.31222920257,0,0,0,4,horizontal,vertical,vertical,vertical
2b,16,100360,12,23,375,21,F,NA,constant,homogeneous,4,present,0.950035810470581,1,vertical,vertical,1,2,red,1,2,980.31222920257,780.31222920257,980.31222920257,419.68777079743,980.31222920257,780.31222920257,980.31222920257,419.68777079743,619.68777079743,419.68777079743,619.68777079743,780.31222920257,4,0,0,0,vertical,vertical,vertical,horizontal
2b,16,100360,12,24,376,21,F,NA,constant,homogeneous,4,present,1.02136397361755,1,vertical,vertical,1,8,red,2,1,980.31222920257,419.68777079743,980.31222920257,780.31222920257,980.31222920257,780.31222920257,980.31222920257,419.68777079743,619.68777079743,419.68777079743,619.68777079743,780.31222920257,0,4,0,0,vertical,vertical,vertical,vertical
2b,16,100360,12,25,377,21,F,NA,constant,homogeneous,4,absent,0.941977977752686,1,horizontal,horizontal,1,2,red,1,NaN,980.31222920257,780.31222920257,NaN,NaN,980.31222920257,780.31222920257,980.31222920257,419.68777079743,619.68777079743,419.68777079743,619.68777079743,780.31222920257,4,0,0,0,horizontal,vertical,vertical,vertical
2b,16,100360,12,26,378,21,F,NA,constant,homogeneous,4,absent,1.34925508499146,1,horizontal,horizontal,1,8,red,2,NaN,980.31222920257,419.68777079743,NaN,NaN,980.31222920257,780.31222920257,980.31222920257,419.68777079743,619.68777079743,419.68777079743,619.68777079743,780.31222920257,0,4,0,0,horizontal,horizontal,horizontal,horizontal
2b,16,100360,12,27,379,21,F,NA,constant,homogeneous,4,present,1.30851888656616,1,horizontal,horizontal,1,8,red,3,1,619.68777079743,419.68777079743,980.31222920257,780.31222920257,980.31222920257,780.31222920257,980.31222920257,419.68777079743,619.68777079743,419.68777079743,619.68777079743,780.31222920257,0,0,4,0,vertical,horizontal,horizontal,horizontal
2b,16,100360,12,28,380,21,F,NA,constant,homogeneous,4,present,0.679028034210205,1,horizontal,horizontal,1,2,red,3,1,619.68777079743,419.68777079743,980.31222920257,780.31222920257,980.31222920257,780.31222920257,980.31222920257,419.68777079743,619.68777079743,419.68777079743,619.68777079743,780.31222920257,0,0,4,0,horizontal,vertical,horizontal,horizontal
2b,16,100360,12,29,381,21,F,NA,constant,homogeneous,4,absent,0.980771064758301,1,horizontal,horizontal,1,3,red,4,NaN,619.68777079743,780.31222920257,NaN,NaN,980.31222920257,780.31222920257,980.31222920257,419.68777079743,619.68777079743,419.68777079743,619.68777079743,780.31222920257,0,0,0,4,vertical,vertical,horizontal,horizontal
2b,16,100360,12,30,382,21,F,NA,constant,homogeneous,4,absent,1.12059903144836,1,vertical,vertical,1,3,red,3,NaN,619.68777079743,419.68777079743,NaN,NaN,980.31222920257,780.31222920257,980.31222920257,419.68777079743,619.68777079743,419.68777079743,619.68777079743,780.31222920257,0,0,4,0,horizontal,vertical,vertical,vertical
2b,16,100360,12,31,383,21,F,NA,constant,homogeneous,4,absent,1.27903199195862,1,vertical,vertical,1,5,red,1,NaN,980.31222920257,780.31222920257,NaN,NaN,980.31222920257,780.31222920257,980.31222920257,419.68777079743,619.68777079743,419.68777079743,619.68777079743,780.31222920257,4,0,0,0,vertical,vertical,horizontal,horizontal
2b,16,100360,12,32,384,21,F,NA,constant,homogeneous,4,absent,1.20487999916077,1,vertical,vertical,1,5,red,2,NaN,980.31222920257,419.68777079743,NaN,NaN,980.31222920257,780.31222920257,980.31222920257,419.68777079743,619.68777079743,419.68777079743,619.68777079743,780.31222920257,0,4,0,0,vertical,vertical,vertical,horizontal
2b,16,100360,13,1,385,21,F,NA,constant,homogeneous,4,absent,0.722694158554077,1,vertical,vertical,1,5,red,3,NaN,619.68777079743,419.68777079743,NaN,NaN,980.31222920257,780.31222920257,980.31222920257,419.68777079743,619.68777079743,419.68777079743,619.68777079743,780.31222920257,0,0,4,0,vertical,vertical,vertical,horizontal
2b,16,100360,13,2,386,21,F,NA,constant,homogeneous,4,present,1.3215799331665,1,vertical,vertical,1,8,red,3,1,619.68777079743,419.68777079743,980.31222920257,780.31222920257,980.31222920257,780.31222920257,980.31222920257,419.68777079743,619.68777079743,419.68777079743,619.68777079743,780.31222920257,0,0,4,0,horizontal,horizontal,vertical,vertical
2b,16,100360,13,3,387,21,F,NA,constant,homogeneous,4,absent,0.943998098373413,1,vertical,vertical,1,5,red,4,NaN,619.68777079743,780.31222920257,NaN,NaN,980.31222920257,780.31222920257,980.31222920257,419.68777079743,619.68777079743,419.68777079743,619.68777079743,780.31222920257,0,0,0,4,vertical,horizontal,horizontal,vertical
2b,16,100360,13,4,388,21,F,NA,constant,homogeneous,4,absent,0.919738054275513,1,horizontal,horizontal,1,8,red,3,NaN,619.68777079743,419.68777079743,NaN,NaN,980.31222920257,780.31222920257,980.31222920257,419.68777079743,619.68777079743,419.68777079743,619.68777079743,780.31222920257,0,0,4,0,horizontal,horizontal,horizontal,horizontal
2b,16,100360,13,5,389,21,F,NA,constant,homogeneous,4,absent,0.806353807449341,1,horizontal,horizontal,1,2,red,2,NaN,980.31222920257,419.68777079743,NaN,NaN,980.31222920257,780.31222920257,980.31222920257,419.68777079743,619.68777079743,419.68777079743,619.68777079743,780.31222920257,0,4,0,0,horizontal,horizontal,horizontal,vertical
2b,16,100360,13,6,390,21,F,NA,constant,homogeneous,4,present,0.802810192108154,1,horizontal,horizontal,1,3,red,4,3,619.68777079743,780.31222920257,619.68777079743,419.68777079743,980.31222920257,780.31222920257,980.31222920257,419.68777079743,619.68777079743,419.68777079743,619.68777079743,780.31222920257,0,0,0,4,horizontal,horizontal,horizontal,horizontal
2b,16,100360,13,7,391,21,F,NA,constant,homogeneous,4,absent,0.879347801208496,1,horizontal,horizontal,1,5,red,3,NaN,619.68777079743,419.68777079743,NaN,NaN,980.31222920257,780.31222920257,980.31222920257,419.68777079743,619.68777079743,419.68777079743,619.68777079743,780.31222920257,0,0,4,0,vertical,vertical,horizontal,horizontal
2b,16,100360,13,8,392,21,F,NA,constant,homogeneous,4,absent,0.580502033233643,1,horizontal,horizontal,1,5,red,3,NaN,619.68777079743,419.68777079743,NaN,NaN,980.31222920257,780.31222920257,980.31222920257,419.68777079743,619.68777079743,419.68777079743,619.68777079743,780.31222920257,0,0,4,0,vertical,vertical,horizontal,horizontal
2b,16,100360,13,9,393,21,F,NA,constant,homogeneous,4,present,0.848587989807129,1,vertical,vertical,1,5,red,4,3,619.68777079743,780.31222920257,619.68777079743,419.68777079743,980.31222920257,780.31222920257,980.31222920257,419.68777079743,619.68777079743,419.68777079743,619.68777079743,780.31222920257,0,0,0,4,vertical,horizontal,horizontal,vertical
2b,16,100360,13,10,394,21,F,NA,constant,homogeneous,4,absent,1.08596777915955,1,horizontal,horizontal,1,3,red,1,NaN,980.31222920257,780.31222920257,NaN,NaN,980.31222920257,780.31222920257,980.31222920257,419.68777079743,619.68777079743,419.68777079743,619.68777079743,780.31222920257,4,0,0,0,horizontal,horizontal,vertical,vertical
2b,16,100360,13,11,395,21,F,NA,constant,homogeneous,4,present,0.759860038757324,1,horizontal,horizontal,1,2,red,3,1,619.68777079743,419.68777079743,980.31222920257,780.31222920257,980.31222920257,780.31222920257,980.31222920257,419.68777079743,619.68777079743,419.68777079743,619.68777079743,780.31222920257,0,0,4,0,vertical,vertical,horizontal,horizontal
2b,16,100360,13,12,396,21,F,NA,constant,homogeneous,4,absent,0.859285116195679,1,vertical,vertical,1,2,red,2,NaN,980.31222920257,419.68777079743,NaN,NaN,980.31222920257,780.31222920257,980.31222920257,419.68777079743,619.68777079743,419.68777079743,619.68777079743,780.31222920257,0,4,0,0,horizontal,vertical,horizontal,horizontal
2b,16,100360,13,13,397,21,F,NA,constant,homogeneous,4,present,1.2607729434967,1,vertical,vertical,1,5,red,1,2,980.31222920257,780.31222920257,980.31222920257,419.68777079743,980.31222920257,780.31222920257,980.31222920257,419.68777079743,619.68777079743,419.68777079743,619.68777079743,780.31222920257,4,0,0,0,vertical,horizontal,horizontal,horizontal
2b,16,100360,13,14,398,21,F,NA,constant,homogeneous,4,absent,0.822037935256958,1,horizontal,horizontal,1,2,red,4,NaN,619.68777079743,780.31222920257,NaN,NaN,980.31222920257,780.31222920257,980.31222920257,419.68777079743,619.68777079743,419.68777079743,619.68777079743,780.31222920257,0,0,0,4,horizontal,horizontal,vertical,horizontal
2b,16,100360,13,15,399,21,F,NA,constant,homogeneous,4,present,0.739012002944946,1,vertical,vertical,1,2,red,2,1,980.31222920257,419.68777079743,980.31222920257,780.31222920257,980.31222920257,780.31222920257,980.31222920257,419.68777079743,619.68777079743,419.68777079743,619.68777079743,780.31222920257,0,4,0,0,vertical,vertical,vertical,vertical
2b,16,100360,13,16,400,21,F,NA,constant,homogeneous,4,present,1.56596398353577,1,horizontal,horizontal,1,8,red,2,3,980.31222920257,419.68777079743,619.68777079743,419.68777079743,980.31222920257,780.31222920257,980.31222920257,419.68777079743,619.68777079743,419.68777079743,619.68777079743,780.31222920257,0,4,0,0,vertical,horizontal,vertical,vertical
2b,16,100360,13,17,401,21,F,NA,constant,homogeneous,4,present,0.781684875488281,1,horizontal,horizontal,1,5,red,2,1,980.31222920257,419.68777079743,980.31222920257,780.31222920257,980.31222920257,780.31222920257,980.31222920257,419.68777079743,619.68777079743,419.68777079743,619.68777079743,780.31222920257,0,4,0,0,vertical,horizontal,horizontal,horizontal
2b,16,100360,13,18,402,21,F,NA,constant,homogeneous,4,absent,0.617624044418335,1,horizontal,horizontal,1,2,red,2,NaN,980.31222920257,419.68777079743,NaN,NaN,980.31222920257,780.31222920257,980.31222920257,419.68777079743,619.68777079743,419.68777079743,619.68777079743,780.31222920257,0,4,0,0,horizontal,horizontal,vertical,horizontal
2b,16,100360,13,19,403,21,F,NA,constant,homogeneous,4,present,1.05822205543518,1,horizontal,horizontal,1,3,red,1,2,980.31222920257,780.31222920257,980.31222920257,419.68777079743,980.31222920257,780.31222920257,980.31222920257,419.68777079743,619.68777079743,419.68777079743,619.68777079743,780.31222920257,4,0,0,0,horizontal,horizontal,vertical,horizontal
2b,16,100360,13,20,404,21,F,NA,constant,homogeneous,4,present,0.8035569190979,1,vertical,vertical,1,2,red,2,4,980.31222920257,419.68777079743,619.68777079743,780.31222920257,980.31222920257,780.31222920257,980.31222920257,419.68777079743,619.68777079743,419.68777079743,619.68777079743,780.31222920257,0,4,0,0,vertical,vertical,vertical,horizontal
2b,16,100360,13,21,405,21,F,NA,constant,homogeneous,4,absent,0.663774013519287,1,vertical,vertical,1,2,red,2,NaN,980.31222920257,419.68777079743,NaN,NaN,980.31222920257,780.31222920257,980.31222920257,419.68777079743,619.68777079743,419.68777079743,619.68777079743,780.31222920257,0,4,0,0,horizontal,vertical,horizontal,vertical
2b,16,100360,13,22,406,21,F,NA,constant,homogeneous,4,absent,1.06550788879395,1,vertical,vertical,1,2,red,4,NaN,619.68777079743,780.31222920257,NaN,NaN,980.31222920257,780.31222920257,980.31222920257,419.68777079743,619.68777079743,419.68777079743,619.68777079743,780.31222920257,0,0,0,4,vertical,horizontal,horizontal,vertical
2b,16,100360,13,23,407,21,F,NA,constant,homogeneous,4,present,0.787272930145264,1,vertical,vertical,1,3,red,1,2,980.31222920257,780.31222920257,980.31222920257,419.68777079743,980.31222920257,780.31222920257,980.31222920257,419.68777079743,619.68777079743,419.68777079743,619.68777079743,780.31222920257,4,0,0,0,vertical,horizontal,vertical,vertical
2b,16,100360,13,24,408,21,F,NA,constant,homogeneous,4,present,1.38698887825012,1,horizontal,horizontal,1,5,red,3,2,619.68777079743,419.68777079743,980.31222920257,419.68777079743,980.31222920257,780.31222920257,980.31222920257,419.68777079743,619.68777079743,419.68777079743,619.68777079743,780.31222920257,0,0,4,0,vertical,horizontal,horizontal,vertical
2b,16,100360,13,25,409,21,F,NA,constant,homogeneous,4,absent,0.859333038330078,1,horizontal,horizontal,1,3,red,2,NaN,980.31222920257,419.68777079743,NaN,NaN,980.31222920257,780.31222920257,980.31222920257,419.68777079743,619.68777079743,419.68777079743,619.68777079743,780.31222920257,0,4,0,0,vertical,horizontal,vertical,horizontal
2b,16,100360,13,26,410,21,F,NA,constant,homogeneous,4,present,0.748610019683838,1,vertical,vertical,1,3,red,2,4,980.31222920257,419.68777079743,619.68777079743,780.31222920257,980.31222920257,780.31222920257,980.31222920257,419.68777079743,619.68777079743,419.68777079743,619.68777079743,780.31222920257,0,4,0,0,horizontal,vertical,vertical,vertical
2b,16,100360,13,27,411,21,F,NA,constant,homogeneous,4,present,1.0519380569458,1,horizontal,horizontal,1,2,red,3,4,619.68777079743,419.68777079743,619.68777079743,780.31222920257,980.31222920257,780.31222920257,980.31222920257,419.68777079743,619.68777079743,419.68777079743,619.68777079743,780.31222920257,0,0,4,0,horizontal,vertical,horizontal,vertical
2b,16,100360,13,28,412,21,F,NA,constant,homogeneous,4,absent,0.809345960617065,1,vertical,vertical,1,8,red,2,NaN,980.31222920257,419.68777079743,NaN,NaN,980.31222920257,780.31222920257,980.31222920257,419.68777079743,619.68777079743,419.68777079743,619.68777079743,780.31222920257,0,4,0,0,vertical,vertical,horizontal,horizontal
2b,16,100360,13,29,413,21,F,NA,constant,homogeneous,4,absent,1.429358959198,1,vertical,vertical,1,3,red,1,NaN,980.31222920257,780.31222920257,NaN,NaN,980.31222920257,780.31222920257,980.31222920257,419.68777079743,619.68777079743,419.68777079743,619.68777079743,780.31222920257,4,0,0,0,vertical,horizontal,horizontal,horizontal
2b,16,100360,13,30,414,21,F,NA,constant,homogeneous,4,present,1.24230408668518,1,horizontal,horizontal,1,2,red,3,1,619.68777079743,419.68777079743,980.31222920257,780.31222920257,980.31222920257,780.31222920257,980.31222920257,419.68777079743,619.68777079743,419.68777079743,619.68777079743,780.31222920257,0,0,4,0,vertical,vertical,horizontal,horizontal
2b,16,100360,13,31,415,21,F,NA,constant,homogeneous,4,absent,1.39543294906616,1,vertical,vertical,1,3,red,4,NaN,619.68777079743,780.31222920257,NaN,NaN,980.31222920257,780.31222920257,980.31222920257,419.68777079743,619.68777079743,419.68777079743,619.68777079743,780.31222920257,0,0,0,4,horizontal,horizontal,vertical,vertical
