experiment,subject,uniqueID,block,trial,trial_cumulative,age,gender,color_cond_blocking,color_history,shape_type,set_size,distractor,rt,acc,target_orient,response_key,response_made,iti,target_color,target_item,distractor_item,target_X,target_Y,distractor_X,distractor_Y,item1_X,item1_Y,item2_X,item2_Y,item3_X,item3_Y,item4_X,item4_Y,item1_shape,item2_shape,item3_shape,item4_shape,item1_line,item2_line,item3_line,item4_line
2b,19,100376,1,1,1,19,M,NA,constant,heterogeneous,4,present,NaN,0,vertical,none,0,5,green,1,3,NaN,NaN,NaN,NaN,NaN,NaN,NaN,NaN,NaN,NaN,NaN,NaN,4,3,5,6,vertical,horizontal,vertical,horizontal
2b,19,100376,1,2,2,19,M,NA,constant,heterogeneous,4,present,NaN,0,horizontal,none,0,5,green,1,2,NaN,NaN,NaN,NaN,NaN,NaN,NaN,NaN,NaN,NaN,NaN,NaN,4,5,0,3,horizontal,horizontal,horizontal,vertical
2b,19,100376,1,3,3,19,M,NA,constant,heterogeneous,4,absent,1.99403810501099,1,horizontal,horizontal,1,3,green,3,NaN,NaN,NaN,NaN,NaN,NaN,NaN,NaN,NaN,NaN,NaN,NaN,NaN,3,6,4,5,horizontal,vertical,horizontal,vertical
2b,19,100376,1,4,4,19,M,NA,constant,heterogeneous,4,absent,1.68982887268066,1,horizontal,horizontal,1,8,green,4,NaN,NaN,NaN,NaN,NaN,NaN,NaN,NaN,NaN,NaN,NaN,NaN,NaN,6,3,5,4,horizontal,horizontal,vertical,horizontal
2b,19,100376,1,5,5,19,M,NA,constant,heterogeneous,4,absent,1.1640191078186,1,vertical,vertical,1,2,green,1,NaN,NaN,NaN,NaN,NaN,NaN,NaN,NaN,NaN,NaN,NaN,NaN,NaN,4,6,5,3,vertical,horizontal,horizontal,vertical
2b,19,100376,1,6,6,19,M,NA,constant,heterogeneous,4,absent,1.05125713348389,1,vertical,vertical,1,3,green,3,NaN,NaN,NaN,NaN,NaN,NaN,NaN,NaN,NaN,NaN,NaN,NaN,NaN,0,6,4,5,vertical,vertical,vertical,horizontal
2b,19,100376,1,7,7,19,M,NA,constant,heterogeneous,4,absent,1.52043795585632,1,horizontal,horizontal,1,3,green,1,NaN,NaN,NaN,NaN,NaN,NaN,NaN,NaN,NaN,NaN,NaN,NaN,NaN,4,0,6,3,horizontal,horizontal,vertical,horizontal
2b,19,100376,1,8,8,19,M,NA,constant,heterogeneous,4,absent,NaN,0,vertical,none,0,2,green,4,NaN,NaN,NaN,NaN,NaN,NaN,NaN,NaN,NaN,NaN,NaN,NaN,NaN,3,6,5,4,horizontal,vertical,vertical,vertical
2b,19,100376,1,9,9,19,M,NA,constant,heterogeneous,4,present,1.26751899719238,1,horizontal,horizontal,1,5,green,2,4,NaN,NaN,NaN,NaN,NaN,NaN,NaN,NaN,NaN,NaN,NaN,NaN,5,4,0,6,horizontal,horizontal,vertical,horizontal
2b,19,100376,1,10,10,19,M,NA,constant,heterogeneous,4,absent,1.06926083564758,1,vertical,vertical,1,2,green,1,NaN,NaN,NaN,NaN,NaN,NaN,NaN,NaN,NaN,NaN,NaN,NaN,NaN,4,3,0,5,vertical,vertical,vertical,vertical
2b,19,100376,1,11,11,19,M,NA,constant,heterogeneous,4,present,1.18684196472168,1,vertical,vertical,1,2,green,3,2,NaN,NaN,NaN,NaN,NaN,NaN,NaN,NaN,NaN,NaN,NaN,NaN,0,5,4,6,horizontal,vertical,vertical,horizontal
2b,19,100376,1,12,12,19,M,NA,constant,heterogeneous,4,absent,1.3151068687439,1,horizontal,horizontal,1,2,green,3,NaN,NaN,NaN,NaN,NaN,NaN,NaN,NaN,NaN,NaN,NaN,NaN,NaN,0,6,4,3,horizontal,vertical,horizontal,horizontal
2b,19,100376,1,13,13,19,M,NA,constant,heterogeneous,4,absent,0.933282136917114,1,vertical,vertical,1,5,green,1,NaN,NaN,NaN,NaN,NaN,NaN,NaN,NaN,NaN,NaN,NaN,NaN,NaN,4,6,3,5,vertical,horizontal,horizontal,vertical
2b,19,100376,1,14,14,19,M,NA,constant,heterogeneous,4,present,1.19176316261292,1,vertical,vertical,1,2,green,1,2,NaN,NaN,NaN,NaN,NaN,NaN,NaN,NaN,NaN,NaN,NaN,NaN,4,6,0,5,vertical,vertical,horizontal,horizontal
2b,19,100376,1,15,15,19,M,NA,constant,heterogeneous,4,present,0.920399904251099,1,horizontal,horizontal,1,8,green,1,3,NaN,NaN,NaN,NaN,NaN,NaN,NaN,NaN,NaN,NaN,NaN,NaN,4,3,6,0,horizontal,vertical,vertical,vertical
2b,19,100376,1,16,16,19,M,NA,constant,heterogeneous,4,absent,1.2466721534729,1,vertical,vertical,1,5,green,2,NaN,NaN,NaN,NaN,NaN,NaN,NaN,NaN,NaN,NaN,NaN,NaN,NaN,6,4,5,3,vertical,vertical,vertical,vertical
2b,19,100376,1,17,17,19,M,NA,constant,heterogeneous,4,present,0.692033052444458,1,horizontal,horizontal,1,2,green,3,4,NaN,NaN,NaN,NaN,NaN,NaN,NaN,NaN,NaN,NaN,NaN,NaN,5,3,4,6,horizontal,vertical,horizontal,vertical
2b,19,100376,1,18,18,19,M,NA,constant,heterogeneous,4,present,0.934125900268555,1,vertical,vertical,1,5,green,4,1,NaN,NaN,NaN,NaN,NaN,NaN,NaN,NaN,NaN,NaN,NaN,NaN,3,0,6,4,vertical,vertical,horizontal,vertical
2b,19,100376,1,19,19,19,M,NA,constant,heterogeneous,4,absent,1.01707601547241,1,horizontal,horizontal,1,2,green,1,NaN,NaN,NaN,NaN,NaN,NaN,NaN,NaN,NaN,NaN,NaN,NaN,NaN,4,5,6,3,horizontal,horizontal,horizontal,vertical
2b,19,100376,1,20,20,19,M,NA,constant,heterogeneous,4,present,1.18562698364258,1,horizontal,horizontal,1,3,green,1,4,NaN,NaN,NaN,NaN,NaN,NaN,NaN,NaN,NaN,NaN,NaN,NaN,4,6,5,0,horizontal,vertical,vertical,vertical
2b,19,100376,1,21,21,19,M,NA,constant,heterogeneous,4,absent,0.885231971740723,1,vertical,vertical,1,3,green,3,NaN,NaN,NaN,NaN,NaN,NaN,NaN,NaN,NaN,NaN,NaN,NaN,NaN,5,6,4,0,vertical,vertical,vertical,horizontal
2b,19,100376,1,22,22,19,M,NA,constant,heterogeneous,4,present,1.31934976577759,1,vertical,vertical,1,2,green,3,1,NaN,NaN,NaN,NaN,NaN,NaN,NaN,NaN,NaN,NaN,NaN,NaN,0,3,4,5,horizontal,horizontal,vertical,vertical
2b,19,100376,1,23,23,19,M,NA,constant,heterogeneous,4,absent,0.645817995071411,1,horizontal,horizontal,1,2,green,1,NaN,NaN,NaN,NaN,NaN,NaN,NaN,NaN,NaN,NaN,NaN,NaN,NaN,4,3,5,6,horizontal,horizontal,horizontal,vertical
2b,19,100376,1,24,24,19,M,NA,constant,heterogeneous,4,present,0.811157941818237,1,vertical,vertical,1,3,green,3,4,NaN,NaN,NaN,NaN,NaN,NaN,NaN,NaN,NaN,NaN,NaN,NaN,3,0,4,6,horizontal,vertical,vertical,vertical
2b,19,100376,1,25,25,19,M,NA,constant,heterogeneous,4,absent,0.923668146133423,1,horizontal,horizontal,1,5,green,3,NaN,NaN,NaN,NaN,NaN,NaN,NaN,NaN,NaN,NaN,NaN,NaN,NaN,0,6,4,5,horizontal,vertical,horizontal,horizontal
2b,19,100376,1,26,26,19,M,NA,constant,heterogeneous,4,absent,1.36253499984741,1,horizontal,horizontal,1,5,green,4,NaN,NaN,NaN,NaN,NaN,NaN,NaN,NaN,NaN,NaN,NaN,NaN,NaN,5,0,6,4,horizontal,vertical,vertical,horizontal
2b,19,100376,1,27,27,19,M,NA,constant,heterogeneous,4,absent,0.893967866897583,1,vertical,vertical,1,8,green,2,NaN,NaN,NaN,NaN,NaN,NaN,NaN,NaN,NaN,NaN,NaN,NaN,NaN,0,4,5,3,horizontal,vertical,vertical,vertical
2b,19,100376,1,28,28,19,M,NA,constant,heterogeneous,4,present,1.43616580963135,1,vertical,vertical,1,3,green,4,3,NaN,NaN,NaN,NaN,NaN,NaN,NaN,NaN,NaN,NaN,NaN,NaN,0,5,6,4,horizontal,vertical,vertical,vertical
2b,19,100376,1,29,29,19,M,NA,constant,heterogeneous,4,present,0.789129972457886,1,vertical,vertical,1,8,green,4,2,NaN,NaN,NaN,NaN,NaN,NaN,NaN,NaN,NaN,NaN,NaN,NaN,0,3,6,4,horizontal,horizontal,vertical,vertical
2b,19,100376,1,30,30,19,M,NA,constant,heterogeneous,4,present,0.989181041717529,1,horizontal,horizontal,1,3,green,2,4,NaN,NaN,NaN,NaN,NaN,NaN,NaN,NaN,NaN,NaN,NaN,NaN,5,4,3,0,vertical,horizontal,horizontal,vertical
2b,19,100376,1,31,31,19,M,NA,constant,heterogeneous,4,present,1.39729809761047,0,horizontal,vertical,1,2,green,4,1,NaN,NaN,NaN,NaN,NaN,NaN,NaN,NaN,NaN,NaN,NaN,NaN,0,5,3,4,horizontal,horizontal,horizontal,horizontal
2b,19,100376,1,32,32,19,M,NA,constant,heterogeneous,4,present,0.637181043624878,1,horizontal,horizontal,1,2,green,2,4,NaN,NaN,NaN,NaN,NaN,NaN,NaN,NaN,NaN,NaN,NaN,NaN,3,4,6,5,horizontal,horizontal,vertical,horizontal
2b,19,100376,2,1,33,19,M,NA,constant,heterogeneous,4,present,0.857248067855835,1,vertical,vertical,1,5,green,4,3,NaN,NaN,NaN,NaN,NaN,NaN,NaN,NaN,NaN,NaN,NaN,NaN,3,6,5,4,vertical,horizontal,horizontal,vertical
2b,19,100376,2,2,34,19,M,NA,constant,heterogeneous,4,absent,0.602789878845215,1,vertical,vertical,1,3,green,4,NaN,NaN,NaN,NaN,NaN,NaN,NaN,NaN,NaN,NaN,NaN,NaN,NaN,5,3,0,4,vertical,vertical,vertical,vertical
2b,19,100376,2,3,35,19,M,NA,constant,heterogeneous,4,present,1.34311604499817,1,vertical,vertical,1,3,green,1,4,NaN,NaN,NaN,NaN,NaN,NaN,NaN,NaN,NaN,NaN,NaN,NaN,4,6,3,5,vertical,vertical,horizontal,vertical
2b,19,100376,2,4,36,19,M,NA,constant,heterogeneous,4,absent,1.10217094421387,1,vertical,vertical,1,5,green,2,NaN,NaN,NaN,NaN,NaN,NaN,NaN,NaN,NaN,NaN,NaN,NaN,NaN,3,4,0,5,horizontal,vertical,horizontal,horizontal
2b,19,100376,2,5,37,19,M,NA,constant,heterogeneous,4,absent,1.19634008407593,1,horizontal,horizontal,1,2,green,2,NaN,NaN,NaN,NaN,NaN,NaN,NaN,NaN,NaN,NaN,NaN,NaN,NaN,3,4,5,6,horizontal,horizontal,vertical,horizontal
2b,19,100376,2,6,38,19,M,NA,constant,heterogeneous,4,present,1.13230299949646,1,horizontal,horizontal,1,2,green,1,4,NaN,NaN,NaN,NaN,NaN,NaN,NaN,NaN,NaN,NaN,NaN,NaN,4,3,5,0,horizontal,vertical,horizontal,vertical
2b,19,100376,2,7,39,19,M,NA,constant,heterogeneous,4,present,0.967314958572388,1,vertical,vertical,1,2,green,1,2,NaN,NaN,NaN,NaN,NaN,NaN,NaN,NaN,NaN,NaN,NaN,NaN,4,0,3,5,vertical,horizontal,vertical,horizontal
2b,19,100376,2,8,40,19,M,NA,constant,heterogeneous,4,absent,0.846785068511963,1,horizontal,horizontal,1,5,green,1,NaN,NaN,NaN,NaN,NaN,NaN,NaN,NaN,NaN,NaN,NaN,NaN,NaN,4,5,3,0,horizontal,horizontal,vertical,vertical
2b,19,100376,2,9,41,19,M,NA,constant,heterogeneous,4,absent,1.06018900871277,1,vertical,vertical,1,2,green,1,NaN,NaN,NaN,NaN,NaN,NaN,NaN,NaN,NaN,NaN,NaN,NaN,NaN,4,6,0,3,vertical,vertical,horizontal,vertical
2b,19,100376,2,10,42,19,M,NA,constant,heterogeneous,4,absent,0.613512992858887,1,vertical,vertical,1,2,green,1,NaN,NaN,NaN,NaN,NaN,NaN,NaN,NaN,NaN,NaN,NaN,NaN,NaN,4,6,5,0,vertical,horizontal,vertical,vertical
2b,19,100376,2,11,43,19,M,NA,constant,heterogeneous,4,present,1.05422306060791,1,horizontal,horizontal,1,3,green,1,3,NaN,NaN,NaN,NaN,NaN,NaN,NaN,NaN,NaN,NaN,NaN,NaN,4,0,5,3,horizontal,vertical,horizontal,horizontal
2b,19,100376,2,12,44,19,M,NA,constant,heterogeneous,4,absent,0.70738697052002,1,horizontal,horizontal,1,3,green,1,NaN,NaN,NaN,NaN,NaN,NaN,NaN,NaN,NaN,NaN,NaN,NaN,NaN,4,0,6,3,horizontal,horizontal,horizontal,vertical
2b,19,100376,2,13,45,19,M,NA,constant,heterogeneous,4,present,1.1016058921814,1,horizontal,horizontal,1,5,green,2,1,NaN,NaN,NaN,NaN,NaN,NaN,NaN,NaN,NaN,NaN,NaN,NaN,0,4,3,5,vertical,horizontal,horizontal,horizontal
2b,19,100376,2,14,46,19,M,NA,constant,heterogeneous,4,present,1.16408014297485,1,vertical,vertical,1,2,green,1,2,NaN,NaN,NaN,NaN,NaN,NaN,NaN,NaN,NaN,NaN,NaN,NaN,4,5,0,6,vertical,horizontal,horizontal,horizontal
2b,19,100376,2,15,47,19,M,NA,constant,heterogeneous,4,absent,1.41157507896423,1,horizontal,horizontal,1,2,green,3,NaN,NaN,NaN,NaN,NaN,NaN,NaN,NaN,NaN,NaN,NaN,NaN,NaN,0,6,4,3,horizontal,vertical,horizontal,horizontal
2b,19,100376,2,16,48,19,M,NA,constant,heterogeneous,4,present,1.52422213554382,1,vertical,vertical,1,8,green,3,2,NaN,NaN,NaN,NaN,NaN,NaN,NaN,NaN,NaN,NaN,NaN,NaN,3,5,4,6,vertical,horizontal,vertical,horizontal
2b,19,100376,2,17,49,19,M,NA,constant,heterogeneous,4,absent,1.01120805740356,1,horizontal,horizontal,1,3,green,3,NaN,NaN,NaN,NaN,NaN,NaN,NaN,NaN,NaN,NaN,NaN,NaN,NaN,6,3,4,5,horizontal,vertical,horizontal,vertical
2b,19,100376,2,18,50,19,M,NA,constant,heterogeneous,4,present,1.07529997825623,1,horizontal,horizontal,1,2,green,4,3,NaN,NaN,NaN,NaN,NaN,NaN,NaN,NaN,NaN,NaN,NaN,NaN,5,0,6,4,vertical,horizontal,horizontal,horizontal
2b,19,100376,2,19,51,19,M,NA,constant,heterogeneous,4,present,1.12123799324036,1,vertical,vertical,1,3,green,2,4,NaN,NaN,NaN,NaN,NaN,NaN,NaN,NaN,NaN,NaN,NaN,NaN,0,4,5,3,vertical,vertical,vertical,vertical
2b,19,100376,2,20,52,19,M,NA,constant,heterogeneous,4,present,0.760158061981201,1,horizontal,horizontal,1,8,green,2,4,NaN,NaN,NaN,NaN,NaN,NaN,NaN,NaN,NaN,NaN,NaN,NaN,3,4,0,6,horizontal,horizontal,horizontal,vertical
2b,19,100376,2,21,53,19,M,NA,constant,heterogeneous,4,absent,1.18718409538269,1,vertical,vertical,1,3,green,1,NaN,NaN,NaN,NaN,NaN,NaN,NaN,NaN,NaN,NaN,NaN,NaN,NaN,4,5,3,6,vertical,vertical,horizontal,horizontal
2b,19,100376,2,22,54,19,M,NA,constant,heterogeneous,4,present,0.86744499206543,1,vertical,vertical,1,2,green,3,2,NaN,NaN,NaN,NaN,NaN,NaN,NaN,NaN,NaN,NaN,NaN,NaN,0,6,4,5,vertical,horizontal,vertical,horizontal
2b,19,100376,2,23,55,19,M,NA,constant,heterogeneous,4,present,0.924767971038818,1,horizontal,horizontal,1,2,green,3,4,NaN,NaN,NaN,NaN,NaN,NaN,NaN,NaN,NaN,NaN,NaN,NaN,5,6,4,0,vertical,horizontal,horizontal,vertical
2b,19,100376,2,24,56,19,M,NA,constant,heterogeneous,4,absent,1.24326014518738,1,vertical,vertical,1,8,green,4,NaN,NaN,NaN,NaN,NaN,NaN,NaN,NaN,NaN,NaN,NaN,NaN,NaN,3,5,0,4,vertical,horizontal,vertical,vertical
2b,19,100376,2,25,57,19,M,NA,constant,heterogeneous,4,absent,1.18826293945312,1,horizontal,horizontal,1,5,green,4,NaN,NaN,NaN,NaN,NaN,NaN,NaN,NaN,NaN,NaN,NaN,NaN,NaN,6,3,5,4,horizontal,vertical,vertical,horizontal
2b,19,100376,2,26,58,19,M,NA,constant,heterogeneous,4,present,0.684530019760132,1,horizontal,horizontal,1,3,green,4,3,NaN,NaN,NaN,NaN,NaN,NaN,NaN,NaN,NaN,NaN,NaN,NaN,5,0,6,4,horizontal,horizontal,horizontal,horizontal
2b,19,100376,2,27,59,19,M,NA,constant,heterogeneous,4,absent,1.55869913101196,1,horizontal,horizontal,1,2,green,1,NaN,NaN,NaN,NaN,NaN,NaN,NaN,NaN,NaN,NaN,NaN,NaN,NaN,4,5,6,3,horizontal,vertical,vertical,horizontal
2b,19,100376,2,28,60,19,M,NA,constant,heterogeneous,4,absent,1.83389496803284,1,horizontal,horizontal,1,8,green,4,NaN,NaN,NaN,NaN,NaN,NaN,NaN,NaN,NaN,NaN,NaN,NaN,NaN,6,0,3,4,horizontal,vertical,horizontal,horizontal
2b,19,100376,2,29,61,19,M,NA,constant,heterogeneous,4,absent,1.26698994636536,1,vertical,vertical,1,2,green,1,NaN,NaN,NaN,NaN,NaN,NaN,NaN,NaN,NaN,NaN,NaN,NaN,NaN,4,3,6,5,vertical,vertical,vertical,horizontal
2b,19,100376,2,30,62,19,M,NA,constant,heterogeneous,4,present,0.820534944534302,1,vertical,vertical,1,5,green,3,1,NaN,NaN,NaN,NaN,NaN,NaN,NaN,NaN,NaN,NaN,NaN,NaN,6,0,4,5,vertical,vertical,vertical,horizontal
2b,19,100376,2,31,63,19,M,NA,constant,heterogeneous,4,absent,1.26891303062439,1,vertical,vertical,1,5,green,1,NaN,NaN,NaN,NaN,NaN,NaN,NaN,NaN,NaN,NaN,NaN,NaN,NaN,4,6,5,0,vertical,vertical,vertical,vertical
2b,19,100376,2,32,64,19,M,NA,constant,heterogeneous,4,present,0.742495059967041,1,horizontal,horizontal,1,5,green,3,4,NaN,NaN,NaN,NaN,NaN,NaN,NaN,NaN,NaN,NaN,NaN,NaN,0,3,4,6,horizontal,vertical,horizontal,horizontal
2b,19,100376,3,1,65,19,M,NA,constant,heterogeneous,4,absent,0.828479051589966,1,horizontal,horizontal,1,3,green,3,NaN,NaN,NaN,NaN,NaN,NaN,NaN,NaN,NaN,NaN,NaN,NaN,NaN,5,3,4,0,horizontal,vertical,horizontal,horizontal
2b,19,100376,3,2,66,19,M,NA,constant,heterogeneous,4,absent,1.00121784210205,1,horizontal,horizontal,1,8,green,1,NaN,NaN,NaN,NaN,NaN,NaN,NaN,NaN,NaN,NaN,NaN,NaN,NaN,4,0,5,6,horizontal,vertical,vertical,vertical
2b,19,100376,3,3,67,19,M,NA,constant,heterogeneous,4,present,0.997578859329224,1,vertical,vertical,1,8,green,4,2,NaN,NaN,NaN,NaN,NaN,NaN,NaN,NaN,NaN,NaN,NaN,NaN,5,3,0,4,horizontal,vertical,vertical,vertical
2b,19,100376,3,4,68,19,M,NA,constant,heterogeneous,4,absent,1.14198994636536,1,horizontal,horizontal,1,5,green,3,NaN,NaN,NaN,NaN,NaN,NaN,NaN,NaN,NaN,NaN,NaN,NaN,NaN,3,0,4,6,vertical,vertical,horizontal,vertical
2b,19,100376,3,5,69,19,M,NA,constant,heterogeneous,4,present,1.70897698402405,0,horizontal,vertical,1,3,green,4,3,NaN,NaN,NaN,NaN,NaN,NaN,NaN,NaN,NaN,NaN,NaN,NaN,3,6,5,4,vertical,vertical,horizontal,horizontal
2b,19,100376,3,6,70,19,M,NA,constant,heterogeneous,4,absent,0.855226993560791,1,vertical,vertical,1,2,green,4,NaN,NaN,NaN,NaN,NaN,NaN,NaN,NaN,NaN,NaN,NaN,NaN,NaN,5,3,0,4,vertical,horizontal,vertical,vertical
2b,19,100376,3,7,71,19,M,NA,constant,heterogeneous,4,present,1.90021085739136,1,horizontal,horizontal,1,2,green,1,3,NaN,NaN,NaN,NaN,NaN,NaN,NaN,NaN,NaN,NaN,NaN,NaN,4,5,3,0,horizontal,horizontal,horizontal,vertical
2b,19,100376,3,8,72,19,M,NA,constant,heterogeneous,4,present,1.33873701095581,1,horizontal,horizontal,1,2,green,2,3,NaN,NaN,NaN,NaN,NaN,NaN,NaN,NaN,NaN,NaN,NaN,NaN,6,4,0,3,horizontal,horizontal,horizontal,vertical
2b,19,100376,3,9,73,19,M,NA,constant,heterogeneous,4,present,0.813650846481323,1,horizontal,horizontal,1,2,green,2,3,NaN,NaN,NaN,NaN,NaN,NaN,NaN,NaN,NaN,NaN,NaN,NaN,3,4,0,6,horizontal,horizontal,horizontal,horizontal
2b,19,100376,3,10,74,19,M,NA,constant,heterogeneous,4,present,0.862076997756958,1,vertical,vertical,1,3,green,1,4,NaN,NaN,NaN,NaN,NaN,NaN,NaN,NaN,NaN,NaN,NaN,NaN,4,5,3,0,vertical,vertical,vertical,vertical
2b,19,100376,3,11,75,19,M,NA,constant,heterogeneous,4,absent,0.807827949523926,1,vertical,vertical,1,8,green,4,NaN,NaN,NaN,NaN,NaN,NaN,NaN,NaN,NaN,NaN,NaN,NaN,NaN,5,3,0,4,horizontal,horizontal,vertical,vertical
2b,19,100376,3,12,76,19,M,NA,constant,heterogeneous,4,present,1.12414002418518,1,vertical,vertical,1,5,green,2,3,NaN,NaN,NaN,NaN,NaN,NaN,NaN,NaN,NaN,NaN,NaN,NaN,3,4,6,5,horizontal,vertical,vertical,vertical
2b,19,100376,3,13,77,19,M,NA,constant,heterogeneous,4,absent,1.17868685722351,1,horizontal,horizontal,1,2,green,3,NaN,NaN,NaN,NaN,NaN,NaN,NaN,NaN,NaN,NaN,NaN,NaN,NaN,5,6,4,0,horizontal,horizontal,horizontal,horizontal
2b,19,100376,3,14,78,19,M,NA,constant,heterogeneous,4,absent,0.95058798789978,1,vertical,vertical,1,2,green,3,NaN,NaN,NaN,NaN,NaN,NaN,NaN,NaN,NaN,NaN,NaN,NaN,NaN,3,5,4,0,horizontal,horizontal,vertical,horizontal
2b,19,100376,3,15,79,19,M,NA,constant,heterogeneous,4,absent,0.789393901824951,1,vertical,vertical,1,3,green,3,NaN,NaN,NaN,NaN,NaN,NaN,NaN,NaN,NaN,NaN,NaN,NaN,NaN,3,6,4,0,horizontal,vertical,vertical,vertical
2b,19,100376,3,16,80,19,M,NA,constant,heterogeneous,4,absent,0.965739965438843,1,horizontal,horizontal,1,2,green,1,NaN,NaN,NaN,NaN,NaN,NaN,NaN,NaN,NaN,NaN,NaN,NaN,NaN,4,5,6,3,horizontal,horizontal,vertical,vertical
2b,19,100376,3,17,81,19,M,NA,constant,heterogeneous,4,present,1.20520210266113,1,vertical,vertical,1,2,green,4,2,NaN,NaN,NaN,NaN,NaN,NaN,NaN,NaN,NaN,NaN,NaN,NaN,5,0,6,4,vertical,horizontal,horizontal,vertical
2b,19,100376,3,18,82,19,M,NA,constant,heterogeneous,4,absent,0.921489000320435,1,vertical,vertical,1,2,green,4,NaN,NaN,NaN,NaN,NaN,NaN,NaN,NaN,NaN,NaN,NaN,NaN,NaN,3,5,6,4,vertical,vertical,horizontal,vertical
2b,19,100376,3,19,83,19,M,NA,constant,heterogeneous,4,absent,0.927841901779175,1,vertical,vertical,1,5,green,4,NaN,NaN,NaN,NaN,NaN,NaN,NaN,NaN,NaN,NaN,NaN,NaN,NaN,5,3,0,4,vertical,horizontal,vertical,vertical
2b,19,100376,3,20,84,19,M,NA,constant,heterogeneous,4,absent,1.29097700119019,1,vertical,vertical,1,5,green,1,NaN,NaN,NaN,NaN,NaN,NaN,NaN,NaN,NaN,NaN,NaN,NaN,NaN,4,3,6,5,vertical,horizontal,vertical,horizontal
2b,19,100376,3,21,85,19,M,NA,constant,heterogeneous,4,absent,0.788747072219849,1,vertical,vertical,1,3,green,1,NaN,NaN,NaN,NaN,NaN,NaN,NaN,NaN,NaN,NaN,NaN,NaN,NaN,4,0,6,3,vertical,vertical,vertical,horizontal
2b,19,100376,3,22,86,19,M,NA,constant,heterogeneous,4,present,1.13318109512329,1,horizontal,horizontal,1,5,green,3,4,NaN,NaN,NaN,NaN,NaN,NaN,NaN,NaN,NaN,NaN,NaN,NaN,3,0,4,5,vertical,horizontal,horizontal,horizontal
2b,19,100376,3,23,87,19,M,NA,constant,heterogeneous,4,present,1.12803792953491,1,vertical,vertical,1,2,green,2,4,NaN,NaN,NaN,NaN,NaN,NaN,NaN,NaN,NaN,NaN,NaN,NaN,0,4,6,5,horizontal,vertical,horizontal,vertical
2b,19,100376,3,24,88,19,M,NA,constant,heterogeneous,4,present,1.37093281745911,1,vertical,vertical,1,5,green,2,4,NaN,NaN,NaN,NaN,NaN,NaN,NaN,NaN,NaN,NaN,NaN,NaN,5,4,3,0,vertical,vertical,vertical,vertical
2b,19,100376,3,25,89,19,M,NA,constant,heterogeneous,4,present,0.826575994491577,1,horizontal,horizontal,1,8,green,3,1,NaN,NaN,NaN,NaN,NaN,NaN,NaN,NaN,NaN,NaN,NaN,NaN,3,6,4,0,vertical,vertical,horizontal,horizontal
2b,19,100376,3,26,90,19,M,NA,constant,heterogeneous,4,present,0.7756028175354,1,vertical,vertical,1,2,green,2,1,NaN,NaN,NaN,NaN,NaN,NaN,NaN,NaN,NaN,NaN,NaN,NaN,0,4,3,5,horizontal,vertical,vertical,vertical
2b,19,100376,3,27,91,19,M,NA,constant,heterogeneous,4,absent,0.842870950698853,1,horizontal,horizontal,1,5,green,3,NaN,NaN,NaN,NaN,NaN,NaN,NaN,NaN,NaN,NaN,NaN,NaN,NaN,6,0,4,5,vertical,vertical,horizontal,horizontal
2b,19,100376,3,28,92,19,M,NA,constant,heterogeneous,4,absent,0.771942853927612,1,horizontal,horizontal,1,3,green,2,NaN,NaN,NaN,NaN,NaN,NaN,NaN,NaN,NaN,NaN,NaN,NaN,NaN,0,4,5,3,vertical,horizontal,horizontal,vertical
2b,19,100376,3,29,93,19,M,NA,constant,heterogeneous,4,present,1.26767301559448,1,horizontal,horizontal,1,3,green,4,2,NaN,NaN,NaN,NaN,NaN,NaN,NaN,NaN,NaN,NaN,NaN,NaN,3,6,5,4,vertical,horizontal,vertical,horizontal
2b,19,100376,3,30,94,19,M,NA,constant,heterogeneous,4,absent,0.877074003219604,1,horizontal,horizontal,1,2,green,3,NaN,NaN,NaN,NaN,NaN,NaN,NaN,NaN,NaN,NaN,NaN,NaN,NaN,5,3,4,0,horizontal,vertical,horizontal,vertical
2b,19,100376,3,31,95,19,M,NA,constant,heterogeneous,4,present,0.850870847702026,1,horizontal,horizontal,1,5,green,4,2,NaN,NaN,NaN,NaN,NaN,NaN,NaN,NaN,NaN,NaN,NaN,NaN,6,5,3,4,horizontal,vertical,horizontal,horizontal
2b,19,100376,3,32,96,19,M,NA,constant,heterogeneous,4,present,0.672423839569092,1,vertical,vertical,1,3,green,3,1,NaN,NaN,NaN,NaN,NaN,NaN,NaN,NaN,NaN,NaN,NaN,NaN,3,5,4,0,horizontal,vertical,vertical,horizontal
2b,19,100376,4,1,97,19,M,NA,constant,heterogeneous,4,absent,0.879081964492798,1,horizontal,horizontal,1,5,green,2,NaN,NaN,NaN,NaN,NaN,NaN,NaN,NaN,NaN,NaN,NaN,NaN,NaN,0,4,5,3,vertical,horizontal,vertical,vertical
2b,19,100376,4,2,98,19,M,NA,constant,heterogeneous,4,absent,1.24472403526306,0,vertical,horizontal,1,2,green,1,NaN,NaN,NaN,NaN,NaN,NaN,NaN,NaN,NaN,NaN,NaN,NaN,NaN,4,5,6,3,vertical,vertical,vertical,vertical
2b,19,100376,4,3,99,19,M,NA,constant,heterogeneous,4,absent,1.1497368812561,1,horizontal,horizontal,1,2,green,1,NaN,NaN,NaN,NaN,NaN,NaN,NaN,NaN,NaN,NaN,NaN,NaN,NaN,4,5,0,3,horizontal,vertical,horizontal,vertical
2b,19,100376,4,4,100,19,M,NA,constant,heterogeneous,4,present,0.772677183151245,0,horizontal,vertical,1,3,green,4,2,NaN,NaN,NaN,NaN,NaN,NaN,NaN,NaN,NaN,NaN,NaN,NaN,6,0,5,4,vertical,vertical,vertical,horizontal
2b,19,100376,4,5,101,19,M,NA,constant,heterogeneous,4,present,0.956508159637451,1,horizontal,horizontal,1,8,green,4,3,NaN,NaN,NaN,NaN,NaN,NaN,NaN,NaN,NaN,NaN,NaN,NaN,0,6,5,4,horizontal,horizontal,vertical,horizontal
2b,19,100376,4,6,102,19,M,NA,constant,heterogeneous,4,absent,0.631871938705444,1,horizontal,horizontal,1,2,green,4,NaN,NaN,NaN,NaN,NaN,NaN,NaN,NaN,NaN,NaN,NaN,NaN,NaN,3,0,5,4,vertical,vertical,horizontal,horizontal
2b,19,100376,4,7,103,19,M,NA,constant,heterogeneous,4,absent,0.732322931289673,1,vertical,vertical,1,2,green,1,NaN,NaN,NaN,NaN,NaN,NaN,NaN,NaN,NaN,NaN,NaN,NaN,NaN,4,5,3,0,vertical,horizontal,horizontal,horizontal
2b,19,100376,4,8,104,19,M,NA,constant,heterogeneous,4,present,1.1355299949646,1,vertical,vertical,1,5,green,2,4,NaN,NaN,NaN,NaN,NaN,NaN,NaN,NaN,NaN,NaN,NaN,NaN,3,4,6,0,vertical,vertical,horizontal,horizontal
2b,19,100376,4,9,105,19,M,NA,constant,heterogeneous,4,present,0.906267881393433,1,vertical,vertical,1,2,green,4,2,NaN,NaN,NaN,NaN,NaN,NaN,NaN,NaN,NaN,NaN,NaN,NaN,0,3,6,4,vertical,vertical,horizontal,vertical
2b,19,100376,4,10,106,19,M,NA,constant,heterogeneous,4,present,0.804630041122437,1,vertical,vertical,1,2,green,2,3,NaN,NaN,NaN,NaN,NaN,NaN,NaN,NaN,NaN,NaN,NaN,NaN,3,4,6,0,horizontal,vertical,vertical,horizontal
2b,19,100376,4,11,107,19,M,NA,constant,heterogeneous,4,present,0.792906999588013,1,vertical,vertical,1,2,green,3,4,NaN,NaN,NaN,NaN,NaN,NaN,NaN,NaN,NaN,NaN,NaN,NaN,5,6,4,0,vertical,horizontal,vertical,horizontal
2b,19,100376,4,12,108,19,M,NA,constant,heterogeneous,4,absent,0.96094012260437,1,vertical,vertical,1,5,green,3,NaN,NaN,NaN,NaN,NaN,NaN,NaN,NaN,NaN,NaN,NaN,NaN,NaN,6,3,4,5,vertical,horizontal,vertical,vertical
2b,19,100376,4,13,109,19,M,NA,constant,heterogeneous,4,present,0.73245096206665,1,vertical,vertical,1,8,green,3,4,NaN,NaN,NaN,NaN,NaN,NaN,NaN,NaN,NaN,NaN,NaN,NaN,0,5,4,6,vertical,horizontal,vertical,vertical
2b,19,100376,4,14,110,19,M,NA,constant,heterogeneous,4,absent,1.45569205284119,1,horizontal,horizontal,1,3,green,4,NaN,NaN,NaN,NaN,NaN,NaN,NaN,NaN,NaN,NaN,NaN,NaN,NaN,0,6,5,4,vertical,vertical,vertical,horizontal
2b,19,100376,4,15,111,19,M,NA,constant,heterogeneous,4,present,0.988842010498047,1,horizontal,horizontal,1,2,green,3,1,NaN,NaN,NaN,NaN,NaN,NaN,NaN,NaN,NaN,NaN,NaN,NaN,5,6,4,0,horizontal,horizontal,horizontal,vertical
2b,19,100376,4,16,112,19,M,NA,constant,heterogeneous,4,present,0.764801025390625,1,vertical,vertical,1,3,green,1,4,NaN,NaN,NaN,NaN,NaN,NaN,NaN,NaN,NaN,NaN,NaN,NaN,4,0,3,6,vertical,horizontal,horizontal,vertical
2b,19,100376,4,17,113,19,M,NA,constant,heterogeneous,4,absent,1.1806538105011,1,vertical,vertical,1,3,green,2,NaN,NaN,NaN,NaN,NaN,NaN,NaN,NaN,NaN,NaN,NaN,NaN,NaN,0,4,3,6,vertical,vertical,horizontal,horizontal
2b,19,100376,4,18,114,19,M,NA,constant,heterogeneous,4,absent,0.976060152053833,1,vertical,vertical,1,3,green,1,NaN,NaN,NaN,NaN,NaN,NaN,NaN,NaN,NaN,NaN,NaN,NaN,NaN,4,3,6,0,vertical,horizontal,horizontal,horizontal
2b,19,100376,4,19,115,19,M,NA,constant,heterogeneous,4,absent,1.42011189460754,1,horizontal,horizontal,1,3,green,3,NaN,NaN,NaN,NaN,NaN,NaN,NaN,NaN,NaN,NaN,NaN,NaN,NaN,0,6,4,3,vertical,horizontal,horizontal,horizontal
2b,19,100376,4,20,116,19,M,NA,constant,heterogeneous,4,absent,0.628765106201172,1,horizontal,horizontal,1,5,green,1,NaN,NaN,NaN,NaN,NaN,NaN,NaN,NaN,NaN,NaN,NaN,NaN,NaN,4,0,3,6,horizontal,horizontal,horizontal,horizontal
2b,19,100376,4,21,117,19,M,NA,constant,heterogeneous,4,present,0.569393873214722,1,horizontal,horizontal,1,2,green,1,2,NaN,NaN,NaN,NaN,NaN,NaN,NaN,NaN,NaN,NaN,NaN,NaN,4,0,5,3,horizontal,vertical,horizontal,horizontal
2b,19,100376,4,22,118,19,M,NA,constant,heterogeneous,4,present,0.68877100944519,1,vertical,vertical,1,5,green,3,2,NaN,NaN,NaN,NaN,NaN,NaN,NaN,NaN,NaN,NaN,NaN,NaN,3,5,4,6,horizontal,vertical,vertical,horizontal
2b,19,100376,4,23,119,19,M,NA,constant,heterogeneous,4,absent,1.0268759727478,1,vertical,vertical,1,5,green,4,NaN,NaN,NaN,NaN,NaN,NaN,NaN,NaN,NaN,NaN,NaN,NaN,NaN,3,6,5,4,horizontal,horizontal,vertical,vertical
2b,19,100376,4,24,120,19,M,NA,constant,heterogeneous,4,absent,1.51184415817261,1,vertical,vertical,1,8,green,2,NaN,NaN,NaN,NaN,NaN,NaN,NaN,NaN,NaN,NaN,NaN,NaN,NaN,3,4,5,6,vertical,vertical,vertical,horizontal
2b,19,100376,4,25,121,19,M,NA,constant,heterogeneous,4,present,0.850329160690308,1,horizontal,horizontal,1,5,green,1,4,NaN,NaN,NaN,NaN,NaN,NaN,NaN,NaN,NaN,NaN,NaN,NaN,4,5,0,6,horizontal,horizontal,vertical,horizontal
2b,19,100376,4,26,122,19,M,NA,constant,heterogeneous,4,present,1.11950302124023,1,horizontal,horizontal,1,5,green,3,2,NaN,NaN,NaN,NaN,NaN,NaN,NaN,NaN,NaN,NaN,NaN,NaN,5,0,4,3,vertical,horizontal,horizontal,vertical
2b,19,100376,4,27,123,19,M,NA,constant,heterogeneous,4,present,1.08604693412781,1,horizontal,horizontal,1,3,green,4,1,NaN,NaN,NaN,NaN,NaN,NaN,NaN,NaN,NaN,NaN,NaN,NaN,0,6,3,4,vertical,vertical,horizontal,horizontal
2b,19,100376,4,28,124,19,M,NA,constant,heterogeneous,4,absent,0.808022975921631,1,vertical,vertical,1,2,green,2,NaN,NaN,NaN,NaN,NaN,NaN,NaN,NaN,NaN,NaN,NaN,NaN,NaN,0,4,6,5,vertical,vertical,horizontal,vertical
2b,19,100376,4,29,125,19,M,NA,constant,heterogeneous,4,present,0.900424957275391,1,vertical,vertical,1,3,green,4,2,NaN,NaN,NaN,NaN,NaN,NaN,NaN,NaN,NaN,NaN,NaN,NaN,3,5,6,4,horizontal,horizontal,horizontal,vertical
2b,19,100376,4,30,126,19,M,NA,constant,heterogeneous,4,absent,1.13068890571594,1,horizontal,horizontal,1,8,green,4,NaN,NaN,NaN,NaN,NaN,NaN,NaN,NaN,NaN,NaN,NaN,NaN,NaN,0,5,6,4,horizontal,vertical,vertical,horizontal
2b,19,100376,4,31,127,19,M,NA,constant,heterogeneous,4,absent,1.0135350227356,1,horizontal,horizontal,1,2,green,3,NaN,NaN,NaN,NaN,NaN,NaN,NaN,NaN,NaN,NaN,NaN,NaN,NaN,6,5,4,3,horizontal,vertical,horizontal,horizontal
2b,19,100376,4,32,128,19,M,NA,constant,heterogeneous,4,present,0.83808708190918,1,horizontal,horizontal,1,2,green,1,4,NaN,NaN,NaN,NaN,NaN,NaN,NaN,NaN,NaN,NaN,NaN,NaN,4,6,5,0,horizontal,vertical,vertical,horizontal
2b,19,100376,5,1,129,19,M,NA,constant,heterogeneous,4,absent,1.83474802970886,1,vertical,vertical,1,5,green,1,NaN,NaN,NaN,NaN,NaN,NaN,NaN,NaN,NaN,NaN,NaN,NaN,NaN,4,6,5,3,vertical,horizontal,vertical,vertical
2b,19,100376,5,2,130,19,M,NA,constant,heterogeneous,4,absent,0.891564130783081,1,horizontal,horizontal,1,3,green,3,NaN,NaN,NaN,NaN,NaN,NaN,NaN,NaN,NaN,NaN,NaN,NaN,NaN,6,0,4,3,horizontal,vertical,horizontal,vertical
2b,19,100376,5,3,131,19,M,NA,constant,heterogeneous,4,absent,0.725733995437622,1,vertical,vertical,1,3,green,1,NaN,NaN,NaN,NaN,NaN,NaN,NaN,NaN,NaN,NaN,NaN,NaN,NaN,4,3,5,6,vertical,vertical,vertical,vertical
2b,19,100376,5,4,132,19,M,NA,constant,heterogeneous,4,present,0.676352977752686,1,vertical,vertical,1,5,green,1,2,NaN,NaN,NaN,NaN,NaN,NaN,NaN,NaN,NaN,NaN,NaN,NaN,4,5,3,0,vertical,vertical,vertical,vertical
2b,19,100376,5,5,133,19,M,NA,constant,heterogeneous,4,present,0.745939970016479,1,horizontal,horizontal,1,2,green,4,3,NaN,NaN,NaN,NaN,NaN,NaN,NaN,NaN,NaN,NaN,NaN,NaN,0,3,6,4,horizontal,horizontal,horizontal,horizontal
2b,19,100376,5,6,134,19,M,NA,constant,heterogeneous,4,present,0.673280000686646,1,horizontal,horizontal,1,5,green,1,3,NaN,NaN,NaN,NaN,NaN,NaN,NaN,NaN,NaN,NaN,NaN,NaN,4,0,6,5,horizontal,vertical,vertical,horizontal
2b,19,100376,5,7,135,19,M,NA,constant,heterogeneous,4,absent,0.670915126800537,1,horizontal,horizontal,1,5,green,1,NaN,NaN,NaN,NaN,NaN,NaN,NaN,NaN,NaN,NaN,NaN,NaN,NaN,4,5,3,0,horizontal,vertical,horizontal,vertical
2b,19,100376,5,8,136,19,M,NA,constant,heterogeneous,4,absent,1.45299291610718,1,horizontal,horizontal,1,5,green,2,NaN,NaN,NaN,NaN,NaN,NaN,NaN,NaN,NaN,NaN,NaN,NaN,NaN,3,4,5,0,horizontal,horizontal,horizontal,vertical
2b,19,100376,5,9,137,19,M,NA,constant,heterogeneous,4,present,0.601800203323364,1,vertical,vertical,1,2,green,2,4,NaN,NaN,NaN,NaN,NaN,NaN,NaN,NaN,NaN,NaN,NaN,NaN,0,4,5,6,horizontal,vertical,vertical,horizontal
2b,19,100376,5,10,138,19,M,NA,constant,heterogeneous,4,absent,0.694273948669434,1,vertical,vertical,1,2,green,2,NaN,NaN,NaN,NaN,NaN,NaN,NaN,NaN,NaN,NaN,NaN,NaN,NaN,3,4,6,0,horizontal,vertical,horizontal,vertical
2b,19,100376,5,11,139,19,M,NA,constant,heterogeneous,4,absent,0.884449005126953,1,horizontal,horizontal,1,2,green,2,NaN,NaN,NaN,NaN,NaN,NaN,NaN,NaN,NaN,NaN,NaN,NaN,NaN,5,4,3,6,horizontal,horizontal,horizontal,horizontal
2b,19,100376,5,12,140,19,M,NA,constant,heterogeneous,4,present,1.08634305000305,1,horizontal,horizontal,1,3,green,1,3,NaN,NaN,NaN,NaN,NaN,NaN,NaN,NaN,NaN,NaN,NaN,NaN,4,5,6,3,horizontal,vertical,vertical,horizontal
2b,19,100376,5,13,141,19,M,NA,constant,heterogeneous,4,absent,0.888429880142212,1,horizontal,horizontal,1,2,green,1,NaN,NaN,NaN,NaN,NaN,NaN,NaN,NaN,NaN,NaN,NaN,NaN,NaN,4,3,6,5,horizontal,horizontal,vertical,vertical
2b,19,100376,5,14,142,19,M,NA,constant,heterogeneous,4,absent,0.946440935134888,1,vertical,vertical,1,3,green,4,NaN,NaN,NaN,NaN,NaN,NaN,NaN,NaN,NaN,NaN,NaN,NaN,NaN,6,5,0,4,vertical,horizontal,horizontal,vertical
2b,19,100376,5,15,143,19,M,NA,constant,heterogeneous,4,present,0.921318054199219,1,vertical,vertical,1,2,green,1,2,NaN,NaN,NaN,NaN,NaN,NaN,NaN,NaN,NaN,NaN,NaN,NaN,4,0,5,3,vertical,horizontal,horizontal,horizontal
2b,19,100376,5,16,144,19,M,NA,constant,heterogeneous,4,absent,0.77609395980835,1,horizontal,horizontal,1,2,green,1,NaN,NaN,NaN,NaN,NaN,NaN,NaN,NaN,NaN,NaN,NaN,NaN,NaN,4,0,5,3,horizontal,vertical,horizontal,horizontal
2b,19,100376,5,17,145,19,M,NA,constant,heterogeneous,4,absent,1.05996489524841,1,vertical,vertical,1,2,green,2,NaN,NaN,NaN,NaN,NaN,NaN,NaN,NaN,NaN,NaN,NaN,NaN,NaN,6,4,0,3,horizontal,vertical,horizontal,horizontal
2b,19,100376,5,18,146,19,M,NA,constant,heterogeneous,4,present,0.60522985458374,1,vertical,vertical,1,5,green,1,2,NaN,NaN,NaN,NaN,NaN,NaN,NaN,NaN,NaN,NaN,NaN,NaN,4,0,3,6,vertical,horizontal,horizontal,horizontal
2b,19,100376,5,19,147,19,M,NA,constant,heterogeneous,4,absent,0.681838989257812,1,vertical,vertical,1,2,green,2,NaN,NaN,NaN,NaN,NaN,NaN,NaN,NaN,NaN,NaN,NaN,NaN,NaN,0,4,6,5,vertical,vertical,horizontal,horizontal
2b,19,100376,5,20,148,19,M,NA,constant,heterogeneous,4,absent,0.835417032241821,1,vertical,vertical,1,8,green,2,NaN,NaN,NaN,NaN,NaN,NaN,NaN,NaN,NaN,NaN,NaN,NaN,NaN,6,4,3,5,horizontal,vertical,vertical,vertical
2b,19,100376,5,21,149,19,M,NA,constant,heterogeneous,4,absent,1.18076300621033,0,horizontal,vertical,1,3,green,1,NaN,NaN,NaN,NaN,NaN,NaN,NaN,NaN,NaN,NaN,NaN,NaN,NaN,4,5,0,6,horizontal,horizontal,horizontal,vertical
2b,19,100376,5,22,150,19,M,NA,constant,heterogeneous,4,absent,0.848320007324219,1,vertical,vertical,1,5,green,3,NaN,NaN,NaN,NaN,NaN,NaN,NaN,NaN,NaN,NaN,NaN,NaN,NaN,5,6,4,0,vertical,horizontal,vertical,vertical
2b,19,100376,5,23,151,19,M,NA,constant,heterogeneous,4,absent,0.837873935699463,1,horizontal,horizontal,1,8,green,3,NaN,NaN,NaN,NaN,NaN,NaN,NaN,NaN,NaN,NaN,NaN,NaN,NaN,5,0,4,6,horizontal,vertical,horizontal,horizontal
2b,19,100376,5,24,152,19,M,NA,constant,heterogeneous,4,present,0.918782949447632,1,horizontal,horizontal,1,2,green,3,1,NaN,NaN,NaN,NaN,NaN,NaN,NaN,NaN,NaN,NaN,NaN,NaN,5,6,4,0,horizontal,horizontal,horizontal,vertical
2b,19,100376,5,25,153,19,M,NA,constant,heterogeneous,4,present,1.75718307495117,1,horizontal,horizontal,1,5,green,1,4,NaN,NaN,NaN,NaN,NaN,NaN,NaN,NaN,NaN,NaN,NaN,NaN,4,3,0,5,horizontal,vertical,horizontal,horizontal
2b,19,100376,5,26,154,19,M,NA,constant,heterogeneous,4,present,0.968731164932251,1,vertical,vertical,1,8,green,3,2,NaN,NaN,NaN,NaN,NaN,NaN,NaN,NaN,NaN,NaN,NaN,NaN,6,0,4,3,vertical,vertical,vertical,vertical
2b,19,100376,5,27,155,19,M,NA,constant,heterogeneous,4,present,1.18450117111206,1,vertical,vertical,1,3,green,2,3,NaN,NaN,NaN,NaN,NaN,NaN,NaN,NaN,NaN,NaN,NaN,NaN,3,4,5,0,vertical,vertical,vertical,vertical
2b,19,100376,5,28,156,19,M,NA,constant,heterogeneous,4,present,0.812344074249268,1,horizontal,horizontal,1,2,green,2,1,NaN,NaN,NaN,NaN,NaN,NaN,NaN,NaN,NaN,NaN,NaN,NaN,0,4,5,3,horizontal,horizontal,horizontal,vertical
2b,19,100376,5,29,157,19,M,NA,constant,heterogeneous,4,present,1.28464508056641,1,horizontal,horizontal,1,8,green,4,2,NaN,NaN,NaN,NaN,NaN,NaN,NaN,NaN,NaN,NaN,NaN,NaN,5,0,3,4,horizontal,horizontal,vertical,horizontal
2b,19,100376,5,30,158,19,M,NA,constant,heterogeneous,4,present,0.830892086029053,1,horizontal,horizontal,1,3,green,4,1,NaN,NaN,NaN,NaN,NaN,NaN,NaN,NaN,NaN,NaN,NaN,NaN,6,0,3,4,horizontal,horizontal,horizontal,horizontal
2b,19,100376,5,31,159,19,M,NA,constant,heterogeneous,4,present,0.835624933242798,1,vertical,vertical,1,3,green,3,2,NaN,NaN,NaN,NaN,NaN,NaN,NaN,NaN,NaN,NaN,NaN,NaN,5,3,4,6,vertical,vertical,vertical,vertical
2b,19,100376,5,32,160,19,M,NA,constant,heterogeneous,4,present,0.724343061447144,1,vertical,vertical,1,2,green,3,2,NaN,NaN,NaN,NaN,NaN,NaN,NaN,NaN,NaN,NaN,NaN,NaN,0,3,4,5,vertical,horizontal,vertical,vertical
2b,19,100376,6,1,161,19,M,NA,constant,heterogeneous,4,present,0.891381978988647,1,horizontal,horizontal,1,2,green,3,1,NaN,NaN,NaN,NaN,NaN,NaN,NaN,NaN,NaN,NaN,NaN,NaN,6,3,4,5,horizontal,horizontal,horizontal,vertical
2b,19,100376,6,2,162,19,M,NA,constant,heterogeneous,4,absent,1.10941004753113,1,vertical,vertical,1,5,green,2,NaN,NaN,NaN,NaN,NaN,NaN,NaN,NaN,NaN,NaN,NaN,NaN,NaN,3,4,5,6,horizontal,vertical,vertical,vertical
2b,19,100376,6,3,163,19,M,NA,constant,heterogeneous,4,absent,0.72808313369751,0,vertical,horizontal,1,2,green,4,NaN,NaN,NaN,NaN,NaN,NaN,NaN,NaN,NaN,NaN,NaN,NaN,NaN,3,5,6,4,vertical,horizontal,horizontal,vertical
2b,19,100376,6,4,164,19,M,NA,constant,heterogeneous,4,absent,0.730437994003296,1,vertical,vertical,1,5,green,4,NaN,NaN,NaN,NaN,NaN,NaN,NaN,NaN,NaN,NaN,NaN,NaN,NaN,5,3,6,4,horizontal,vertical,vertical,vertical
2b,19,100376,6,5,165,19,M,NA,constant,heterogeneous,4,absent,1.15755486488342,1,vertical,vertical,1,8,green,1,NaN,NaN,NaN,NaN,NaN,NaN,NaN,NaN,NaN,NaN,NaN,NaN,NaN,4,3,0,5,vertical,horizontal,horizontal,vertical
2b,19,100376,6,6,166,19,M,NA,constant,heterogeneous,4,present,0.76900315284729,1,vertical,vertical,1,3,green,1,2,NaN,NaN,NaN,NaN,NaN,NaN,NaN,NaN,NaN,NaN,NaN,NaN,4,5,3,6,vertical,horizontal,horizontal,horizontal
2b,19,100376,6,7,167,19,M,NA,constant,heterogeneous,4,absent,1.05665802955627,1,horizontal,horizontal,1,3,green,3,NaN,NaN,NaN,NaN,NaN,NaN,NaN,NaN,NaN,NaN,NaN,NaN,NaN,0,3,4,6,horizontal,vertical,horizontal,vertical
2b,19,100376,6,8,168,19,M,NA,constant,heterogeneous,4,present,0.981733083724976,1,vertical,vertical,1,5,green,2,1,NaN,NaN,NaN,NaN,NaN,NaN,NaN,NaN,NaN,NaN,NaN,NaN,6,4,3,0,horizontal,vertical,horizontal,vertical
2b,19,100376,6,9,169,19,M,NA,constant,heterogeneous,4,absent,1.16173005104065,1,vertical,vertical,1,2,green,1,NaN,NaN,NaN,NaN,NaN,NaN,NaN,NaN,NaN,NaN,NaN,NaN,NaN,4,3,6,5,vertical,vertical,horizontal,horizontal
2b,19,100376,6,10,170,19,M,NA,constant,heterogeneous,4,present,0.845059871673584,1,vertical,vertical,1,2,green,2,1,NaN,NaN,NaN,NaN,NaN,NaN,NaN,NaN,NaN,NaN,NaN,NaN,5,4,0,6,vertical,vertical,horizontal,vertical
2b,19,100376,6,11,171,19,M,NA,constant,heterogeneous,4,present,0.838114023208618,1,horizontal,horizontal,1,3,green,1,3,NaN,NaN,NaN,NaN,NaN,NaN,NaN,NaN,NaN,NaN,NaN,NaN,4,5,6,0,horizontal,horizontal,vertical,vertical
2b,19,100376,6,12,172,19,M,NA,constant,heterogeneous,4,absent,0.886926889419556,1,vertical,vertical,1,2,green,2,NaN,NaN,NaN,NaN,NaN,NaN,NaN,NaN,NaN,NaN,NaN,NaN,NaN,3,4,0,5,horizontal,vertical,vertical,vertical
2b,19,100376,6,13,173,19,M,NA,constant,heterogeneous,4,absent,1.03289008140564,1,horizontal,horizontal,1,2,green,4,NaN,NaN,NaN,NaN,NaN,NaN,NaN,NaN,NaN,NaN,NaN,NaN,NaN,0,5,3,4,vertical,horizontal,horizontal,horizontal
2b,19,100376,6,14,174,19,M,NA,constant,heterogeneous,4,absent,0.805524110794067,1,horizontal,horizontal,1,3,green,4,NaN,NaN,NaN,NaN,NaN,NaN,NaN,NaN,NaN,NaN,NaN,NaN,NaN,3,0,5,4,vertical,horizontal,horizontal,horizontal
2b,19,100376,6,15,175,19,M,NA,constant,heterogeneous,4,present,1.33838391304016,1,vertical,vertical,1,2,green,3,4,NaN,NaN,NaN,NaN,NaN,NaN,NaN,NaN,NaN,NaN,NaN,NaN,0,3,4,5,horizontal,vertical,vertical,horizontal
2b,19,100376,6,16,176,19,M,NA,constant,heterogeneous,4,present,0.932832002639771,1,horizontal,horizontal,1,5,green,2,4,NaN,NaN,NaN,NaN,NaN,NaN,NaN,NaN,NaN,NaN,NaN,NaN,0,4,5,6,vertical,horizontal,vertical,horizontal
2b,19,100376,6,17,177,19,M,NA,constant,heterogeneous,4,present,0.6959068775177,1,vertical,vertical,1,2,green,2,1,NaN,NaN,NaN,NaN,NaN,NaN,NaN,NaN,NaN,NaN,NaN,NaN,3,4,6,0,vertical,vertical,vertical,vertical
2b,19,100376,6,18,178,19,M,NA,constant,heterogeneous,4,present,0.965823173522949,1,horizontal,horizontal,1,2,green,1,2,NaN,NaN,NaN,NaN,NaN,NaN,NaN,NaN,NaN,NaN,NaN,NaN,4,5,0,6,horizontal,vertical,vertical,horizontal
2b,19,100376,6,19,179,19,M,NA,constant,heterogeneous,4,present,1.10964798927307,1,vertical,vertical,1,8,green,4,1,NaN,NaN,NaN,NaN,NaN,NaN,NaN,NaN,NaN,NaN,NaN,NaN,0,6,5,4,horizontal,vertical,vertical,vertical
2b,19,100376,6,20,180,19,M,NA,constant,heterogeneous,4,absent,0.840387105941772,1,horizontal,horizontal,1,2,green,4,NaN,NaN,NaN,NaN,NaN,NaN,NaN,NaN,NaN,NaN,NaN,NaN,NaN,0,6,3,4,vertical,vertical,horizontal,horizontal
2b,19,100376,6,21,181,19,M,NA,constant,heterogeneous,4,absent,0.777086973190308,1,horizontal,horizontal,1,2,green,3,NaN,NaN,NaN,NaN,NaN,NaN,NaN,NaN,NaN,NaN,NaN,NaN,NaN,0,6,4,5,vertical,horizontal,horizontal,horizontal
2b,19,100376,6,22,182,19,M,NA,constant,heterogeneous,4,present,0.780986070632935,1,horizontal,horizontal,1,5,green,3,1,NaN,NaN,NaN,NaN,NaN,NaN,NaN,NaN,NaN,NaN,NaN,NaN,6,0,4,3,horizontal,vertical,horizontal,horizontal
2b,19,100376,6,23,183,19,M,NA,constant,heterogeneous,4,present,0.65679407119751,1,vertical,vertical,1,5,green,3,4,NaN,NaN,NaN,NaN,NaN,NaN,NaN,NaN,NaN,NaN,NaN,NaN,3,0,4,6,horizontal,vertical,vertical,horizontal
2b,19,100376,6,24,184,19,M,NA,constant,heterogeneous,4,present,0.933876991271973,1,vertical,vertical,1,3,green,2,4,NaN,NaN,NaN,NaN,NaN,NaN,NaN,NaN,NaN,NaN,NaN,NaN,5,4,6,0,horizontal,vertical,horizontal,horizontal
2b,19,100376,6,25,185,19,M,NA,constant,heterogeneous,4,absent,1.05696511268616,1,vertical,vertical,1,3,green,3,NaN,NaN,NaN,NaN,NaN,NaN,NaN,NaN,NaN,NaN,NaN,NaN,NaN,3,5,4,6,vertical,horizontal,vertical,horizontal
2b,19,100376,6,26,186,19,M,NA,constant,heterogeneous,4,absent,0.694058895111084,1,vertical,vertical,1,3,green,2,NaN,NaN,NaN,NaN,NaN,NaN,NaN,NaN,NaN,NaN,NaN,NaN,NaN,5,4,0,3,horizontal,vertical,horizontal,vertical
2b,19,100376,6,27,187,19,M,NA,constant,heterogeneous,4,present,1.54070401191711,1,horizontal,horizontal,1,8,green,1,4,NaN,NaN,NaN,NaN,NaN,NaN,NaN,NaN,NaN,NaN,NaN,NaN,4,3,0,6,horizontal,horizontal,vertical,vertical
2b,19,100376,6,28,188,19,M,NA,constant,heterogeneous,4,present,0.827497005462646,1,horizontal,horizontal,1,3,green,3,2,NaN,NaN,NaN,NaN,NaN,NaN,NaN,NaN,NaN,NaN,NaN,NaN,0,6,4,3,vertical,vertical,horizontal,vertical
2b,19,100376,6,29,189,19,M,NA,constant,heterogeneous,4,absent,0.928248167037964,1,horizontal,horizontal,1,5,green,4,NaN,NaN,NaN,NaN,NaN,NaN,NaN,NaN,NaN,NaN,NaN,NaN,NaN,5,3,0,4,vertical,vertical,horizontal,horizontal
2b,19,100376,6,30,190,19,M,NA,constant,heterogeneous,4,absent,0.819118022918701,1,horizontal,horizontal,1,8,green,2,NaN,NaN,NaN,NaN,NaN,NaN,NaN,NaN,NaN,NaN,NaN,NaN,NaN,5,4,3,6,horizontal,horizontal,horizontal,vertical
2b,19,100376,6,31,191,19,M,NA,constant,heterogeneous,4,present,0.748061180114746,1,horizontal,horizontal,1,2,green,3,2,NaN,NaN,NaN,NaN,NaN,NaN,NaN,NaN,NaN,NaN,NaN,NaN,6,5,4,3,horizontal,vertical,horizontal,horizontal
2b,19,100376,6,32,192,19,M,NA,constant,heterogeneous,4,absent,0.674913883209229,1,horizontal,horizontal,1,5,green,1,NaN,NaN,NaN,NaN,NaN,NaN,NaN,NaN,NaN,NaN,NaN,NaN,NaN,4,0,3,5,horizontal,vertical,vertical,vertical
2b,19,100376,7,1,193,19,M,NA,constant,heterogeneous,4,absent,0.842068910598755,1,horizontal,horizontal,1,2,green,3,NaN,NaN,NaN,NaN,NaN,NaN,NaN,NaN,NaN,NaN,NaN,NaN,NaN,3,0,4,6,horizontal,vertical,horizontal,vertical
2b,19,100376,7,2,194,19,M,NA,constant,heterogeneous,4,absent,1.52306699752808,1,horizontal,horizontal,1,3,green,4,NaN,NaN,NaN,NaN,NaN,NaN,NaN,NaN,NaN,NaN,NaN,NaN,NaN,6,0,3,4,vertical,vertical,horizontal,horizontal
2b,19,100376,7,3,195,19,M,NA,constant,heterogeneous,4,present,0.881940126419067,1,vertical,vertical,1,5,green,4,1,NaN,NaN,NaN,NaN,NaN,NaN,NaN,NaN,NaN,NaN,NaN,NaN,3,5,0,4,horizontal,horizontal,vertical,vertical
2b,19,100376,7,4,196,19,M,NA,constant,heterogeneous,4,absent,0.931714057922363,1,horizontal,horizontal,1,2,green,1,NaN,NaN,NaN,NaN,NaN,NaN,NaN,NaN,NaN,NaN,NaN,NaN,NaN,4,0,6,5,horizontal,vertical,vertical,vertical
2b,19,100376,7,5,197,19,M,NA,constant,heterogeneous,4,present,1.07867002487183,1,horizontal,horizontal,1,8,green,3,2,NaN,NaN,NaN,NaN,NaN,NaN,NaN,NaN,NaN,NaN,NaN,NaN,6,3,4,0,vertical,vertical,horizontal,vertical
2b,19,100376,7,6,198,19,M,NA,constant,heterogeneous,4,present,0.53236198425293,1,horizontal,horizontal,1,5,green,3,1,NaN,NaN,NaN,NaN,NaN,NaN,NaN,NaN,NaN,NaN,NaN,NaN,6,0,4,3,horizontal,vertical,horizontal,vertical
2b,19,100376,7,7,199,19,M,NA,constant,heterogeneous,4,present,0.623267889022827,1,vertical,vertical,1,3,green,1,4,NaN,NaN,NaN,NaN,NaN,NaN,NaN,NaN,NaN,NaN,NaN,NaN,4,0,3,5,vertical,horizontal,horizontal,vertical
2b,19,100376,7,8,200,19,M,NA,constant,heterogeneous,4,present,0.867823123931885,1,vertical,vertical,1,2,green,2,1,NaN,NaN,NaN,NaN,NaN,NaN,NaN,NaN,NaN,NaN,NaN,NaN,0,4,3,5,vertical,vertical,vertical,vertical
2b,19,100376,7,9,201,19,M,NA,constant,heterogeneous,4,present,0.829658985137939,1,vertical,vertical,1,2,green,4,1,NaN,NaN,NaN,NaN,NaN,NaN,NaN,NaN,NaN,NaN,NaN,NaN,6,5,3,4,horizontal,vertical,horizontal,vertical
2b,19,100376,7,10,202,19,M,NA,constant,heterogeneous,4,absent,0.834365844726562,1,horizontal,horizontal,1,5,green,1,NaN,NaN,NaN,NaN,NaN,NaN,NaN,NaN,NaN,NaN,NaN,NaN,NaN,4,6,5,0,horizontal,vertical,horizontal,vertical
2b,19,100376,7,11,203,19,M,NA,constant,heterogeneous,4,present,1.04345989227295,1,horizontal,horizontal,1,2,green,1,3,NaN,NaN,NaN,NaN,NaN,NaN,NaN,NaN,NaN,NaN,NaN,NaN,4,0,6,3,horizontal,horizontal,horizontal,vertical
2b,19,100376,7,12,204,19,M,NA,constant,heterogeneous,4,present,1.01257085800171,1,horizontal,horizontal,1,5,green,3,4,NaN,NaN,NaN,NaN,NaN,NaN,NaN,NaN,NaN,NaN,NaN,NaN,3,6,4,0,horizontal,vertical,horizontal,horizontal
2b,19,100376,7,13,205,19,M,NA,constant,heterogeneous,4,absent,0.917020082473755,1,vertical,vertical,1,2,green,4,NaN,NaN,NaN,NaN,NaN,NaN,NaN,NaN,NaN,NaN,NaN,NaN,NaN,6,0,3,4,horizontal,vertical,horizontal,vertical
2b,19,100376,7,14,206,19,M,NA,constant,heterogeneous,4,present,0.707520008087158,1,horizontal,horizontal,1,2,green,1,3,NaN,NaN,NaN,NaN,NaN,NaN,NaN,NaN,NaN,NaN,NaN,NaN,4,3,0,5,horizontal,vertical,vertical,horizontal
2b,19,100376,7,15,207,19,M,NA,constant,heterogeneous,4,absent,0.622100114822388,1,vertical,vertical,1,5,green,3,NaN,NaN,NaN,NaN,NaN,NaN,NaN,NaN,NaN,NaN,NaN,NaN,NaN,5,3,4,0,horizontal,vertical,vertical,vertical
2b,19,100376,7,16,208,19,M,NA,constant,heterogeneous,4,present,0.866614103317261,1,horizontal,horizontal,1,2,green,1,4,NaN,NaN,NaN,NaN,NaN,NaN,NaN,NaN,NaN,NaN,NaN,NaN,4,5,3,0,horizontal,vertical,vertical,vertical
2b,19,100376,7,17,209,19,M,NA,constant,heterogeneous,4,present,0.868198871612549,1,vertical,vertical,1,5,green,2,4,NaN,NaN,NaN,NaN,NaN,NaN,NaN,NaN,NaN,NaN,NaN,NaN,6,4,5,0,vertical,vertical,vertical,horizontal
2b,19,100376,7,18,210,19,M,NA,constant,heterogeneous,4,present,0.718209981918335,1,vertical,vertical,1,2,green,1,4,NaN,NaN,NaN,NaN,NaN,NaN,NaN,NaN,NaN,NaN,NaN,NaN,4,0,6,3,vertical,vertical,vertical,horizontal
2b,19,100376,7,19,211,19,M,NA,constant,heterogeneous,4,absent,0.820438146591187,1,vertical,vertical,1,2,green,3,NaN,NaN,NaN,NaN,NaN,NaN,NaN,NaN,NaN,NaN,NaN,NaN,NaN,0,3,4,5,horizontal,vertical,vertical,vertical
2b,19,100376,7,20,212,19,M,NA,constant,heterogeneous,4,present,0.77301812171936,0,horizontal,vertical,1,3,green,3,1,NaN,NaN,NaN,NaN,NaN,NaN,NaN,NaN,NaN,NaN,NaN,NaN,0,5,4,6,horizontal,vertical,horizontal,vertical
2b,19,100376,7,21,213,19,M,NA,constant,heterogeneous,4,absent,0.78830099105835,1,horizontal,horizontal,1,5,green,2,NaN,NaN,NaN,NaN,NaN,NaN,NaN,NaN,NaN,NaN,NaN,NaN,NaN,0,4,3,6,horizontal,horizontal,vertical,horizontal
2b,19,100376,7,22,214,19,M,NA,constant,heterogeneous,4,absent,0.804644107818604,1,horizontal,horizontal,1,2,green,3,NaN,NaN,NaN,NaN,NaN,NaN,NaN,NaN,NaN,NaN,NaN,NaN,NaN,5,3,4,6,vertical,vertical,horizontal,vertical
2b,19,100376,7,23,215,19,M,NA,constant,heterogeneous,4,absent,0.81672191619873,1,vertical,vertical,1,5,green,3,NaN,NaN,NaN,NaN,NaN,NaN,NaN,NaN,NaN,NaN,NaN,NaN,NaN,0,6,4,5,horizontal,horizontal,vertical,horizontal
2b,19,100376,7,24,216,19,M,NA,constant,heterogeneous,4,present,0.713551998138428,1,vertical,vertical,1,8,green,1,3,NaN,NaN,NaN,NaN,NaN,NaN,NaN,NaN,NaN,NaN,NaN,NaN,4,6,0,5,vertical,horizontal,vertical,vertical
2b,19,100376,7,25,217,19,M,NA,constant,heterogeneous,4,present,0.867723941802979,1,horizontal,horizontal,1,3,green,3,1,NaN,NaN,NaN,NaN,NaN,NaN,NaN,NaN,NaN,NaN,NaN,NaN,3,5,4,6,horizontal,horizontal,horizontal,horizontal
2b,19,100376,7,26,218,19,M,NA,constant,heterogeneous,4,absent,0.637385129928589,1,vertical,vertical,1,2,green,1,NaN,NaN,NaN,NaN,NaN,NaN,NaN,NaN,NaN,NaN,NaN,NaN,NaN,4,3,0,5,vertical,vertical,vertical,vertical
2b,19,100376,7,27,219,19,M,NA,constant,heterogeneous,4,absent,0.966283082962036,1,horizontal,horizontal,1,8,green,4,NaN,NaN,NaN,NaN,NaN,NaN,NaN,NaN,NaN,NaN,NaN,NaN,NaN,5,0,3,4,horizontal,horizontal,vertical,horizontal
2b,19,100376,7,28,220,19,M,NA,constant,heterogeneous,4,absent,0.854027986526489,1,vertical,vertical,1,8,green,4,NaN,NaN,NaN,NaN,NaN,NaN,NaN,NaN,NaN,NaN,NaN,NaN,NaN,5,6,0,4,horizontal,horizontal,vertical,vertical
2b,19,100376,7,29,221,19,M,NA,constant,heterogeneous,4,absent,1.12325596809387,1,horizontal,horizontal,1,3,green,3,NaN,NaN,NaN,NaN,NaN,NaN,NaN,NaN,NaN,NaN,NaN,NaN,NaN,6,5,4,0,vertical,horizontal,horizontal,vertical
2b,19,100376,7,30,222,19,M,NA,constant,heterogeneous,4,present,0.722004890441895,1,vertical,vertical,1,3,green,4,3,NaN,NaN,NaN,NaN,NaN,NaN,NaN,NaN,NaN,NaN,NaN,NaN,3,5,6,4,vertical,horizontal,vertical,vertical
2b,19,100376,7,31,223,19,M,NA,constant,heterogeneous,4,absent,0.672609090805054,1,vertical,vertical,1,3,green,1,NaN,NaN,NaN,NaN,NaN,NaN,NaN,NaN,NaN,NaN,NaN,NaN,NaN,4,5,3,6,vertical,vertical,vertical,horizontal
2b,19,100376,7,32,224,19,M,NA,constant,heterogeneous,4,absent,0.958466053009033,1,vertical,vertical,1,3,green,3,NaN,NaN,NaN,NaN,NaN,NaN,NaN,NaN,NaN,NaN,NaN,NaN,NaN,3,5,4,0,vertical,vertical,vertical,horizontal
2b,19,100376,8,1,225,19,M,NA,constant,heterogeneous,4,present,1.57231998443604,1,horizontal,horizontal,1,2,green,2,3,NaN,NaN,NaN,NaN,NaN,NaN,NaN,NaN,NaN,NaN,NaN,NaN,6,4,3,5,vertical,horizontal,horizontal,horizontal
2b,19,100376,8,2,226,19,M,NA,constant,heterogeneous,4,present,1.19629192352295,1,horizontal,horizontal,1,2,green,4,3,NaN,NaN,NaN,NaN,NaN,NaN,NaN,NaN,NaN,NaN,NaN,NaN,0,6,5,4,horizontal,vertical,vertical,horizontal
2b,19,100376,8,3,227,19,M,NA,constant,heterogeneous,4,present,1.18018293380737,1,vertical,vertical,1,2,green,2,4,NaN,NaN,NaN,NaN,NaN,NaN,NaN,NaN,NaN,NaN,NaN,NaN,3,4,6,5,horizontal,vertical,horizontal,horizontal
2b,19,100376,8,4,228,19,M,NA,constant,heterogeneous,4,absent,1.24841284751892,1,horizontal,horizontal,1,5,green,3,NaN,NaN,NaN,NaN,NaN,NaN,NaN,NaN,NaN,NaN,NaN,NaN,NaN,3,5,4,0,horizontal,horizontal,horizontal,vertical
2b,19,100376,8,5,229,19,M,NA,constant,heterogeneous,4,absent,0.773210048675537,1,horizontal,horizontal,1,2,green,4,NaN,NaN,NaN,NaN,NaN,NaN,NaN,NaN,NaN,NaN,NaN,NaN,NaN,5,3,6,4,horizontal,vertical,horizontal,horizontal
2b,19,100376,8,6,230,19,M,NA,constant,heterogeneous,4,absent,0.996764898300171,1,vertical,vertical,1,3,green,3,NaN,NaN,NaN,NaN,NaN,NaN,NaN,NaN,NaN,NaN,NaN,NaN,NaN,0,5,4,3,horizontal,horizontal,vertical,vertical
2b,19,100376,8,7,231,19,M,NA,constant,heterogeneous,4,present,0.564937114715576,1,vertical,vertical,1,3,green,3,4,NaN,NaN,NaN,NaN,NaN,NaN,NaN,NaN,NaN,NaN,NaN,NaN,3,5,4,0,horizontal,vertical,vertical,vertical
2b,19,100376,8,8,232,19,M,NA,constant,heterogeneous,4,absent,1.05258417129517,1,horizontal,horizontal,1,5,green,4,NaN,NaN,NaN,NaN,NaN,NaN,NaN,NaN,NaN,NaN,NaN,NaN,NaN,0,6,3,4,vertical,vertical,vertical,horizontal
2b,19,100376,8,9,233,19,M,NA,constant,heterogeneous,4,absent,1.25809502601624,1,vertical,vertical,1,2,green,4,NaN,NaN,NaN,NaN,NaN,NaN,NaN,NaN,NaN,NaN,NaN,NaN,NaN,0,5,6,4,vertical,vertical,horizontal,vertical
2b,19,100376,8,10,234,19,M,NA,constant,heterogeneous,4,absent,0.675309181213379,1,horizontal,horizontal,1,2,green,4,NaN,NaN,NaN,NaN,NaN,NaN,NaN,NaN,NaN,NaN,NaN,NaN,NaN,5,6,0,4,horizontal,horizontal,horizontal,horizontal
2b,19,100376,8,11,235,19,M,NA,constant,heterogeneous,4,absent,0.968966007232666,1,horizontal,horizontal,1,2,green,3,NaN,NaN,NaN,NaN,NaN,NaN,NaN,NaN,NaN,NaN,NaN,NaN,NaN,3,0,4,5,horizontal,horizontal,horizontal,horizontal
2b,19,100376,8,12,236,19,M,NA,constant,heterogeneous,4,absent,0.704545974731445,1,vertical,vertical,1,5,green,4,NaN,NaN,NaN,NaN,NaN,NaN,NaN,NaN,NaN,NaN,NaN,NaN,NaN,3,0,5,4,vertical,vertical,horizontal,vertical
2b,19,100376,8,13,237,19,M,NA,constant,heterogeneous,4,present,1.08292889595032,1,horizontal,horizontal,1,5,green,2,4,NaN,NaN,NaN,NaN,NaN,NaN,NaN,NaN,NaN,NaN,NaN,NaN,6,4,5,3,vertical,horizontal,vertical,horizontal
2b,19,100376,8,14,238,19,M,NA,constant,heterogeneous,4,absent,1.34083795547485,1,horizontal,horizontal,1,3,green,1,NaN,NaN,NaN,NaN,NaN,NaN,NaN,NaN,NaN,NaN,NaN,NaN,NaN,4,3,6,5,horizontal,horizontal,vertical,vertical
2b,19,100376,8,15,239,19,M,NA,constant,heterogeneous,4,absent,1.29248094558716,1,horizontal,horizontal,1,3,green,1,NaN,NaN,NaN,NaN,NaN,NaN,NaN,NaN,NaN,NaN,NaN,NaN,NaN,4,3,5,6,horizontal,vertical,vertical,vertical
2b,19,100376,8,16,240,19,M,NA,constant,heterogeneous,4,present,0.742340087890625,1,vertical,vertical,1,5,green,3,1,NaN,NaN,NaN,NaN,NaN,NaN,NaN,NaN,NaN,NaN,NaN,NaN,5,3,4,6,vertical,vertical,vertical,horizontal
2b,19,100376,8,17,241,19,M,NA,constant,heterogeneous,4,present,0.933730840682983,1,vertical,vertical,1,8,green,4,1,NaN,NaN,NaN,NaN,NaN,NaN,NaN,NaN,NaN,NaN,NaN,NaN,0,3,5,4,vertical,horizontal,vertical,vertical
2b,19,100376,8,18,242,19,M,NA,constant,heterogeneous,4,present,0.752243995666504,1,horizontal,horizontal,1,3,green,2,3,NaN,NaN,NaN,NaN,NaN,NaN,NaN,NaN,NaN,NaN,NaN,NaN,5,4,6,3,vertical,horizontal,vertical,vertical
2b,19,100376,8,19,243,19,M,NA,constant,heterogeneous,4,absent,0.875427007675171,1,vertical,vertical,1,5,green,3,NaN,NaN,NaN,NaN,NaN,NaN,NaN,NaN,NaN,NaN,NaN,NaN,NaN,5,3,4,6,horizontal,vertical,vertical,vertical
2b,19,100376,8,20,244,19,M,NA,constant,heterogeneous,4,absent,0.889214992523193,1,vertical,vertical,1,2,green,4,NaN,NaN,NaN,NaN,NaN,NaN,NaN,NaN,NaN,NaN,NaN,NaN,NaN,5,3,6,4,vertical,horizontal,horizontal,vertical
2b,19,100376,8,21,245,19,M,NA,constant,heterogeneous,4,present,0.955304145812988,1,horizontal,horizontal,1,2,green,1,2,NaN,NaN,NaN,NaN,NaN,NaN,NaN,NaN,NaN,NaN,NaN,NaN,4,6,3,0,horizontal,horizontal,vertical,vertical
2b,19,100376,8,22,246,19,M,NA,constant,heterogeneous,4,present,1.19870090484619,1,horizontal,horizontal,1,3,green,3,1,NaN,NaN,NaN,NaN,NaN,NaN,NaN,NaN,NaN,NaN,NaN,NaN,0,3,4,5,horizontal,vertical,horizontal,vertical
2b,19,100376,8,23,247,19,M,NA,constant,heterogeneous,4,present,0.690694093704224,1,vertical,vertical,1,2,green,3,4,NaN,NaN,NaN,NaN,NaN,NaN,NaN,NaN,NaN,NaN,NaN,NaN,0,3,4,5,vertical,horizontal,vertical,vertical
2b,19,100376,8,24,248,19,M,NA,constant,heterogeneous,4,absent,0.645141124725342,1,vertical,vertical,1,3,green,4,NaN,NaN,NaN,NaN,NaN,NaN,NaN,NaN,NaN,NaN,NaN,NaN,NaN,5,6,0,4,vertical,horizontal,vertical,vertical
2b,19,100376,8,25,249,19,M,NA,constant,heterogeneous,4,present,0.96612811088562,1,horizontal,horizontal,1,5,green,1,2,NaN,NaN,NaN,NaN,NaN,NaN,NaN,NaN,NaN,NaN,NaN,NaN,4,3,5,6,horizontal,vertical,vertical,horizontal
2b,19,100376,8,26,250,19,M,NA,constant,heterogeneous,4,present,0.789294958114624,1,vertical,vertical,1,2,green,4,3,NaN,NaN,NaN,NaN,NaN,NaN,NaN,NaN,NaN,NaN,NaN,NaN,3,0,6,4,horizontal,horizontal,vertical,vertical
2b,19,100376,8,27,251,19,M,NA,constant,heterogeneous,4,absent,0.741533994674683,1,horizontal,horizontal,1,8,green,4,NaN,NaN,NaN,NaN,NaN,NaN,NaN,NaN,NaN,NaN,NaN,NaN,NaN,5,0,6,4,horizontal,horizontal,vertical,horizontal
2b,19,100376,8,28,252,19,M,NA,constant,heterogeneous,4,present,0.764624834060669,1,vertical,vertical,1,5,green,3,4,NaN,NaN,NaN,NaN,NaN,NaN,NaN,NaN,NaN,NaN,NaN,NaN,0,6,4,3,vertical,vertical,vertical,horizontal
2b,19,100376,8,29,253,19,M,NA,constant,heterogeneous,4,absent,0.90029501914978,1,vertical,vertical,1,2,green,3,NaN,NaN,NaN,NaN,NaN,NaN,NaN,NaN,NaN,NaN,NaN,NaN,NaN,6,5,4,0,vertical,horizontal,vertical,horizontal
2b,19,100376,8,30,254,19,M,NA,constant,heterogeneous,4,absent,0.85834789276123,1,vertical,vertical,1,8,green,3,NaN,NaN,NaN,NaN,NaN,NaN,NaN,NaN,NaN,NaN,NaN,NaN,NaN,3,0,4,5,vertical,horizontal,vertical,vertical
2b,19,100376,8,31,255,19,M,NA,constant,heterogeneous,4,present,1.00431609153748,1,vertical,vertical,1,3,green,2,3,NaN,NaN,NaN,NaN,NaN,NaN,NaN,NaN,NaN,NaN,NaN,NaN,3,4,0,6,horizontal,vertical,vertical,vertical
2b,19,100376,8,32,256,19,M,NA,constant,heterogeneous,4,present,0.840484142303467,1,horizontal,horizontal,1,8,green,2,3,NaN,NaN,NaN,NaN,NaN,NaN,NaN,NaN,NaN,NaN,NaN,NaN,3,4,5,0,vertical,horizontal,vertical,horizontal
2b,19,100376,9,1,257,19,M,NA,constant,heterogeneous,4,present,1.14712905883789,1,vertical,vertical,1,3,green,1,2,NaN,NaN,NaN,NaN,NaN,NaN,NaN,NaN,NaN,NaN,NaN,NaN,4,0,6,5,vertical,vertical,horizontal,horizontal
2b,19,100376,9,2,258,19,M,NA,constant,heterogeneous,4,absent,0.946372032165527,1,horizontal,horizontal,1,5,green,2,NaN,NaN,NaN,NaN,NaN,NaN,NaN,NaN,NaN,NaN,NaN,NaN,NaN,0,4,6,3,horizontal,horizontal,horizontal,vertical
2b,19,100376,9,3,259,19,M,NA,constant,heterogeneous,4,present,1.00208115577698,1,horizontal,horizontal,1,2,green,4,2,NaN,NaN,NaN,NaN,NaN,NaN,NaN,NaN,NaN,NaN,NaN,NaN,0,5,3,4,horizontal,horizontal,horizontal,horizontal
2b,19,100376,9,4,260,19,M,NA,constant,heterogeneous,4,present,1.029953956604,1,horizontal,horizontal,1,8,green,1,2,NaN,NaN,NaN,NaN,NaN,NaN,NaN,NaN,NaN,NaN,NaN,NaN,4,6,5,0,horizontal,horizontal,horizontal,vertical
2b,19,100376,9,5,261,19,M,NA,constant,heterogeneous,4,present,0.754684925079346,1,vertical,vertical,1,5,green,4,3,NaN,NaN,NaN,NaN,NaN,NaN,NaN,NaN,NaN,NaN,NaN,NaN,6,5,3,4,vertical,horizontal,horizontal,vertical
2b,19,100376,9,6,262,19,M,NA,constant,heterogeneous,4,absent,0.96618390083313,1,vertical,vertical,1,2,green,4,NaN,NaN,NaN,NaN,NaN,NaN,NaN,NaN,NaN,NaN,NaN,NaN,NaN,0,6,3,4,horizontal,horizontal,vertical,vertical
2b,19,100376,9,7,263,19,M,NA,constant,heterogeneous,4,absent,1.01401519775391,1,horizontal,horizontal,1,2,green,3,NaN,NaN,NaN,NaN,NaN,NaN,NaN,NaN,NaN,NaN,NaN,NaN,NaN,5,0,4,3,vertical,vertical,horizontal,horizontal
2b,19,100376,9,8,264,19,M,NA,constant,heterogeneous,4,present,0.774471998214722,1,vertical,vertical,1,2,green,3,4,NaN,NaN,NaN,NaN,NaN,NaN,NaN,NaN,NaN,NaN,NaN,NaN,0,3,4,5,vertical,vertical,vertical,horizontal
2b,19,100376,9,9,265,19,M,NA,constant,heterogeneous,4,present,0.766010046005249,1,vertical,vertical,1,2,green,3,1,NaN,NaN,NaN,NaN,NaN,NaN,NaN,NaN,NaN,NaN,NaN,NaN,5,6,4,3,horizontal,vertical,vertical,horizontal
2b,19,100376,9,10,266,19,M,NA,constant,heterogeneous,4,absent,0.909887075424194,1,vertical,vertical,1,3,green,4,NaN,NaN,NaN,NaN,NaN,NaN,NaN,NaN,NaN,NaN,NaN,NaN,NaN,6,0,5,4,vertical,horizontal,horizontal,vertical
2b,19,100376,9,11,267,19,M,NA,constant,heterogeneous,4,absent,0.912001848220825,1,vertical,vertical,1,3,green,1,NaN,NaN,NaN,NaN,NaN,NaN,NaN,NaN,NaN,NaN,NaN,NaN,NaN,4,3,6,0,vertical,horizontal,horizontal,horizontal
2b,19,100376,9,12,268,19,M,NA,constant,heterogeneous,4,absent,1.12225580215454,1,horizontal,horizontal,1,3,green,2,NaN,NaN,NaN,NaN,NaN,NaN,NaN,NaN,NaN,NaN,NaN,NaN,NaN,0,4,3,6,horizontal,horizontal,horizontal,horizontal
2b,19,100376,9,13,269,19,M,NA,constant,heterogeneous,4,absent,1.13733291625977,1,horizontal,horizontal,1,3,green,4,NaN,NaN,NaN,NaN,NaN,NaN,NaN,NaN,NaN,NaN,NaN,NaN,NaN,3,0,5,4,vertical,vertical,vertical,horizontal
2b,19,100376,9,14,270,19,M,NA,constant,heterogeneous,4,present,0.948172807693481,1,vertical,vertical,1,3,green,1,2,NaN,NaN,NaN,NaN,NaN,NaN,NaN,NaN,NaN,NaN,NaN,NaN,4,5,0,6,vertical,vertical,horizontal,horizontal
2b,19,100376,9,15,271,19,M,NA,constant,heterogeneous,4,absent,1.90692090988159,1,vertical,vertical,1,5,green,1,NaN,NaN,NaN,NaN,NaN,NaN,NaN,NaN,NaN,NaN,NaN,NaN,NaN,4,6,5,0,vertical,vertical,vertical,horizontal
2b,19,100376,9,16,272,19,M,NA,constant,heterogeneous,4,present,1.21340203285217,1,horizontal,horizontal,1,3,green,3,1,NaN,NaN,NaN,NaN,NaN,NaN,NaN,NaN,NaN,NaN,NaN,NaN,6,5,4,0,vertical,horizontal,horizontal,vertical
2b,19,100376,9,17,273,19,M,NA,constant,heterogeneous,4,absent,1.0461220741272,1,vertical,vertical,1,2,green,2,NaN,NaN,NaN,NaN,NaN,NaN,NaN,NaN,NaN,NaN,NaN,NaN,NaN,6,4,0,5,horizontal,vertical,horizontal,horizontal
2b,19,100376,9,18,274,19,M,NA,constant,heterogeneous,4,absent,0.603044033050537,1,vertical,vertical,1,5,green,2,NaN,NaN,NaN,NaN,NaN,NaN,NaN,NaN,NaN,NaN,NaN,NaN,NaN,0,4,5,6,vertical,vertical,horizontal,vertical
2b,19,100376,9,19,275,19,M,NA,constant,heterogeneous,4,absent,0.99957799911499,1,horizontal,horizontal,1,2,green,3,NaN,NaN,NaN,NaN,NaN,NaN,NaN,NaN,NaN,NaN,NaN,NaN,NaN,6,5,4,0,vertical,vertical,horizontal,vertical
2b,19,100376,9,20,276,19,M,NA,constant,heterogeneous,4,absent,1.02780604362488,1,horizontal,horizontal,1,2,green,2,NaN,NaN,NaN,NaN,NaN,NaN,NaN,NaN,NaN,NaN,NaN,NaN,NaN,5,4,6,0,vertical,horizontal,horizontal,vertical
2b,19,100376,9,21,277,19,M,NA,constant,heterogeneous,4,absent,0.77656102180481,1,vertical,vertical,1,2,green,3,NaN,NaN,NaN,NaN,NaN,NaN,NaN,NaN,NaN,NaN,NaN,NaN,NaN,3,0,4,6,horizontal,horizontal,vertical,vertical
2b,19,100376,9,22,278,19,M,NA,constant,heterogeneous,4,present,0.916234016418457,1,horizontal,horizontal,1,2,green,4,1,NaN,NaN,NaN,NaN,NaN,NaN,NaN,NaN,NaN,NaN,NaN,NaN,3,6,0,4,horizontal,vertical,horizontal,horizontal
2b,19,100376,9,23,279,19,M,NA,constant,heterogeneous,4,absent,0.899111986160278,1,vertical,vertical,1,8,green,3,NaN,NaN,NaN,NaN,NaN,NaN,NaN,NaN,NaN,NaN,NaN,NaN,NaN,0,5,4,3,vertical,vertical,vertical,vertical
2b,19,100376,9,24,280,19,M,NA,constant,heterogeneous,4,present,0.817100048065186,1,horizontal,horizontal,1,5,green,1,2,NaN,NaN,NaN,NaN,NaN,NaN,NaN,NaN,NaN,NaN,NaN,NaN,4,0,3,5,horizontal,horizontal,horizontal,horizontal
2b,19,100376,9,25,281,19,M,NA,constant,heterogeneous,4,present,0.673943996429443,1,horizontal,horizontal,1,5,green,1,3,NaN,NaN,NaN,NaN,NaN,NaN,NaN,NaN,NaN,NaN,NaN,NaN,4,0,3,6,horizontal,horizontal,horizontal,vertical
2b,19,100376,9,26,282,19,M,NA,constant,heterogeneous,4,absent,0.575700044631958,1,horizontal,horizontal,1,5,green,1,NaN,NaN,NaN,NaN,NaN,NaN,NaN,NaN,NaN,NaN,NaN,NaN,NaN,4,3,5,6,horizontal,horizontal,horizontal,horizontal
2b,19,100376,9,27,283,19,M,NA,constant,heterogeneous,4,present,0.483565807342529,1,horizontal,horizontal,1,2,green,4,3,NaN,NaN,NaN,NaN,NaN,NaN,NaN,NaN,NaN,NaN,NaN,NaN,3,0,5,4,vertical,vertical,horizontal,horizontal
2b,19,100376,9,28,284,19,M,NA,constant,heterogeneous,4,present,0.909239053726196,1,vertical,vertical,1,5,green,3,2,NaN,NaN,NaN,NaN,NaN,NaN,NaN,NaN,NaN,NaN,NaN,NaN,3,0,4,6,vertical,horizontal,vertical,vertical
2b,19,100376,9,29,285,19,M,NA,constant,heterogeneous,4,present,0.904321908950806,1,vertical,vertical,1,8,green,2,4,NaN,NaN,NaN,NaN,NaN,NaN,NaN,NaN,NaN,NaN,NaN,NaN,6,4,5,0,vertical,vertical,horizontal,vertical
2b,19,100376,9,30,286,19,M,NA,constant,heterogeneous,4,absent,0.926319122314453,1,horizontal,horizontal,1,8,green,1,NaN,NaN,NaN,NaN,NaN,NaN,NaN,NaN,NaN,NaN,NaN,NaN,NaN,4,0,5,6,horizontal,horizontal,vertical,vertical
2b,19,100376,9,31,287,19,M,NA,constant,heterogeneous,4,present,0.95707106590271,1,vertical,vertical,1,2,green,2,4,NaN,NaN,NaN,NaN,NaN,NaN,NaN,NaN,NaN,NaN,NaN,NaN,3,4,0,5,vertical,vertical,horizontal,vertical
2b,19,100376,9,32,288,19,M,NA,constant,heterogeneous,4,present,0.960619926452637,1,horizontal,horizontal,1,3,green,2,1,NaN,NaN,NaN,NaN,NaN,NaN,NaN,NaN,NaN,NaN,NaN,NaN,6,4,5,3,vertical,horizontal,vertical,horizontal
2b,19,100376,10,1,289,19,M,NA,constant,heterogeneous,4,present,0.855967998504639,0,horizontal,vertical,1,2,green,3,1,NaN,NaN,NaN,NaN,NaN,NaN,NaN,NaN,NaN,NaN,NaN,NaN,6,5,4,0,horizontal,vertical,horizontal,vertical
2b,19,100376,10,2,290,19,M,NA,constant,heterogeneous,4,present,0.957136869430542,1,vertical,vertical,1,2,green,4,2,NaN,NaN,NaN,NaN,NaN,NaN,NaN,NaN,NaN,NaN,NaN,NaN,5,0,3,4,vertical,horizontal,vertical,vertical
2b,19,100376,10,3,291,19,M,NA,constant,heterogeneous,4,absent,0.984316825866699,1,vertical,vertical,1,2,green,1,NaN,NaN,NaN,NaN,NaN,NaN,NaN,NaN,NaN,NaN,NaN,NaN,NaN,4,5,0,3,vertical,vertical,vertical,horizontal
2b,19,100376,10,4,292,19,M,NA,constant,heterogeneous,4,absent,0.956223011016846,1,horizontal,horizontal,1,8,green,4,NaN,NaN,NaN,NaN,NaN,NaN,NaN,NaN,NaN,NaN,NaN,NaN,NaN,6,0,5,4,vertical,vertical,horizontal,horizontal
2b,19,100376,10,5,293,19,M,NA,constant,heterogeneous,4,present,0.62393593788147,1,horizontal,horizontal,1,3,green,4,1,NaN,NaN,NaN,NaN,NaN,NaN,NaN,NaN,NaN,NaN,NaN,NaN,6,5,3,4,horizontal,vertical,horizontal,horizontal
2b,19,100376,10,6,294,19,M,NA,constant,heterogeneous,4,absent,0.940793991088867,1,vertical,vertical,1,3,green,1,NaN,NaN,NaN,NaN,NaN,NaN,NaN,NaN,NaN,NaN,NaN,NaN,NaN,4,0,5,3,vertical,horizontal,horizontal,vertical
2b,19,100376,10,7,295,19,M,NA,constant,heterogeneous,4,present,0.779685020446777,1,vertical,vertical,1,3,green,2,1,NaN,NaN,NaN,NaN,NaN,NaN,NaN,NaN,NaN,NaN,NaN,NaN,5,4,0,3,vertical,vertical,horizontal,vertical
2b,19,100376,10,8,296,19,M,NA,constant,heterogeneous,4,present,0.767503976821899,1,horizontal,horizontal,1,5,green,3,2,NaN,NaN,NaN,NaN,NaN,NaN,NaN,NaN,NaN,NaN,NaN,NaN,5,6,4,0,vertical,vertical,horizontal,horizontal
2b,19,100376,10,9,297,19,M,NA,constant,heterogeneous,4,absent,0.847041845321655,1,vertical,vertical,1,3,green,3,NaN,NaN,NaN,NaN,NaN,NaN,NaN,NaN,NaN,NaN,NaN,NaN,NaN,3,6,4,5,horizontal,horizontal,vertical,vertical
2b,19,100376,10,10,298,19,M,NA,constant,heterogeneous,4,absent,0.82014799118042,1,vertical,vertical,1,2,green,3,NaN,NaN,NaN,NaN,NaN,NaN,NaN,NaN,NaN,NaN,NaN,NaN,NaN,3,6,4,5,horizontal,vertical,vertical,horizontal
2b,19,100376,10,11,299,19,M,NA,constant,heterogeneous,4,present,0.780894994735718,1,horizontal,horizontal,1,2,green,1,4,NaN,NaN,NaN,NaN,NaN,NaN,NaN,NaN,NaN,NaN,NaN,NaN,4,3,5,0,horizontal,horizontal,horizontal,horizontal
2b,19,100376,10,12,300,19,M,NA,constant,heterogeneous,4,present,1.0647668838501,1,vertical,vertical,1,2,green,2,1,NaN,NaN,NaN,NaN,NaN,NaN,NaN,NaN,NaN,NaN,NaN,NaN,3,4,0,6,vertical,vertical,vertical,horizontal
2b,19,100376,10,13,301,19,M,NA,constant,heterogeneous,4,absent,0.69004487991333,1,horizontal,horizontal,1,3,green,3,NaN,NaN,NaN,NaN,NaN,NaN,NaN,NaN,NaN,NaN,NaN,NaN,NaN,0,3,4,6,horizontal,vertical,horizontal,vertical
2b,19,100376,10,14,302,19,M,NA,constant,heterogeneous,4,absent,0.939838886260986,0,horizontal,vertical,1,2,green,1,NaN,NaN,NaN,NaN,NaN,NaN,NaN,NaN,NaN,NaN,NaN,NaN,NaN,4,6,3,0,horizontal,horizontal,horizontal,horizontal
2b,19,100376,10,15,303,19,M,NA,constant,heterogeneous,4,absent,0.779030084609985,1,horizontal,horizontal,1,5,green,3,NaN,NaN,NaN,NaN,NaN,NaN,NaN,NaN,NaN,NaN,NaN,NaN,NaN,6,5,4,0,vertical,vertical,horizontal,vertical
2b,19,100376,10,16,304,19,M,NA,constant,heterogeneous,4,absent,0.783127784729004,0,vertical,horizontal,1,5,green,1,NaN,NaN,NaN,NaN,NaN,NaN,NaN,NaN,NaN,NaN,NaN,NaN,NaN,4,3,5,6,vertical,vertical,vertical,horizontal
2b,19,100376,10,17,305,19,M,NA,constant,heterogeneous,4,present,0.634774923324585,1,horizontal,horizontal,1,8,green,3,4,NaN,NaN,NaN,NaN,NaN,NaN,NaN,NaN,NaN,NaN,NaN,NaN,5,6,4,3,horizontal,horizontal,horizontal,horizontal
2b,19,100376,10,18,306,19,M,NA,constant,heterogeneous,4,present,0.652036905288696,1,vertical,vertical,1,3,green,3,1,NaN,NaN,NaN,NaN,NaN,NaN,NaN,NaN,NaN,NaN,NaN,NaN,3,5,4,6,vertical,vertical,vertical,vertical
2b,19,100376,10,19,307,19,M,NA,constant,heterogeneous,4,absent,1.24929404258728,1,vertical,vertical,1,5,green,1,NaN,NaN,NaN,NaN,NaN,NaN,NaN,NaN,NaN,NaN,NaN,NaN,NaN,4,0,6,5,vertical,horizontal,vertical,horizontal
2b,19,100376,10,20,308,19,M,NA,constant,heterogeneous,4,present,0.894344091415405,1,vertical,vertical,1,5,green,3,2,NaN,NaN,NaN,NaN,NaN,NaN,NaN,NaN,NaN,NaN,NaN,NaN,0,5,4,6,vertical,vertical,vertical,vertical
2b,19,100376,10,21,309,19,M,NA,constant,heterogeneous,4,absent,0.756686925888062,1,horizontal,horizontal,1,2,green,4,NaN,NaN,NaN,NaN,NaN,NaN,NaN,NaN,NaN,NaN,NaN,NaN,NaN,3,0,6,4,horizontal,horizontal,vertical,horizontal
2b,19,100376,10,22,310,19,M,NA,constant,heterogeneous,4,absent,1.89612507820129,1,vertical,vertical,1,2,green,3,NaN,NaN,NaN,NaN,NaN,NaN,NaN,NaN,NaN,NaN,NaN,NaN,NaN,5,3,4,0,vertical,horizontal,vertical,horizontal
2b,19,100376,10,23,311,19,M,NA,constant,heterogeneous,4,present,1.09416103363037,1,vertical,vertical,1,8,green,2,1,NaN,NaN,NaN,NaN,NaN,NaN,NaN,NaN,NaN,NaN,NaN,NaN,0,4,5,6,vertical,vertical,horizontal,vertical
2b,19,100376,10,24,312,19,M,NA,constant,heterogeneous,4,absent,1.20453691482544,1,horizontal,horizontal,1,2,green,1,NaN,NaN,NaN,NaN,NaN,NaN,NaN,NaN,NaN,NaN,NaN,NaN,NaN,4,5,0,6,horizontal,horizontal,vertical,vertical
2b,19,100376,10,25,313,19,M,NA,constant,heterogeneous,4,absent,0.832896947860718,0,horizontal,vertical,1,5,green,1,NaN,NaN,NaN,NaN,NaN,NaN,NaN,NaN,NaN,NaN,NaN,NaN,NaN,4,0,6,5,horizontal,vertical,horizontal,horizontal
2b,19,100376,10,26,314,19,M,NA,constant,heterogeneous,4,present,1.18987202644348,1,horizontal,horizontal,1,5,green,4,1,NaN,NaN,NaN,NaN,NaN,NaN,NaN,NaN,NaN,NaN,NaN,NaN,0,5,6,4,vertical,horizontal,vertical,horizontal
2b,19,100376,10,27,315,19,M,NA,constant,heterogeneous,4,absent,0.637816905975342,1,horizontal,horizontal,1,3,green,4,NaN,NaN,NaN,NaN,NaN,NaN,NaN,NaN,NaN,NaN,NaN,NaN,NaN,5,6,0,4,vertical,vertical,horizontal,horizontal
2b,19,100376,10,28,316,19,M,NA,constant,heterogeneous,4,present,0.774780035018921,1,vertical,vertical,1,2,green,2,1,NaN,NaN,NaN,NaN,NaN,NaN,NaN,NaN,NaN,NaN,NaN,NaN,0,4,5,6,horizontal,vertical,horizontal,vertical
2b,19,100376,10,29,317,19,M,NA,constant,heterogeneous,4,present,1.01047277450562,1,horizontal,horizontal,1,2,green,1,4,NaN,NaN,NaN,NaN,NaN,NaN,NaN,NaN,NaN,NaN,NaN,NaN,4,3,6,5,horizontal,vertical,vertical,horizontal
2b,19,100376,10,30,318,19,M,NA,constant,heterogeneous,4,present,0.939244985580444,1,vertical,vertical,1,5,green,2,1,NaN,NaN,NaN,NaN,NaN,NaN,NaN,NaN,NaN,NaN,NaN,NaN,5,4,3,0,horizontal,vertical,vertical,horizontal
2b,19,100376,10,31,319,19,M,NA,constant,heterogeneous,4,absent,1.14982795715332,1,vertical,vertical,1,8,green,3,NaN,NaN,NaN,NaN,NaN,NaN,NaN,NaN,NaN,NaN,NaN,NaN,NaN,5,3,4,6,vertical,horizontal,vertical,vertical
2b,19,100376,10,32,320,19,M,NA,constant,heterogeneous,4,present,0.757284879684448,1,horizontal,horizontal,1,3,green,1,3,NaN,NaN,NaN,NaN,NaN,NaN,NaN,NaN,NaN,NaN,NaN,NaN,4,6,0,5,horizontal,vertical,horizontal,vertical
2b,19,100376,11,1,321,19,M,NA,constant,homogeneous,4,present,NaN,0,horizontal,none,0,2,green,3,1,619.68777079743,419.68777079743,980.31222920257,780.31222920257,980.31222920257,780.31222920257,980.31222920257,419.68777079743,619.68777079743,419.68777079743,619.68777079743,780.31222920257,0,0,4,0,horizontal,horizontal,horizontal,vertical
2b,19,100376,11,2,322,19,M,NA,constant,homogeneous,4,present,0.975367784500122,1,horizontal,horizontal,1,8,green,3,2,619.68777079743,419.68777079743,980.31222920257,419.68777079743,980.31222920257,780.31222920257,980.31222920257,419.68777079743,619.68777079743,419.68777079743,619.68777079743,780.31222920257,0,0,4,0,horizontal,vertical,horizontal,horizontal
2b,19,100376,11,3,323,19,M,NA,constant,homogeneous,4,absent,0.955382108688354,0,vertical,horizontal,1,5,green,1,NaN,980.31222920257,780.31222920257,NaN,NaN,980.31222920257,780.31222920257,980.31222920257,419.68777079743,619.68777079743,419.68777079743,619.68777079743,780.31222920257,4,0,0,0,vertical,vertical,vertical,vertical
2b,19,100376,11,4,324,19,M,NA,constant,homogeneous,4,present,0.910600900650024,1,horizontal,horizontal,1,5,green,3,2,619.68777079743,419.68777079743,980.31222920257,419.68777079743,980.31222920257,780.31222920257,980.31222920257,419.68777079743,619.68777079743,419.68777079743,619.68777079743,780.31222920257,0,0,4,0,vertical,horizontal,horizontal,horizontal
2b,19,100376,11,5,325,19,M,NA,constant,homogeneous,4,absent,0.905272960662842,1,vertical,vertical,1,2,green,4,NaN,619.68777079743,780.31222920257,NaN,NaN,980.31222920257,780.31222920257,980.31222920257,419.68777079743,619.68777079743,419.68777079743,619.68777079743,780.31222920257,0,0,0,4,vertical,horizontal,vertical,vertical
2b,19,100376,11,6,326,19,M,NA,constant,homogeneous,4,absent,0.771543025970459,1,vertical,vertical,1,2,green,2,NaN,980.31222920257,419.68777079743,NaN,NaN,980.31222920257,780.31222920257,980.31222920257,419.68777079743,619.68777079743,419.68777079743,619.68777079743,780.31222920257,0,4,0,0,vertical,vertical,horizontal,vertical
2b,19,100376,11,7,327,19,M,NA,constant,homogeneous,4,present,0.706969976425171,1,vertical,vertical,1,5,green,4,3,619.68777079743,780.31222920257,619.68777079743,419.68777079743,980.31222920257,780.31222920257,980.31222920257,419.68777079743,619.68777079743,419.68777079743,619.68777079743,780.31222920257,0,0,0,4,vertical,vertical,horizontal,vertical
2b,19,100376,11,8,328,19,M,NA,constant,homogeneous,4,present,0.749673843383789,1,vertical,vertical,1,5,green,2,3,980.31222920257,419.68777079743,619.68777079743,419.68777079743,980.31222920257,780.31222920257,980.31222920257,419.68777079743,619.68777079743,419.68777079743,619.68777079743,780.31222920257,0,4,0,0,horizontal,vertical,horizontal,vertical
2b,19,100376,11,9,329,19,M,NA,constant,homogeneous,4,absent,0.652654886245728,1,vertical,vertical,1,8,green,4,NaN,619.68777079743,780.31222920257,NaN,NaN,980.31222920257,780.31222920257,980.31222920257,419.68777079743,619.68777079743,419.68777079743,619.68777079743,780.31222920257,0,0,0,4,horizontal,horizontal,vertical,vertical
2b,19,100376,11,10,330,19,M,NA,constant,homogeneous,4,absent,0.818086862564087,1,horizontal,horizontal,1,3,green,4,NaN,619.68777079743,780.31222920257,NaN,NaN,980.31222920257,780.31222920257,980.31222920257,419.68777079743,619.68777079743,419.68777079743,619.68777079743,780.31222920257,0,0,0,4,horizontal,vertical,horizontal,horizontal
2b,19,100376,11,11,331,19,M,NA,constant,homogeneous,4,absent,1.18647217750549,1,vertical,vertical,1,5,green,3,NaN,619.68777079743,419.68777079743,NaN,NaN,980.31222920257,780.31222920257,980.31222920257,419.68777079743,619.68777079743,419.68777079743,619.68777079743,780.31222920257,0,0,4,0,vertical,horizontal,vertical,horizontal
2b,19,100376,11,12,332,19,M,NA,constant,homogeneous,4,present,0.782727956771851,1,vertical,vertical,1,2,green,4,2,619.68777079743,780.31222920257,980.31222920257,419.68777079743,980.31222920257,780.31222920257,980.31222920257,419.68777079743,619.68777079743,419.68777079743,619.68777079743,780.31222920257,0,0,0,4,horizontal,horizontal,horizontal,vertical
2b,19,100376,11,13,333,19,M,NA,constant,homogeneous,4,absent,1.18635988235474,1,horizontal,horizontal,1,5,green,3,NaN,619.68777079743,419.68777079743,NaN,NaN,980.31222920257,780.31222920257,980.31222920257,419.68777079743,619.68777079743,419.68777079743,619.68777079743,780.31222920257,0,0,4,0,vertical,horizontal,horizontal,vertical
2b,19,100376,11,14,334,19,M,NA,constant,homogeneous,4,absent,0.89381217956543,1,horizontal,horizontal,1,2,green,4,NaN,619.68777079743,780.31222920257,NaN,NaN,980.31222920257,780.31222920257,980.31222920257,419.68777079743,619.68777079743,419.68777079743,619.68777079743,780.31222920257,0,0,0,4,vertical,horizontal,horizontal,horizontal
2b,19,100376,11,15,335,19,M,NA,constant,homogeneous,4,present,1.62805986404419,1,horizontal,horizontal,1,3,green,4,1,619.68777079743,780.31222920257,980.31222920257,780.31222920257,980.31222920257,780.31222920257,980.31222920257,419.68777079743,619.68777079743,419.68777079743,619.68777079743,780.31222920257,0,0,0,4,horizontal,horizontal,vertical,horizontal
2b,19,100376,11,16,336,19,M,NA,constant,homogeneous,4,absent,0.777077913284302,1,horizontal,horizontal,1,2,green,2,NaN,980.31222920257,419.68777079743,NaN,NaN,980.31222920257,780.31222920257,980.31222920257,419.68777079743,619.68777079743,419.68777079743,619.68777079743,780.31222920257,0,4,0,0,horizontal,horizontal,horizontal,vertical
2b,19,100376,11,17,337,19,M,NA,constant,homogeneous,4,absent,0.764872074127197,1,horizontal,horizontal,1,3,green,4,NaN,619.68777079743,780.31222920257,NaN,NaN,980.31222920257,780.31222920257,980.31222920257,419.68777079743,619.68777079743,419.68777079743,619.68777079743,780.31222920257,0,0,0,4,vertical,vertical,vertical,horizontal
2b,19,100376,11,18,338,19,M,NA,constant,homogeneous,4,present,1.03665494918823,1,vertical,vertical,1,3,green,3,4,619.68777079743,419.68777079743,619.68777079743,780.31222920257,980.31222920257,780.31222920257,980.31222920257,419.68777079743,619.68777079743,419.68777079743,619.68777079743,780.31222920257,0,0,4,0,horizontal,vertical,vertical,horizontal
2b,19,100376,11,19,339,19,M,NA,constant,homogeneous,4,present,1.38128900527954,1,vertical,vertical,1,2,green,3,4,619.68777079743,419.68777079743,619.68777079743,780.31222920257,980.31222920257,780.31222920257,980.31222920257,419.68777079743,619.68777079743,419.68777079743,619.68777079743,780.31222920257,0,0,4,0,vertical,vertical,vertical,horizontal
2b,19,100376,11,20,340,19,M,NA,constant,homogeneous,4,absent,1.64706897735596,1,vertical,vertical,1,3,green,2,NaN,980.31222920257,419.68777079743,NaN,NaN,980.31222920257,780.31222920257,980.31222920257,419.68777079743,619.68777079743,419.68777079743,619.68777079743,780.31222920257,0,4,0,0,vertical,vertical,vertical,horizontal
2b,19,100376,11,21,341,19,M,NA,constant,homogeneous,4,absent,NaN,0,horizontal,none,0,8,green,1,NaN,980.31222920257,780.31222920257,NaN,NaN,980.31222920257,780.31222920257,980.31222920257,419.68777079743,619.68777079743,419.68777079743,619.68777079743,780.31222920257,4,0,0,0,horizontal,vertical,horizontal,vertical
2b,19,100376,11,22,342,19,M,NA,constant,homogeneous,4,present,0.874863862991333,1,vertical,vertical,1,8,green,2,4,980.31222920257,419.68777079743,619.68777079743,780.31222920257,980.31222920257,780.31222920257,980.31222920257,419.68777079743,619.68777079743,419.68777079743,619.68777079743,780.31222920257,0,4,0,0,vertical,vertical,horizontal,horizontal
2b,19,100376,11,23,343,19,M,NA,constant,homogeneous,4,present,0.72048807144165,1,vertical,vertical,1,3,green,4,3,619.68777079743,780.31222920257,619.68777079743,419.68777079743,980.31222920257,780.31222920257,980.31222920257,419.68777079743,619.68777079743,419.68777079743,619.68777079743,780.31222920257,0,0,0,4,vertical,horizontal,horizontal,vertical
2b,19,100376,11,24,344,19,M,NA,constant,homogeneous,4,absent,0.679351091384888,1,vertical,vertical,1,2,green,4,NaN,619.68777079743,780.31222920257,NaN,NaN,980.31222920257,780.31222920257,980.31222920257,419.68777079743,619.68777079743,419.68777079743,619.68777079743,780.31222920257,0,0,0,4,vertical,horizontal,vertical,vertical
2b,19,100376,11,25,345,19,M,NA,constant,homogeneous,4,absent,0.772947072982788,1,horizontal,horizontal,1,5,green,2,NaN,980.31222920257,419.68777079743,NaN,NaN,980.31222920257,780.31222920257,980.31222920257,419.68777079743,619.68777079743,419.68777079743,619.68777079743,780.31222920257,0,4,0,0,vertical,horizontal,vertical,vertical
2b,19,100376,11,26,346,19,M,NA,constant,homogeneous,4,absent,0.740824222564697,1,vertical,vertical,1,3,green,3,NaN,619.68777079743,419.68777079743,NaN,NaN,980.31222920257,780.31222920257,980.31222920257,419.68777079743,619.68777079743,419.68777079743,619.68777079743,780.31222920257,0,0,4,0,horizontal,vertical,vertical,vertical
2b,19,100376,11,27,347,19,M,NA,constant,homogeneous,4,present,0.915798902511597,1,horizontal,horizontal,1,2,green,3,1,619.68777079743,419.68777079743,980.31222920257,780.31222920257,980.31222920257,780.31222920257,980.31222920257,419.68777079743,619.68777079743,419.68777079743,619.68777079743,780.31222920257,0,0,4,0,horizontal,vertical,horizontal,horizontal
2b,19,100376,11,28,348,19,M,NA,constant,homogeneous,4,present,0.702141046524048,1,vertical,vertical,1,2,green,2,1,980.31222920257,419.68777079743,980.31222920257,780.31222920257,980.31222920257,780.31222920257,980.31222920257,419.68777079743,619.68777079743,419.68777079743,619.68777079743,780.31222920257,0,4,0,0,horizontal,vertical,vertical,horizontal
2b,19,100376,11,29,349,19,M,NA,constant,homogeneous,4,present,0.916484117507935,1,horizontal,horizontal,1,5,green,1,4,980.31222920257,780.31222920257,619.68777079743,780.31222920257,980.31222920257,780.31222920257,980.31222920257,419.68777079743,619.68777079743,419.68777079743,619.68777079743,780.31222920257,4,0,0,0,horizontal,horizontal,horizontal,vertical
2b,19,100376,11,30,350,19,M,NA,constant,homogeneous,4,present,0.827476978302002,1,horizontal,horizontal,1,3,green,3,4,619.68777079743,419.68777079743,619.68777079743,780.31222920257,980.31222920257,780.31222920257,980.31222920257,419.68777079743,619.68777079743,419.68777079743,619.68777079743,780.31222920257,0,0,4,0,vertical,horizontal,horizontal,horizontal
2b,19,100376,11,31,351,19,M,NA,constant,homogeneous,4,absent,0.839669942855835,1,horizontal,horizontal,1,2,green,2,NaN,980.31222920257,419.68777079743,NaN,NaN,980.31222920257,780.31222920257,980.31222920257,419.68777079743,619.68777079743,419.68777079743,619.68777079743,780.31222920257,0,4,0,0,horizontal,horizontal,vertical,horizontal
2b,19,100376,11,32,352,19,M,NA,constant,homogeneous,4,present,0.760732889175415,1,horizontal,horizontal,1,2,green,2,4,980.31222920257,419.68777079743,619.68777079743,780.31222920257,980.31222920257,780.31222920257,980.31222920257,419.68777079743,619.68777079743,419.68777079743,619.68777079743,780.31222920257,0,4,0,0,horizontal,horizontal,horizontal,horizontal
2b,19,100376,12,1,353,19,M,NA,constant,homogeneous,4,absent,0.78184700012207,1,horizontal,horizontal,1,5,green,1,NaN,980.31222920257,780.31222920257,NaN,NaN,980.31222920257,780.31222920257,980.31222920257,419.68777079743,619.68777079743,419.68777079743,619.68777079743,780.31222920257,4,0,0,0,horizontal,horizontal,vertical,horizontal
2b,19,100376,12,2,354,19,M,NA,constant,homogeneous,4,absent,0.889772176742554,1,horizontal,horizontal,1,2,green,3,NaN,619.68777079743,419.68777079743,NaN,NaN,980.31222920257,780.31222920257,980.31222920257,419.68777079743,619.68777079743,419.68777079743,619.68777079743,780.31222920257,0,0,4,0,vertical,horizontal,horizontal,horizontal
2b,19,100376,12,3,355,19,M,NA,constant,homogeneous,4,absent,0.747457981109619,1,horizontal,horizontal,1,2,green,4,NaN,619.68777079743,780.31222920257,NaN,NaN,980.31222920257,780.31222920257,980.31222920257,419.68777079743,619.68777079743,419.68777079743,619.68777079743,780.31222920257,0,0,0,4,horizontal,horizontal,vertical,horizontal
2b,19,100376,12,4,356,19,M,NA,constant,homogeneous,4,absent,0.93901515007019,1,horizontal,horizontal,1,8,green,4,NaN,619.68777079743,780.31222920257,NaN,NaN,980.31222920257,780.31222920257,980.31222920257,419.68777079743,619.68777079743,419.68777079743,619.68777079743,780.31222920257,0,0,0,4,vertical,horizontal,vertical,horizontal
2b,19,100376,12,5,357,19,M,NA,constant,homogeneous,4,absent,0.973435878753662,1,vertical,vertical,1,2,green,1,NaN,980.31222920257,780.31222920257,NaN,NaN,980.31222920257,780.31222920257,980.31222920257,419.68777079743,619.68777079743,419.68777079743,619.68777079743,780.31222920257,4,0,0,0,vertical,horizontal,vertical,vertical
2b,19,100376,12,6,358,19,M,NA,constant,homogeneous,4,absent,0.821276903152466,1,horizontal,horizontal,1,3,green,1,NaN,980.31222920257,780.31222920257,NaN,NaN,980.31222920257,780.31222920257,980.31222920257,419.68777079743,619.68777079743,419.68777079743,619.68777079743,780.31222920257,4,0,0,0,horizontal,horizontal,vertical,horizontal
2b,19,100376,12,7,359,19,M,NA,constant,homogeneous,4,absent,0.965760946273804,1,vertical,vertical,1,5,green,3,NaN,619.68777079743,419.68777079743,NaN,NaN,980.31222920257,780.31222920257,980.31222920257,419.68777079743,619.68777079743,419.68777079743,619.68777079743,780.31222920257,0,0,4,0,vertical,vertical,vertical,horizontal
2b,19,100376,12,8,360,19,M,NA,constant,homogeneous,4,present,0.781772136688232,1,horizontal,horizontal,1,5,green,1,2,980.31222920257,780.31222920257,980.31222920257,419.68777079743,980.31222920257,780.31222920257,980.31222920257,419.68777079743,619.68777079743,419.68777079743,619.68777079743,780.31222920257,4,0,0,0,horizontal,vertical,vertical,horizontal
2b,19,100376,12,9,361,19,M,NA,constant,homogeneous,4,absent,1.0649209022522,1,vertical,vertical,1,2,green,2,NaN,980.31222920257,419.68777079743,NaN,NaN,980.31222920257,780.31222920257,980.31222920257,419.68777079743,619.68777079743,419.68777079743,619.68777079743,780.31222920257,0,4,0,0,horizontal,vertical,vertical,horizontal
2b,19,100376,12,10,362,19,M,NA,constant,homogeneous,4,absent,0.706945896148682,1,vertical,vertical,1,3,green,3,NaN,619.68777079743,419.68777079743,NaN,NaN,980.31222920257,780.31222920257,980.31222920257,419.68777079743,619.68777079743,419.68777079743,619.68777079743,780.31222920257,0,0,4,0,vertical,horizontal,vertical,horizontal
2b,19,100376,12,11,363,19,M,NA,constant,homogeneous,4,present,0.749107122421265,1,vertical,vertical,1,5,green,1,4,980.31222920257,780.31222920257,619.68777079743,780.31222920257,980.31222920257,780.31222920257,980.31222920257,419.68777079743,619.68777079743,419.68777079743,619.68777079743,780.31222920257,4,0,0,0,vertical,vertical,vertical,vertical
2b,19,100376,12,12,364,19,M,NA,constant,homogeneous,4,absent,0.660276174545288,1,vertical,vertical,1,5,green,2,NaN,980.31222920257,419.68777079743,NaN,NaN,980.31222920257,780.31222920257,980.31222920257,419.68777079743,619.68777079743,419.68777079743,619.68777079743,780.31222920257,0,4,0,0,horizontal,vertical,horizontal,horizontal
2b,19,100376,12,13,365,19,M,NA,constant,homogeneous,4,present,0.782083034515381,1,horizontal,horizontal,1,3,green,4,3,619.68777079743,780.31222920257,619.68777079743,419.68777079743,980.31222920257,780.31222920257,980.31222920257,419.68777079743,619.68777079743,419.68777079743,619.68777079743,780.31222920257,0,0,0,4,horizontal,vertical,vertical,horizontal
2b,19,100376,12,14,366,19,M,NA,constant,homogeneous,4,present,0.673469066619873,1,horizontal,horizontal,1,3,green,4,3,619.68777079743,780.31222920257,619.68777079743,419.68777079743,980.31222920257,780.31222920257,980.31222920257,419.68777079743,619.68777079743,419.68777079743,619.68777079743,780.31222920257,0,0,0,4,horizontal,horizontal,vertical,horizontal
2b,19,100376,12,15,367,19,M,NA,constant,homogeneous,4,present,0.711531162261963,1,vertical,vertical,1,2,green,3,4,619.68777079743,419.68777079743,619.68777079743,780.31222920257,980.31222920257,780.31222920257,980.31222920257,419.68777079743,619.68777079743,419.68777079743,619.68777079743,780.31222920257,0,0,4,0,vertical,vertical,vertical,horizontal
2b,19,100376,12,16,368,19,M,NA,constant,homogeneous,4,absent,0.698057889938354,1,horizontal,horizontal,1,2,green,2,NaN,980.31222920257,419.68777079743,NaN,NaN,980.31222920257,780.31222920257,980.31222920257,419.68777079743,619.68777079743,419.68777079743,619.68777079743,780.31222920257,0,4,0,0,vertical,horizontal,vertical,vertical
2b,19,100376,12,17,369,19,M,NA,constant,homogeneous,4,present,0.783771991729736,1,vertical,vertical,1,3,green,1,2,980.31222920257,780.31222920257,980.31222920257,419.68777079743,980.31222920257,780.31222920257,980.31222920257,419.68777079743,619.68777079743,419.68777079743,619.68777079743,780.31222920257,4,0,0,0,vertical,horizontal,horizontal,horizontal
2b,19,100376,12,18,370,19,M,NA,constant,homogeneous,4,present,0.579822063446045,1,horizontal,horizontal,1,5,green,4,3,619.68777079743,780.31222920257,619.68777079743,419.68777079743,980.31222920257,780.31222920257,980.31222920257,419.68777079743,619.68777079743,419.68777079743,619.68777079743,780.31222920257,0,0,0,4,horizontal,vertical,horizontal,horizontal
2b,19,100376,12,19,371,19,M,NA,constant,homogeneous,4,present,0.775547027587891,1,vertical,vertical,1,8,green,3,4,619.68777079743,419.68777079743,619.68777079743,780.31222920257,980.31222920257,780.31222920257,980.31222920257,419.68777079743,619.68777079743,419.68777079743,619.68777079743,780.31222920257,0,0,4,0,vertical,vertical,vertical,vertical
2b,19,100376,12,20,372,19,M,NA,constant,homogeneous,4,absent,0.715396881103516,1,horizontal,horizontal,1,3,green,1,NaN,980.31222920257,780.31222920257,NaN,NaN,980.31222920257,780.31222920257,980.31222920257,419.68777079743,619.68777079743,419.68777079743,619.68777079743,780.31222920257,4,0,0,0,horizontal,vertical,horizontal,vertical
2b,19,100376,12,21,373,19,M,NA,constant,homogeneous,4,present,0.765799045562744,1,horizontal,horizontal,1,2,green,4,3,619.68777079743,780.31222920257,619.68777079743,419.68777079743,980.31222920257,780.31222920257,980.31222920257,419.68777079743,619.68777079743,419.68777079743,619.68777079743,780.31222920257,0,0,0,4,vertical,vertical,horizontal,horizontal
2b,19,100376,12,22,374,19,M,NA,constant,homogeneous,4,absent,0.589209079742432,1,vertical,vertical,1,3,green,4,NaN,619.68777079743,780.31222920257,NaN,NaN,980.31222920257,780.31222920257,980.31222920257,419.68777079743,619.68777079743,419.68777079743,619.68777079743,780.31222920257,0,0,0,4,vertical,horizontal,horizontal,vertical
2b,19,100376,12,23,375,19,M,NA,constant,homogeneous,4,absent,0.853412866592407,1,vertical,vertical,1,8,green,3,NaN,619.68777079743,419.68777079743,NaN,NaN,980.31222920257,780.31222920257,980.31222920257,419.68777079743,619.68777079743,419.68777079743,619.68777079743,780.31222920257,0,0,4,0,horizontal,vertical,vertical,vertical
2b,19,100376,12,24,376,19,M,NA,constant,homogeneous,4,present,0.890939950942993,1,horizontal,horizontal,1,2,green,3,1,619.68777079743,419.68777079743,980.31222920257,780.31222920257,980.31222920257,780.31222920257,980.31222920257,419.68777079743,619.68777079743,419.68777079743,619.68777079743,780.31222920257,0,0,4,0,vertical,vertical,horizontal,vertical
2b,19,100376,12,25,377,19,M,NA,constant,homogeneous,4,present,0.756892919540405,1,vertical,vertical,1,5,green,4,1,619.68777079743,780.31222920257,980.31222920257,780.31222920257,980.31222920257,780.31222920257,980.31222920257,419.68777079743,619.68777079743,419.68777079743,619.68777079743,780.31222920257,0,0,0,4,vertical,vertical,vertical,vertical
2b,19,100376,12,26,378,19,M,NA,constant,homogeneous,4,absent,0.752256870269775,1,horizontal,horizontal,1,5,green,2,NaN,980.31222920257,419.68777079743,NaN,NaN,980.31222920257,780.31222920257,980.31222920257,419.68777079743,619.68777079743,419.68777079743,619.68777079743,780.31222920257,0,4,0,0,vertical,horizontal,horizontal,vertical
2b,19,100376,12,27,379,19,M,NA,constant,homogeneous,4,present,1.25141096115112,1,vertical,vertical,1,2,green,1,4,980.31222920257,780.31222920257,619.68777079743,780.31222920257,980.31222920257,780.31222920257,980.31222920257,419.68777079743,619.68777079743,419.68777079743,619.68777079743,780.31222920257,4,0,0,0,vertical,vertical,vertical,vertical
2b,19,100376,12,28,380,19,M,NA,constant,homogeneous,4,present,0.74468994140625,1,horizontal,horizontal,1,8,green,3,4,619.68777079743,419.68777079743,619.68777079743,780.31222920257,980.31222920257,780.31222920257,980.31222920257,419.68777079743,619.68777079743,419.68777079743,619.68777079743,780.31222920257,0,0,4,0,vertical,horizontal,horizontal,vertical
2b,19,100376,12,29,381,19,M,NA,constant,homogeneous,4,present,0.600048065185547,1,horizontal,horizontal,1,2,green,3,2,619.68777079743,419.68777079743,980.31222920257,419.68777079743,980.31222920257,780.31222920257,980.31222920257,419.68777079743,619.68777079743,419.68777079743,619.68777079743,780.31222920257,0,0,4,0,horizontal,horizontal,horizontal,horizontal
2b,19,100376,12,30,382,19,M,NA,constant,homogeneous,4,present,0.628303050994873,1,vertical,vertical,1,2,green,4,3,619.68777079743,780.31222920257,619.68777079743,419.68777079743,980.31222920257,780.31222920257,980.31222920257,419.68777079743,619.68777079743,419.68777079743,619.68777079743,780.31222920257,0,0,0,4,vertical,horizontal,horizontal,vertical
2b,19,100376,12,31,383,19,M,NA,constant,homogeneous,4,absent,0.681092023849487,1,vertical,vertical,1,2,green,4,NaN,619.68777079743,780.31222920257,NaN,NaN,980.31222920257,780.31222920257,980.31222920257,419.68777079743,619.68777079743,419.68777079743,619.68777079743,780.31222920257,0,0,0,4,horizontal,vertical,horizontal,vertical
2b,19,100376,12,32,384,19,M,NA,constant,homogeneous,4,present,0.874743938446045,1,vertical,vertical,1,3,green,3,4,619.68777079743,419.68777079743,619.68777079743,780.31222920257,980.31222920257,780.31222920257,980.31222920257,419.68777079743,619.68777079743,419.68777079743,619.68777079743,780.31222920257,0,0,4,0,vertical,horizontal,vertical,horizontal
2b,19,100376,13,1,385,19,M,NA,constant,homogeneous,4,present,0.765681028366089,1,vertical,vertical,1,3,green,3,2,619.68777079743,419.68777079743,980.31222920257,419.68777079743,980.31222920257,780.31222920257,980.31222920257,419.68777079743,619.68777079743,419.68777079743,619.68777079743,780.31222920257,0,0,4,0,vertical,horizontal,vertical,vertical
2b,19,100376,13,2,386,19,M,NA,constant,homogeneous,4,present,0.669265031814575,1,horizontal,horizontal,1,3,green,2,1,980.31222920257,419.68777079743,980.31222920257,780.31222920257,980.31222920257,780.31222920257,980.31222920257,419.68777079743,619.68777079743,419.68777079743,619.68777079743,780.31222920257,0,4,0,0,horizontal,horizontal,vertical,horizontal
2b,19,100376,13,3,387,19,M,NA,constant,homogeneous,4,absent,0.651270866394043,1,horizontal,horizontal,1,5,green,4,NaN,619.68777079743,780.31222920257,NaN,NaN,980.31222920257,780.31222920257,980.31222920257,419.68777079743,619.68777079743,419.68777079743,619.68777079743,780.31222920257,0,0,0,4,horizontal,vertical,vertical,horizontal
2b,19,100376,13,4,388,19,M,NA,constant,homogeneous,4,absent,0.64835000038147,1,horizontal,horizontal,1,2,green,3,NaN,619.68777079743,419.68777079743,NaN,NaN,980.31222920257,780.31222920257,980.31222920257,419.68777079743,619.68777079743,419.68777079743,619.68777079743,780.31222920257,0,0,4,0,horizontal,horizontal,horizontal,horizontal
2b,19,100376,13,5,389,19,M,NA,constant,homogeneous,4,present,0.693721055984497,1,horizontal,horizontal,1,2,green,2,4,980.31222920257,419.68777079743,619.68777079743,780.31222920257,980.31222920257,780.31222920257,980.31222920257,419.68777079743,619.68777079743,419.68777079743,619.68777079743,780.31222920257,0,4,0,0,vertical,horizontal,horizontal,vertical
2b,19,100376,13,6,390,19,M,NA,constant,homogeneous,4,present,0.587837934494019,1,horizontal,horizontal,1,3,green,3,1,619.68777079743,419.68777079743,980.31222920257,780.31222920257,980.31222920257,780.31222920257,980.31222920257,419.68777079743,619.68777079743,419.68777079743,619.68777079743,780.31222920257,0,0,4,0,vertical,horizontal,horizontal,horizontal
2b,19,100376,13,7,391,19,M,NA,constant,homogeneous,4,absent,0.571843862533569,1,horizontal,horizontal,1,3,green,3,NaN,619.68777079743,419.68777079743,NaN,NaN,980.31222920257,780.31222920257,980.31222920257,419.68777079743,619.68777079743,419.68777079743,619.68777079743,780.31222920257,0,0,4,0,vertical,horizontal,horizontal,horizontal
2b,19,100376,13,8,392,19,M,NA,constant,homogeneous,4,absent,0.715728998184204,1,vertical,vertical,1,8,green,4,NaN,619.68777079743,780.31222920257,NaN,NaN,980.31222920257,780.31222920257,980.31222920257,419.68777079743,619.68777079743,419.68777079743,619.68777079743,780.31222920257,0,0,0,4,vertical,horizontal,horizontal,vertical
2b,19,100376,13,9,393,19,M,NA,constant,homogeneous,4,absent,0.654117822647095,1,vertical,vertical,1,2,green,4,NaN,619.68777079743,780.31222920257,NaN,NaN,980.31222920257,780.31222920257,980.31222920257,419.68777079743,619.68777079743,419.68777079743,619.68777079743,780.31222920257,0,0,0,4,vertical,horizontal,horizontal,vertical
2b,19,100376,13,10,394,19,M,NA,constant,homogeneous,4,present,0.667312860488892,1,vertical,vertical,1,2,green,3,4,619.68777079743,419.68777079743,619.68777079743,780.31222920257,980.31222920257,780.31222920257,980.31222920257,419.68777079743,619.68777079743,419.68777079743,619.68777079743,780.31222920257,0,0,4,0,vertical,vertical,vertical,vertical
2b,19,100376,13,11,395,19,M,NA,constant,homogeneous,4,present,0.732685089111328,1,horizontal,horizontal,1,2,green,2,3,980.31222920257,419.68777079743,619.68777079743,419.68777079743,980.31222920257,780.31222920257,980.31222920257,419.68777079743,619.68777079743,419.68777079743,619.68777079743,780.31222920257,0,4,0,0,vertical,horizontal,horizontal,horizontal
2b,19,100376,13,12,396,19,M,NA,constant,homogeneous,4,absent,1.01530385017395,1,horizontal,horizontal,1,8,green,3,NaN,619.68777079743,419.68777079743,NaN,NaN,980.31222920257,780.31222920257,980.31222920257,419.68777079743,619.68777079743,419.68777079743,619.68777079743,780.31222920257,0,0,4,0,horizontal,horizontal,horizontal,horizontal
2b,19,100376,13,13,397,19,M,NA,constant,homogeneous,4,present,0.623946905136108,1,vertical,vertical,1,5,green,1,3,980.31222920257,780.31222920257,619.68777079743,419.68777079743,980.31222920257,780.31222920257,980.31222920257,419.68777079743,619.68777079743,419.68777079743,619.68777079743,780.31222920257,4,0,0,0,vertical,horizontal,horizontal,vertical
2b,19,100376,13,14,398,19,M,NA,constant,homogeneous,4,present,0.700918197631836,1,vertical,vertical,1,3,green,1,4,980.31222920257,780.31222920257,619.68777079743,780.31222920257,980.31222920257,780.31222920257,980.31222920257,419.68777079743,619.68777079743,419.68777079743,619.68777079743,780.31222920257,4,0,0,0,vertical,vertical,horizontal,horizontal
2b,19,100376,13,15,399,19,M,NA,constant,homogeneous,4,absent,0.699513912200928,1,vertical,vertical,1,2,green,1,NaN,980.31222920257,780.31222920257,NaN,NaN,980.31222920257,780.31222920257,980.31222920257,419.68777079743,619.68777079743,419.68777079743,619.68777079743,780.31222920257,4,0,0,0,vertical,horizontal,horizontal,vertical
2b,19,100376,13,16,400,19,M,NA,constant,homogeneous,4,absent,1.06534004211426,1,horizontal,horizontal,1,2,green,3,NaN,619.68777079743,419.68777079743,NaN,NaN,980.31222920257,780.31222920257,980.31222920257,419.68777079743,619.68777079743,419.68777079743,619.68777079743,780.31222920257,0,0,4,0,horizontal,horizontal,horizontal,vertical
2b,19,100376,13,17,401,19,M,NA,constant,homogeneous,4,absent,0.755122900009155,1,horizontal,horizontal,1,3,green,1,NaN,980.31222920257,780.31222920257,NaN,NaN,980.31222920257,780.31222920257,980.31222920257,419.68777079743,619.68777079743,419.68777079743,619.68777079743,780.31222920257,4,0,0,0,horizontal,vertical,horizontal,horizontal
2b,19,100376,13,18,402,19,M,NA,constant,homogeneous,4,present,0.734112977981567,1,horizontal,horizontal,1,5,green,2,1,980.31222920257,419.68777079743,980.31222920257,780.31222920257,980.31222920257,780.31222920257,980.31222920257,419.68777079743,619.68777079743,419.68777079743,619.68777079743,780.31222920257,0,4,0,0,vertical,horizontal,horizontal,horizontal
2b,19,100376,13,19,403,19,M,NA,constant,homogeneous,4,present,0.76117205619812,1,vertical,vertical,1,8,green,4,3,619.68777079743,780.31222920257,619.68777079743,419.68777079743,980.31222920257,780.31222920257,980.31222920257,419.68777079743,619.68777079743,419.68777079743,619.68777079743,780.31222920257,0,0,0,4,vertical,horizontal,vertical,vertical
2b,19,100376,13,20,404,19,M,NA,constant,homogeneous,4,absent,0.70048189163208,1,vertical,vertical,1,2,green,1,NaN,980.31222920257,780.31222920257,NaN,NaN,980.31222920257,780.31222920257,980.31222920257,419.68777079743,619.68777079743,419.68777079743,619.68777079743,780.31222920257,4,0,0,0,vertical,vertical,horizontal,vertical
2b,19,100376,13,21,405,19,M,NA,constant,homogeneous,4,absent,1.32860994338989,1,vertical,vertical,1,3,green,2,NaN,980.31222920257,419.68777079743,NaN,NaN,980.31222920257,780.31222920257,980.31222920257,419.68777079743,619.68777079743,419.68777079743,619.68777079743,780.31222920257,0,4,0,0,vertical,vertical,horizontal,horizontal
2b,19,100376,13,22,406,19,M,NA,constant,homogeneous,4,absent,1.83759689331055,1,vertical,vertical,1,3,green,1,NaN,980.31222920257,780.31222920257,NaN,NaN,980.31222920257,780.31222920257,980.31222920257,419.68777079743,619.68777079743,419.68777079743,619.68777079743,780.31222920257,4,0,0,0,vertical,vertical,vertical,horizontal
2b,19,100376,13,23,407,19,M,NA,constant,homogeneous,4,absent,0.574519157409668,1,vertical,vertical,1,5,green,1,NaN,980.31222920257,780.31222920257,NaN,NaN,980.31222920257,780.31222920257,980.31222920257,419.68777079743,619.68777079743,419.68777079743,619.68777079743,780.31222920257,4,0,0,0,vertical,horizontal,horizontal,vertical
2b,19,100376,13,24,408,19,M,NA,constant,homogeneous,4,present,0.534031867980957,1,vertical,vertical,1,5,green,1,3,980.31222920257,780.31222920257,619.68777079743,419.68777079743,980.31222920257,780.31222920257,980.31222920257,419.68777079743,619.68777079743,419.68777079743,619.68777079743,780.31222920257,4,0,0,0,vertical,vertical,horizontal,horizontal
2b,19,100376,13,25,409,19,M,NA,constant,homogeneous,4,present,0.689272165298462,1,horizontal,horizontal,1,5,green,2,4,980.31222920257,419.68777079743,619.68777079743,780.31222920257,980.31222920257,780.31222920257,980.31222920257,419.68777079743,619.68777079743,419.68777079743,619.68777079743,780.31222920257,0,4,0,0,horizontal,horizontal,horizontal,horizontal
2b,19,100376,13,26,410,19,M,NA,constant,homogeneous,4,present,0.906999826431274,1,vertical,vertical,1,2,green,3,4,619.68777079743,419.68777079743,619.68777079743,780.31222920257,980.31222920257,780.31222920257,980.31222920257,419.68777079743,619.68777079743,419.68777079743,619.68777079743,780.31222920257,0,0,4,0,vertical,horizontal,vertical,vertical
2b,19,100376,13,27,411,19,M,NA,constant,homogeneous,4,present,0.821578025817871,1,horizontal,horizontal,1,2,green,3,1,619.68777079743,419.68777079743,980.31222920257,780.31222920257,980.31222920257,780.31222920257,980.31222920257,419.68777079743,619.68777079743,419.68777079743,619.68777079743,780.31222920257,0,0,4,0,horizontal,vertical,horizontal,horizontal
2b,19,100376,13,28,412,19,M,NA,constant,homogeneous,4,absent,0.685947179794312,1,horizontal,horizontal,1,2,green,3,NaN,619.68777079743,419.68777079743,NaN,NaN,980.31222920257,780.31222920257,980.31222920257,419.68777079743,619.68777079743,419.68777079743,619.68777079743,780.31222920257,0,0,4,0,horizontal,vertical,horizontal,horizontal
