experiment,subject,uniqueID,block,trial,trial_cumulative,age,gender,color_cond_blocking,color_history,shape_type,set_size,distractor,rt,acc,target_orient,response_key,response_made,iti,target_color,target_item,distractor_item,target_X,target_Y,distractor_X,distractor_Y,item1_X,item1_Y,item2_X,item2_Y,item3_X,item3_Y,item4_X,item4_Y,item1_shape,item2_shape,item3_shape,item4_shape,item1_line,item2_line,item3_line,item4_line
2b,20,100377,1,1,1,19,F,NA,constant,heterogeneous,4,absent,1.48184204101562,0,vertical,horizontal,1,3,red,1,NaN,NaN,NaN,NaN,NaN,NaN,NaN,NaN,NaN,NaN,NaN,NaN,NaN,4,0,5,6,vertical,vertical,vertical,horizontal
2b,20,100377,1,2,2,19,F,NA,constant,heterogeneous,4,absent,NaN,0,vertical,none,0,5,red,4,NaN,NaN,NaN,NaN,NaN,NaN,NaN,NaN,NaN,NaN,NaN,NaN,NaN,5,3,6,4,vertical,horizontal,vertical,vertical
2b,20,100377,1,3,3,19,F,NA,constant,heterogeneous,4,present,NaN,0,horizontal,none,0,2,red,4,2,NaN,NaN,NaN,NaN,NaN,NaN,NaN,NaN,NaN,NaN,NaN,NaN,3,0,5,4,horizontal,horizontal,horizontal,horizontal
2b,20,100377,1,4,4,19,F,NA,constant,heterogeneous,4,present,NaN,0,vertical,none,0,8,red,4,2,NaN,NaN,NaN,NaN,NaN,NaN,NaN,NaN,NaN,NaN,NaN,NaN,3,6,0,4,horizontal,vertical,horizontal,vertical
2b,20,100377,1,5,5,19,F,NA,constant,heterogeneous,4,present,1.61638116836548,1,vertical,vertical,1,5,red,3,2,NaN,NaN,NaN,NaN,NaN,NaN,NaN,NaN,NaN,NaN,NaN,NaN,3,6,4,0,vertical,vertical,vertical,vertical
2b,20,100377,1,6,6,19,F,NA,constant,heterogeneous,4,present,1.98481011390686,1,vertical,vertical,1,3,red,3,2,NaN,NaN,NaN,NaN,NaN,NaN,NaN,NaN,NaN,NaN,NaN,NaN,6,5,4,3,horizontal,horizontal,vertical,vertical
2b,20,100377,1,7,7,19,F,NA,constant,heterogeneous,4,absent,1.2930109500885,1,horizontal,horizontal,1,2,red,3,NaN,NaN,NaN,NaN,NaN,NaN,NaN,NaN,NaN,NaN,NaN,NaN,NaN,5,6,4,0,horizontal,vertical,horizontal,vertical
2b,20,100377,1,8,8,19,F,NA,constant,heterogeneous,4,present,1.45895218849182,1,horizontal,horizontal,1,2,red,4,2,NaN,NaN,NaN,NaN,NaN,NaN,NaN,NaN,NaN,NaN,NaN,NaN,5,6,3,4,horizontal,vertical,horizontal,horizontal
2b,20,100377,1,9,9,19,F,NA,constant,heterogeneous,4,present,1.47643995285034,1,vertical,vertical,1,2,red,4,3,NaN,NaN,NaN,NaN,NaN,NaN,NaN,NaN,NaN,NaN,NaN,NaN,6,3,5,4,vertical,vertical,horizontal,vertical
2b,20,100377,1,10,10,19,F,NA,constant,heterogeneous,4,present,1.16202902793884,1,horizontal,horizontal,1,8,red,4,1,NaN,NaN,NaN,NaN,NaN,NaN,NaN,NaN,NaN,NaN,NaN,NaN,5,3,0,4,vertical,vertical,horizontal,horizontal
2b,20,100377,1,11,11,19,F,NA,constant,heterogeneous,4,absent,0.949851989746094,1,vertical,vertical,1,5,red,3,NaN,NaN,NaN,NaN,NaN,NaN,NaN,NaN,NaN,NaN,NaN,NaN,NaN,6,3,4,0,horizontal,horizontal,vertical,horizontal
2b,20,100377,1,12,12,19,F,NA,constant,heterogeneous,4,absent,1.48511099815369,1,horizontal,horizontal,1,2,red,2,NaN,NaN,NaN,NaN,NaN,NaN,NaN,NaN,NaN,NaN,NaN,NaN,NaN,6,4,0,3,vertical,horizontal,horizontal,vertical
2b,20,100377,1,13,13,19,F,NA,constant,heterogeneous,4,present,1.23876595497131,1,vertical,vertical,1,2,red,4,3,NaN,NaN,NaN,NaN,NaN,NaN,NaN,NaN,NaN,NaN,NaN,NaN,0,3,6,4,horizontal,horizontal,horizontal,vertical
2b,20,100377,1,14,14,19,F,NA,constant,heterogeneous,4,present,1.15164613723755,1,vertical,vertical,1,5,red,3,1,NaN,NaN,NaN,NaN,NaN,NaN,NaN,NaN,NaN,NaN,NaN,NaN,3,6,4,5,vertical,horizontal,vertical,vertical
2b,20,100377,1,15,15,19,F,NA,constant,heterogeneous,4,absent,1.4432590007782,1,vertical,vertical,1,2,red,4,NaN,NaN,NaN,NaN,NaN,NaN,NaN,NaN,NaN,NaN,NaN,NaN,NaN,3,0,6,4,horizontal,vertical,horizontal,vertical
2b,20,100377,1,16,16,19,F,NA,constant,heterogeneous,4,present,1.28411293029785,1,horizontal,horizontal,1,3,red,3,2,NaN,NaN,NaN,NaN,NaN,NaN,NaN,NaN,NaN,NaN,NaN,NaN,3,6,4,0,horizontal,vertical,horizontal,horizontal
2b,20,100377,1,17,17,19,F,NA,constant,heterogeneous,4,present,1.373948097229,1,horizontal,horizontal,1,5,red,3,1,NaN,NaN,NaN,NaN,NaN,NaN,NaN,NaN,NaN,NaN,NaN,NaN,0,6,4,5,vertical,vertical,horizontal,vertical
2b,20,100377,1,18,18,19,F,NA,constant,heterogeneous,4,present,0.565705060958862,1,vertical,vertical,1,3,red,3,1,NaN,NaN,NaN,NaN,NaN,NaN,NaN,NaN,NaN,NaN,NaN,NaN,6,5,4,3,vertical,vertical,vertical,horizontal
2b,20,100377,1,19,19,19,F,NA,constant,heterogeneous,4,absent,0.661444902420044,0,vertical,horizontal,1,8,red,2,NaN,NaN,NaN,NaN,NaN,NaN,NaN,NaN,NaN,NaN,NaN,NaN,NaN,0,4,6,3,vertical,vertical,horizontal,vertical
2b,20,100377,1,20,20,19,F,NA,constant,heterogeneous,4,absent,0.718981027603149,1,horizontal,horizontal,1,5,red,2,NaN,NaN,NaN,NaN,NaN,NaN,NaN,NaN,NaN,NaN,NaN,NaN,NaN,5,4,3,6,vertical,horizontal,vertical,horizontal
2b,20,100377,1,21,21,19,F,NA,constant,heterogeneous,4,absent,1.19729113578796,0,horizontal,vertical,1,3,red,3,NaN,NaN,NaN,NaN,NaN,NaN,NaN,NaN,NaN,NaN,NaN,NaN,NaN,0,3,4,6,vertical,horizontal,horizontal,horizontal
2b,20,100377,1,22,22,19,F,NA,constant,heterogeneous,4,absent,0.573523044586182,0,vertical,horizontal,1,2,red,3,NaN,NaN,NaN,NaN,NaN,NaN,NaN,NaN,NaN,NaN,NaN,NaN,NaN,6,5,4,3,vertical,vertical,vertical,vertical
2b,20,100377,1,23,23,19,F,NA,constant,heterogeneous,4,absent,0.581223964691162,0,horizontal,vertical,1,3,red,3,NaN,NaN,NaN,NaN,NaN,NaN,NaN,NaN,NaN,NaN,NaN,NaN,NaN,0,6,4,5,horizontal,horizontal,horizontal,vertical
2b,20,100377,1,24,24,19,F,NA,constant,heterogeneous,4,present,NaN,0,horizontal,none,0,3,red,2,3,NaN,NaN,NaN,NaN,NaN,NaN,NaN,NaN,NaN,NaN,NaN,NaN,6,4,0,5,horizontal,horizontal,horizontal,horizontal
2b,20,100377,1,25,25,19,F,NA,constant,heterogeneous,4,absent,1.14925479888916,0,vertical,horizontal,1,3,red,3,NaN,NaN,NaN,NaN,NaN,NaN,NaN,NaN,NaN,NaN,NaN,NaN,NaN,3,0,4,5,horizontal,horizontal,vertical,vertical
2b,20,100377,1,26,26,19,F,NA,constant,heterogeneous,4,absent,0.780209064483643,1,horizontal,horizontal,1,2,red,3,NaN,NaN,NaN,NaN,NaN,NaN,NaN,NaN,NaN,NaN,NaN,NaN,NaN,3,0,4,6,horizontal,horizontal,horizontal,horizontal
2b,20,100377,1,27,27,19,F,NA,constant,heterogeneous,4,absent,0.680111885070801,1,vertical,vertical,1,2,red,2,NaN,NaN,NaN,NaN,NaN,NaN,NaN,NaN,NaN,NaN,NaN,NaN,NaN,5,4,0,3,vertical,vertical,vertical,horizontal
2b,20,100377,1,28,28,19,F,NA,constant,heterogeneous,4,present,0.781620025634766,0,vertical,horizontal,1,2,red,4,1,NaN,NaN,NaN,NaN,NaN,NaN,NaN,NaN,NaN,NaN,NaN,NaN,3,6,0,4,vertical,horizontal,vertical,vertical
2b,20,100377,1,29,29,19,F,NA,constant,heterogeneous,4,present,1.18591594696045,1,horizontal,horizontal,1,5,red,2,3,NaN,NaN,NaN,NaN,NaN,NaN,NaN,NaN,NaN,NaN,NaN,NaN,0,4,3,5,horizontal,horizontal,vertical,horizontal
2b,20,100377,1,30,30,19,F,NA,constant,heterogeneous,4,absent,1.22981190681458,1,horizontal,horizontal,1,8,red,1,NaN,NaN,NaN,NaN,NaN,NaN,NaN,NaN,NaN,NaN,NaN,NaN,NaN,4,0,3,5,horizontal,horizontal,horizontal,horizontal
2b,20,100377,1,31,31,19,F,NA,constant,heterogeneous,4,present,0.922643184661865,1,horizontal,horizontal,1,2,red,3,1,NaN,NaN,NaN,NaN,NaN,NaN,NaN,NaN,NaN,NaN,NaN,NaN,0,3,4,5,vertical,vertical,horizontal,vertical
2b,20,100377,1,32,32,19,F,NA,constant,heterogeneous,4,absent,0.721476078033447,1,horizontal,horizontal,1,5,red,1,NaN,NaN,NaN,NaN,NaN,NaN,NaN,NaN,NaN,NaN,NaN,NaN,NaN,4,5,3,6,horizontal,vertical,horizontal,horizontal
2b,20,100377,2,1,33,19,F,NA,constant,heterogeneous,4,present,1.32428812980652,0,vertical,horizontal,1,2,red,3,2,NaN,NaN,NaN,NaN,NaN,NaN,NaN,NaN,NaN,NaN,NaN,NaN,3,0,4,5,vertical,vertical,vertical,horizontal
2b,20,100377,2,2,34,19,F,NA,constant,heterogeneous,4,absent,1.08248686790466,1,vertical,vertical,1,2,red,4,NaN,NaN,NaN,NaN,NaN,NaN,NaN,NaN,NaN,NaN,NaN,NaN,NaN,6,0,5,4,horizontal,vertical,vertical,vertical
2b,20,100377,2,3,35,19,F,NA,constant,heterogeneous,4,present,0.85263204574585,1,vertical,vertical,1,2,red,1,2,NaN,NaN,NaN,NaN,NaN,NaN,NaN,NaN,NaN,NaN,NaN,NaN,4,0,5,3,vertical,vertical,vertical,vertical
2b,20,100377,2,4,36,19,F,NA,constant,heterogeneous,4,present,0.673768043518066,1,vertical,vertical,1,3,red,1,2,NaN,NaN,NaN,NaN,NaN,NaN,NaN,NaN,NaN,NaN,NaN,NaN,4,6,3,0,vertical,horizontal,vertical,horizontal
2b,20,100377,2,5,37,19,F,NA,constant,heterogeneous,4,absent,1.103679895401,0,horizontal,vertical,1,3,red,2,NaN,NaN,NaN,NaN,NaN,NaN,NaN,NaN,NaN,NaN,NaN,NaN,NaN,6,4,3,5,vertical,horizontal,vertical,vertical
2b,20,100377,2,6,38,19,F,NA,constant,heterogeneous,4,present,0.637625932693481,1,horizontal,horizontal,1,8,red,2,4,NaN,NaN,NaN,NaN,NaN,NaN,NaN,NaN,NaN,NaN,NaN,NaN,0,4,6,3,horizontal,horizontal,vertical,vertical
2b,20,100377,2,7,39,19,F,NA,constant,heterogeneous,4,present,1.23072099685669,1,vertical,vertical,1,3,red,2,4,NaN,NaN,NaN,NaN,NaN,NaN,NaN,NaN,NaN,NaN,NaN,NaN,6,4,0,5,horizontal,vertical,horizontal,horizontal
2b,20,100377,2,8,40,19,F,NA,constant,heterogeneous,4,absent,1.26746201515198,1,vertical,vertical,1,5,red,3,NaN,NaN,NaN,NaN,NaN,NaN,NaN,NaN,NaN,NaN,NaN,NaN,NaN,0,6,4,3,vertical,horizontal,vertical,vertical
2b,20,100377,2,9,41,19,F,NA,constant,heterogeneous,4,absent,0.852837085723877,0,horizontal,vertical,1,5,red,1,NaN,NaN,NaN,NaN,NaN,NaN,NaN,NaN,NaN,NaN,NaN,NaN,NaN,4,5,0,3,horizontal,vertical,vertical,vertical
2b,20,100377,2,10,42,19,F,NA,constant,heterogeneous,4,present,0.730236053466797,0,horizontal,vertical,1,2,red,2,1,NaN,NaN,NaN,NaN,NaN,NaN,NaN,NaN,NaN,NaN,NaN,NaN,6,4,3,0,vertical,horizontal,horizontal,vertical
2b,20,100377,2,11,43,19,F,NA,constant,heterogeneous,4,present,0.509563207626343,0,horizontal,vertical,1,5,red,1,2,NaN,NaN,NaN,NaN,NaN,NaN,NaN,NaN,NaN,NaN,NaN,NaN,4,0,3,5,horizontal,vertical,vertical,vertical
2b,20,100377,2,12,44,19,F,NA,constant,heterogeneous,4,absent,0.67157506942749,1,horizontal,horizontal,1,5,red,2,NaN,NaN,NaN,NaN,NaN,NaN,NaN,NaN,NaN,NaN,NaN,NaN,NaN,0,4,5,6,horizontal,horizontal,vertical,vertical
2b,20,100377,2,13,45,19,F,NA,constant,heterogeneous,4,absent,1.03745102882385,1,vertical,vertical,1,3,red,2,NaN,NaN,NaN,NaN,NaN,NaN,NaN,NaN,NaN,NaN,NaN,NaN,NaN,5,4,6,0,horizontal,vertical,horizontal,vertical
2b,20,100377,2,14,46,19,F,NA,constant,heterogeneous,4,present,0.590795040130615,0,horizontal,vertical,1,3,red,4,1,NaN,NaN,NaN,NaN,NaN,NaN,NaN,NaN,NaN,NaN,NaN,NaN,6,5,0,4,horizontal,vertical,vertical,horizontal
2b,20,100377,2,15,47,19,F,NA,constant,heterogeneous,4,absent,1.28649187088013,1,horizontal,horizontal,1,2,red,3,NaN,NaN,NaN,NaN,NaN,NaN,NaN,NaN,NaN,NaN,NaN,NaN,NaN,6,0,4,3,horizontal,vertical,horizontal,vertical
2b,20,100377,2,16,48,19,F,NA,constant,heterogeneous,4,present,0.480263233184814,1,horizontal,horizontal,1,3,red,3,1,NaN,NaN,NaN,NaN,NaN,NaN,NaN,NaN,NaN,NaN,NaN,NaN,5,3,4,0,vertical,horizontal,horizontal,horizontal
2b,20,100377,2,17,49,19,F,NA,constant,heterogeneous,4,absent,0.526165962219238,1,horizontal,horizontal,1,2,red,3,NaN,NaN,NaN,NaN,NaN,NaN,NaN,NaN,NaN,NaN,NaN,NaN,NaN,3,0,4,6,vertical,vertical,horizontal,horizontal
2b,20,100377,2,18,50,19,F,NA,constant,heterogeneous,4,present,0.708853960037231,0,vertical,horizontal,1,5,red,1,3,NaN,NaN,NaN,NaN,NaN,NaN,NaN,NaN,NaN,NaN,NaN,NaN,4,6,3,0,vertical,horizontal,vertical,horizontal
2b,20,100377,2,19,51,19,F,NA,constant,heterogeneous,4,present,1.22344303131104,1,vertical,vertical,1,2,red,1,4,NaN,NaN,NaN,NaN,NaN,NaN,NaN,NaN,NaN,NaN,NaN,NaN,4,0,6,3,vertical,vertical,horizontal,vertical
2b,20,100377,2,20,52,19,F,NA,constant,heterogeneous,4,absent,1.22806406021118,0,vertical,horizontal,1,5,red,1,NaN,NaN,NaN,NaN,NaN,NaN,NaN,NaN,NaN,NaN,NaN,NaN,NaN,4,0,6,5,vertical,horizontal,horizontal,vertical
2b,20,100377,2,21,53,19,F,NA,constant,heterogeneous,4,present,NaN,0,horizontal,none,0,2,red,4,1,NaN,NaN,NaN,NaN,NaN,NaN,NaN,NaN,NaN,NaN,NaN,NaN,5,3,6,4,horizontal,vertical,vertical,horizontal
2b,20,100377,2,22,54,19,F,NA,constant,heterogeneous,4,absent,1.18096208572388,1,vertical,vertical,1,8,red,3,NaN,NaN,NaN,NaN,NaN,NaN,NaN,NaN,NaN,NaN,NaN,NaN,NaN,5,6,4,0,vertical,horizontal,vertical,horizontal
2b,20,100377,2,23,55,19,F,NA,constant,heterogeneous,4,present,0.897111892700195,1,horizontal,horizontal,1,5,red,3,2,NaN,NaN,NaN,NaN,NaN,NaN,NaN,NaN,NaN,NaN,NaN,NaN,0,5,4,6,vertical,horizontal,horizontal,horizontal
2b,20,100377,2,24,56,19,F,NA,constant,heterogeneous,4,absent,0.743144989013672,1,vertical,vertical,1,2,red,4,NaN,NaN,NaN,NaN,NaN,NaN,NaN,NaN,NaN,NaN,NaN,NaN,NaN,6,0,3,4,vertical,horizontal,horizontal,vertical
2b,20,100377,2,25,57,19,F,NA,constant,heterogeneous,4,absent,0.798337936401367,1,horizontal,horizontal,1,3,red,1,NaN,NaN,NaN,NaN,NaN,NaN,NaN,NaN,NaN,NaN,NaN,NaN,NaN,4,0,6,3,horizontal,vertical,horizontal,horizontal
2b,20,100377,2,26,58,19,F,NA,constant,heterogeneous,4,absent,0.630175828933716,1,vertical,vertical,1,3,red,1,NaN,NaN,NaN,NaN,NaN,NaN,NaN,NaN,NaN,NaN,NaN,NaN,NaN,4,3,6,0,vertical,vertical,vertical,horizontal
2b,20,100377,2,27,59,19,F,NA,constant,heterogeneous,4,present,1.0353410243988,1,horizontal,horizontal,1,2,red,1,4,NaN,NaN,NaN,NaN,NaN,NaN,NaN,NaN,NaN,NaN,NaN,NaN,4,6,3,0,horizontal,horizontal,vertical,horizontal
2b,20,100377,2,28,60,19,F,NA,constant,heterogeneous,4,present,0.724301815032959,0,vertical,horizontal,1,8,red,2,4,NaN,NaN,NaN,NaN,NaN,NaN,NaN,NaN,NaN,NaN,NaN,NaN,5,4,3,6,horizontal,vertical,horizontal,vertical
2b,20,100377,2,29,61,19,F,NA,constant,heterogeneous,4,absent,1.30699706077576,1,horizontal,horizontal,1,8,red,4,NaN,NaN,NaN,NaN,NaN,NaN,NaN,NaN,NaN,NaN,NaN,NaN,NaN,6,3,5,4,horizontal,vertical,vertical,horizontal
2b,20,100377,2,30,62,19,F,NA,constant,heterogeneous,4,present,0.461285829544067,0,vertical,horizontal,1,5,red,2,1,NaN,NaN,NaN,NaN,NaN,NaN,NaN,NaN,NaN,NaN,NaN,NaN,3,4,0,6,horizontal,vertical,vertical,horizontal
2b,20,100377,2,31,63,19,F,NA,constant,heterogeneous,4,absent,1.47881197929382,1,vertical,vertical,1,2,red,1,NaN,NaN,NaN,NaN,NaN,NaN,NaN,NaN,NaN,NaN,NaN,NaN,NaN,4,6,3,5,vertical,vertical,horizontal,vertical
2b,20,100377,2,32,64,19,F,NA,constant,heterogeneous,4,absent,0.940587043762207,0,horizontal,vertical,1,2,red,3,NaN,NaN,NaN,NaN,NaN,NaN,NaN,NaN,NaN,NaN,NaN,NaN,NaN,3,6,4,0,vertical,vertical,horizontal,vertical
2b,20,100377,3,1,65,19,F,NA,constant,heterogeneous,4,present,0.77028489112854,0,vertical,horizontal,1,3,red,4,1,NaN,NaN,NaN,NaN,NaN,NaN,NaN,NaN,NaN,NaN,NaN,NaN,6,3,0,4,horizontal,horizontal,vertical,vertical
2b,20,100377,3,2,66,19,F,NA,constant,heterogeneous,4,present,1.64960980415344,1,horizontal,horizontal,1,5,red,1,3,NaN,NaN,NaN,NaN,NaN,NaN,NaN,NaN,NaN,NaN,NaN,NaN,4,5,3,0,horizontal,vertical,vertical,vertical
2b,20,100377,3,3,67,19,F,NA,constant,heterogeneous,4,absent,1.08716607093811,1,horizontal,horizontal,1,3,red,2,NaN,NaN,NaN,NaN,NaN,NaN,NaN,NaN,NaN,NaN,NaN,NaN,NaN,6,4,0,5,vertical,horizontal,vertical,vertical
2b,20,100377,3,4,68,19,F,NA,constant,heterogeneous,4,present,0.72899603843689,1,vertical,vertical,1,2,red,4,1,NaN,NaN,NaN,NaN,NaN,NaN,NaN,NaN,NaN,NaN,NaN,NaN,6,5,3,4,horizontal,vertical,vertical,vertical
2b,20,100377,3,5,69,19,F,NA,constant,heterogeneous,4,absent,0.787928104400635,0,horizontal,vertical,1,2,red,3,NaN,NaN,NaN,NaN,NaN,NaN,NaN,NaN,NaN,NaN,NaN,NaN,NaN,5,6,4,0,horizontal,vertical,horizontal,horizontal
2b,20,100377,3,6,70,19,F,NA,constant,heterogeneous,4,absent,1.01204395294189,1,horizontal,horizontal,1,2,red,1,NaN,NaN,NaN,NaN,NaN,NaN,NaN,NaN,NaN,NaN,NaN,NaN,NaN,4,5,3,6,horizontal,horizontal,horizontal,horizontal
2b,20,100377,3,7,71,19,F,NA,constant,heterogeneous,4,absent,0.764600992202759,1,horizontal,horizontal,1,5,red,4,NaN,NaN,NaN,NaN,NaN,NaN,NaN,NaN,NaN,NaN,NaN,NaN,NaN,6,5,0,4,vertical,vertical,horizontal,horizontal
2b,20,100377,3,8,72,19,F,NA,constant,heterogeneous,4,present,1.16418313980103,1,horizontal,horizontal,1,3,red,2,1,NaN,NaN,NaN,NaN,NaN,NaN,NaN,NaN,NaN,NaN,NaN,NaN,6,4,5,3,horizontal,horizontal,horizontal,vertical
2b,20,100377,3,9,73,19,F,NA,constant,heterogeneous,4,absent,0.755484104156494,1,vertical,vertical,1,2,red,3,NaN,NaN,NaN,NaN,NaN,NaN,NaN,NaN,NaN,NaN,NaN,NaN,NaN,5,3,4,6,vertical,horizontal,vertical,vertical
2b,20,100377,3,10,74,19,F,NA,constant,heterogeneous,4,absent,0.726938962936401,1,vertical,vertical,1,2,red,4,NaN,NaN,NaN,NaN,NaN,NaN,NaN,NaN,NaN,NaN,NaN,NaN,NaN,0,3,5,4,vertical,horizontal,vertical,vertical
2b,20,100377,3,11,75,19,F,NA,constant,heterogeneous,4,present,0.637794971466064,0,vertical,horizontal,1,8,red,2,3,NaN,NaN,NaN,NaN,NaN,NaN,NaN,NaN,NaN,NaN,NaN,NaN,0,4,3,5,vertical,vertical,vertical,horizontal
2b,20,100377,3,12,76,19,F,NA,constant,heterogeneous,4,present,0.654694080352783,1,vertical,vertical,1,3,red,3,4,NaN,NaN,NaN,NaN,NaN,NaN,NaN,NaN,NaN,NaN,NaN,NaN,3,5,4,6,horizontal,vertical,vertical,horizontal
2b,20,100377,3,13,77,19,F,NA,constant,heterogeneous,4,absent,0.740048885345459,1,vertical,vertical,1,5,red,3,NaN,NaN,NaN,NaN,NaN,NaN,NaN,NaN,NaN,NaN,NaN,NaN,NaN,3,0,4,6,horizontal,horizontal,vertical,horizontal
2b,20,100377,3,14,78,19,F,NA,constant,heterogeneous,4,present,0.803246974945068,1,horizontal,horizontal,1,2,red,1,4,NaN,NaN,NaN,NaN,NaN,NaN,NaN,NaN,NaN,NaN,NaN,NaN,4,3,0,6,horizontal,vertical,horizontal,horizontal
2b,20,100377,3,15,79,19,F,NA,constant,heterogeneous,4,present,1.2874391078949,1,vertical,vertical,1,2,red,4,1,NaN,NaN,NaN,NaN,NaN,NaN,NaN,NaN,NaN,NaN,NaN,NaN,3,0,5,4,horizontal,vertical,vertical,vertical
2b,20,100377,3,16,80,19,F,NA,constant,heterogeneous,4,absent,0.777489900588989,0,horizontal,vertical,1,8,red,3,NaN,NaN,NaN,NaN,NaN,NaN,NaN,NaN,NaN,NaN,NaN,NaN,NaN,6,0,4,5,vertical,horizontal,horizontal,vertical
2b,20,100377,3,17,81,19,F,NA,constant,heterogeneous,4,absent,1.50930404663086,0,horizontal,vertical,1,2,red,3,NaN,NaN,NaN,NaN,NaN,NaN,NaN,NaN,NaN,NaN,NaN,NaN,NaN,5,3,4,6,vertical,vertical,horizontal,horizontal
2b,20,100377,3,18,82,19,F,NA,constant,heterogeneous,4,absent,0.647872924804688,0,vertical,horizontal,1,8,red,1,NaN,NaN,NaN,NaN,NaN,NaN,NaN,NaN,NaN,NaN,NaN,NaN,NaN,4,6,0,5,vertical,vertical,horizontal,horizontal
2b,20,100377,3,19,83,19,F,NA,constant,heterogeneous,4,absent,1.62909007072449,1,vertical,vertical,1,3,red,1,NaN,NaN,NaN,NaN,NaN,NaN,NaN,NaN,NaN,NaN,NaN,NaN,NaN,4,3,0,5,vertical,horizontal,vertical,horizontal
2b,20,100377,3,20,84,19,F,NA,constant,heterogeneous,4,present,1.67381000518799,1,horizontal,horizontal,1,2,red,1,2,NaN,NaN,NaN,NaN,NaN,NaN,NaN,NaN,NaN,NaN,NaN,NaN,4,3,5,6,horizontal,horizontal,vertical,horizontal
2b,20,100377,3,21,85,19,F,NA,constant,heterogeneous,4,present,0.967879056930542,1,vertical,vertical,1,2,red,3,2,NaN,NaN,NaN,NaN,NaN,NaN,NaN,NaN,NaN,NaN,NaN,NaN,3,6,4,0,horizontal,horizontal,vertical,vertical
2b,20,100377,3,22,86,19,F,NA,constant,heterogeneous,4,absent,1.02298402786255,1,horizontal,horizontal,1,3,red,3,NaN,NaN,NaN,NaN,NaN,NaN,NaN,NaN,NaN,NaN,NaN,NaN,NaN,0,5,4,3,vertical,vertical,horizontal,horizontal
2b,20,100377,3,23,87,19,F,NA,constant,heterogeneous,4,present,0.732063055038452,1,vertical,vertical,1,5,red,1,4,NaN,NaN,NaN,NaN,NaN,NaN,NaN,NaN,NaN,NaN,NaN,NaN,4,5,3,0,vertical,vertical,vertical,vertical
2b,20,100377,3,24,88,19,F,NA,constant,heterogeneous,4,absent,1.84677195549011,0,vertical,horizontal,1,2,red,1,NaN,NaN,NaN,NaN,NaN,NaN,NaN,NaN,NaN,NaN,NaN,NaN,NaN,4,3,5,6,vertical,horizontal,vertical,vertical
2b,20,100377,3,25,89,19,F,NA,constant,heterogeneous,4,present,1.34017086029053,1,vertical,vertical,1,5,red,2,1,NaN,NaN,NaN,NaN,NaN,NaN,NaN,NaN,NaN,NaN,NaN,NaN,0,4,5,6,vertical,vertical,vertical,vertical
2b,20,100377,3,26,90,19,F,NA,constant,heterogeneous,4,present,NaN,0,horizontal,none,0,3,red,2,4,NaN,NaN,NaN,NaN,NaN,NaN,NaN,NaN,NaN,NaN,NaN,NaN,5,4,6,3,vertical,horizontal,horizontal,vertical
2b,20,100377,3,27,91,19,F,NA,constant,heterogeneous,4,absent,0.903430938720703,0,horizontal,vertical,1,5,red,3,NaN,NaN,NaN,NaN,NaN,NaN,NaN,NaN,NaN,NaN,NaN,NaN,NaN,5,3,4,0,vertical,vertical,horizontal,vertical
2b,20,100377,3,28,92,19,F,NA,constant,heterogeneous,4,present,1.64586901664734,1,horizontal,horizontal,1,2,red,4,2,NaN,NaN,NaN,NaN,NaN,NaN,NaN,NaN,NaN,NaN,NaN,NaN,3,5,6,4,vertical,vertical,horizontal,horizontal
2b,20,100377,3,29,93,19,F,NA,constant,heterogeneous,4,present,1.04294586181641,1,horizontal,horizontal,1,8,red,1,3,NaN,NaN,NaN,NaN,NaN,NaN,NaN,NaN,NaN,NaN,NaN,NaN,4,0,5,3,horizontal,vertical,vertical,horizontal
2b,20,100377,3,30,94,19,F,NA,constant,heterogeneous,4,present,0.755943059921265,1,horizontal,horizontal,1,5,red,1,2,NaN,NaN,NaN,NaN,NaN,NaN,NaN,NaN,NaN,NaN,NaN,NaN,4,5,3,0,horizontal,vertical,vertical,vertical
2b,20,100377,3,31,95,19,F,NA,constant,heterogeneous,4,absent,0.719523906707764,0,vertical,horizontal,1,3,red,3,NaN,NaN,NaN,NaN,NaN,NaN,NaN,NaN,NaN,NaN,NaN,NaN,NaN,5,3,4,0,horizontal,vertical,vertical,horizontal
2b,20,100377,3,32,96,19,F,NA,constant,heterogeneous,4,absent,1.45408797264099,1,vertical,vertical,1,5,red,1,NaN,NaN,NaN,NaN,NaN,NaN,NaN,NaN,NaN,NaN,NaN,NaN,NaN,4,0,5,6,vertical,vertical,vertical,horizontal
2b,20,100377,4,1,97,19,F,NA,constant,heterogeneous,4,absent,1.18882393836975,0,vertical,horizontal,1,2,red,2,NaN,NaN,NaN,NaN,NaN,NaN,NaN,NaN,NaN,NaN,NaN,NaN,NaN,5,4,3,0,horizontal,vertical,horizontal,horizontal
2b,20,100377,4,2,98,19,F,NA,constant,heterogeneous,4,present,1.22102808952332,1,horizontal,horizontal,1,8,red,2,1,NaN,NaN,NaN,NaN,NaN,NaN,NaN,NaN,NaN,NaN,NaN,NaN,5,4,6,3,horizontal,horizontal,vertical,vertical
2b,20,100377,4,3,99,19,F,NA,constant,heterogeneous,4,present,0.741467952728271,0,vertical,horizontal,1,5,red,1,4,NaN,NaN,NaN,NaN,NaN,NaN,NaN,NaN,NaN,NaN,NaN,NaN,4,5,6,3,vertical,horizontal,vertical,vertical
2b,20,100377,4,4,100,19,F,NA,constant,heterogeneous,4,absent,1.30049586296082,0,vertical,horizontal,1,2,red,1,NaN,NaN,NaN,NaN,NaN,NaN,NaN,NaN,NaN,NaN,NaN,NaN,NaN,4,0,3,6,vertical,horizontal,vertical,vertical
2b,20,100377,4,5,101,19,F,NA,constant,heterogeneous,4,absent,1.06692910194397,1,horizontal,horizontal,1,2,red,2,NaN,NaN,NaN,NaN,NaN,NaN,NaN,NaN,NaN,NaN,NaN,NaN,NaN,5,4,6,3,vertical,horizontal,vertical,vertical
2b,20,100377,4,6,102,19,F,NA,constant,heterogeneous,4,present,1.5482292175293,1,vertical,vertical,1,2,red,2,3,NaN,NaN,NaN,NaN,NaN,NaN,NaN,NaN,NaN,NaN,NaN,NaN,6,4,5,3,horizontal,vertical,vertical,horizontal
2b,20,100377,4,7,103,19,F,NA,constant,heterogeneous,4,absent,1.66746997833252,0,vertical,horizontal,1,3,red,4,NaN,NaN,NaN,NaN,NaN,NaN,NaN,NaN,NaN,NaN,NaN,NaN,NaN,3,5,0,4,horizontal,horizontal,vertical,vertical
2b,20,100377,4,8,104,19,F,NA,constant,heterogeneous,4,absent,NaN,0,vertical,none,0,2,red,3,NaN,NaN,NaN,NaN,NaN,NaN,NaN,NaN,NaN,NaN,NaN,NaN,NaN,0,3,4,5,vertical,vertical,vertical,vertical
2b,20,100377,4,9,105,19,F,NA,constant,heterogeneous,4,present,1.74544191360474,0,vertical,horizontal,1,2,red,2,3,NaN,NaN,NaN,NaN,NaN,NaN,NaN,NaN,NaN,NaN,NaN,NaN,5,4,6,3,vertical,vertical,vertical,horizontal
2b,20,100377,4,10,106,19,F,NA,constant,heterogeneous,4,absent,1.81642007827759,1,vertical,vertical,1,8,red,3,NaN,NaN,NaN,NaN,NaN,NaN,NaN,NaN,NaN,NaN,NaN,NaN,NaN,0,5,4,3,vertical,vertical,vertical,horizontal
2b,20,100377,4,11,107,19,F,NA,constant,heterogeneous,4,present,1.25714802742004,1,horizontal,horizontal,1,2,red,1,2,NaN,NaN,NaN,NaN,NaN,NaN,NaN,NaN,NaN,NaN,NaN,NaN,4,6,5,0,horizontal,horizontal,horizontal,vertical
2b,20,100377,4,12,108,19,F,NA,constant,heterogeneous,4,present,0.910294055938721,1,horizontal,horizontal,1,2,red,4,3,NaN,NaN,NaN,NaN,NaN,NaN,NaN,NaN,NaN,NaN,NaN,NaN,5,0,3,4,vertical,horizontal,horizontal,horizontal
2b,20,100377,4,13,109,19,F,NA,constant,heterogeneous,4,absent,0.776704072952271,1,horizontal,horizontal,1,2,red,4,NaN,NaN,NaN,NaN,NaN,NaN,NaN,NaN,NaN,NaN,NaN,NaN,NaN,5,3,6,4,horizontal,horizontal,horizontal,horizontal
2b,20,100377,4,14,110,19,F,NA,constant,heterogeneous,4,absent,1.02047491073608,1,horizontal,horizontal,1,5,red,2,NaN,NaN,NaN,NaN,NaN,NaN,NaN,NaN,NaN,NaN,NaN,NaN,NaN,0,4,5,3,vertical,horizontal,horizontal,vertical
2b,20,100377,4,15,111,19,F,NA,constant,heterogeneous,4,present,0.949146032333374,1,horizontal,horizontal,1,5,red,4,2,NaN,NaN,NaN,NaN,NaN,NaN,NaN,NaN,NaN,NaN,NaN,NaN,5,3,0,4,vertical,vertical,horizontal,horizontal
2b,20,100377,4,16,112,19,F,NA,constant,heterogeneous,4,absent,1.44432592391968,1,vertical,vertical,1,5,red,3,NaN,NaN,NaN,NaN,NaN,NaN,NaN,NaN,NaN,NaN,NaN,NaN,NaN,3,5,4,0,vertical,vertical,vertical,horizontal
2b,20,100377,4,17,113,19,F,NA,constant,heterogeneous,4,absent,1.46930813789368,1,horizontal,horizontal,1,2,red,4,NaN,NaN,NaN,NaN,NaN,NaN,NaN,NaN,NaN,NaN,NaN,NaN,NaN,3,5,0,4,horizontal,horizontal,horizontal,horizontal
2b,20,100377,4,18,114,19,F,NA,constant,heterogeneous,4,present,1.35500693321228,0,horizontal,vertical,1,3,red,4,1,NaN,NaN,NaN,NaN,NaN,NaN,NaN,NaN,NaN,NaN,NaN,NaN,6,5,3,4,horizontal,vertical,vertical,horizontal
2b,20,100377,4,19,115,19,F,NA,constant,heterogeneous,4,absent,1.09425115585327,0,horizontal,vertical,1,8,red,1,NaN,NaN,NaN,NaN,NaN,NaN,NaN,NaN,NaN,NaN,NaN,NaN,NaN,4,6,3,0,horizontal,vertical,vertical,vertical
2b,20,100377,4,20,116,19,F,NA,constant,heterogeneous,4,present,1.46847605705261,1,vertical,vertical,1,3,red,4,2,NaN,NaN,NaN,NaN,NaN,NaN,NaN,NaN,NaN,NaN,NaN,NaN,3,5,0,4,horizontal,horizontal,horizontal,vertical
2b,20,100377,4,21,117,19,F,NA,constant,heterogeneous,4,absent,0.870022058486938,1,horizontal,horizontal,1,5,red,2,NaN,NaN,NaN,NaN,NaN,NaN,NaN,NaN,NaN,NaN,NaN,NaN,NaN,0,4,5,6,vertical,horizontal,vertical,horizontal
2b,20,100377,4,22,118,19,F,NA,constant,heterogeneous,4,absent,1.13170695304871,1,vertical,vertical,1,5,red,3,NaN,NaN,NaN,NaN,NaN,NaN,NaN,NaN,NaN,NaN,NaN,NaN,NaN,6,3,4,0,horizontal,horizontal,vertical,horizontal
2b,20,100377,4,23,119,19,F,NA,constant,heterogeneous,4,absent,1.40661907196045,1,vertical,vertical,1,3,red,1,NaN,NaN,NaN,NaN,NaN,NaN,NaN,NaN,NaN,NaN,NaN,NaN,NaN,4,6,5,3,vertical,vertical,horizontal,vertical
2b,20,100377,4,24,120,19,F,NA,constant,heterogeneous,4,present,1.33114004135132,1,horizontal,horizontal,1,5,red,1,4,NaN,NaN,NaN,NaN,NaN,NaN,NaN,NaN,NaN,NaN,NaN,NaN,4,6,5,0,horizontal,horizontal,vertical,horizontal
2b,20,100377,4,25,121,19,F,NA,constant,heterogeneous,4,absent,1.42197513580322,1,horizontal,horizontal,1,3,red,3,NaN,NaN,NaN,NaN,NaN,NaN,NaN,NaN,NaN,NaN,NaN,NaN,NaN,0,5,4,6,horizontal,horizontal,horizontal,vertical
2b,20,100377,4,26,122,19,F,NA,constant,heterogeneous,4,present,1.05047392845154,1,vertical,vertical,1,3,red,3,4,NaN,NaN,NaN,NaN,NaN,NaN,NaN,NaN,NaN,NaN,NaN,NaN,3,6,4,0,horizontal,horizontal,vertical,vertical
2b,20,100377,4,27,123,19,F,NA,constant,heterogeneous,4,present,1.05607104301453,0,vertical,horizontal,1,5,red,4,3,NaN,NaN,NaN,NaN,NaN,NaN,NaN,NaN,NaN,NaN,NaN,NaN,5,3,0,4,horizontal,vertical,vertical,vertical
2b,20,100377,4,28,124,19,F,NA,constant,heterogeneous,4,present,0.749253988265991,1,vertical,vertical,1,2,red,4,3,NaN,NaN,NaN,NaN,NaN,NaN,NaN,NaN,NaN,NaN,NaN,NaN,6,0,5,4,vertical,vertical,vertical,vertical
2b,20,100377,4,29,125,19,F,NA,constant,heterogeneous,4,present,1.24425196647644,1,vertical,vertical,1,8,red,1,3,NaN,NaN,NaN,NaN,NaN,NaN,NaN,NaN,NaN,NaN,NaN,NaN,4,6,3,5,vertical,horizontal,vertical,vertical
2b,20,100377,4,30,126,19,F,NA,constant,heterogeneous,4,absent,1.39734101295471,1,horizontal,horizontal,1,3,red,3,NaN,NaN,NaN,NaN,NaN,NaN,NaN,NaN,NaN,NaN,NaN,NaN,NaN,6,3,4,5,vertical,vertical,horizontal,vertical
2b,20,100377,4,31,127,19,F,NA,constant,heterogeneous,4,present,0.661395788192749,1,horizontal,horizontal,1,3,red,3,1,NaN,NaN,NaN,NaN,NaN,NaN,NaN,NaN,NaN,NaN,NaN,NaN,3,0,4,5,horizontal,horizontal,horizontal,vertical
2b,20,100377,4,32,128,19,F,NA,constant,heterogeneous,4,present,1.47904992103577,0,horizontal,vertical,1,2,red,1,4,NaN,NaN,NaN,NaN,NaN,NaN,NaN,NaN,NaN,NaN,NaN,NaN,4,0,6,5,horizontal,horizontal,vertical,vertical
2b,20,100377,5,1,129,19,F,NA,constant,heterogeneous,4,absent,1.03541493415833,1,horizontal,horizontal,1,5,red,1,NaN,NaN,NaN,NaN,NaN,NaN,NaN,NaN,NaN,NaN,NaN,NaN,NaN,4,3,6,5,horizontal,horizontal,horizontal,horizontal
2b,20,100377,5,2,130,19,F,NA,constant,heterogeneous,4,absent,1.1166820526123,1,vertical,vertical,1,3,red,4,NaN,NaN,NaN,NaN,NaN,NaN,NaN,NaN,NaN,NaN,NaN,NaN,NaN,6,5,0,4,vertical,vertical,horizontal,vertical
2b,20,100377,5,3,131,19,F,NA,constant,heterogeneous,4,absent,1.12278985977173,0,horizontal,vertical,1,2,red,4,NaN,NaN,NaN,NaN,NaN,NaN,NaN,NaN,NaN,NaN,NaN,NaN,NaN,5,6,3,4,vertical,vertical,horizontal,horizontal
2b,20,100377,5,4,132,19,F,NA,constant,heterogeneous,4,present,0.913794040679932,1,horizontal,horizontal,1,5,red,4,3,NaN,NaN,NaN,NaN,NaN,NaN,NaN,NaN,NaN,NaN,NaN,NaN,3,0,6,4,vertical,vertical,horizontal,horizontal
2b,20,100377,5,5,133,19,F,NA,constant,heterogeneous,4,absent,0.940283060073853,0,vertical,horizontal,1,2,red,1,NaN,NaN,NaN,NaN,NaN,NaN,NaN,NaN,NaN,NaN,NaN,NaN,NaN,4,3,6,5,vertical,horizontal,horizontal,horizontal
2b,20,100377,5,6,134,19,F,NA,constant,heterogeneous,4,present,1.53973197937012,1,vertical,vertical,1,8,red,1,2,NaN,NaN,NaN,NaN,NaN,NaN,NaN,NaN,NaN,NaN,NaN,NaN,4,6,0,5,vertical,horizontal,horizontal,horizontal
2b,20,100377,5,7,135,19,F,NA,constant,heterogeneous,4,absent,NaN,0,horizontal,none,0,3,red,2,NaN,NaN,NaN,NaN,NaN,NaN,NaN,NaN,NaN,NaN,NaN,NaN,NaN,6,4,0,5,vertical,horizontal,vertical,vertical
2b,20,100377,5,8,136,19,F,NA,constant,heterogeneous,4,present,1.46285510063171,1,vertical,vertical,1,5,red,4,3,NaN,NaN,NaN,NaN,NaN,NaN,NaN,NaN,NaN,NaN,NaN,NaN,6,3,0,4,horizontal,horizontal,horizontal,vertical
2b,20,100377,5,9,137,19,F,NA,constant,heterogeneous,4,absent,1.34452986717224,1,vertical,vertical,1,3,red,1,NaN,NaN,NaN,NaN,NaN,NaN,NaN,NaN,NaN,NaN,NaN,NaN,NaN,4,0,3,5,vertical,horizontal,horizontal,vertical
2b,20,100377,5,10,138,19,F,NA,constant,heterogeneous,4,present,1.31144618988037,0,horizontal,vertical,1,3,red,4,1,NaN,NaN,NaN,NaN,NaN,NaN,NaN,NaN,NaN,NaN,NaN,NaN,0,6,5,4,horizontal,vertical,horizontal,horizontal
2b,20,100377,5,11,139,19,F,NA,constant,heterogeneous,4,absent,1.10612607002258,1,vertical,vertical,1,5,red,1,NaN,NaN,NaN,NaN,NaN,NaN,NaN,NaN,NaN,NaN,NaN,NaN,NaN,4,0,3,5,vertical,vertical,vertical,horizontal
2b,20,100377,5,12,140,19,F,NA,constant,heterogeneous,4,present,1.00440287590027,1,vertical,vertical,1,3,red,1,2,NaN,NaN,NaN,NaN,NaN,NaN,NaN,NaN,NaN,NaN,NaN,NaN,4,6,0,3,vertical,vertical,vertical,vertical
2b,20,100377,5,13,141,19,F,NA,constant,heterogeneous,4,absent,0.840725898742676,1,vertical,vertical,1,2,red,1,NaN,NaN,NaN,NaN,NaN,NaN,NaN,NaN,NaN,NaN,NaN,NaN,NaN,4,6,3,0,vertical,vertical,horizontal,horizontal
2b,20,100377,5,14,142,19,F,NA,constant,heterogeneous,4,present,1.36974215507507,1,vertical,vertical,1,2,red,2,4,NaN,NaN,NaN,NaN,NaN,NaN,NaN,NaN,NaN,NaN,NaN,NaN,0,4,5,3,vertical,vertical,horizontal,horizontal
2b,20,100377,5,15,143,19,F,NA,constant,heterogeneous,4,present,1.02515912055969,1,vertical,vertical,1,3,red,4,3,NaN,NaN,NaN,NaN,NaN,NaN,NaN,NaN,NaN,NaN,NaN,NaN,3,6,5,4,horizontal,vertical,vertical,vertical
2b,20,100377,5,16,144,19,F,NA,constant,heterogeneous,4,absent,0.797950983047485,1,horizontal,horizontal,1,3,red,2,NaN,NaN,NaN,NaN,NaN,NaN,NaN,NaN,NaN,NaN,NaN,NaN,NaN,5,4,6,0,vertical,horizontal,horizontal,vertical
2b,20,100377,5,17,145,19,F,NA,constant,heterogeneous,4,present,0.934170007705688,0,horizontal,vertical,1,3,red,4,2,NaN,NaN,NaN,NaN,NaN,NaN,NaN,NaN,NaN,NaN,NaN,NaN,0,3,5,4,horizontal,vertical,vertical,horizontal
2b,20,100377,5,18,146,19,F,NA,constant,heterogeneous,4,absent,1.11295795440674,1,horizontal,horizontal,1,8,red,1,NaN,NaN,NaN,NaN,NaN,NaN,NaN,NaN,NaN,NaN,NaN,NaN,NaN,4,5,3,6,horizontal,horizontal,horizontal,vertical
2b,20,100377,5,19,147,19,F,NA,constant,heterogeneous,4,absent,0.859650135040283,1,vertical,vertical,1,8,red,1,NaN,NaN,NaN,NaN,NaN,NaN,NaN,NaN,NaN,NaN,NaN,NaN,NaN,4,6,5,3,vertical,vertical,vertical,vertical
2b,20,100377,5,20,148,19,F,NA,constant,heterogeneous,4,absent,0.716914892196655,1,vertical,vertical,1,5,red,3,NaN,NaN,NaN,NaN,NaN,NaN,NaN,NaN,NaN,NaN,NaN,NaN,NaN,5,6,4,3,vertical,vertical,vertical,horizontal
2b,20,100377,5,21,149,19,F,NA,constant,heterogeneous,4,present,0.723866939544678,0,horizontal,vertical,1,8,red,4,1,NaN,NaN,NaN,NaN,NaN,NaN,NaN,NaN,NaN,NaN,NaN,NaN,6,0,5,4,horizontal,horizontal,vertical,horizontal
2b,20,100377,5,22,150,19,F,NA,constant,heterogeneous,4,present,1.450355052948,1,vertical,vertical,1,2,red,2,3,NaN,NaN,NaN,NaN,NaN,NaN,NaN,NaN,NaN,NaN,NaN,NaN,6,4,5,3,vertical,vertical,horizontal,horizontal
2b,20,100377,5,23,151,19,F,NA,constant,heterogeneous,4,absent,0.999665975570679,1,horizontal,horizontal,1,2,red,2,NaN,NaN,NaN,NaN,NaN,NaN,NaN,NaN,NaN,NaN,NaN,NaN,NaN,5,4,0,6,vertical,horizontal,vertical,vertical
2b,20,100377,5,24,152,19,F,NA,constant,heterogeneous,4,present,0.788091897964478,1,horizontal,horizontal,1,2,red,1,2,NaN,NaN,NaN,NaN,NaN,NaN,NaN,NaN,NaN,NaN,NaN,NaN,4,5,6,0,horizontal,vertical,vertical,vertical
2b,20,100377,5,25,153,19,F,NA,constant,heterogeneous,4,present,0.844393968582153,1,vertical,vertical,1,5,red,3,1,NaN,NaN,NaN,NaN,NaN,NaN,NaN,NaN,NaN,NaN,NaN,NaN,6,3,4,5,vertical,vertical,vertical,horizontal
2b,20,100377,5,26,154,19,F,NA,constant,heterogeneous,4,absent,1.22896409034729,1,horizontal,horizontal,1,2,red,1,NaN,NaN,NaN,NaN,NaN,NaN,NaN,NaN,NaN,NaN,NaN,NaN,NaN,4,6,5,0,horizontal,horizontal,horizontal,horizontal
2b,20,100377,5,27,155,19,F,NA,constant,heterogeneous,4,absent,0.753627061843872,0,horizontal,vertical,1,5,red,4,NaN,NaN,NaN,NaN,NaN,NaN,NaN,NaN,NaN,NaN,NaN,NaN,NaN,0,3,5,4,vertical,vertical,vertical,horizontal
2b,20,100377,5,28,156,19,F,NA,constant,heterogeneous,4,present,0.621468067169189,1,horizontal,horizontal,1,5,red,4,3,NaN,NaN,NaN,NaN,NaN,NaN,NaN,NaN,NaN,NaN,NaN,NaN,6,0,3,4,horizontal,horizontal,horizontal,horizontal
2b,20,100377,5,29,157,19,F,NA,constant,heterogeneous,4,present,0.845829963684082,1,horizontal,horizontal,1,2,red,1,2,NaN,NaN,NaN,NaN,NaN,NaN,NaN,NaN,NaN,NaN,NaN,NaN,4,3,0,5,horizontal,vertical,horizontal,horizontal
2b,20,100377,5,30,158,19,F,NA,constant,heterogeneous,4,present,1.10712599754333,1,horizontal,horizontal,1,2,red,3,1,NaN,NaN,NaN,NaN,NaN,NaN,NaN,NaN,NaN,NaN,NaN,NaN,5,6,4,3,vertical,vertical,horizontal,vertical
2b,20,100377,5,31,159,19,F,NA,constant,heterogeneous,4,absent,0.789222002029419,0,vertical,horizontal,1,2,red,2,NaN,NaN,NaN,NaN,NaN,NaN,NaN,NaN,NaN,NaN,NaN,NaN,NaN,3,4,6,5,vertical,vertical,horizontal,vertical
2b,20,100377,5,32,160,19,F,NA,constant,heterogeneous,4,present,0.949393033981323,0,vertical,horizontal,1,2,red,4,1,NaN,NaN,NaN,NaN,NaN,NaN,NaN,NaN,NaN,NaN,NaN,NaN,6,0,5,4,horizontal,vertical,horizontal,vertical
2b,20,100377,6,1,161,19,F,NA,constant,heterogeneous,4,absent,1.72588109970093,1,horizontal,horizontal,1,2,red,2,NaN,NaN,NaN,NaN,NaN,NaN,NaN,NaN,NaN,NaN,NaN,NaN,NaN,0,4,3,6,vertical,horizontal,vertical,vertical
2b,20,100377,6,2,162,19,F,NA,constant,heterogeneous,4,absent,1.02036809921265,1,horizontal,horizontal,1,8,red,1,NaN,NaN,NaN,NaN,NaN,NaN,NaN,NaN,NaN,NaN,NaN,NaN,NaN,4,3,5,6,horizontal,horizontal,horizontal,vertical
2b,20,100377,6,3,163,19,F,NA,constant,heterogeneous,4,absent,0.716641902923584,1,horizontal,horizontal,1,2,red,1,NaN,NaN,NaN,NaN,NaN,NaN,NaN,NaN,NaN,NaN,NaN,NaN,NaN,4,6,0,3,horizontal,vertical,horizontal,vertical
2b,20,100377,6,4,164,19,F,NA,constant,heterogeneous,4,present,1.18745279312134,1,vertical,vertical,1,8,red,1,3,NaN,NaN,NaN,NaN,NaN,NaN,NaN,NaN,NaN,NaN,NaN,NaN,4,3,0,5,vertical,horizontal,vertical,horizontal
2b,20,100377,6,5,165,19,F,NA,constant,heterogeneous,4,absent,1.21183204650879,1,vertical,vertical,1,5,red,4,NaN,NaN,NaN,NaN,NaN,NaN,NaN,NaN,NaN,NaN,NaN,NaN,NaN,6,0,5,4,vertical,horizontal,vertical,vertical
2b,20,100377,6,6,166,19,F,NA,constant,heterogeneous,4,present,0.9482581615448,1,horizontal,horizontal,1,8,red,1,4,NaN,NaN,NaN,NaN,NaN,NaN,NaN,NaN,NaN,NaN,NaN,NaN,4,3,5,6,horizontal,vertical,vertical,horizontal
2b,20,100377,6,7,167,19,F,NA,constant,heterogeneous,4,present,0.883248090744019,1,horizontal,horizontal,1,5,red,2,3,NaN,NaN,NaN,NaN,NaN,NaN,NaN,NaN,NaN,NaN,NaN,NaN,5,4,3,0,horizontal,horizontal,vertical,horizontal
2b,20,100377,6,8,168,19,F,NA,constant,heterogeneous,4,present,0.989477872848511,1,horizontal,horizontal,1,3,red,3,4,NaN,NaN,NaN,NaN,NaN,NaN,NaN,NaN,NaN,NaN,NaN,NaN,3,6,4,0,horizontal,horizontal,horizontal,horizontal
2b,20,100377,6,9,169,19,F,NA,constant,heterogeneous,4,absent,0.813388824462891,1,horizontal,horizontal,1,3,red,2,NaN,NaN,NaN,NaN,NaN,NaN,NaN,NaN,NaN,NaN,NaN,NaN,NaN,0,4,6,3,horizontal,horizontal,horizontal,vertical
2b,20,100377,6,10,170,19,F,NA,constant,heterogeneous,4,absent,0.88597297668457,1,vertical,vertical,1,2,red,3,NaN,NaN,NaN,NaN,NaN,NaN,NaN,NaN,NaN,NaN,NaN,NaN,NaN,5,3,4,0,horizontal,horizontal,vertical,vertical
2b,20,100377,6,11,171,19,F,NA,constant,heterogeneous,4,present,1.19976091384888,1,horizontal,horizontal,1,3,red,1,4,NaN,NaN,NaN,NaN,NaN,NaN,NaN,NaN,NaN,NaN,NaN,NaN,4,0,6,3,horizontal,horizontal,vertical,horizontal
2b,20,100377,6,12,172,19,F,NA,constant,heterogeneous,4,present,1.53226709365845,0,horizontal,vertical,1,5,red,1,4,NaN,NaN,NaN,NaN,NaN,NaN,NaN,NaN,NaN,NaN,NaN,NaN,4,5,3,6,horizontal,horizontal,vertical,horizontal
2b,20,100377,6,13,173,19,F,NA,constant,heterogeneous,4,absent,1.84717702865601,1,vertical,vertical,1,2,red,1,NaN,NaN,NaN,NaN,NaN,NaN,NaN,NaN,NaN,NaN,NaN,NaN,NaN,4,5,3,6,vertical,horizontal,horizontal,vertical
2b,20,100377,6,14,174,19,F,NA,constant,heterogeneous,4,absent,1.25243306159973,1,horizontal,horizontal,1,2,red,2,NaN,NaN,NaN,NaN,NaN,NaN,NaN,NaN,NaN,NaN,NaN,NaN,NaN,3,4,5,6,vertical,horizontal,vertical,vertical
2b,20,100377,6,15,175,19,F,NA,constant,heterogeneous,4,present,0.985492944717407,1,horizontal,horizontal,1,2,red,2,4,NaN,NaN,NaN,NaN,NaN,NaN,NaN,NaN,NaN,NaN,NaN,NaN,6,4,0,5,vertical,horizontal,horizontal,vertical
2b,20,100377,6,16,176,19,F,NA,constant,heterogeneous,4,present,0.973519086837769,1,vertical,vertical,1,2,red,3,4,NaN,NaN,NaN,NaN,NaN,NaN,NaN,NaN,NaN,NaN,NaN,NaN,3,6,4,5,vertical,vertical,vertical,vertical
2b,20,100377,6,17,177,19,F,NA,constant,heterogeneous,4,absent,0.965138912200928,1,vertical,vertical,1,3,red,4,NaN,NaN,NaN,NaN,NaN,NaN,NaN,NaN,NaN,NaN,NaN,NaN,NaN,5,3,0,4,horizontal,horizontal,vertical,vertical
2b,20,100377,6,18,178,19,F,NA,constant,heterogeneous,4,present,1.38857817649841,0,vertical,horizontal,1,5,red,3,4,NaN,NaN,NaN,NaN,NaN,NaN,NaN,NaN,NaN,NaN,NaN,NaN,6,5,4,0,horizontal,vertical,vertical,vertical
2b,20,100377,6,19,179,19,F,NA,constant,heterogeneous,4,absent,1.4287588596344,1,vertical,vertical,1,2,red,4,NaN,NaN,NaN,NaN,NaN,NaN,NaN,NaN,NaN,NaN,NaN,NaN,NaN,0,3,5,4,horizontal,vertical,vertical,vertical
2b,20,100377,6,20,180,19,F,NA,constant,heterogeneous,4,absent,1.37736010551453,1,horizontal,horizontal,1,5,red,4,NaN,NaN,NaN,NaN,NaN,NaN,NaN,NaN,NaN,NaN,NaN,NaN,NaN,3,0,6,4,horizontal,horizontal,vertical,horizontal
2b,20,100377,6,21,181,19,F,NA,constant,heterogeneous,4,present,1.36521983146667,1,horizontal,horizontal,1,2,red,2,4,NaN,NaN,NaN,NaN,NaN,NaN,NaN,NaN,NaN,NaN,NaN,NaN,3,4,5,6,horizontal,horizontal,vertical,horizontal
2b,20,100377,6,22,182,19,F,NA,constant,heterogeneous,4,absent,1.59682893753052,1,vertical,vertical,1,5,red,3,NaN,NaN,NaN,NaN,NaN,NaN,NaN,NaN,NaN,NaN,NaN,NaN,NaN,0,5,4,3,vertical,horizontal,vertical,horizontal
2b,20,100377,6,23,183,19,F,NA,constant,heterogeneous,4,present,0.788970947265625,1,vertical,vertical,1,5,red,3,2,NaN,NaN,NaN,NaN,NaN,NaN,NaN,NaN,NaN,NaN,NaN,NaN,3,0,4,6,vertical,horizontal,vertical,horizontal
2b,20,100377,6,24,184,19,F,NA,constant,heterogeneous,4,present,1.74918413162231,0,vertical,horizontal,1,2,red,2,4,NaN,NaN,NaN,NaN,NaN,NaN,NaN,NaN,NaN,NaN,NaN,NaN,5,4,6,0,horizontal,vertical,horizontal,vertical
2b,20,100377,6,25,185,19,F,NA,constant,heterogeneous,4,absent,1.03632187843323,1,vertical,vertical,1,8,red,3,NaN,NaN,NaN,NaN,NaN,NaN,NaN,NaN,NaN,NaN,NaN,NaN,NaN,3,0,4,6,vertical,horizontal,vertical,horizontal
2b,20,100377,6,26,186,19,F,NA,constant,heterogeneous,4,present,1.24525690078735,1,vertical,vertical,1,3,red,4,2,NaN,NaN,NaN,NaN,NaN,NaN,NaN,NaN,NaN,NaN,NaN,NaN,0,6,5,4,horizontal,horizontal,horizontal,vertical
2b,20,100377,6,27,187,19,F,NA,constant,heterogeneous,4,present,1.2141170501709,1,horizontal,horizontal,1,2,red,4,1,NaN,NaN,NaN,NaN,NaN,NaN,NaN,NaN,NaN,NaN,NaN,NaN,0,5,3,4,vertical,vertical,horizontal,horizontal
2b,20,100377,6,28,188,19,F,NA,constant,heterogeneous,4,present,0.830740928649902,1,vertical,vertical,1,3,red,3,1,NaN,NaN,NaN,NaN,NaN,NaN,NaN,NaN,NaN,NaN,NaN,NaN,5,0,4,3,vertical,horizontal,vertical,horizontal
2b,20,100377,6,29,189,19,F,NA,constant,heterogeneous,4,present,0.79554009437561,1,vertical,vertical,1,2,red,1,4,NaN,NaN,NaN,NaN,NaN,NaN,NaN,NaN,NaN,NaN,NaN,NaN,4,0,3,5,vertical,horizontal,vertical,horizontal
2b,20,100377,6,30,190,19,F,NA,constant,heterogeneous,4,absent,1.41163206100464,1,horizontal,horizontal,1,3,red,2,NaN,NaN,NaN,NaN,NaN,NaN,NaN,NaN,NaN,NaN,NaN,NaN,NaN,6,4,0,3,horizontal,horizontal,vertical,vertical
2b,20,100377,6,31,191,19,F,NA,constant,heterogeneous,4,absent,0.860198974609375,1,vertical,vertical,1,3,red,3,NaN,NaN,NaN,NaN,NaN,NaN,NaN,NaN,NaN,NaN,NaN,NaN,NaN,5,3,4,0,horizontal,vertical,vertical,vertical
2b,20,100377,6,32,192,19,F,NA,constant,heterogeneous,4,absent,0.813776016235352,1,horizontal,horizontal,1,5,red,4,NaN,NaN,NaN,NaN,NaN,NaN,NaN,NaN,NaN,NaN,NaN,NaN,NaN,3,5,0,4,vertical,vertical,vertical,horizontal
2b,20,100377,7,1,193,19,F,NA,constant,heterogeneous,4,absent,1.08813691139221,1,vertical,vertical,1,3,red,4,NaN,NaN,NaN,NaN,NaN,NaN,NaN,NaN,NaN,NaN,NaN,NaN,NaN,0,5,6,4,horizontal,horizontal,vertical,vertical
2b,20,100377,7,2,194,19,F,NA,constant,heterogeneous,4,absent,1.17004489898682,1,horizontal,horizontal,1,5,red,1,NaN,NaN,NaN,NaN,NaN,NaN,NaN,NaN,NaN,NaN,NaN,NaN,NaN,4,5,6,0,horizontal,horizontal,vertical,vertical
2b,20,100377,7,3,195,19,F,NA,constant,heterogeneous,4,present,1.08974504470825,1,horizontal,horizontal,1,3,red,4,2,NaN,NaN,NaN,NaN,NaN,NaN,NaN,NaN,NaN,NaN,NaN,NaN,3,5,0,4,horizontal,horizontal,vertical,horizontal
2b,20,100377,7,4,196,19,F,NA,constant,heterogeneous,4,absent,0.763814210891724,1,vertical,vertical,1,8,red,1,NaN,NaN,NaN,NaN,NaN,NaN,NaN,NaN,NaN,NaN,NaN,NaN,NaN,4,6,5,3,vertical,horizontal,vertical,horizontal
2b,20,100377,7,5,197,19,F,NA,constant,heterogeneous,4,absent,1.48333787918091,1,horizontal,horizontal,1,3,red,4,NaN,NaN,NaN,NaN,NaN,NaN,NaN,NaN,NaN,NaN,NaN,NaN,NaN,3,0,5,4,horizontal,horizontal,vertical,horizontal
2b,20,100377,7,6,198,19,F,NA,constant,heterogeneous,4,present,1.66925811767578,0,horizontal,vertical,1,2,red,2,4,NaN,NaN,NaN,NaN,NaN,NaN,NaN,NaN,NaN,NaN,NaN,NaN,3,4,0,5,vertical,horizontal,vertical,horizontal
2b,20,100377,7,7,199,19,F,NA,constant,heterogeneous,4,present,1.306960105896,1,vertical,vertical,1,3,red,1,3,NaN,NaN,NaN,NaN,NaN,NaN,NaN,NaN,NaN,NaN,NaN,NaN,4,0,5,6,vertical,vertical,vertical,vertical
2b,20,100377,7,8,200,19,F,NA,constant,heterogeneous,4,present,1.31752109527588,1,vertical,vertical,1,2,red,2,4,NaN,NaN,NaN,NaN,NaN,NaN,NaN,NaN,NaN,NaN,NaN,NaN,0,4,3,5,vertical,vertical,horizontal,horizontal
2b,20,100377,7,9,201,19,F,NA,constant,heterogeneous,4,absent,1.43626689910889,1,horizontal,horizontal,1,5,red,3,NaN,NaN,NaN,NaN,NaN,NaN,NaN,NaN,NaN,NaN,NaN,NaN,NaN,3,5,4,6,vertical,horizontal,horizontal,vertical
2b,20,100377,7,10,202,19,F,NA,constant,heterogeneous,4,present,1.35719299316406,1,horizontal,horizontal,1,5,red,3,1,NaN,NaN,NaN,NaN,NaN,NaN,NaN,NaN,NaN,NaN,NaN,NaN,5,6,4,0,horizontal,horizontal,horizontal,horizontal
2b,20,100377,7,11,203,19,F,NA,constant,heterogeneous,4,present,1.67267990112305,1,vertical,vertical,1,2,red,4,1,NaN,NaN,NaN,NaN,NaN,NaN,NaN,NaN,NaN,NaN,NaN,NaN,3,0,6,4,vertical,horizontal,horizontal,vertical
2b,20,100377,7,12,204,19,F,NA,constant,heterogeneous,4,present,1.88626289367676,1,vertical,vertical,1,5,red,1,4,NaN,NaN,NaN,NaN,NaN,NaN,NaN,NaN,NaN,NaN,NaN,NaN,4,3,5,6,vertical,horizontal,horizontal,vertical
2b,20,100377,7,13,205,19,F,NA,constant,heterogeneous,4,present,0.904398918151855,1,vertical,vertical,1,8,red,1,4,NaN,NaN,NaN,NaN,NaN,NaN,NaN,NaN,NaN,NaN,NaN,NaN,4,3,6,0,vertical,vertical,horizontal,horizontal
2b,20,100377,7,14,206,19,F,NA,constant,heterogeneous,4,present,1.05083608627319,1,vertical,vertical,1,3,red,2,4,NaN,NaN,NaN,NaN,NaN,NaN,NaN,NaN,NaN,NaN,NaN,NaN,5,4,3,0,vertical,vertical,vertical,vertical
2b,20,100377,7,15,207,19,F,NA,constant,heterogeneous,4,absent,NaN,0,horizontal,none,0,2,red,4,NaN,NaN,NaN,NaN,NaN,NaN,NaN,NaN,NaN,NaN,NaN,NaN,NaN,5,6,3,4,vertical,horizontal,horizontal,horizontal
2b,20,100377,7,16,208,19,F,NA,constant,heterogeneous,4,present,0.948414087295532,1,horizontal,horizontal,1,5,red,1,3,NaN,NaN,NaN,NaN,NaN,NaN,NaN,NaN,NaN,NaN,NaN,NaN,4,5,3,6,horizontal,horizontal,vertical,horizontal
2b,20,100377,7,17,209,19,F,NA,constant,heterogeneous,4,present,1.21944880485535,1,horizontal,horizontal,1,3,red,3,2,NaN,NaN,NaN,NaN,NaN,NaN,NaN,NaN,NaN,NaN,NaN,NaN,3,5,4,0,vertical,vertical,horizontal,vertical
2b,20,100377,7,18,210,19,F,NA,constant,heterogeneous,4,present,0.69994592666626,1,horizontal,horizontal,1,2,red,4,3,NaN,NaN,NaN,NaN,NaN,NaN,NaN,NaN,NaN,NaN,NaN,NaN,6,0,5,4,horizontal,horizontal,horizontal,horizontal
2b,20,100377,7,19,211,19,F,NA,constant,heterogeneous,4,present,0.682328939437866,1,vertical,vertical,1,2,red,4,1,NaN,NaN,NaN,NaN,NaN,NaN,NaN,NaN,NaN,NaN,NaN,NaN,3,6,5,4,vertical,horizontal,vertical,vertical
2b,20,100377,7,20,212,19,F,NA,constant,heterogeneous,4,absent,0.595988988876343,1,vertical,vertical,1,2,red,4,NaN,NaN,NaN,NaN,NaN,NaN,NaN,NaN,NaN,NaN,NaN,NaN,NaN,3,6,0,4,vertical,horizontal,horizontal,vertical
2b,20,100377,7,21,213,19,F,NA,constant,heterogeneous,4,absent,1.18829607963562,1,horizontal,horizontal,1,3,red,4,NaN,NaN,NaN,NaN,NaN,NaN,NaN,NaN,NaN,NaN,NaN,NaN,NaN,5,0,6,4,horizontal,horizontal,vertical,horizontal
2b,20,100377,7,22,214,19,F,NA,constant,heterogeneous,4,absent,1.19627785682678,1,vertical,vertical,1,3,red,2,NaN,NaN,NaN,NaN,NaN,NaN,NaN,NaN,NaN,NaN,NaN,NaN,NaN,5,4,3,6,vertical,vertical,horizontal,horizontal
2b,20,100377,7,23,215,19,F,NA,constant,heterogeneous,4,absent,1.02060508728027,1,horizontal,horizontal,1,8,red,1,NaN,NaN,NaN,NaN,NaN,NaN,NaN,NaN,NaN,NaN,NaN,NaN,NaN,4,5,3,6,horizontal,vertical,vertical,horizontal
2b,20,100377,7,24,216,19,F,NA,constant,heterogeneous,4,present,1.35717296600342,1,horizontal,horizontal,1,8,red,1,4,NaN,NaN,NaN,NaN,NaN,NaN,NaN,NaN,NaN,NaN,NaN,NaN,4,5,0,6,horizontal,vertical,horizontal,vertical
2b,20,100377,7,25,217,19,F,NA,constant,heterogeneous,4,absent,1.47254586219788,1,vertical,vertical,1,5,red,2,NaN,NaN,NaN,NaN,NaN,NaN,NaN,NaN,NaN,NaN,NaN,NaN,NaN,0,4,6,3,horizontal,vertical,vertical,vertical
2b,20,100377,7,26,218,19,F,NA,constant,heterogeneous,4,absent,1.84627914428711,1,horizontal,horizontal,1,2,red,2,NaN,NaN,NaN,NaN,NaN,NaN,NaN,NaN,NaN,NaN,NaN,NaN,NaN,6,4,5,0,vertical,horizontal,vertical,horizontal
2b,20,100377,7,27,219,19,F,NA,constant,heterogeneous,4,absent,1.77928900718689,1,vertical,vertical,1,2,red,3,NaN,NaN,NaN,NaN,NaN,NaN,NaN,NaN,NaN,NaN,NaN,NaN,NaN,6,5,4,0,vertical,horizontal,vertical,horizontal
2b,20,100377,7,28,220,19,F,NA,constant,heterogeneous,4,absent,0.943233966827393,1,vertical,vertical,1,5,red,1,NaN,NaN,NaN,NaN,NaN,NaN,NaN,NaN,NaN,NaN,NaN,NaN,NaN,4,0,5,3,vertical,vertical,vertical,horizontal
2b,20,100377,7,29,221,19,F,NA,constant,heterogeneous,4,present,1.59047317504883,1,horizontal,horizontal,1,2,red,1,2,NaN,NaN,NaN,NaN,NaN,NaN,NaN,NaN,NaN,NaN,NaN,NaN,4,3,0,5,horizontal,horizontal,horizontal,vertical
2b,20,100377,7,30,222,19,F,NA,constant,heterogeneous,4,absent,0.854540109634399,1,vertical,vertical,1,2,red,1,NaN,NaN,NaN,NaN,NaN,NaN,NaN,NaN,NaN,NaN,NaN,NaN,NaN,4,6,3,5,vertical,horizontal,horizontal,vertical
2b,20,100377,7,31,223,19,F,NA,constant,heterogeneous,4,absent,0.95573616027832,1,horizontal,horizontal,1,2,red,2,NaN,NaN,NaN,NaN,NaN,NaN,NaN,NaN,NaN,NaN,NaN,NaN,NaN,3,4,0,5,vertical,horizontal,horizontal,horizontal
2b,20,100377,7,32,224,19,F,NA,constant,heterogeneous,4,present,1.13508105278015,1,vertical,vertical,1,5,red,2,1,NaN,NaN,NaN,NaN,NaN,NaN,NaN,NaN,NaN,NaN,NaN,NaN,0,4,5,6,vertical,vertical,vertical,horizontal
2b,20,100377,8,1,225,19,F,NA,constant,heterogeneous,4,present,0.884222030639648,0,vertical,horizontal,1,2,red,2,1,NaN,NaN,NaN,NaN,NaN,NaN,NaN,NaN,NaN,NaN,NaN,NaN,0,4,3,5,vertical,vertical,horizontal,horizontal
2b,20,100377,8,2,226,19,F,NA,constant,heterogeneous,4,present,1.18226003646851,1,horizontal,horizontal,1,5,red,2,4,NaN,NaN,NaN,NaN,NaN,NaN,NaN,NaN,NaN,NaN,NaN,NaN,6,4,3,5,horizontal,horizontal,horizontal,vertical
2b,20,100377,8,3,227,19,F,NA,constant,heterogeneous,4,absent,1.35423994064331,1,vertical,vertical,1,2,red,4,NaN,NaN,NaN,NaN,NaN,NaN,NaN,NaN,NaN,NaN,NaN,NaN,NaN,6,5,3,4,vertical,horizontal,vertical,vertical
2b,20,100377,8,4,228,19,F,NA,constant,heterogeneous,4,absent,0.717477083206177,1,vertical,vertical,1,5,red,4,NaN,NaN,NaN,NaN,NaN,NaN,NaN,NaN,NaN,NaN,NaN,NaN,NaN,5,3,0,4,vertical,vertical,vertical,vertical
2b,20,100377,8,5,229,19,F,NA,constant,heterogeneous,4,present,0.668349981307983,1,horizontal,horizontal,1,3,red,4,1,NaN,NaN,NaN,NaN,NaN,NaN,NaN,NaN,NaN,NaN,NaN,NaN,3,6,5,4,vertical,vertical,horizontal,horizontal
2b,20,100377,8,6,230,19,F,NA,constant,heterogeneous,4,present,1.66169500350952,1,vertical,vertical,1,2,red,1,4,NaN,NaN,NaN,NaN,NaN,NaN,NaN,NaN,NaN,NaN,NaN,NaN,4,0,6,3,vertical,horizontal,vertical,vertical
2b,20,100377,8,7,231,19,F,NA,constant,heterogeneous,4,present,1.1911289691925,1,horizontal,horizontal,1,2,red,1,2,NaN,NaN,NaN,NaN,NaN,NaN,NaN,NaN,NaN,NaN,NaN,NaN,4,5,6,3,horizontal,vertical,vertical,horizontal
2b,20,100377,8,8,232,19,F,NA,constant,heterogeneous,4,present,1.11119699478149,1,horizontal,horizontal,1,2,red,4,2,NaN,NaN,NaN,NaN,NaN,NaN,NaN,NaN,NaN,NaN,NaN,NaN,0,6,5,4,vertical,vertical,horizontal,horizontal
2b,20,100377,8,9,233,19,F,NA,constant,heterogeneous,4,absent,0.785624980926514,0,horizontal,vertical,1,5,red,1,NaN,NaN,NaN,NaN,NaN,NaN,NaN,NaN,NaN,NaN,NaN,NaN,NaN,4,3,0,5,horizontal,horizontal,vertical,vertical
2b,20,100377,8,10,234,19,F,NA,constant,heterogeneous,4,absent,1.17370295524597,1,horizontal,horizontal,1,3,red,1,NaN,NaN,NaN,NaN,NaN,NaN,NaN,NaN,NaN,NaN,NaN,NaN,NaN,4,5,6,3,horizontal,horizontal,horizontal,horizontal
2b,20,100377,8,11,235,19,F,NA,constant,heterogeneous,4,absent,1.42101716995239,1,vertical,vertical,1,8,red,2,NaN,NaN,NaN,NaN,NaN,NaN,NaN,NaN,NaN,NaN,NaN,NaN,NaN,5,4,3,0,vertical,vertical,vertical,vertical
2b,20,100377,8,12,236,19,F,NA,constant,heterogeneous,4,absent,1.22177600860596,1,horizontal,horizontal,1,3,red,1,NaN,NaN,NaN,NaN,NaN,NaN,NaN,NaN,NaN,NaN,NaN,NaN,NaN,4,6,3,5,horizontal,horizontal,horizontal,horizontal
2b,20,100377,8,13,237,19,F,NA,constant,heterogeneous,4,present,0.830059766769409,1,vertical,vertical,1,2,red,3,4,NaN,NaN,NaN,NaN,NaN,NaN,NaN,NaN,NaN,NaN,NaN,NaN,3,5,4,6,horizontal,vertical,vertical,vertical
2b,20,100377,8,14,238,19,F,NA,constant,heterogeneous,4,present,0.763076066970825,1,horizontal,horizontal,1,2,red,4,3,NaN,NaN,NaN,NaN,NaN,NaN,NaN,NaN,NaN,NaN,NaN,NaN,5,0,3,4,vertical,vertical,vertical,horizontal
2b,20,100377,8,15,239,19,F,NA,constant,heterogeneous,4,present,1.430251121521,1,vertical,vertical,1,3,red,3,1,NaN,NaN,NaN,NaN,NaN,NaN,NaN,NaN,NaN,NaN,NaN,NaN,0,6,4,5,horizontal,horizontal,vertical,horizontal
2b,20,100377,8,16,240,19,F,NA,constant,heterogeneous,4,absent,0.947100162506104,1,horizontal,horizontal,1,5,red,1,NaN,NaN,NaN,NaN,NaN,NaN,NaN,NaN,NaN,NaN,NaN,NaN,NaN,4,5,0,3,horizontal,horizontal,vertical,vertical
2b,20,100377,8,17,241,19,F,NA,constant,heterogeneous,4,absent,1.11447381973267,1,horizontal,horizontal,1,8,red,2,NaN,NaN,NaN,NaN,NaN,NaN,NaN,NaN,NaN,NaN,NaN,NaN,NaN,3,4,6,0,vertical,horizontal,horizontal,horizontal
2b,20,100377,8,18,242,19,F,NA,constant,heterogeneous,4,present,0.780773878097534,1,horizontal,horizontal,1,8,red,4,3,NaN,NaN,NaN,NaN,NaN,NaN,NaN,NaN,NaN,NaN,NaN,NaN,0,3,6,4,vertical,vertical,horizontal,horizontal
2b,20,100377,8,19,243,19,F,NA,constant,heterogeneous,4,absent,1.0967218875885,1,horizontal,horizontal,1,2,red,1,NaN,NaN,NaN,NaN,NaN,NaN,NaN,NaN,NaN,NaN,NaN,NaN,NaN,4,5,0,6,horizontal,vertical,vertical,horizontal
2b,20,100377,8,20,244,19,F,NA,constant,heterogeneous,4,present,1.19897723197937,1,vertical,vertical,1,5,red,3,2,NaN,NaN,NaN,NaN,NaN,NaN,NaN,NaN,NaN,NaN,NaN,NaN,3,6,4,0,horizontal,vertical,vertical,vertical
2b,20,100377,8,21,245,19,F,NA,constant,heterogeneous,4,absent,0.706916093826294,1,vertical,vertical,1,2,red,3,NaN,NaN,NaN,NaN,NaN,NaN,NaN,NaN,NaN,NaN,NaN,NaN,NaN,0,5,4,3,vertical,horizontal,vertical,vertical
2b,20,100377,8,22,246,19,F,NA,constant,heterogeneous,4,present,1.08569598197937,1,horizontal,horizontal,1,5,red,4,3,NaN,NaN,NaN,NaN,NaN,NaN,NaN,NaN,NaN,NaN,NaN,NaN,6,5,0,4,horizontal,vertical,horizontal,horizontal
2b,20,100377,8,23,247,19,F,NA,constant,heterogeneous,4,absent,1.23157787322998,1,vertical,vertical,1,5,red,2,NaN,NaN,NaN,NaN,NaN,NaN,NaN,NaN,NaN,NaN,NaN,NaN,NaN,5,4,0,6,horizontal,vertical,vertical,horizontal
2b,20,100377,8,24,248,19,F,NA,constant,heterogeneous,4,absent,1.26847696304321,1,vertical,vertical,1,3,red,1,NaN,NaN,NaN,NaN,NaN,NaN,NaN,NaN,NaN,NaN,NaN,NaN,NaN,4,3,0,6,vertical,vertical,vertical,horizontal
2b,20,100377,8,25,249,19,F,NA,constant,heterogeneous,4,absent,0.749783992767334,1,vertical,vertical,1,2,red,2,NaN,NaN,NaN,NaN,NaN,NaN,NaN,NaN,NaN,NaN,NaN,NaN,NaN,3,4,6,0,horizontal,vertical,vertical,vertical
2b,20,100377,8,26,250,19,F,NA,constant,heterogeneous,4,present,1.23698306083679,1,vertical,vertical,1,3,red,2,3,NaN,NaN,NaN,NaN,NaN,NaN,NaN,NaN,NaN,NaN,NaN,NaN,5,4,6,0,horizontal,vertical,vertical,horizontal
2b,20,100377,8,27,251,19,F,NA,constant,heterogeneous,4,absent,1.30194902420044,0,horizontal,vertical,1,2,red,1,NaN,NaN,NaN,NaN,NaN,NaN,NaN,NaN,NaN,NaN,NaN,NaN,NaN,4,6,3,0,horizontal,horizontal,horizontal,vertical
2b,20,100377,8,28,252,19,F,NA,constant,heterogeneous,4,absent,1.28438997268677,1,vertical,vertical,1,3,red,2,NaN,NaN,NaN,NaN,NaN,NaN,NaN,NaN,NaN,NaN,NaN,NaN,NaN,3,4,0,6,vertical,vertical,vertical,vertical
2b,20,100377,8,29,253,19,F,NA,constant,heterogeneous,4,present,1.06208300590515,1,vertical,vertical,1,8,red,3,4,NaN,NaN,NaN,NaN,NaN,NaN,NaN,NaN,NaN,NaN,NaN,NaN,3,0,4,5,vertical,horizontal,vertical,horizontal
2b,20,100377,8,30,254,19,F,NA,constant,heterogeneous,4,present,1.47154688835144,1,horizontal,horizontal,1,3,red,1,4,NaN,NaN,NaN,NaN,NaN,NaN,NaN,NaN,NaN,NaN,NaN,NaN,4,3,6,0,horizontal,horizontal,vertical,vertical
2b,20,100377,8,31,255,19,F,NA,constant,heterogeneous,4,present,0.749315023422241,1,vertical,vertical,1,5,red,3,4,NaN,NaN,NaN,NaN,NaN,NaN,NaN,NaN,NaN,NaN,NaN,NaN,0,5,4,6,vertical,vertical,vertical,vertical
2b,20,100377,8,32,256,19,F,NA,constant,heterogeneous,4,absent,1.85241794586182,1,horizontal,horizontal,1,2,red,2,NaN,NaN,NaN,NaN,NaN,NaN,NaN,NaN,NaN,NaN,NaN,NaN,NaN,5,4,0,3,horizontal,horizontal,horizontal,vertical
2b,20,100377,9,1,257,19,F,NA,constant,heterogeneous,4,present,0.893730878829956,1,horizontal,horizontal,1,3,red,1,4,NaN,NaN,NaN,NaN,NaN,NaN,NaN,NaN,NaN,NaN,NaN,NaN,4,3,5,6,horizontal,vertical,vertical,vertical
2b,20,100377,9,2,258,19,F,NA,constant,heterogeneous,4,absent,1.13985300064087,1,horizontal,horizontal,1,2,red,1,NaN,NaN,NaN,NaN,NaN,NaN,NaN,NaN,NaN,NaN,NaN,NaN,NaN,4,5,0,3,horizontal,horizontal,vertical,horizontal
2b,20,100377,9,3,259,19,F,NA,constant,heterogeneous,4,present,0.72299599647522,1,horizontal,horizontal,1,2,red,3,1,NaN,NaN,NaN,NaN,NaN,NaN,NaN,NaN,NaN,NaN,NaN,NaN,0,6,4,5,vertical,horizontal,horizontal,horizontal
2b,20,100377,9,4,260,19,F,NA,constant,heterogeneous,4,absent,0.945496082305908,1,vertical,vertical,1,5,red,4,NaN,NaN,NaN,NaN,NaN,NaN,NaN,NaN,NaN,NaN,NaN,NaN,NaN,3,5,6,4,vertical,horizontal,horizontal,vertical
2b,20,100377,9,5,261,19,F,NA,constant,heterogeneous,4,present,0.640551090240479,1,vertical,vertical,1,3,red,4,3,NaN,NaN,NaN,NaN,NaN,NaN,NaN,NaN,NaN,NaN,NaN,NaN,5,6,3,4,horizontal,vertical,vertical,vertical
2b,20,100377,9,6,262,19,F,NA,constant,heterogeneous,4,present,1.00990509986877,1,vertical,vertical,1,5,red,1,3,NaN,NaN,NaN,NaN,NaN,NaN,NaN,NaN,NaN,NaN,NaN,NaN,4,0,5,6,vertical,horizontal,horizontal,horizontal
2b,20,100377,9,7,263,19,F,NA,constant,heterogeneous,4,present,1.14208483695984,1,vertical,vertical,1,5,red,2,1,NaN,NaN,NaN,NaN,NaN,NaN,NaN,NaN,NaN,NaN,NaN,NaN,0,4,3,5,vertical,vertical,vertical,horizontal
2b,20,100377,9,8,264,19,F,NA,constant,heterogeneous,4,present,1.12554001808167,1,vertical,vertical,1,2,red,1,4,NaN,NaN,NaN,NaN,NaN,NaN,NaN,NaN,NaN,NaN,NaN,NaN,4,0,3,6,vertical,vertical,vertical,horizontal
2b,20,100377,9,9,265,19,F,NA,constant,heterogeneous,4,present,0.763779878616333,1,vertical,vertical,1,2,red,3,4,NaN,NaN,NaN,NaN,NaN,NaN,NaN,NaN,NaN,NaN,NaN,NaN,3,0,4,6,vertical,vertical,vertical,horizontal
2b,20,100377,9,10,266,19,F,NA,constant,heterogeneous,4,absent,1.61926484107971,1,vertical,vertical,1,2,red,1,NaN,NaN,NaN,NaN,NaN,NaN,NaN,NaN,NaN,NaN,NaN,NaN,NaN,4,5,6,3,vertical,vertical,vertical,horizontal
2b,20,100377,9,11,267,19,F,NA,constant,heterogeneous,4,absent,0.755916118621826,1,horizontal,horizontal,1,3,red,2,NaN,NaN,NaN,NaN,NaN,NaN,NaN,NaN,NaN,NaN,NaN,NaN,NaN,6,4,0,3,horizontal,horizontal,vertical,vertical
2b,20,100377,9,12,268,19,F,NA,constant,heterogeneous,4,absent,1.1113429069519,1,vertical,vertical,1,2,red,1,NaN,NaN,NaN,NaN,NaN,NaN,NaN,NaN,NaN,NaN,NaN,NaN,NaN,4,3,5,0,vertical,horizontal,horizontal,vertical
2b,20,100377,9,13,269,19,F,NA,constant,heterogeneous,4,present,0.729809999465942,0,vertical,horizontal,1,8,red,1,2,NaN,NaN,NaN,NaN,NaN,NaN,NaN,NaN,NaN,NaN,NaN,NaN,4,5,6,3,vertical,vertical,horizontal,horizontal
2b,20,100377,9,14,270,19,F,NA,constant,heterogeneous,4,present,1.29261207580566,1,horizontal,horizontal,1,5,red,4,2,NaN,NaN,NaN,NaN,NaN,NaN,NaN,NaN,NaN,NaN,NaN,NaN,3,6,5,4,horizontal,vertical,horizontal,horizontal
2b,20,100377,9,15,271,19,F,NA,constant,heterogeneous,4,present,1.0111072063446,1,horizontal,horizontal,1,8,red,2,4,NaN,NaN,NaN,NaN,NaN,NaN,NaN,NaN,NaN,NaN,NaN,NaN,3,4,6,0,horizontal,horizontal,horizontal,vertical
2b,20,100377,9,16,272,19,F,NA,constant,heterogeneous,4,absent,0.899907112121582,1,vertical,vertical,1,8,red,4,NaN,NaN,NaN,NaN,NaN,NaN,NaN,NaN,NaN,NaN,NaN,NaN,NaN,3,0,5,4,horizontal,horizontal,vertical,vertical
2b,20,100377,9,17,273,19,F,NA,constant,heterogeneous,4,present,1.10565805435181,1,horizontal,horizontal,1,5,red,2,3,NaN,NaN,NaN,NaN,NaN,NaN,NaN,NaN,NaN,NaN,NaN,NaN,0,4,3,6,vertical,horizontal,vertical,vertical
2b,20,100377,9,18,274,19,F,NA,constant,heterogeneous,4,absent,1.46821689605713,1,vertical,vertical,1,3,red,2,NaN,NaN,NaN,NaN,NaN,NaN,NaN,NaN,NaN,NaN,NaN,NaN,NaN,0,4,3,6,horizontal,vertical,vertical,horizontal
2b,20,100377,9,19,275,19,F,NA,constant,heterogeneous,4,absent,1.31004405021667,1,horizontal,horizontal,1,2,red,2,NaN,NaN,NaN,NaN,NaN,NaN,NaN,NaN,NaN,NaN,NaN,NaN,NaN,5,4,3,6,vertical,horizontal,vertical,horizontal
2b,20,100377,9,20,276,19,F,NA,constant,heterogeneous,4,absent,0.856264114379883,1,vertical,vertical,1,2,red,2,NaN,NaN,NaN,NaN,NaN,NaN,NaN,NaN,NaN,NaN,NaN,NaN,NaN,3,4,6,0,vertical,vertical,horizontal,vertical
2b,20,100377,9,21,277,19,F,NA,constant,heterogeneous,4,absent,0.101654052734375,0,vertical,horizontal,1,5,red,3,NaN,NaN,NaN,NaN,NaN,NaN,NaN,NaN,NaN,NaN,NaN,NaN,NaN,6,5,4,0,horizontal,horizontal,vertical,horizontal
2b,20,100377,9,22,278,19,F,NA,constant,heterogeneous,4,absent,0.755485057830811,1,horizontal,horizontal,1,5,red,4,NaN,NaN,NaN,NaN,NaN,NaN,NaN,NaN,NaN,NaN,NaN,NaN,NaN,3,0,5,4,horizontal,vertical,horizontal,horizontal
2b,20,100377,9,23,279,19,F,NA,constant,heterogeneous,4,present,0.775063991546631,1,horizontal,horizontal,1,2,red,3,4,NaN,NaN,NaN,NaN,NaN,NaN,NaN,NaN,NaN,NaN,NaN,NaN,3,6,4,5,vertical,horizontal,horizontal,vertical
2b,20,100377,9,24,280,19,F,NA,constant,heterogeneous,4,absent,0.902647972106934,1,horizontal,horizontal,1,5,red,3,NaN,NaN,NaN,NaN,NaN,NaN,NaN,NaN,NaN,NaN,NaN,NaN,NaN,5,3,4,0,vertical,horizontal,horizontal,vertical
2b,20,100377,9,25,281,19,F,NA,constant,heterogeneous,4,present,1.34911203384399,1,horizontal,horizontal,1,3,red,1,4,NaN,NaN,NaN,NaN,NaN,NaN,NaN,NaN,NaN,NaN,NaN,NaN,4,3,0,6,horizontal,vertical,vertical,horizontal
2b,20,100377,9,26,282,19,F,NA,constant,heterogeneous,4,present,0.65190315246582,1,horizontal,horizontal,1,2,red,3,4,NaN,NaN,NaN,NaN,NaN,NaN,NaN,NaN,NaN,NaN,NaN,NaN,3,5,4,6,horizontal,vertical,horizontal,horizontal
2b,20,100377,9,27,283,19,F,NA,constant,heterogeneous,4,absent,1.20108199119568,1,vertical,vertical,1,3,red,2,NaN,NaN,NaN,NaN,NaN,NaN,NaN,NaN,NaN,NaN,NaN,NaN,NaN,0,4,6,5,horizontal,vertical,vertical,horizontal
2b,20,100377,9,28,284,19,F,NA,constant,heterogeneous,4,present,0.933358192443848,1,vertical,vertical,1,2,red,2,3,NaN,NaN,NaN,NaN,NaN,NaN,NaN,NaN,NaN,NaN,NaN,NaN,3,4,0,5,vertical,vertical,vertical,horizontal
2b,20,100377,9,29,285,19,F,NA,constant,heterogeneous,4,absent,1.05639791488647,1,horizontal,horizontal,1,3,red,1,NaN,NaN,NaN,NaN,NaN,NaN,NaN,NaN,NaN,NaN,NaN,NaN,NaN,4,5,6,3,horizontal,horizontal,vertical,vertical
2b,20,100377,9,30,286,19,F,NA,constant,heterogeneous,4,present,0.725518941879272,1,vertical,vertical,1,3,red,3,4,NaN,NaN,NaN,NaN,NaN,NaN,NaN,NaN,NaN,NaN,NaN,NaN,3,0,4,5,vertical,horizontal,vertical,vertical
2b,20,100377,9,31,287,19,F,NA,constant,heterogeneous,4,absent,0.82809591293335,1,horizontal,horizontal,1,8,red,1,NaN,NaN,NaN,NaN,NaN,NaN,NaN,NaN,NaN,NaN,NaN,NaN,NaN,4,0,3,5,horizontal,horizontal,horizontal,horizontal
2b,20,100377,9,32,288,19,F,NA,constant,heterogeneous,4,absent,1.0491030216217,1,horizontal,horizontal,1,2,red,2,NaN,NaN,NaN,NaN,NaN,NaN,NaN,NaN,NaN,NaN,NaN,NaN,NaN,6,4,5,0,vertical,horizontal,vertical,horizontal
2b,20,100377,10,1,289,19,F,NA,constant,heterogeneous,4,absent,0.958199024200439,1,horizontal,horizontal,1,3,red,4,NaN,NaN,NaN,NaN,NaN,NaN,NaN,NaN,NaN,NaN,NaN,NaN,NaN,6,5,0,4,vertical,horizontal,vertical,horizontal
2b,20,100377,10,2,290,19,F,NA,constant,heterogeneous,4,present,0.7777419090271,1,vertical,vertical,1,2,red,1,3,NaN,NaN,NaN,NaN,NaN,NaN,NaN,NaN,NaN,NaN,NaN,NaN,4,6,5,0,vertical,horizontal,vertical,vertical
2b,20,100377,10,3,291,19,F,NA,constant,heterogeneous,4,absent,1.36556601524353,1,horizontal,horizontal,1,2,red,3,NaN,NaN,NaN,NaN,NaN,NaN,NaN,NaN,NaN,NaN,NaN,NaN,NaN,5,6,4,3,vertical,vertical,horizontal,horizontal
2b,20,100377,10,4,292,19,F,NA,constant,heterogeneous,4,absent,0.917051076889038,1,vertical,vertical,1,2,red,2,NaN,NaN,NaN,NaN,NaN,NaN,NaN,NaN,NaN,NaN,NaN,NaN,NaN,3,4,6,5,vertical,vertical,horizontal,horizontal
2b,20,100377,10,5,293,19,F,NA,constant,heterogeneous,4,present,0.996013879776001,1,horizontal,horizontal,1,2,red,1,4,NaN,NaN,NaN,NaN,NaN,NaN,NaN,NaN,NaN,NaN,NaN,NaN,4,3,0,5,horizontal,vertical,horizontal,horizontal
2b,20,100377,10,6,294,19,F,NA,constant,heterogeneous,4,absent,0.675868988037109,1,vertical,vertical,1,3,red,1,NaN,NaN,NaN,NaN,NaN,NaN,NaN,NaN,NaN,NaN,NaN,NaN,NaN,4,0,5,6,vertical,vertical,vertical,horizontal
2b,20,100377,10,7,295,19,F,NA,constant,heterogeneous,4,present,0.769548892974854,1,vertical,vertical,1,3,red,3,2,NaN,NaN,NaN,NaN,NaN,NaN,NaN,NaN,NaN,NaN,NaN,NaN,6,0,4,5,horizontal,horizontal,vertical,vertical
2b,20,100377,10,8,296,19,F,NA,constant,heterogeneous,4,present,0.688987970352173,1,horizontal,horizontal,1,5,red,3,4,NaN,NaN,NaN,NaN,NaN,NaN,NaN,NaN,NaN,NaN,NaN,NaN,3,6,4,0,horizontal,vertical,horizontal,horizontal
2b,20,100377,10,9,297,19,F,NA,constant,heterogeneous,4,absent,1.24303698539734,1,vertical,vertical,1,2,red,2,NaN,NaN,NaN,NaN,NaN,NaN,NaN,NaN,NaN,NaN,NaN,NaN,NaN,0,4,3,6,horizontal,vertical,vertical,vertical
2b,20,100377,10,10,298,19,F,NA,constant,heterogeneous,4,present,1.38809394836426,1,horizontal,horizontal,1,2,red,2,3,NaN,NaN,NaN,NaN,NaN,NaN,NaN,NaN,NaN,NaN,NaN,NaN,0,4,5,6,vertical,horizontal,horizontal,vertical
2b,20,100377,10,11,299,19,F,NA,constant,heterogeneous,4,present,0.668020963668823,1,horizontal,horizontal,1,5,red,2,4,NaN,NaN,NaN,NaN,NaN,NaN,NaN,NaN,NaN,NaN,NaN,NaN,6,4,5,3,horizontal,horizontal,horizontal,vertical
2b,20,100377,10,12,300,19,F,NA,constant,heterogeneous,4,present,1.19741702079773,1,vertical,vertical,1,2,red,1,4,NaN,NaN,NaN,NaN,NaN,NaN,NaN,NaN,NaN,NaN,NaN,NaN,4,6,3,0,vertical,horizontal,vertical,horizontal
2b,20,100377,10,13,301,19,F,NA,constant,heterogeneous,4,absent,0.605772018432617,1,vertical,vertical,1,8,red,3,NaN,NaN,NaN,NaN,NaN,NaN,NaN,NaN,NaN,NaN,NaN,NaN,NaN,6,3,4,5,vertical,vertical,vertical,vertical
2b,20,100377,10,14,302,19,F,NA,constant,heterogeneous,4,present,1.25836801528931,1,vertical,vertical,1,2,red,4,1,NaN,NaN,NaN,NaN,NaN,NaN,NaN,NaN,NaN,NaN,NaN,NaN,3,6,0,4,horizontal,horizontal,horizontal,vertical
2b,20,100377,10,15,303,19,F,NA,constant,heterogeneous,4,absent,1.03566789627075,1,vertical,vertical,1,5,red,2,NaN,NaN,NaN,NaN,NaN,NaN,NaN,NaN,NaN,NaN,NaN,NaN,NaN,3,4,5,6,horizontal,vertical,horizontal,horizontal
2b,20,100377,10,16,304,19,F,NA,constant,heterogeneous,4,present,1.33289790153503,1,horizontal,horizontal,1,2,red,3,2,NaN,NaN,NaN,NaN,NaN,NaN,NaN,NaN,NaN,NaN,NaN,NaN,3,0,4,5,horizontal,horizontal,horizontal,vertical
2b,20,100377,10,17,305,19,F,NA,constant,heterogeneous,4,absent,0.823517084121704,1,horizontal,horizontal,1,8,red,1,NaN,NaN,NaN,NaN,NaN,NaN,NaN,NaN,NaN,NaN,NaN,NaN,NaN,4,0,5,6,horizontal,horizontal,vertical,horizontal
2b,20,100377,10,18,306,19,F,NA,constant,heterogeneous,4,present,1.05219411849976,1,horizontal,horizontal,1,3,red,2,3,NaN,NaN,NaN,NaN,NaN,NaN,NaN,NaN,NaN,NaN,NaN,NaN,6,4,5,0,horizontal,horizontal,vertical,horizontal
2b,20,100377,10,19,307,19,F,NA,constant,heterogeneous,4,absent,1.56167793273926,1,horizontal,horizontal,1,2,red,2,NaN,NaN,NaN,NaN,NaN,NaN,NaN,NaN,NaN,NaN,NaN,NaN,NaN,3,4,5,0,vertical,horizontal,vertical,horizontal
2b,20,100377,10,20,308,19,F,NA,constant,heterogeneous,4,present,0.709199190139771,1,vertical,vertical,1,5,red,1,3,NaN,NaN,NaN,NaN,NaN,NaN,NaN,NaN,NaN,NaN,NaN,NaN,4,5,6,0,vertical,vertical,vertical,vertical
2b,20,100377,10,21,309,19,F,NA,constant,heterogeneous,4,absent,0.943346977233887,1,horizontal,horizontal,1,5,red,3,NaN,NaN,NaN,NaN,NaN,NaN,NaN,NaN,NaN,NaN,NaN,NaN,NaN,5,3,4,6,horizontal,vertical,horizontal,horizontal
2b,20,100377,10,22,310,19,F,NA,constant,heterogeneous,4,absent,0.734535932540894,1,horizontal,horizontal,1,3,red,4,NaN,NaN,NaN,NaN,NaN,NaN,NaN,NaN,NaN,NaN,NaN,NaN,NaN,5,6,3,4,horizontal,vertical,horizontal,horizontal
2b,20,100377,10,23,311,19,F,NA,constant,heterogeneous,4,absent,1.20949506759644,0,horizontal,vertical,1,2,red,1,NaN,NaN,NaN,NaN,NaN,NaN,NaN,NaN,NaN,NaN,NaN,NaN,NaN,4,6,3,0,horizontal,vertical,vertical,vertical
2b,20,100377,10,24,312,19,F,NA,constant,heterogeneous,4,present,1.13375997543335,1,horizontal,horizontal,1,8,red,1,3,NaN,NaN,NaN,NaN,NaN,NaN,NaN,NaN,NaN,NaN,NaN,NaN,4,6,0,3,horizontal,vertical,horizontal,horizontal
2b,20,100377,10,25,313,19,F,NA,constant,heterogeneous,4,present,0.824682950973511,1,vertical,vertical,1,8,red,1,4,NaN,NaN,NaN,NaN,NaN,NaN,NaN,NaN,NaN,NaN,NaN,NaN,4,0,3,5,vertical,horizontal,horizontal,vertical
2b,20,100377,10,26,314,19,F,NA,constant,heterogeneous,4,present,1.18180990219116,0,horizontal,vertical,1,3,red,2,1,NaN,NaN,NaN,NaN,NaN,NaN,NaN,NaN,NaN,NaN,NaN,NaN,3,4,0,6,vertical,horizontal,horizontal,horizontal
2b,20,100377,10,27,315,19,F,NA,constant,heterogeneous,4,present,0.753300905227661,1,vertical,vertical,1,3,red,2,3,NaN,NaN,NaN,NaN,NaN,NaN,NaN,NaN,NaN,NaN,NaN,NaN,5,4,0,6,vertical,vertical,horizontal,horizontal
2b,20,100377,10,28,316,19,F,NA,constant,heterogeneous,4,present,0.765009880065918,1,vertical,vertical,1,5,red,3,2,NaN,NaN,NaN,NaN,NaN,NaN,NaN,NaN,NaN,NaN,NaN,NaN,5,6,4,0,vertical,horizontal,vertical,horizontal
2b,20,100377,10,29,317,19,F,NA,constant,heterogeneous,4,absent,0.796237945556641,1,vertical,vertical,1,3,red,3,NaN,NaN,NaN,NaN,NaN,NaN,NaN,NaN,NaN,NaN,NaN,NaN,NaN,5,3,4,0,horizontal,vertical,vertical,vertical
2b,20,100377,10,30,318,19,F,NA,constant,heterogeneous,4,absent,1.89234495162964,1,horizontal,horizontal,1,5,red,2,NaN,NaN,NaN,NaN,NaN,NaN,NaN,NaN,NaN,NaN,NaN,NaN,NaN,5,4,0,3,vertical,horizontal,vertical,horizontal
2b,20,100377,10,31,319,19,F,NA,constant,heterogeneous,4,absent,0.958547115325928,1,vertical,vertical,1,2,red,2,NaN,NaN,NaN,NaN,NaN,NaN,NaN,NaN,NaN,NaN,NaN,NaN,NaN,6,4,3,0,vertical,vertical,horizontal,horizontal
2b,20,100377,10,32,320,19,F,NA,constant,heterogeneous,4,absent,1.1059410572052,1,vertical,vertical,1,5,red,2,NaN,NaN,NaN,NaN,NaN,NaN,NaN,NaN,NaN,NaN,NaN,NaN,NaN,5,4,3,6,horizontal,vertical,vertical,vertical
2b,20,100377,11,1,321,19,F,NA,constant,homogeneous,4,present,NaN,0,horizontal,none,0,3,red,1,4,980.31222920257,780.31222920257,619.68777079743,780.31222920257,980.31222920257,780.31222920257,980.31222920257,419.68777079743,619.68777079743,419.68777079743,619.68777079743,780.31222920257,4,0,0,0,horizontal,vertical,horizontal,vertical
2b,20,100377,11,2,322,19,F,NA,constant,homogeneous,4,absent,0.920558929443359,1,vertical,vertical,1,2,red,4,NaN,619.68777079743,780.31222920257,NaN,NaN,980.31222920257,780.31222920257,980.31222920257,419.68777079743,619.68777079743,419.68777079743,619.68777079743,780.31222920257,0,0,0,4,vertical,horizontal,vertical,vertical
2b,20,100377,11,3,323,19,F,NA,constant,homogeneous,4,present,1.37533497810364,1,horizontal,horizontal,1,5,red,3,4,619.68777079743,419.68777079743,619.68777079743,780.31222920257,980.31222920257,780.31222920257,980.31222920257,419.68777079743,619.68777079743,419.68777079743,619.68777079743,780.31222920257,0,0,4,0,vertical,horizontal,horizontal,horizontal
2b,20,100377,11,4,324,19,F,NA,constant,homogeneous,4,absent,0.882966995239258,1,vertical,vertical,1,2,red,4,NaN,619.68777079743,780.31222920257,NaN,NaN,980.31222920257,780.31222920257,980.31222920257,419.68777079743,619.68777079743,419.68777079743,619.68777079743,780.31222920257,0,0,0,4,vertical,horizontal,vertical,vertical
2b,20,100377,11,5,325,19,F,NA,constant,homogeneous,4,absent,1.31700706481934,1,horizontal,horizontal,1,2,red,3,NaN,619.68777079743,419.68777079743,NaN,NaN,980.31222920257,780.31222920257,980.31222920257,419.68777079743,619.68777079743,419.68777079743,619.68777079743,780.31222920257,0,0,4,0,vertical,horizontal,horizontal,horizontal
2b,20,100377,11,6,326,19,F,NA,constant,homogeneous,4,absent,1.17970490455627,1,vertical,vertical,1,5,red,2,NaN,980.31222920257,419.68777079743,NaN,NaN,980.31222920257,780.31222920257,980.31222920257,419.68777079743,619.68777079743,419.68777079743,619.68777079743,780.31222920257,0,4,0,0,vertical,vertical,horizontal,horizontal
2b,20,100377,11,7,327,19,F,NA,constant,homogeneous,4,absent,0.919219017028809,1,vertical,vertical,1,2,red,3,NaN,619.68777079743,419.68777079743,NaN,NaN,980.31222920257,780.31222920257,980.31222920257,419.68777079743,619.68777079743,419.68777079743,619.68777079743,780.31222920257,0,0,4,0,vertical,horizontal,vertical,vertical
2b,20,100377,11,8,328,19,F,NA,constant,homogeneous,4,present,NaN,0,horizontal,none,0,2,red,2,1,980.31222920257,419.68777079743,980.31222920257,780.31222920257,980.31222920257,780.31222920257,980.31222920257,419.68777079743,619.68777079743,419.68777079743,619.68777079743,780.31222920257,0,4,0,0,horizontal,horizontal,horizontal,horizontal
2b,20,100377,11,9,329,19,F,NA,constant,homogeneous,4,absent,0.970251083374023,1,horizontal,horizontal,1,2,red,2,NaN,980.31222920257,419.68777079743,NaN,NaN,980.31222920257,780.31222920257,980.31222920257,419.68777079743,619.68777079743,419.68777079743,619.68777079743,780.31222920257,0,4,0,0,horizontal,horizontal,vertical,vertical
2b,20,100377,11,10,330,19,F,NA,constant,homogeneous,4,absent,0.642141103744507,1,vertical,vertical,1,3,red,4,NaN,619.68777079743,780.31222920257,NaN,NaN,980.31222920257,780.31222920257,980.31222920257,419.68777079743,619.68777079743,419.68777079743,619.68777079743,780.31222920257,0,0,0,4,horizontal,vertical,vertical,vertical
2b,20,100377,11,11,331,19,F,NA,constant,homogeneous,4,absent,0.658923864364624,1,horizontal,horizontal,1,3,red,3,NaN,619.68777079743,419.68777079743,NaN,NaN,980.31222920257,780.31222920257,980.31222920257,419.68777079743,619.68777079743,419.68777079743,619.68777079743,780.31222920257,0,0,4,0,horizontal,vertical,horizontal,horizontal
2b,20,100377,11,12,332,19,F,NA,constant,homogeneous,4,absent,0.476704120635986,1,horizontal,horizontal,1,3,red,3,NaN,619.68777079743,419.68777079743,NaN,NaN,980.31222920257,780.31222920257,980.31222920257,419.68777079743,619.68777079743,419.68777079743,619.68777079743,780.31222920257,0,0,4,0,vertical,horizontal,horizontal,horizontal
2b,20,100377,11,13,333,19,F,NA,constant,homogeneous,4,present,0.801988124847412,1,horizontal,horizontal,1,3,red,1,4,980.31222920257,780.31222920257,619.68777079743,780.31222920257,980.31222920257,780.31222920257,980.31222920257,419.68777079743,619.68777079743,419.68777079743,619.68777079743,780.31222920257,4,0,0,0,horizontal,vertical,horizontal,horizontal
2b,20,100377,11,14,334,19,F,NA,constant,homogeneous,4,present,0.638472080230713,1,vertical,vertical,1,5,red,3,1,619.68777079743,419.68777079743,980.31222920257,780.31222920257,980.31222920257,780.31222920257,980.31222920257,419.68777079743,619.68777079743,419.68777079743,619.68777079743,780.31222920257,0,0,4,0,horizontal,horizontal,vertical,horizontal
2b,20,100377,11,15,335,19,F,NA,constant,homogeneous,4,absent,0.647765159606934,1,vertical,vertical,1,8,red,1,NaN,980.31222920257,780.31222920257,NaN,NaN,980.31222920257,780.31222920257,980.31222920257,419.68777079743,619.68777079743,419.68777079743,619.68777079743,780.31222920257,4,0,0,0,vertical,horizontal,horizontal,vertical
2b,20,100377,11,16,336,19,F,NA,constant,homogeneous,4,absent,0.796808004379272,1,vertical,vertical,1,5,red,1,NaN,980.31222920257,780.31222920257,NaN,NaN,980.31222920257,780.31222920257,980.31222920257,419.68777079743,619.68777079743,419.68777079743,619.68777079743,780.31222920257,4,0,0,0,vertical,horizontal,horizontal,horizontal
2b,20,100377,11,17,337,19,F,NA,constant,homogeneous,4,absent,1.10088896751404,1,horizontal,horizontal,1,2,red,4,NaN,619.68777079743,780.31222920257,NaN,NaN,980.31222920257,780.31222920257,980.31222920257,419.68777079743,619.68777079743,419.68777079743,619.68777079743,780.31222920257,0,0,0,4,horizontal,horizontal,vertical,horizontal
2b,20,100377,11,18,338,19,F,NA,constant,homogeneous,4,absent,1.01095795631409,1,horizontal,horizontal,1,5,red,1,NaN,980.31222920257,780.31222920257,NaN,NaN,980.31222920257,780.31222920257,980.31222920257,419.68777079743,619.68777079743,419.68777079743,619.68777079743,780.31222920257,4,0,0,0,horizontal,vertical,horizontal,vertical
2b,20,100377,11,19,339,19,F,NA,constant,homogeneous,4,present,0.651654005050659,0,horizontal,vertical,1,5,red,2,4,980.31222920257,419.68777079743,619.68777079743,780.31222920257,980.31222920257,780.31222920257,980.31222920257,419.68777079743,619.68777079743,419.68777079743,619.68777079743,780.31222920257,0,4,0,0,vertical,horizontal,horizontal,horizontal
2b,20,100377,11,20,340,19,F,NA,constant,homogeneous,4,present,0.689069986343384,1,vertical,vertical,1,3,red,2,1,980.31222920257,419.68777079743,980.31222920257,780.31222920257,980.31222920257,780.31222920257,980.31222920257,419.68777079743,619.68777079743,419.68777079743,619.68777079743,780.31222920257,0,4,0,0,horizontal,vertical,horizontal,vertical
2b,20,100377,11,21,341,19,F,NA,constant,homogeneous,4,present,0.578927993774414,1,vertical,vertical,1,3,red,4,3,619.68777079743,780.31222920257,619.68777079743,419.68777079743,980.31222920257,780.31222920257,980.31222920257,419.68777079743,619.68777079743,419.68777079743,619.68777079743,780.31222920257,0,0,0,4,vertical,vertical,horizontal,vertical
2b,20,100377,11,22,342,19,F,NA,constant,homogeneous,4,present,0.758446931838989,1,horizontal,horizontal,1,2,red,1,2,980.31222920257,780.31222920257,980.31222920257,419.68777079743,980.31222920257,780.31222920257,980.31222920257,419.68777079743,619.68777079743,419.68777079743,619.68777079743,780.31222920257,4,0,0,0,horizontal,vertical,horizontal,horizontal
2b,20,100377,11,23,343,19,F,NA,constant,homogeneous,4,absent,0.922485113143921,1,horizontal,horizontal,1,8,red,2,NaN,980.31222920257,419.68777079743,NaN,NaN,980.31222920257,780.31222920257,980.31222920257,419.68777079743,619.68777079743,419.68777079743,619.68777079743,780.31222920257,0,4,0,0,vertical,horizontal,vertical,vertical
2b,20,100377,11,24,344,19,F,NA,constant,homogeneous,4,absent,1.07275891304016,1,horizontal,horizontal,1,5,red,3,NaN,619.68777079743,419.68777079743,NaN,NaN,980.31222920257,780.31222920257,980.31222920257,419.68777079743,619.68777079743,419.68777079743,619.68777079743,780.31222920257,0,0,4,0,vertical,vertical,horizontal,vertical
2b,20,100377,11,25,345,19,F,NA,constant,homogeneous,4,present,0.638624906539917,1,vertical,vertical,1,5,red,3,4,619.68777079743,419.68777079743,619.68777079743,780.31222920257,980.31222920257,780.31222920257,980.31222920257,419.68777079743,619.68777079743,419.68777079743,619.68777079743,780.31222920257,0,0,4,0,vertical,vertical,vertical,vertical
2b,20,100377,11,26,346,19,F,NA,constant,homogeneous,4,present,0.903659105300903,1,vertical,vertical,1,2,red,1,4,980.31222920257,780.31222920257,619.68777079743,780.31222920257,980.31222920257,780.31222920257,980.31222920257,419.68777079743,619.68777079743,419.68777079743,619.68777079743,780.31222920257,4,0,0,0,vertical,horizontal,vertical,horizontal
2b,20,100377,11,27,347,19,F,NA,constant,homogeneous,4,present,1.16557002067566,0,vertical,horizontal,1,8,red,2,4,980.31222920257,419.68777079743,619.68777079743,780.31222920257,980.31222920257,780.31222920257,980.31222920257,419.68777079743,619.68777079743,419.68777079743,619.68777079743,780.31222920257,0,4,0,0,horizontal,vertical,horizontal,vertical
2b,20,100377,11,28,348,19,F,NA,constant,homogeneous,4,present,0.773347854614258,1,horizontal,horizontal,1,8,red,2,4,980.31222920257,419.68777079743,619.68777079743,780.31222920257,980.31222920257,780.31222920257,980.31222920257,419.68777079743,619.68777079743,419.68777079743,619.68777079743,780.31222920257,0,4,0,0,horizontal,horizontal,vertical,vertical
2b,20,100377,11,29,349,19,F,NA,constant,homogeneous,4,absent,0.661199808120728,1,vertical,vertical,1,3,red,2,NaN,980.31222920257,419.68777079743,NaN,NaN,980.31222920257,780.31222920257,980.31222920257,419.68777079743,619.68777079743,419.68777079743,619.68777079743,780.31222920257,0,4,0,0,horizontal,vertical,horizontal,horizontal
2b,20,100377,11,30,350,19,F,NA,constant,homogeneous,4,present,0.694509029388428,1,horizontal,horizontal,1,2,red,4,1,619.68777079743,780.31222920257,980.31222920257,780.31222920257,980.31222920257,780.31222920257,980.31222920257,419.68777079743,619.68777079743,419.68777079743,619.68777079743,780.31222920257,0,0,0,4,horizontal,vertical,vertical,horizontal
2b,20,100377,11,31,351,19,F,NA,constant,homogeneous,4,present,0.820591926574707,1,vertical,vertical,1,2,red,3,2,619.68777079743,419.68777079743,980.31222920257,419.68777079743,980.31222920257,780.31222920257,980.31222920257,419.68777079743,619.68777079743,419.68777079743,619.68777079743,780.31222920257,0,0,4,0,horizontal,horizontal,vertical,horizontal
2b,20,100377,11,32,352,19,F,NA,constant,homogeneous,4,present,0.685173988342285,0,vertical,horizontal,1,2,red,4,2,619.68777079743,780.31222920257,980.31222920257,419.68777079743,980.31222920257,780.31222920257,980.31222920257,419.68777079743,619.68777079743,419.68777079743,619.68777079743,780.31222920257,0,0,0,4,horizontal,vertical,vertical,vertical
2b,20,100377,12,1,353,19,F,NA,constant,homogeneous,4,present,0.939872026443481,1,horizontal,horizontal,1,3,red,4,2,619.68777079743,780.31222920257,980.31222920257,419.68777079743,980.31222920257,780.31222920257,980.31222920257,419.68777079743,619.68777079743,419.68777079743,619.68777079743,780.31222920257,0,0,0,4,vertical,horizontal,horizontal,horizontal
2b,20,100377,12,2,354,19,F,NA,constant,homogeneous,4,present,0.675025224685669,1,vertical,vertical,1,2,red,2,3,980.31222920257,419.68777079743,619.68777079743,419.68777079743,980.31222920257,780.31222920257,980.31222920257,419.68777079743,619.68777079743,419.68777079743,619.68777079743,780.31222920257,0,4,0,0,vertical,vertical,horizontal,horizontal
2b,20,100377,12,3,355,19,F,NA,constant,homogeneous,4,present,0.424860000610352,1,vertical,vertical,1,2,red,2,3,980.31222920257,419.68777079743,619.68777079743,419.68777079743,980.31222920257,780.31222920257,980.31222920257,419.68777079743,619.68777079743,419.68777079743,619.68777079743,780.31222920257,0,4,0,0,horizontal,vertical,vertical,horizontal
2b,20,100377,12,4,356,19,F,NA,constant,homogeneous,4,absent,0.525742053985596,0,horizontal,vertical,1,5,red,2,NaN,980.31222920257,419.68777079743,NaN,NaN,980.31222920257,780.31222920257,980.31222920257,419.68777079743,619.68777079743,419.68777079743,619.68777079743,780.31222920257,0,4,0,0,horizontal,horizontal,vertical,vertical
2b,20,100377,12,5,357,19,F,NA,constant,homogeneous,4,present,0.892373085021973,1,horizontal,horizontal,1,8,red,3,1,619.68777079743,419.68777079743,980.31222920257,780.31222920257,980.31222920257,780.31222920257,980.31222920257,419.68777079743,619.68777079743,419.68777079743,619.68777079743,780.31222920257,0,0,4,0,vertical,horizontal,horizontal,vertical
2b,20,100377,12,6,358,19,F,NA,constant,homogeneous,4,present,0.738528966903687,1,horizontal,horizontal,1,2,red,2,4,980.31222920257,419.68777079743,619.68777079743,780.31222920257,980.31222920257,780.31222920257,980.31222920257,419.68777079743,619.68777079743,419.68777079743,619.68777079743,780.31222920257,0,4,0,0,horizontal,horizontal,horizontal,vertical
2b,20,100377,12,7,359,19,F,NA,constant,homogeneous,4,present,0.949819087982178,1,vertical,vertical,1,5,red,4,3,619.68777079743,780.31222920257,619.68777079743,419.68777079743,980.31222920257,780.31222920257,980.31222920257,419.68777079743,619.68777079743,419.68777079743,619.68777079743,780.31222920257,0,0,0,4,vertical,vertical,vertical,vertical
2b,20,100377,12,8,360,19,F,NA,constant,homogeneous,4,present,1.6366229057312,1,vertical,vertical,1,3,red,1,4,980.31222920257,780.31222920257,619.68777079743,780.31222920257,980.31222920257,780.31222920257,980.31222920257,419.68777079743,619.68777079743,419.68777079743,619.68777079743,780.31222920257,4,0,0,0,vertical,vertical,vertical,horizontal
2b,20,100377,12,9,361,19,F,NA,constant,homogeneous,4,present,0.677578926086426,1,vertical,vertical,1,2,red,3,4,619.68777079743,419.68777079743,619.68777079743,780.31222920257,980.31222920257,780.31222920257,980.31222920257,419.68777079743,619.68777079743,419.68777079743,619.68777079743,780.31222920257,0,0,4,0,horizontal,horizontal,vertical,horizontal
2b,20,100377,12,10,362,19,F,NA,constant,homogeneous,4,absent,0.683271884918213,1,horizontal,horizontal,1,8,red,2,NaN,980.31222920257,419.68777079743,NaN,NaN,980.31222920257,780.31222920257,980.31222920257,419.68777079743,619.68777079743,419.68777079743,619.68777079743,780.31222920257,0,4,0,0,horizontal,horizontal,vertical,vertical
2b,20,100377,12,11,363,19,F,NA,constant,homogeneous,4,present,0.581377983093262,1,horizontal,horizontal,1,2,red,3,2,619.68777079743,419.68777079743,980.31222920257,419.68777079743,980.31222920257,780.31222920257,980.31222920257,419.68777079743,619.68777079743,419.68777079743,619.68777079743,780.31222920257,0,0,4,0,vertical,horizontal,horizontal,vertical
2b,20,100377,12,12,364,19,F,NA,constant,homogeneous,4,present,0.705101013183594,1,horizontal,horizontal,1,3,red,2,4,980.31222920257,419.68777079743,619.68777079743,780.31222920257,980.31222920257,780.31222920257,980.31222920257,419.68777079743,619.68777079743,419.68777079743,619.68777079743,780.31222920257,0,4,0,0,horizontal,horizontal,vertical,horizontal
2b,20,100377,12,13,365,19,F,NA,constant,homogeneous,4,absent,0.387630939483643,1,horizontal,horizontal,1,2,red,3,NaN,619.68777079743,419.68777079743,NaN,NaN,980.31222920257,780.31222920257,980.31222920257,419.68777079743,619.68777079743,419.68777079743,619.68777079743,780.31222920257,0,0,4,0,vertical,vertical,horizontal,horizontal
2b,20,100377,12,14,366,19,F,NA,constant,homogeneous,4,present,0.627557039260864,1,vertical,vertical,1,8,red,4,2,619.68777079743,780.31222920257,980.31222920257,419.68777079743,980.31222920257,780.31222920257,980.31222920257,419.68777079743,619.68777079743,419.68777079743,619.68777079743,780.31222920257,0,0,0,4,horizontal,horizontal,horizontal,vertical
2b,20,100377,12,15,367,19,F,NA,constant,homogeneous,4,absent,0.640367031097412,1,vertical,vertical,1,5,red,4,NaN,619.68777079743,780.31222920257,NaN,NaN,980.31222920257,780.31222920257,980.31222920257,419.68777079743,619.68777079743,419.68777079743,619.68777079743,780.31222920257,0,0,0,4,horizontal,vertical,horizontal,vertical
2b,20,100377,12,16,368,19,F,NA,constant,homogeneous,4,absent,0.873484134674072,1,horizontal,horizontal,1,2,red,1,NaN,980.31222920257,780.31222920257,NaN,NaN,980.31222920257,780.31222920257,980.31222920257,419.68777079743,619.68777079743,419.68777079743,619.68777079743,780.31222920257,4,0,0,0,horizontal,horizontal,vertical,vertical
2b,20,100377,12,17,369,19,F,NA,constant,homogeneous,4,absent,1.31145119667053,1,horizontal,horizontal,1,5,red,3,NaN,619.68777079743,419.68777079743,NaN,NaN,980.31222920257,780.31222920257,980.31222920257,419.68777079743,619.68777079743,419.68777079743,619.68777079743,780.31222920257,0,0,4,0,vertical,horizontal,horizontal,horizontal
2b,20,100377,12,18,370,19,F,NA,constant,homogeneous,4,absent,0.673814058303833,1,vertical,vertical,1,5,red,1,NaN,980.31222920257,780.31222920257,NaN,NaN,980.31222920257,780.31222920257,980.31222920257,419.68777079743,619.68777079743,419.68777079743,619.68777079743,780.31222920257,4,0,0,0,vertical,horizontal,vertical,vertical
2b,20,100377,12,19,371,19,F,NA,constant,homogeneous,4,present,0.831364154815674,1,horizontal,horizontal,1,5,red,1,2,980.31222920257,780.31222920257,980.31222920257,419.68777079743,980.31222920257,780.31222920257,980.31222920257,419.68777079743,619.68777079743,419.68777079743,619.68777079743,780.31222920257,4,0,0,0,horizontal,vertical,horizontal,horizontal
2b,20,100377,12,20,372,19,F,NA,constant,homogeneous,4,present,0.67628002166748,1,vertical,vertical,1,5,red,1,3,980.31222920257,780.31222920257,619.68777079743,419.68777079743,980.31222920257,780.31222920257,980.31222920257,419.68777079743,619.68777079743,419.68777079743,619.68777079743,780.31222920257,4,0,0,0,vertical,vertical,vertical,horizontal
2b,20,100377,12,21,373,19,F,NA,constant,homogeneous,4,absent,0.666060924530029,1,vertical,vertical,1,2,red,2,NaN,980.31222920257,419.68777079743,NaN,NaN,980.31222920257,780.31222920257,980.31222920257,419.68777079743,619.68777079743,419.68777079743,619.68777079743,780.31222920257,0,4,0,0,vertical,vertical,horizontal,horizontal
2b,20,100377,12,22,374,19,F,NA,constant,homogeneous,4,absent,0.579376935958862,1,vertical,vertical,1,3,red,2,NaN,980.31222920257,419.68777079743,NaN,NaN,980.31222920257,780.31222920257,980.31222920257,419.68777079743,619.68777079743,419.68777079743,619.68777079743,780.31222920257,0,4,0,0,horizontal,vertical,vertical,horizontal
2b,20,100377,12,23,375,19,F,NA,constant,homogeneous,4,absent,0.93511700630188,1,horizontal,horizontal,1,2,red,3,NaN,619.68777079743,419.68777079743,NaN,NaN,980.31222920257,780.31222920257,980.31222920257,419.68777079743,619.68777079743,419.68777079743,619.68777079743,780.31222920257,0,0,4,0,vertical,horizontal,horizontal,horizontal
2b,20,100377,12,24,376,19,F,NA,constant,homogeneous,4,present,0.642080068588257,1,vertical,vertical,1,3,red,1,3,980.31222920257,780.31222920257,619.68777079743,419.68777079743,980.31222920257,780.31222920257,980.31222920257,419.68777079743,619.68777079743,419.68777079743,619.68777079743,780.31222920257,4,0,0,0,vertical,horizontal,horizontal,vertical
2b,20,100377,12,25,377,19,F,NA,constant,homogeneous,4,present,1.13110589981079,1,horizontal,horizontal,1,2,red,2,1,980.31222920257,419.68777079743,980.31222920257,780.31222920257,980.31222920257,780.31222920257,980.31222920257,419.68777079743,619.68777079743,419.68777079743,619.68777079743,780.31222920257,0,4,0,0,horizontal,horizontal,vertical,horizontal
2b,20,100377,12,26,378,19,F,NA,constant,homogeneous,4,absent,0.830057859420776,1,horizontal,horizontal,1,3,red,3,NaN,619.68777079743,419.68777079743,NaN,NaN,980.31222920257,780.31222920257,980.31222920257,419.68777079743,619.68777079743,419.68777079743,619.68777079743,780.31222920257,0,0,4,0,horizontal,vertical,horizontal,horizontal
2b,20,100377,12,27,379,19,F,NA,constant,homogeneous,4,present,0.786841869354248,1,horizontal,horizontal,1,5,red,2,4,980.31222920257,419.68777079743,619.68777079743,780.31222920257,980.31222920257,780.31222920257,980.31222920257,419.68777079743,619.68777079743,419.68777079743,619.68777079743,780.31222920257,0,4,0,0,vertical,horizontal,vertical,vertical
2b,20,100377,12,28,380,19,F,NA,constant,homogeneous,4,absent,0.683043003082275,1,vertical,vertical,1,3,red,2,NaN,980.31222920257,419.68777079743,NaN,NaN,980.31222920257,780.31222920257,980.31222920257,419.68777079743,619.68777079743,419.68777079743,619.68777079743,780.31222920257,0,4,0,0,horizontal,vertical,horizontal,horizontal
2b,20,100377,12,29,381,19,F,NA,constant,homogeneous,4,absent,0.652884006500244,1,horizontal,horizontal,1,3,red,2,NaN,980.31222920257,419.68777079743,NaN,NaN,980.31222920257,780.31222920257,980.31222920257,419.68777079743,619.68777079743,419.68777079743,619.68777079743,780.31222920257,0,4,0,0,vertical,horizontal,horizontal,vertical
2b,20,100377,12,30,382,19,F,NA,constant,homogeneous,4,absent,0.681817054748535,1,vertical,vertical,1,8,red,1,NaN,980.31222920257,780.31222920257,NaN,NaN,980.31222920257,780.31222920257,980.31222920257,419.68777079743,619.68777079743,419.68777079743,619.68777079743,780.31222920257,4,0,0,0,vertical,vertical,horizontal,vertical
2b,20,100377,12,31,383,19,F,NA,constant,homogeneous,4,absent,0.996047019958496,1,vertical,vertical,1,2,red,4,NaN,619.68777079743,780.31222920257,NaN,NaN,980.31222920257,780.31222920257,980.31222920257,419.68777079743,619.68777079743,419.68777079743,619.68777079743,780.31222920257,0,0,0,4,vertical,horizontal,vertical,vertical
2b,20,100377,12,32,384,19,F,NA,constant,homogeneous,4,absent,0.716125965118408,1,vertical,vertical,1,2,red,2,NaN,980.31222920257,419.68777079743,NaN,NaN,980.31222920257,780.31222920257,980.31222920257,419.68777079743,619.68777079743,419.68777079743,619.68777079743,780.31222920257,0,4,0,0,horizontal,vertical,horizontal,horizontal
2b,20,100377,13,1,385,19,F,NA,constant,homogeneous,4,present,1.02086496353149,1,horizontal,horizontal,1,3,red,1,4,980.31222920257,780.31222920257,619.68777079743,780.31222920257,980.31222920257,780.31222920257,980.31222920257,419.68777079743,619.68777079743,419.68777079743,619.68777079743,780.31222920257,4,0,0,0,horizontal,vertical,vertical,horizontal
2b,20,100377,13,2,386,19,F,NA,constant,homogeneous,4,absent,0.621522903442383,1,horizontal,horizontal,1,2,red,1,NaN,980.31222920257,780.31222920257,NaN,NaN,980.31222920257,780.31222920257,980.31222920257,419.68777079743,619.68777079743,419.68777079743,619.68777079743,780.31222920257,4,0,0,0,horizontal,vertical,horizontal,vertical
2b,20,100377,13,3,387,19,F,NA,constant,homogeneous,4,absent,0.605954170227051,1,vertical,vertical,1,2,red,1,NaN,980.31222920257,780.31222920257,NaN,NaN,980.31222920257,780.31222920257,980.31222920257,419.68777079743,619.68777079743,419.68777079743,619.68777079743,780.31222920257,4,0,0,0,vertical,horizontal,horizontal,vertical
2b,20,100377,13,4,388,19,F,NA,constant,homogeneous,4,absent,0.810163974761963,1,vertical,vertical,1,8,red,1,NaN,980.31222920257,780.31222920257,NaN,NaN,980.31222920257,780.31222920257,980.31222920257,419.68777079743,619.68777079743,419.68777079743,619.68777079743,780.31222920257,4,0,0,0,vertical,vertical,horizontal,horizontal
2b,20,100377,13,5,389,19,F,NA,constant,homogeneous,4,absent,0.698812007904053,1,horizontal,horizontal,1,3,red,1,NaN,980.31222920257,780.31222920257,NaN,NaN,980.31222920257,780.31222920257,980.31222920257,419.68777079743,619.68777079743,419.68777079743,619.68777079743,780.31222920257,4,0,0,0,horizontal,horizontal,vertical,horizontal
2b,20,100377,13,6,390,19,F,NA,constant,homogeneous,4,present,0.945075035095215,1,horizontal,horizontal,1,5,red,3,4,619.68777079743,419.68777079743,619.68777079743,780.31222920257,980.31222920257,780.31222920257,980.31222920257,419.68777079743,619.68777079743,419.68777079743,619.68777079743,780.31222920257,0,0,4,0,vertical,horizontal,horizontal,vertical
2b,20,100377,13,7,391,19,F,NA,constant,homogeneous,4,absent,0.880098104476929,1,vertical,vertical,1,3,red,4,NaN,619.68777079743,780.31222920257,NaN,NaN,980.31222920257,780.31222920257,980.31222920257,419.68777079743,619.68777079743,419.68777079743,619.68777079743,780.31222920257,0,0,0,4,horizontal,vertical,vertical,vertical
2b,20,100377,13,8,392,19,F,NA,constant,homogeneous,4,present,0.741796016693115,1,horizontal,horizontal,1,5,red,3,4,619.68777079743,419.68777079743,619.68777079743,780.31222920257,980.31222920257,780.31222920257,980.31222920257,419.68777079743,619.68777079743,419.68777079743,619.68777079743,780.31222920257,0,0,4,0,horizontal,horizontal,horizontal,horizontal
2b,20,100377,13,9,393,19,F,NA,constant,homogeneous,4,present,0.661123991012573,1,vertical,vertical,1,2,red,3,2,619.68777079743,419.68777079743,980.31222920257,419.68777079743,980.31222920257,780.31222920257,980.31222920257,419.68777079743,619.68777079743,419.68777079743,619.68777079743,780.31222920257,0,0,4,0,vertical,vertical,vertical,horizontal
2b,20,100377,13,10,394,19,F,NA,constant,homogeneous,4,present,1.01457786560059,1,horizontal,horizontal,1,2,red,2,3,980.31222920257,419.68777079743,619.68777079743,419.68777079743,980.31222920257,780.31222920257,980.31222920257,419.68777079743,619.68777079743,419.68777079743,619.68777079743,780.31222920257,0,4,0,0,horizontal,horizontal,vertical,horizontal
2b,20,100377,13,11,395,19,F,NA,constant,homogeneous,4,absent,0.782917976379395,1,vertical,vertical,1,3,red,3,NaN,619.68777079743,419.68777079743,NaN,NaN,980.31222920257,780.31222920257,980.31222920257,419.68777079743,619.68777079743,419.68777079743,619.68777079743,780.31222920257,0,0,4,0,horizontal,vertical,vertical,vertical
2b,20,100377,13,12,396,19,F,NA,constant,homogeneous,4,present,0.674597978591919,1,vertical,vertical,1,3,red,3,1,619.68777079743,419.68777079743,980.31222920257,780.31222920257,980.31222920257,780.31222920257,980.31222920257,419.68777079743,619.68777079743,419.68777079743,619.68777079743,780.31222920257,0,0,4,0,vertical,horizontal,vertical,horizontal
2b,20,100377,13,13,397,19,F,NA,constant,homogeneous,4,absent,0.656422138214111,1,horizontal,horizontal,1,5,red,3,NaN,619.68777079743,419.68777079743,NaN,NaN,980.31222920257,780.31222920257,980.31222920257,419.68777079743,619.68777079743,419.68777079743,619.68777079743,780.31222920257,0,0,4,0,vertical,vertical,horizontal,vertical
2b,20,100377,13,14,398,19,F,NA,constant,homogeneous,4,present,0.685714960098267,1,vertical,vertical,1,2,red,1,4,980.31222920257,780.31222920257,619.68777079743,780.31222920257,980.31222920257,780.31222920257,980.31222920257,419.68777079743,619.68777079743,419.68777079743,619.68777079743,780.31222920257,4,0,0,0,vertical,vertical,vertical,horizontal
2b,20,100377,13,15,399,19,F,NA,constant,homogeneous,4,absent,0.73549485206604,1,vertical,vertical,1,5,red,4,NaN,619.68777079743,780.31222920257,NaN,NaN,980.31222920257,780.31222920257,980.31222920257,419.68777079743,619.68777079743,419.68777079743,619.68777079743,780.31222920257,0,0,0,4,horizontal,horizontal,horizontal,vertical
2b,20,100377,13,16,400,19,F,NA,constant,homogeneous,4,absent,0.586735963821411,1,vertical,vertical,1,2,red,1,NaN,980.31222920257,780.31222920257,NaN,NaN,980.31222920257,780.31222920257,980.31222920257,419.68777079743,619.68777079743,419.68777079743,619.68777079743,780.31222920257,4,0,0,0,vertical,horizontal,horizontal,horizontal
2b,20,100377,13,17,401,19,F,NA,constant,homogeneous,4,present,0.518416881561279,1,vertical,vertical,1,3,red,4,3,619.68777079743,780.31222920257,619.68777079743,419.68777079743,980.31222920257,780.31222920257,980.31222920257,419.68777079743,619.68777079743,419.68777079743,619.68777079743,780.31222920257,0,0,0,4,vertical,vertical,vertical,vertical
2b,20,100377,13,18,402,19,F,NA,constant,homogeneous,4,absent,0.596750020980835,1,horizontal,horizontal,1,2,red,3,NaN,619.68777079743,419.68777079743,NaN,NaN,980.31222920257,780.31222920257,980.31222920257,419.68777079743,619.68777079743,419.68777079743,619.68777079743,780.31222920257,0,0,4,0,vertical,vertical,horizontal,horizontal
2b,20,100377,13,19,403,19,F,NA,constant,homogeneous,4,absent,0.588999032974243,1,horizontal,horizontal,1,8,red,3,NaN,619.68777079743,419.68777079743,NaN,NaN,980.31222920257,780.31222920257,980.31222920257,419.68777079743,619.68777079743,419.68777079743,619.68777079743,780.31222920257,0,0,4,0,horizontal,vertical,horizontal,horizontal
2b,20,100377,13,20,404,19,F,NA,constant,homogeneous,4,absent,0.701302051544189,1,horizontal,horizontal,1,3,red,1,NaN,980.31222920257,780.31222920257,NaN,NaN,980.31222920257,780.31222920257,980.31222920257,419.68777079743,619.68777079743,419.68777079743,619.68777079743,780.31222920257,4,0,0,0,horizontal,horizontal,horizontal,vertical
2b,20,100377,13,21,405,19,F,NA,constant,homogeneous,4,absent,0.963393926620483,1,vertical,vertical,1,5,red,1,NaN,980.31222920257,780.31222920257,NaN,NaN,980.31222920257,780.31222920257,980.31222920257,419.68777079743,619.68777079743,419.68777079743,619.68777079743,780.31222920257,4,0,0,0,vertical,horizontal,vertical,horizontal
2b,20,100377,13,22,406,19,F,NA,constant,homogeneous,4,present,0.738870143890381,1,horizontal,horizontal,1,8,red,2,3,980.31222920257,419.68777079743,619.68777079743,419.68777079743,980.31222920257,780.31222920257,980.31222920257,419.68777079743,619.68777079743,419.68777079743,619.68777079743,780.31222920257,0,4,0,0,horizontal,horizontal,vertical,horizontal
2b,20,100377,13,23,407,19,F,NA,constant,homogeneous,4,absent,0.63827109336853,1,vertical,vertical,1,2,red,4,NaN,619.68777079743,780.31222920257,NaN,NaN,980.31222920257,780.31222920257,980.31222920257,419.68777079743,619.68777079743,419.68777079743,619.68777079743,780.31222920257,0,0,0,4,horizontal,vertical,vertical,vertical
2b,20,100377,13,24,408,19,F,NA,constant,homogeneous,4,absent,0.815078020095825,1,horizontal,horizontal,1,5,red,3,NaN,619.68777079743,419.68777079743,NaN,NaN,980.31222920257,780.31222920257,980.31222920257,419.68777079743,619.68777079743,419.68777079743,619.68777079743,780.31222920257,0,0,4,0,vertical,horizontal,horizontal,vertical
2b,20,100377,13,25,409,19,F,NA,constant,homogeneous,4,present,0.639664888381958,1,vertical,vertical,1,5,red,2,1,980.31222920257,419.68777079743,980.31222920257,780.31222920257,980.31222920257,780.31222920257,980.31222920257,419.68777079743,619.68777079743,419.68777079743,619.68777079743,780.31222920257,0,4,0,0,horizontal,vertical,horizontal,horizontal
2b,20,100377,13,26,410,19,F,NA,constant,homogeneous,4,present,0.712498188018799,1,vertical,vertical,1,2,red,1,2,980.31222920257,780.31222920257,980.31222920257,419.68777079743,980.31222920257,780.31222920257,980.31222920257,419.68777079743,619.68777079743,419.68777079743,619.68777079743,780.31222920257,4,0,0,0,vertical,horizontal,vertical,vertical
2b,20,100377,13,27,411,19,F,NA,constant,homogeneous,4,present,0.79508900642395,1,vertical,vertical,1,8,red,4,2,619.68777079743,780.31222920257,980.31222920257,419.68777079743,980.31222920257,780.31222920257,980.31222920257,419.68777079743,619.68777079743,419.68777079743,619.68777079743,780.31222920257,0,0,0,4,vertical,vertical,horizontal,vertical
2b,20,100377,13,28,412,19,F,NA,constant,homogeneous,4,absent,0.667068958282471,1,horizontal,horizontal,1,2,red,4,NaN,619.68777079743,780.31222920257,NaN,NaN,980.31222920257,780.31222920257,980.31222920257,419.68777079743,619.68777079743,419.68777079743,619.68777079743,780.31222920257,0,0,0,4,vertical,vertical,vertical,horizontal
2b,20,100377,13,29,413,19,F,NA,constant,homogeneous,4,present,0.52455997467041,1,horizontal,horizontal,1,2,red,4,3,619.68777079743,780.31222920257,619.68777079743,419.68777079743,980.31222920257,780.31222920257,980.31222920257,419.68777079743,619.68777079743,419.68777079743,619.68777079743,780.31222920257,0,0,0,4,vertical,vertical,vertical,horizontal
2b,20,100377,13,30,414,19,F,NA,constant,homogeneous,4,present,0.627067089080811,1,vertical,vertical,1,5,red,2,4,980.31222920257,419.68777079743,619.68777079743,780.31222920257,980.31222920257,780.31222920257,980.31222920257,419.68777079743,619.68777079743,419.68777079743,619.68777079743,780.31222920257,0,4,0,0,horizontal,vertical,vertical,vertical
2b,20,100377,13,31,415,19,F,NA,constant,homogeneous,4,present,0.663877964019775,1,horizontal,horizontal,1,2,red,3,4,619.68777079743,419.68777079743,619.68777079743,780.31222920257,980.31222920257,780.31222920257,980.31222920257,419.68777079743,619.68777079743,419.68777079743,619.68777079743,780.31222920257,0,0,4,0,vertical,horizontal,horizontal,horizontal
