experiment,subject,uniqueID,block,trial,trial_cumulative,age,gender,color_cond_blocking,color_history,shape_type,set_size,distractor,rt,acc,target_orient,response_key,response_made,iti,target_color,target_item,distractor_item,target_X,target_Y,distractor_X,distractor_Y,item1_X,item1_Y,item2_X,item2_Y,item3_X,item3_Y,item4_X,item4_Y,item1_shape,item2_shape,item3_shape,item4_shape,item1_line,item2_line,item3_line,item4_line
2b,3,100269,1,1,1,19,M,NA,constant,heterogeneous,4,present,1.19940805435181,1,vertical,vertical,1,3,green,2,1,NaN,NaN,NaN,NaN,NaN,NaN,NaN,NaN,NaN,NaN,NaN,NaN,5,4,6,0,horizontal,vertical,vertical,horizontal
2b,3,100269,1,2,2,19,M,NA,constant,heterogeneous,4,absent,1.25949501991272,0,vertical,horizontal,1,5,green,4,NaN,NaN,NaN,NaN,NaN,NaN,NaN,NaN,NaN,NaN,NaN,NaN,NaN,0,3,6,4,vertical,vertical,vertical,vertical
2b,3,100269,1,3,3,19,M,NA,constant,heterogeneous,4,present,1.02917981147766,1,horizontal,horizontal,1,2,green,4,2,NaN,NaN,NaN,NaN,NaN,NaN,NaN,NaN,NaN,NaN,NaN,NaN,0,6,3,4,vertical,horizontal,vertical,horizontal
2b,3,100269,1,4,4,19,M,NA,constant,heterogeneous,4,present,1.22582387924194,1,horizontal,horizontal,1,2,green,1,4,NaN,NaN,NaN,NaN,NaN,NaN,NaN,NaN,NaN,NaN,NaN,NaN,4,5,6,0,horizontal,vertical,vertical,horizontal
2b,3,100269,1,5,5,19,M,NA,constant,heterogeneous,4,absent,1.38275599479675,1,vertical,vertical,1,2,green,4,NaN,NaN,NaN,NaN,NaN,NaN,NaN,NaN,NaN,NaN,NaN,NaN,NaN,3,6,5,4,vertical,vertical,horizontal,vertical
2b,3,100269,1,6,6,19,M,NA,constant,heterogeneous,4,absent,1.06651496887207,1,horizontal,horizontal,1,2,green,3,NaN,NaN,NaN,NaN,NaN,NaN,NaN,NaN,NaN,NaN,NaN,NaN,NaN,6,3,4,5,horizontal,horizontal,horizontal,vertical
2b,3,100269,1,7,7,19,M,NA,constant,heterogeneous,4,present,1.3638129234314,1,vertical,vertical,1,5,green,2,4,NaN,NaN,NaN,NaN,NaN,NaN,NaN,NaN,NaN,NaN,NaN,NaN,3,4,6,5,vertical,vertical,vertical,vertical
2b,3,100269,1,8,8,19,M,NA,constant,heterogeneous,4,present,0.9235680103302,1,horizontal,horizontal,1,3,green,1,3,NaN,NaN,NaN,NaN,NaN,NaN,NaN,NaN,NaN,NaN,NaN,NaN,4,5,3,6,horizontal,vertical,horizontal,vertical
2b,3,100269,1,9,9,19,M,NA,constant,heterogeneous,4,absent,1.35419988632202,1,horizontal,horizontal,1,2,green,4,NaN,NaN,NaN,NaN,NaN,NaN,NaN,NaN,NaN,NaN,NaN,NaN,NaN,0,5,3,4,vertical,horizontal,vertical,horizontal
2b,3,100269,1,10,10,19,M,NA,constant,heterogeneous,4,absent,1.13362503051758,1,horizontal,horizontal,1,3,green,1,NaN,NaN,NaN,NaN,NaN,NaN,NaN,NaN,NaN,NaN,NaN,NaN,NaN,4,3,0,5,horizontal,vertical,horizontal,vertical
2b,3,100269,1,11,11,19,M,NA,constant,heterogeneous,4,present,0.856699228286743,1,horizontal,horizontal,1,8,green,1,4,NaN,NaN,NaN,NaN,NaN,NaN,NaN,NaN,NaN,NaN,NaN,NaN,4,6,5,0,horizontal,vertical,horizontal,horizontal
2b,3,100269,1,12,12,19,M,NA,constant,heterogeneous,4,present,0.813931941986084,1,horizontal,horizontal,1,2,green,1,3,NaN,NaN,NaN,NaN,NaN,NaN,NaN,NaN,NaN,NaN,NaN,NaN,4,3,6,0,horizontal,horizontal,horizontal,vertical
2b,3,100269,1,13,13,19,M,NA,constant,heterogeneous,4,absent,0.822275876998901,1,horizontal,horizontal,1,2,green,3,NaN,NaN,NaN,NaN,NaN,NaN,NaN,NaN,NaN,NaN,NaN,NaN,NaN,6,0,4,5,vertical,horizontal,horizontal,vertical
2b,3,100269,1,14,14,19,M,NA,constant,heterogeneous,4,absent,1.68316698074341,1,vertical,vertical,1,2,green,2,NaN,NaN,NaN,NaN,NaN,NaN,NaN,NaN,NaN,NaN,NaN,NaN,NaN,3,4,6,5,vertical,vertical,horizontal,horizontal
2b,3,100269,1,15,15,19,M,NA,constant,heterogeneous,4,present,1.3329381942749,0,vertical,horizontal,1,8,green,2,4,NaN,NaN,NaN,NaN,NaN,NaN,NaN,NaN,NaN,NaN,NaN,NaN,3,4,0,6,horizontal,vertical,horizontal,horizontal
2b,3,100269,1,16,16,19,M,NA,constant,heterogeneous,4,present,1.74395418167114,1,vertical,vertical,1,3,green,4,2,NaN,NaN,NaN,NaN,NaN,NaN,NaN,NaN,NaN,NaN,NaN,NaN,0,3,5,4,vertical,vertical,vertical,vertical
2b,3,100269,1,17,17,19,M,NA,constant,heterogeneous,4,absent,1.50311088562012,1,horizontal,horizontal,1,5,green,2,NaN,NaN,NaN,NaN,NaN,NaN,NaN,NaN,NaN,NaN,NaN,NaN,NaN,3,4,6,0,vertical,horizontal,horizontal,vertical
2b,3,100269,1,18,18,19,M,NA,constant,heterogeneous,4,absent,1.48538112640381,1,horizontal,horizontal,1,8,green,1,NaN,NaN,NaN,NaN,NaN,NaN,NaN,NaN,NaN,NaN,NaN,NaN,NaN,4,5,6,3,horizontal,horizontal,horizontal,vertical
2b,3,100269,1,19,19,19,M,NA,constant,heterogeneous,4,present,1.19935989379883,1,horizontal,horizontal,1,5,green,1,3,NaN,NaN,NaN,NaN,NaN,NaN,NaN,NaN,NaN,NaN,NaN,NaN,4,3,6,5,horizontal,vertical,horizontal,horizontal
2b,3,100269,1,20,20,19,M,NA,constant,heterogeneous,4,absent,0.923563003540039,1,horizontal,horizontal,1,3,green,3,NaN,NaN,NaN,NaN,NaN,NaN,NaN,NaN,NaN,NaN,NaN,NaN,NaN,0,5,4,3,vertical,horizontal,horizontal,horizontal
2b,3,100269,1,21,21,19,M,NA,constant,heterogeneous,4,absent,1.79436588287354,1,vertical,vertical,1,5,green,4,NaN,NaN,NaN,NaN,NaN,NaN,NaN,NaN,NaN,NaN,NaN,NaN,NaN,5,3,6,4,vertical,vertical,horizontal,vertical
2b,3,100269,1,22,22,19,M,NA,constant,heterogeneous,4,absent,0.978548049926758,0,vertical,horizontal,1,3,green,3,NaN,NaN,NaN,NaN,NaN,NaN,NaN,NaN,NaN,NaN,NaN,NaN,NaN,3,0,4,6,vertical,horizontal,vertical,horizontal
2b,3,100269,1,23,23,19,M,NA,constant,heterogeneous,4,present,1.55834698677063,1,vertical,vertical,1,2,green,4,2,NaN,NaN,NaN,NaN,NaN,NaN,NaN,NaN,NaN,NaN,NaN,NaN,3,6,5,4,vertical,horizontal,horizontal,vertical
2b,3,100269,1,24,24,19,M,NA,constant,heterogeneous,4,absent,1.22585797309875,1,vertical,vertical,1,2,green,3,NaN,NaN,NaN,NaN,NaN,NaN,NaN,NaN,NaN,NaN,NaN,NaN,NaN,5,0,4,3,horizontal,vertical,vertical,vertical
2b,3,100269,1,25,25,19,M,NA,constant,heterogeneous,4,absent,0.902653932571411,1,vertical,vertical,1,8,green,2,NaN,NaN,NaN,NaN,NaN,NaN,NaN,NaN,NaN,NaN,NaN,NaN,NaN,0,4,3,6,horizontal,vertical,vertical,horizontal
2b,3,100269,1,26,26,19,M,NA,constant,heterogeneous,4,present,1.74056100845337,1,vertical,vertical,1,2,green,4,2,NaN,NaN,NaN,NaN,NaN,NaN,NaN,NaN,NaN,NaN,NaN,NaN,5,6,3,4,horizontal,vertical,vertical,vertical
2b,3,100269,1,27,27,19,M,NA,constant,heterogeneous,4,absent,0.907737016677856,1,horizontal,horizontal,1,5,green,2,NaN,NaN,NaN,NaN,NaN,NaN,NaN,NaN,NaN,NaN,NaN,NaN,NaN,0,4,6,5,horizontal,horizontal,vertical,horizontal
2b,3,100269,1,28,28,19,M,NA,constant,heterogeneous,4,absent,0.878062963485718,1,vertical,vertical,1,3,green,2,NaN,NaN,NaN,NaN,NaN,NaN,NaN,NaN,NaN,NaN,NaN,NaN,NaN,6,4,5,3,horizontal,vertical,horizontal,horizontal
2b,3,100269,1,29,29,19,M,NA,constant,heterogeneous,4,present,0.75605297088623,1,horizontal,horizontal,1,3,green,2,3,NaN,NaN,NaN,NaN,NaN,NaN,NaN,NaN,NaN,NaN,NaN,NaN,5,4,3,6,horizontal,horizontal,vertical,horizontal
2b,3,100269,1,30,30,19,M,NA,constant,heterogeneous,4,present,0.959270000457764,1,vertical,vertical,1,5,green,1,4,NaN,NaN,NaN,NaN,NaN,NaN,NaN,NaN,NaN,NaN,NaN,NaN,4,0,3,5,vertical,horizontal,vertical,horizontal
2b,3,100269,1,31,31,19,M,NA,constant,heterogeneous,4,present,1.58665585517883,1,horizontal,horizontal,1,5,green,4,3,NaN,NaN,NaN,NaN,NaN,NaN,NaN,NaN,NaN,NaN,NaN,NaN,3,0,5,4,vertical,horizontal,horizontal,horizontal
2b,3,100269,1,32,32,19,M,NA,constant,heterogeneous,4,present,0.946984052658081,1,vertical,vertical,1,2,green,3,4,NaN,NaN,NaN,NaN,NaN,NaN,NaN,NaN,NaN,NaN,NaN,NaN,5,0,4,3,horizontal,horizontal,vertical,vertical
2b,3,100269,2,1,33,19,M,NA,constant,heterogeneous,4,absent,1.31356287002563,1,horizontal,horizontal,1,5,green,2,NaN,NaN,NaN,NaN,NaN,NaN,NaN,NaN,NaN,NaN,NaN,NaN,NaN,0,4,5,6,vertical,horizontal,vertical,horizontal
2b,3,100269,2,2,34,19,M,NA,constant,heterogeneous,4,present,1.08394503593445,1,horizontal,horizontal,1,2,green,4,2,NaN,NaN,NaN,NaN,NaN,NaN,NaN,NaN,NaN,NaN,NaN,NaN,0,5,3,4,horizontal,vertical,vertical,horizontal
2b,3,100269,2,3,35,19,M,NA,constant,heterogeneous,4,absent,0.749947071075439,1,horizontal,horizontal,1,5,green,2,NaN,NaN,NaN,NaN,NaN,NaN,NaN,NaN,NaN,NaN,NaN,NaN,NaN,5,4,0,6,horizontal,horizontal,vertical,vertical
2b,3,100269,2,4,36,19,M,NA,constant,heterogeneous,4,present,1.01302886009216,1,horizontal,horizontal,1,3,green,4,3,NaN,NaN,NaN,NaN,NaN,NaN,NaN,NaN,NaN,NaN,NaN,NaN,5,3,6,4,horizontal,vertical,vertical,horizontal
2b,3,100269,2,5,37,19,M,NA,constant,heterogeneous,4,absent,1.74165916442871,1,vertical,vertical,1,5,green,3,NaN,NaN,NaN,NaN,NaN,NaN,NaN,NaN,NaN,NaN,NaN,NaN,NaN,3,5,4,0,vertical,horizontal,vertical,vertical
2b,3,100269,2,6,38,19,M,NA,constant,heterogeneous,4,present,0.80483603477478,1,horizontal,horizontal,1,8,green,3,2,NaN,NaN,NaN,NaN,NaN,NaN,NaN,NaN,NaN,NaN,NaN,NaN,5,0,4,3,horizontal,vertical,horizontal,vertical
2b,3,100269,2,7,39,19,M,NA,constant,heterogeneous,4,present,1.08924198150635,1,vertical,vertical,1,3,green,4,1,NaN,NaN,NaN,NaN,NaN,NaN,NaN,NaN,NaN,NaN,NaN,NaN,0,5,6,4,vertical,vertical,vertical,vertical
2b,3,100269,2,8,40,19,M,NA,constant,heterogeneous,4,present,1.21100211143494,1,vertical,vertical,1,2,green,4,3,NaN,NaN,NaN,NaN,NaN,NaN,NaN,NaN,NaN,NaN,NaN,NaN,3,0,6,4,vertical,horizontal,horizontal,vertical
2b,3,100269,2,9,41,19,M,NA,constant,heterogeneous,4,present,1.25142884254456,0,vertical,horizontal,1,8,green,2,1,NaN,NaN,NaN,NaN,NaN,NaN,NaN,NaN,NaN,NaN,NaN,NaN,6,4,3,5,horizontal,vertical,vertical,vertical
2b,3,100269,2,10,42,19,M,NA,constant,heterogeneous,4,present,0.992875099182129,1,horizontal,horizontal,1,5,green,3,4,NaN,NaN,NaN,NaN,NaN,NaN,NaN,NaN,NaN,NaN,NaN,NaN,5,0,4,6,vertical,horizontal,horizontal,horizontal
2b,3,100269,2,11,43,19,M,NA,constant,heterogeneous,4,present,0.865007877349854,1,vertical,vertical,1,3,green,2,1,NaN,NaN,NaN,NaN,NaN,NaN,NaN,NaN,NaN,NaN,NaN,NaN,3,4,6,0,horizontal,vertical,vertical,vertical
2b,3,100269,2,12,44,19,M,NA,constant,heterogeneous,4,present,0.762501955032349,1,vertical,vertical,1,2,green,2,1,NaN,NaN,NaN,NaN,NaN,NaN,NaN,NaN,NaN,NaN,NaN,NaN,5,4,3,6,vertical,vertical,vertical,vertical
2b,3,100269,2,13,45,19,M,NA,constant,heterogeneous,4,present,0.734050035476685,1,vertical,vertical,1,2,green,2,1,NaN,NaN,NaN,NaN,NaN,NaN,NaN,NaN,NaN,NaN,NaN,NaN,0,4,3,6,vertical,vertical,vertical,vertical
2b,3,100269,2,14,46,19,M,NA,constant,heterogeneous,4,absent,1.74475502967834,1,vertical,vertical,1,3,green,1,NaN,NaN,NaN,NaN,NaN,NaN,NaN,NaN,NaN,NaN,NaN,NaN,NaN,4,5,0,3,vertical,horizontal,horizontal,vertical
2b,3,100269,2,15,47,19,M,NA,constant,heterogeneous,4,absent,1.36793184280396,0,vertical,horizontal,1,2,green,4,NaN,NaN,NaN,NaN,NaN,NaN,NaN,NaN,NaN,NaN,NaN,NaN,NaN,0,5,6,4,horizontal,vertical,horizontal,vertical
2b,3,100269,2,16,48,19,M,NA,constant,heterogeneous,4,present,1.13563084602356,1,horizontal,horizontal,1,5,green,1,4,NaN,NaN,NaN,NaN,NaN,NaN,NaN,NaN,NaN,NaN,NaN,NaN,4,3,5,0,horizontal,vertical,vertical,vertical
2b,3,100269,2,17,49,19,M,NA,constant,heterogeneous,4,present,1.20256495475769,1,horizontal,horizontal,1,3,green,4,3,NaN,NaN,NaN,NaN,NaN,NaN,NaN,NaN,NaN,NaN,NaN,NaN,5,6,0,4,horizontal,horizontal,vertical,horizontal
2b,3,100269,2,18,50,19,M,NA,constant,heterogeneous,4,absent,1.11080288887024,1,horizontal,horizontal,1,2,green,4,NaN,NaN,NaN,NaN,NaN,NaN,NaN,NaN,NaN,NaN,NaN,NaN,NaN,3,0,5,4,horizontal,horizontal,vertical,horizontal
2b,3,100269,2,19,51,19,M,NA,constant,heterogeneous,4,absent,NaN,0,vertical,none,0,8,green,1,NaN,NaN,NaN,NaN,NaN,NaN,NaN,NaN,NaN,NaN,NaN,NaN,NaN,4,0,6,5,vertical,vertical,vertical,horizontal
2b,3,100269,2,20,52,19,M,NA,constant,heterogeneous,4,absent,1.22139501571655,1,vertical,vertical,1,3,green,1,NaN,NaN,NaN,NaN,NaN,NaN,NaN,NaN,NaN,NaN,NaN,NaN,NaN,4,5,3,0,vertical,vertical,horizontal,horizontal
2b,3,100269,2,21,53,19,M,NA,constant,heterogeneous,4,present,1.15809798240662,1,vertical,vertical,1,5,green,3,2,NaN,NaN,NaN,NaN,NaN,NaN,NaN,NaN,NaN,NaN,NaN,NaN,6,3,4,0,horizontal,vertical,vertical,horizontal
2b,3,100269,2,22,54,19,M,NA,constant,heterogeneous,4,absent,1.20138001441956,1,horizontal,horizontal,1,3,green,1,NaN,NaN,NaN,NaN,NaN,NaN,NaN,NaN,NaN,NaN,NaN,NaN,NaN,4,0,6,5,horizontal,vertical,vertical,vertical
2b,3,100269,2,23,55,19,M,NA,constant,heterogeneous,4,absent,1.58968281745911,1,vertical,vertical,1,2,green,4,NaN,NaN,NaN,NaN,NaN,NaN,NaN,NaN,NaN,NaN,NaN,NaN,NaN,5,3,0,4,horizontal,horizontal,vertical,vertical
2b,3,100269,2,24,56,19,M,NA,constant,heterogeneous,4,present,1.35769104957581,1,vertical,vertical,1,5,green,4,1,NaN,NaN,NaN,NaN,NaN,NaN,NaN,NaN,NaN,NaN,NaN,NaN,3,6,0,4,horizontal,vertical,vertical,vertical
2b,3,100269,2,25,57,19,M,NA,constant,heterogeneous,4,absent,1.33727812767029,1,horizontal,horizontal,1,2,green,2,NaN,NaN,NaN,NaN,NaN,NaN,NaN,NaN,NaN,NaN,NaN,NaN,NaN,0,4,5,6,vertical,horizontal,vertical,vertical
2b,3,100269,2,26,58,19,M,NA,constant,heterogeneous,4,absent,0.99603009223938,1,vertical,vertical,1,5,green,4,NaN,NaN,NaN,NaN,NaN,NaN,NaN,NaN,NaN,NaN,NaN,NaN,NaN,6,0,3,4,horizontal,vertical,horizontal,vertical
2b,3,100269,2,27,59,19,M,NA,constant,heterogeneous,4,absent,1.628249168396,1,vertical,vertical,1,2,green,3,NaN,NaN,NaN,NaN,NaN,NaN,NaN,NaN,NaN,NaN,NaN,NaN,NaN,6,5,4,0,vertical,vertical,vertical,vertical
2b,3,100269,2,28,60,19,M,NA,constant,heterogeneous,4,present,0.729063987731934,1,horizontal,horizontal,1,2,green,3,2,NaN,NaN,NaN,NaN,NaN,NaN,NaN,NaN,NaN,NaN,NaN,NaN,6,3,4,5,vertical,horizontal,horizontal,horizontal
2b,3,100269,2,29,61,19,M,NA,constant,heterogeneous,4,absent,1.58798503875732,1,horizontal,horizontal,1,2,green,3,NaN,NaN,NaN,NaN,NaN,NaN,NaN,NaN,NaN,NaN,NaN,NaN,NaN,0,6,4,3,horizontal,vertical,horizontal,vertical
2b,3,100269,2,30,62,19,M,NA,constant,heterogeneous,4,absent,0.812059164047241,1,horizontal,horizontal,1,3,green,3,NaN,NaN,NaN,NaN,NaN,NaN,NaN,NaN,NaN,NaN,NaN,NaN,NaN,0,3,4,5,horizontal,horizontal,horizontal,horizontal
2b,3,100269,2,31,63,19,M,NA,constant,heterogeneous,4,absent,0.996448993682861,1,horizontal,horizontal,1,8,green,2,NaN,NaN,NaN,NaN,NaN,NaN,NaN,NaN,NaN,NaN,NaN,NaN,NaN,3,4,6,5,horizontal,horizontal,vertical,horizontal
2b,3,100269,2,32,64,19,M,NA,constant,heterogeneous,4,present,1.40454506874084,1,horizontal,horizontal,1,2,green,4,3,NaN,NaN,NaN,NaN,NaN,NaN,NaN,NaN,NaN,NaN,NaN,NaN,0,3,6,4,horizontal,horizontal,vertical,horizontal
2b,3,100269,3,1,65,19,M,NA,constant,heterogeneous,4,present,1.07493591308594,1,horizontal,horizontal,1,3,green,2,1,NaN,NaN,NaN,NaN,NaN,NaN,NaN,NaN,NaN,NaN,NaN,NaN,6,4,5,3,vertical,horizontal,vertical,horizontal
2b,3,100269,3,2,66,19,M,NA,constant,heterogeneous,4,present,1.25685787200928,1,vertical,vertical,1,2,green,3,1,NaN,NaN,NaN,NaN,NaN,NaN,NaN,NaN,NaN,NaN,NaN,NaN,0,5,4,3,horizontal,horizontal,vertical,horizontal
2b,3,100269,3,3,67,19,M,NA,constant,heterogeneous,4,absent,1.07791185379028,1,horizontal,horizontal,1,5,green,3,NaN,NaN,NaN,NaN,NaN,NaN,NaN,NaN,NaN,NaN,NaN,NaN,NaN,0,5,4,6,vertical,vertical,horizontal,horizontal
2b,3,100269,3,4,68,19,M,NA,constant,heterogeneous,4,absent,1.11574006080627,1,horizontal,horizontal,1,2,green,4,NaN,NaN,NaN,NaN,NaN,NaN,NaN,NaN,NaN,NaN,NaN,NaN,NaN,3,0,5,4,vertical,vertical,vertical,horizontal
2b,3,100269,3,5,69,19,M,NA,constant,heterogeneous,4,absent,1.15014982223511,1,vertical,vertical,1,2,green,1,NaN,NaN,NaN,NaN,NaN,NaN,NaN,NaN,NaN,NaN,NaN,NaN,NaN,4,5,6,0,vertical,horizontal,horizontal,horizontal
2b,3,100269,3,6,70,19,M,NA,constant,heterogeneous,4,absent,0.973051071166992,1,vertical,vertical,1,2,green,4,NaN,NaN,NaN,NaN,NaN,NaN,NaN,NaN,NaN,NaN,NaN,NaN,NaN,0,5,6,4,horizontal,horizontal,vertical,vertical
2b,3,100269,3,7,71,19,M,NA,constant,heterogeneous,4,absent,1.06054997444153,1,vertical,vertical,1,5,green,4,NaN,NaN,NaN,NaN,NaN,NaN,NaN,NaN,NaN,NaN,NaN,NaN,NaN,5,0,3,4,vertical,horizontal,horizontal,vertical
2b,3,100269,3,8,72,19,M,NA,constant,heterogeneous,4,present,0.958425998687744,1,horizontal,horizontal,1,5,green,1,3,NaN,NaN,NaN,NaN,NaN,NaN,NaN,NaN,NaN,NaN,NaN,NaN,4,3,0,5,horizontal,vertical,vertical,horizontal
2b,3,100269,3,9,73,19,M,NA,constant,heterogeneous,4,present,0.897692918777466,1,vertical,vertical,1,5,green,4,3,NaN,NaN,NaN,NaN,NaN,NaN,NaN,NaN,NaN,NaN,NaN,NaN,0,6,5,4,horizontal,horizontal,vertical,vertical
2b,3,100269,3,10,74,19,M,NA,constant,heterogeneous,4,present,1.19984698295593,1,vertical,vertical,1,5,green,4,2,NaN,NaN,NaN,NaN,NaN,NaN,NaN,NaN,NaN,NaN,NaN,NaN,3,0,6,4,vertical,vertical,vertical,vertical
2b,3,100269,3,11,75,19,M,NA,constant,heterogeneous,4,absent,0.972170829772949,1,vertical,vertical,1,5,green,3,NaN,NaN,NaN,NaN,NaN,NaN,NaN,NaN,NaN,NaN,NaN,NaN,NaN,3,0,4,5,horizontal,horizontal,vertical,vertical
2b,3,100269,3,12,76,19,M,NA,constant,heterogeneous,4,present,0.971758842468262,1,horizontal,horizontal,1,8,green,2,4,NaN,NaN,NaN,NaN,NaN,NaN,NaN,NaN,NaN,NaN,NaN,NaN,5,4,0,3,horizontal,horizontal,horizontal,vertical
2b,3,100269,3,13,77,19,M,NA,constant,heterogeneous,4,present,1.08372187614441,0,vertical,horizontal,1,2,green,2,3,NaN,NaN,NaN,NaN,NaN,NaN,NaN,NaN,NaN,NaN,NaN,NaN,5,4,6,3,vertical,vertical,vertical,vertical
2b,3,100269,3,14,78,19,M,NA,constant,heterogeneous,4,present,1.38952398300171,1,vertical,vertical,1,3,green,4,2,NaN,NaN,NaN,NaN,NaN,NaN,NaN,NaN,NaN,NaN,NaN,NaN,6,3,5,4,horizontal,vertical,vertical,vertical
2b,3,100269,3,15,79,19,M,NA,constant,heterogeneous,4,present,0.797387838363647,1,horizontal,horizontal,1,3,green,3,4,NaN,NaN,NaN,NaN,NaN,NaN,NaN,NaN,NaN,NaN,NaN,NaN,0,3,4,6,vertical,vertical,horizontal,horizontal
2b,3,100269,3,16,80,19,M,NA,constant,heterogeneous,4,absent,0.981514930725098,1,vertical,vertical,1,3,green,3,NaN,NaN,NaN,NaN,NaN,NaN,NaN,NaN,NaN,NaN,NaN,NaN,NaN,5,6,4,3,vertical,vertical,vertical,horizontal
2b,3,100269,3,17,81,19,M,NA,constant,heterogeneous,4,absent,1.10524296760559,1,horizontal,horizontal,1,3,green,4,NaN,NaN,NaN,NaN,NaN,NaN,NaN,NaN,NaN,NaN,NaN,NaN,NaN,5,3,0,4,vertical,vertical,vertical,horizontal
2b,3,100269,3,18,82,19,M,NA,constant,heterogeneous,4,present,0.899878978729248,1,vertical,vertical,1,2,green,1,3,NaN,NaN,NaN,NaN,NaN,NaN,NaN,NaN,NaN,NaN,NaN,NaN,4,0,6,5,vertical,vertical,vertical,horizontal
2b,3,100269,3,19,83,19,M,NA,constant,heterogeneous,4,present,1.24992394447327,1,horizontal,horizontal,1,5,green,2,4,NaN,NaN,NaN,NaN,NaN,NaN,NaN,NaN,NaN,NaN,NaN,NaN,3,4,0,5,vertical,horizontal,vertical,vertical
2b,3,100269,3,20,84,19,M,NA,constant,heterogeneous,4,absent,1.15907287597656,1,vertical,vertical,1,2,green,4,NaN,NaN,NaN,NaN,NaN,NaN,NaN,NaN,NaN,NaN,NaN,NaN,NaN,6,0,5,4,horizontal,vertical,vertical,vertical
2b,3,100269,3,21,85,19,M,NA,constant,heterogeneous,4,present,1.13041591644287,1,vertical,vertical,1,8,green,4,3,NaN,NaN,NaN,NaN,NaN,NaN,NaN,NaN,NaN,NaN,NaN,NaN,3,5,6,4,horizontal,horizontal,horizontal,vertical
2b,3,100269,3,22,86,19,M,NA,constant,heterogeneous,4,absent,0.949427127838135,1,horizontal,horizontal,1,8,green,3,NaN,NaN,NaN,NaN,NaN,NaN,NaN,NaN,NaN,NaN,NaN,NaN,NaN,5,6,4,3,horizontal,horizontal,horizontal,horizontal
2b,3,100269,3,23,87,19,M,NA,constant,heterogeneous,4,absent,1.29293608665466,1,horizontal,horizontal,1,2,green,1,NaN,NaN,NaN,NaN,NaN,NaN,NaN,NaN,NaN,NaN,NaN,NaN,NaN,4,6,0,5,horizontal,vertical,horizontal,vertical
2b,3,100269,3,24,88,19,M,NA,constant,heterogeneous,4,absent,1.25901198387146,1,vertical,vertical,1,3,green,2,NaN,NaN,NaN,NaN,NaN,NaN,NaN,NaN,NaN,NaN,NaN,NaN,NaN,3,4,5,6,vertical,vertical,vertical,horizontal
2b,3,100269,3,25,89,19,M,NA,constant,heterogeneous,4,present,1.03649282455444,1,vertical,vertical,1,3,green,4,1,NaN,NaN,NaN,NaN,NaN,NaN,NaN,NaN,NaN,NaN,NaN,NaN,0,5,6,4,vertical,horizontal,horizontal,vertical
2b,3,100269,3,26,90,19,M,NA,constant,heterogeneous,4,absent,1.02149295806885,1,horizontal,horizontal,1,5,green,1,NaN,NaN,NaN,NaN,NaN,NaN,NaN,NaN,NaN,NaN,NaN,NaN,NaN,4,0,6,5,horizontal,vertical,vertical,vertical
2b,3,100269,3,27,91,19,M,NA,constant,heterogeneous,4,absent,1.30204892158508,1,horizontal,horizontal,1,3,green,2,NaN,NaN,NaN,NaN,NaN,NaN,NaN,NaN,NaN,NaN,NaN,NaN,NaN,3,4,5,0,horizontal,horizontal,horizontal,vertical
2b,3,100269,3,28,92,19,M,NA,constant,heterogeneous,4,present,0.812552928924561,1,horizontal,horizontal,1,2,green,3,2,NaN,NaN,NaN,NaN,NaN,NaN,NaN,NaN,NaN,NaN,NaN,NaN,0,6,4,5,horizontal,vertical,horizontal,vertical
2b,3,100269,3,29,93,19,M,NA,constant,heterogeneous,4,absent,0.980646133422852,1,horizontal,horizontal,1,2,green,1,NaN,NaN,NaN,NaN,NaN,NaN,NaN,NaN,NaN,NaN,NaN,NaN,NaN,4,5,3,0,horizontal,vertical,horizontal,horizontal
2b,3,100269,3,30,94,19,M,NA,constant,heterogeneous,4,present,0.824640035629272,1,horizontal,horizontal,1,2,green,4,1,NaN,NaN,NaN,NaN,NaN,NaN,NaN,NaN,NaN,NaN,NaN,NaN,6,0,5,4,vertical,horizontal,vertical,horizontal
2b,3,100269,3,31,95,19,M,NA,constant,heterogeneous,4,absent,0.933219909667969,1,vertical,vertical,1,8,green,2,NaN,NaN,NaN,NaN,NaN,NaN,NaN,NaN,NaN,NaN,NaN,NaN,NaN,6,4,5,3,vertical,vertical,vertical,horizontal
2b,3,100269,3,32,96,19,M,NA,constant,heterogeneous,4,present,1.17608785629272,1,horizontal,horizontal,1,2,green,1,4,NaN,NaN,NaN,NaN,NaN,NaN,NaN,NaN,NaN,NaN,NaN,NaN,4,6,5,3,horizontal,horizontal,horizontal,horizontal
2b,3,100269,4,1,97,19,M,NA,constant,heterogeneous,4,absent,1.18687796592712,1,vertical,vertical,1,2,green,2,NaN,NaN,NaN,NaN,NaN,NaN,NaN,NaN,NaN,NaN,NaN,NaN,NaN,3,4,5,0,horizontal,vertical,vertical,horizontal
2b,3,100269,4,2,98,19,M,NA,constant,heterogeneous,4,absent,0.659022092819214,1,vertical,vertical,1,8,green,2,NaN,NaN,NaN,NaN,NaN,NaN,NaN,NaN,NaN,NaN,NaN,NaN,NaN,6,4,0,3,vertical,vertical,vertical,horizontal
2b,3,100269,4,3,99,19,M,NA,constant,heterogeneous,4,present,0.892490863800049,1,horizontal,horizontal,1,3,green,2,3,NaN,NaN,NaN,NaN,NaN,NaN,NaN,NaN,NaN,NaN,NaN,NaN,3,4,5,6,vertical,horizontal,vertical,horizontal
2b,3,100269,4,4,100,19,M,NA,constant,heterogeneous,4,present,0.994363069534302,1,vertical,vertical,1,2,green,1,2,NaN,NaN,NaN,NaN,NaN,NaN,NaN,NaN,NaN,NaN,NaN,NaN,4,3,6,5,vertical,horizontal,vertical,vertical
2b,3,100269,4,5,101,19,M,NA,constant,heterogeneous,4,present,0.866392135620117,1,vertical,vertical,1,5,green,4,3,NaN,NaN,NaN,NaN,NaN,NaN,NaN,NaN,NaN,NaN,NaN,NaN,6,0,5,4,horizontal,horizontal,vertical,vertical
2b,3,100269,4,6,102,19,M,NA,constant,heterogeneous,4,present,1.14805698394775,1,vertical,vertical,1,2,green,2,1,NaN,NaN,NaN,NaN,NaN,NaN,NaN,NaN,NaN,NaN,NaN,NaN,6,4,0,3,vertical,vertical,vertical,horizontal
2b,3,100269,4,7,103,19,M,NA,constant,heterogeneous,4,absent,NaN,0,horizontal,none,0,5,green,4,NaN,NaN,NaN,NaN,NaN,NaN,NaN,NaN,NaN,NaN,NaN,NaN,NaN,5,6,3,4,vertical,horizontal,horizontal,horizontal
2b,3,100269,4,8,104,19,M,NA,constant,heterogeneous,4,present,1.36759495735168,1,horizontal,horizontal,1,2,green,2,1,NaN,NaN,NaN,NaN,NaN,NaN,NaN,NaN,NaN,NaN,NaN,NaN,5,4,0,6,vertical,horizontal,vertical,horizontal
2b,3,100269,4,9,105,19,M,NA,constant,heterogeneous,4,absent,0.935127973556519,1,horizontal,horizontal,1,8,green,1,NaN,NaN,NaN,NaN,NaN,NaN,NaN,NaN,NaN,NaN,NaN,NaN,NaN,4,3,6,5,horizontal,vertical,vertical,vertical
2b,3,100269,4,10,106,19,M,NA,constant,heterogeneous,4,present,1.01823997497559,1,vertical,vertical,1,2,green,2,4,NaN,NaN,NaN,NaN,NaN,NaN,NaN,NaN,NaN,NaN,NaN,NaN,5,4,3,0,horizontal,vertical,vertical,vertical
2b,3,100269,4,11,107,19,M,NA,constant,heterogeneous,4,present,0.770503997802734,1,vertical,vertical,1,3,green,1,4,NaN,NaN,NaN,NaN,NaN,NaN,NaN,NaN,NaN,NaN,NaN,NaN,4,3,0,6,vertical,horizontal,horizontal,horizontal
2b,3,100269,4,12,108,19,M,NA,constant,heterogeneous,4,absent,0.690169811248779,1,vertical,vertical,1,5,green,2,NaN,NaN,NaN,NaN,NaN,NaN,NaN,NaN,NaN,NaN,NaN,NaN,NaN,0,4,5,3,horizontal,vertical,vertical,vertical
2b,3,100269,4,13,109,19,M,NA,constant,heterogeneous,4,present,0.692270040512085,1,horizontal,horizontal,1,3,green,2,3,NaN,NaN,NaN,NaN,NaN,NaN,NaN,NaN,NaN,NaN,NaN,NaN,5,4,6,0,vertical,horizontal,vertical,vertical
2b,3,100269,4,14,110,19,M,NA,constant,heterogeneous,4,present,0.654048919677734,1,horizontal,horizontal,1,2,green,2,4,NaN,NaN,NaN,NaN,NaN,NaN,NaN,NaN,NaN,NaN,NaN,NaN,5,4,0,3,horizontal,horizontal,vertical,vertical
2b,3,100269,4,15,111,19,M,NA,constant,heterogeneous,4,absent,1.31511497497559,1,vertical,vertical,1,5,green,4,NaN,NaN,NaN,NaN,NaN,NaN,NaN,NaN,NaN,NaN,NaN,NaN,NaN,5,3,0,4,horizontal,horizontal,vertical,vertical
2b,3,100269,4,16,112,19,M,NA,constant,heterogeneous,4,absent,1.15772700309753,1,vertical,vertical,1,3,green,3,NaN,NaN,NaN,NaN,NaN,NaN,NaN,NaN,NaN,NaN,NaN,NaN,NaN,5,0,4,3,vertical,horizontal,vertical,horizontal
2b,3,100269,4,17,113,19,M,NA,constant,heterogeneous,4,present,0.953186988830566,1,vertical,vertical,1,8,green,3,4,NaN,NaN,NaN,NaN,NaN,NaN,NaN,NaN,NaN,NaN,NaN,NaN,0,6,4,3,horizontal,horizontal,vertical,horizontal
2b,3,100269,4,18,114,19,M,NA,constant,heterogeneous,4,present,1.37239599227905,1,horizontal,horizontal,1,5,green,3,1,NaN,NaN,NaN,NaN,NaN,NaN,NaN,NaN,NaN,NaN,NaN,NaN,6,0,4,3,horizontal,vertical,horizontal,horizontal
2b,3,100269,4,19,115,19,M,NA,constant,heterogeneous,4,absent,1.24427199363708,1,vertical,vertical,1,2,green,4,NaN,NaN,NaN,NaN,NaN,NaN,NaN,NaN,NaN,NaN,NaN,NaN,NaN,5,3,6,4,vertical,horizontal,vertical,vertical
2b,3,100269,4,20,116,19,M,NA,constant,heterogeneous,4,absent,NaN,0,horizontal,none,0,3,green,1,NaN,NaN,NaN,NaN,NaN,NaN,NaN,NaN,NaN,NaN,NaN,NaN,NaN,4,3,6,5,horizontal,vertical,vertical,horizontal
2b,3,100269,4,21,117,19,M,NA,constant,heterogeneous,4,absent,0.937525033950806,1,horizontal,horizontal,1,2,green,2,NaN,NaN,NaN,NaN,NaN,NaN,NaN,NaN,NaN,NaN,NaN,NaN,NaN,0,4,6,5,vertical,horizontal,horizontal,horizontal
2b,3,100269,4,22,118,19,M,NA,constant,heterogeneous,4,present,1.78057408332825,1,vertical,vertical,1,5,green,4,1,NaN,NaN,NaN,NaN,NaN,NaN,NaN,NaN,NaN,NaN,NaN,NaN,5,0,6,4,horizontal,horizontal,horizontal,vertical
2b,3,100269,4,23,119,19,M,NA,constant,heterogeneous,4,present,1.03233408927917,1,horizontal,horizontal,1,8,green,1,4,NaN,NaN,NaN,NaN,NaN,NaN,NaN,NaN,NaN,NaN,NaN,NaN,4,5,0,6,horizontal,vertical,horizontal,horizontal
2b,3,100269,4,24,120,19,M,NA,constant,heterogeneous,4,absent,0.901147127151489,1,vertical,vertical,1,3,green,2,NaN,NaN,NaN,NaN,NaN,NaN,NaN,NaN,NaN,NaN,NaN,NaN,NaN,6,4,0,5,vertical,vertical,horizontal,horizontal
2b,3,100269,4,25,121,19,M,NA,constant,heterogeneous,4,absent,1.45115900039673,1,horizontal,horizontal,1,2,green,4,NaN,NaN,NaN,NaN,NaN,NaN,NaN,NaN,NaN,NaN,NaN,NaN,NaN,0,3,6,4,horizontal,vertical,horizontal,horizontal
2b,3,100269,4,26,122,19,M,NA,constant,heterogeneous,4,absent,0.960636138916016,1,horizontal,horizontal,1,5,green,3,NaN,NaN,NaN,NaN,NaN,NaN,NaN,NaN,NaN,NaN,NaN,NaN,NaN,5,3,4,0,vertical,horizontal,horizontal,vertical
2b,3,100269,4,27,123,19,M,NA,constant,heterogeneous,4,absent,0.875997066497803,1,horizontal,horizontal,1,2,green,2,NaN,NaN,NaN,NaN,NaN,NaN,NaN,NaN,NaN,NaN,NaN,NaN,NaN,3,4,6,5,horizontal,horizontal,vertical,horizontal
2b,3,100269,4,28,124,19,M,NA,constant,heterogeneous,4,absent,1.40190291404724,1,vertical,vertical,1,2,green,4,NaN,NaN,NaN,NaN,NaN,NaN,NaN,NaN,NaN,NaN,NaN,NaN,NaN,5,6,0,4,vertical,vertical,vertical,vertical
2b,3,100269,4,29,125,19,M,NA,constant,heterogeneous,4,present,1.90994477272034,1,horizontal,horizontal,1,2,green,1,2,NaN,NaN,NaN,NaN,NaN,NaN,NaN,NaN,NaN,NaN,NaN,NaN,4,5,3,6,horizontal,horizontal,horizontal,vertical
2b,3,100269,4,30,126,19,M,NA,constant,heterogeneous,4,present,0.960180044174194,1,horizontal,horizontal,1,5,green,2,1,NaN,NaN,NaN,NaN,NaN,NaN,NaN,NaN,NaN,NaN,NaN,NaN,5,4,3,0,horizontal,horizontal,horizontal,horizontal
2b,3,100269,4,31,127,19,M,NA,constant,heterogeneous,4,absent,1.2997739315033,0,horizontal,vertical,1,3,green,3,NaN,NaN,NaN,NaN,NaN,NaN,NaN,NaN,NaN,NaN,NaN,NaN,NaN,5,0,4,6,vertical,vertical,horizontal,vertical
2b,3,100269,4,32,128,19,M,NA,constant,heterogeneous,4,present,1.39386606216431,1,vertical,vertical,1,3,green,1,2,NaN,NaN,NaN,NaN,NaN,NaN,NaN,NaN,NaN,NaN,NaN,NaN,4,0,5,6,vertical,horizontal,vertical,horizontal
2b,3,100269,5,1,129,19,M,NA,constant,heterogeneous,4,absent,1.01261782646179,1,horizontal,horizontal,1,2,green,4,NaN,NaN,NaN,NaN,NaN,NaN,NaN,NaN,NaN,NaN,NaN,NaN,NaN,5,6,0,4,vertical,vertical,vertical,horizontal
2b,3,100269,5,2,130,19,M,NA,constant,heterogeneous,4,present,1.30917000770569,1,vertical,vertical,1,5,green,1,4,NaN,NaN,NaN,NaN,NaN,NaN,NaN,NaN,NaN,NaN,NaN,NaN,4,6,3,5,vertical,horizontal,vertical,vertical
2b,3,100269,5,3,131,19,M,NA,constant,heterogeneous,4,absent,0.735589027404785,1,horizontal,horizontal,1,3,green,2,NaN,NaN,NaN,NaN,NaN,NaN,NaN,NaN,NaN,NaN,NaN,NaN,NaN,5,4,0,3,vertical,horizontal,horizontal,horizontal
2b,3,100269,5,4,132,19,M,NA,constant,heterogeneous,4,present,0.930564165115356,1,horizontal,horizontal,1,5,green,3,1,NaN,NaN,NaN,NaN,NaN,NaN,NaN,NaN,NaN,NaN,NaN,NaN,5,3,4,6,horizontal,horizontal,horizontal,vertical
2b,3,100269,5,5,133,19,M,NA,constant,heterogeneous,4,present,1.22943782806396,1,vertical,vertical,1,5,green,1,2,NaN,NaN,NaN,NaN,NaN,NaN,NaN,NaN,NaN,NaN,NaN,NaN,4,5,6,3,vertical,vertical,horizontal,vertical
2b,3,100269,5,6,134,19,M,NA,constant,heterogeneous,4,absent,1.35443186759949,0,vertical,horizontal,1,2,green,1,NaN,NaN,NaN,NaN,NaN,NaN,NaN,NaN,NaN,NaN,NaN,NaN,NaN,4,5,6,0,vertical,vertical,horizontal,vertical
2b,3,100269,5,7,135,19,M,NA,constant,heterogeneous,4,absent,0.957560062408447,1,horizontal,horizontal,1,5,green,1,NaN,NaN,NaN,NaN,NaN,NaN,NaN,NaN,NaN,NaN,NaN,NaN,NaN,4,5,0,6,horizontal,horizontal,horizontal,horizontal
2b,3,100269,5,8,136,19,M,NA,constant,heterogeneous,4,present,0.953172922134399,1,vertical,vertical,1,2,green,1,4,NaN,NaN,NaN,NaN,NaN,NaN,NaN,NaN,NaN,NaN,NaN,NaN,4,0,6,5,vertical,horizontal,vertical,horizontal
2b,3,100269,5,9,137,19,M,NA,constant,heterogeneous,4,absent,0.788476943969727,1,vertical,vertical,1,8,green,1,NaN,NaN,NaN,NaN,NaN,NaN,NaN,NaN,NaN,NaN,NaN,NaN,NaN,4,6,3,5,vertical,horizontal,horizontal,horizontal
2b,3,100269,5,10,138,19,M,NA,constant,heterogeneous,4,absent,1.35646986961365,1,vertical,vertical,1,5,green,2,NaN,NaN,NaN,NaN,NaN,NaN,NaN,NaN,NaN,NaN,NaN,NaN,NaN,5,4,3,6,horizontal,vertical,vertical,vertical
2b,3,100269,5,11,139,19,M,NA,constant,heterogeneous,4,present,0.895929098129272,1,horizontal,horizontal,1,5,green,1,3,NaN,NaN,NaN,NaN,NaN,NaN,NaN,NaN,NaN,NaN,NaN,NaN,4,0,6,3,horizontal,vertical,vertical,vertical
2b,3,100269,5,12,140,19,M,NA,constant,heterogeneous,4,present,1.99006605148315,1,horizontal,horizontal,1,2,green,2,4,NaN,NaN,NaN,NaN,NaN,NaN,NaN,NaN,NaN,NaN,NaN,NaN,3,4,0,5,horizontal,horizontal,vertical,horizontal
2b,3,100269,5,13,141,19,M,NA,constant,heterogeneous,4,present,1.07831501960754,1,vertical,vertical,1,2,green,3,4,NaN,NaN,NaN,NaN,NaN,NaN,NaN,NaN,NaN,NaN,NaN,NaN,0,3,4,6,horizontal,horizontal,vertical,horizontal
2b,3,100269,5,14,142,19,M,NA,constant,heterogeneous,4,present,0.979895114898682,1,vertical,vertical,1,3,green,3,1,NaN,NaN,NaN,NaN,NaN,NaN,NaN,NaN,NaN,NaN,NaN,NaN,3,0,4,6,vertical,vertical,vertical,horizontal
2b,3,100269,5,15,143,19,M,NA,constant,heterogeneous,4,absent,1.22367119789124,1,horizontal,horizontal,1,8,green,2,NaN,NaN,NaN,NaN,NaN,NaN,NaN,NaN,NaN,NaN,NaN,NaN,NaN,5,4,6,3,horizontal,horizontal,horizontal,vertical
2b,3,100269,5,16,144,19,M,NA,constant,heterogeneous,4,absent,0.700506925582886,1,horizontal,horizontal,1,3,green,2,NaN,NaN,NaN,NaN,NaN,NaN,NaN,NaN,NaN,NaN,NaN,NaN,NaN,6,4,0,3,vertical,horizontal,horizontal,horizontal
2b,3,100269,5,17,145,19,M,NA,constant,heterogeneous,4,absent,1.20287203788757,1,horizontal,horizontal,1,5,green,3,NaN,NaN,NaN,NaN,NaN,NaN,NaN,NaN,NaN,NaN,NaN,NaN,NaN,6,0,4,3,vertical,vertical,horizontal,vertical
2b,3,100269,5,18,146,19,M,NA,constant,heterogeneous,4,absent,1.32740688323975,1,vertical,vertical,1,5,green,4,NaN,NaN,NaN,NaN,NaN,NaN,NaN,NaN,NaN,NaN,NaN,NaN,NaN,5,0,3,4,horizontal,horizontal,vertical,vertical
2b,3,100269,5,19,147,19,M,NA,constant,heterogeneous,4,present,1.389888048172,1,horizontal,horizontal,1,2,green,1,4,NaN,NaN,NaN,NaN,NaN,NaN,NaN,NaN,NaN,NaN,NaN,NaN,4,3,0,6,horizontal,horizontal,vertical,vertical
2b,3,100269,5,20,148,19,M,NA,constant,heterogeneous,4,present,0.981863021850586,1,horizontal,horizontal,1,8,green,1,4,NaN,NaN,NaN,NaN,NaN,NaN,NaN,NaN,NaN,NaN,NaN,NaN,4,5,0,6,horizontal,vertical,horizontal,vertical
2b,3,100269,5,21,149,19,M,NA,constant,heterogeneous,4,present,1.68194794654846,1,vertical,vertical,1,3,green,3,1,NaN,NaN,NaN,NaN,NaN,NaN,NaN,NaN,NaN,NaN,NaN,NaN,3,0,4,6,vertical,horizontal,vertical,vertical
2b,3,100269,5,22,150,19,M,NA,constant,heterogeneous,4,present,1.37185716629028,1,horizontal,horizontal,1,3,green,4,1,NaN,NaN,NaN,NaN,NaN,NaN,NaN,NaN,NaN,NaN,NaN,NaN,3,5,6,4,horizontal,vertical,horizontal,horizontal
2b,3,100269,5,23,151,19,M,NA,constant,heterogeneous,4,present,1.56352186203003,1,vertical,vertical,1,2,green,3,1,NaN,NaN,NaN,NaN,NaN,NaN,NaN,NaN,NaN,NaN,NaN,NaN,0,3,4,6,vertical,vertical,vertical,vertical
2b,3,100269,5,24,152,19,M,NA,constant,heterogeneous,4,absent,0.963037014007568,1,vertical,vertical,1,2,green,3,NaN,NaN,NaN,NaN,NaN,NaN,NaN,NaN,NaN,NaN,NaN,NaN,NaN,0,3,4,6,horizontal,horizontal,vertical,vertical
2b,3,100269,5,25,153,19,M,NA,constant,heterogeneous,4,absent,1.02226901054382,1,horizontal,horizontal,1,2,green,1,NaN,NaN,NaN,NaN,NaN,NaN,NaN,NaN,NaN,NaN,NaN,NaN,NaN,4,0,5,6,horizontal,vertical,vertical,vertical
2b,3,100269,5,26,154,19,M,NA,constant,heterogeneous,4,absent,1.15508389472961,1,vertical,vertical,1,2,green,1,NaN,NaN,NaN,NaN,NaN,NaN,NaN,NaN,NaN,NaN,NaN,NaN,NaN,4,5,3,6,vertical,horizontal,horizontal,horizontal
2b,3,100269,5,27,155,19,M,NA,constant,heterogeneous,4,absent,1.07843995094299,1,horizontal,horizontal,1,2,green,2,NaN,NaN,NaN,NaN,NaN,NaN,NaN,NaN,NaN,NaN,NaN,NaN,NaN,0,4,5,6,horizontal,horizontal,vertical,horizontal
2b,3,100269,5,28,156,19,M,NA,constant,heterogeneous,4,present,1.42790794372559,1,horizontal,horizontal,1,3,green,2,1,NaN,NaN,NaN,NaN,NaN,NaN,NaN,NaN,NaN,NaN,NaN,NaN,5,4,6,3,horizontal,horizontal,vertical,horizontal
2b,3,100269,5,29,157,19,M,NA,constant,heterogeneous,4,absent,1.56908798217773,1,vertical,vertical,1,3,green,2,NaN,NaN,NaN,NaN,NaN,NaN,NaN,NaN,NaN,NaN,NaN,NaN,NaN,3,4,6,5,vertical,vertical,horizontal,vertical
2b,3,100269,5,30,158,19,M,NA,constant,heterogeneous,4,absent,1.3123140335083,1,vertical,vertical,1,3,green,4,NaN,NaN,NaN,NaN,NaN,NaN,NaN,NaN,NaN,NaN,NaN,NaN,NaN,3,0,6,4,horizontal,horizontal,vertical,vertical
2b,3,100269,5,31,159,19,M,NA,constant,heterogeneous,4,present,0.971055030822754,1,horizontal,horizontal,1,2,green,2,3,NaN,NaN,NaN,NaN,NaN,NaN,NaN,NaN,NaN,NaN,NaN,NaN,6,4,3,5,vertical,horizontal,vertical,vertical
2b,3,100269,5,32,160,19,M,NA,constant,heterogeneous,4,present,1.00254082679749,1,vertical,vertical,1,8,green,3,4,NaN,NaN,NaN,NaN,NaN,NaN,NaN,NaN,NaN,NaN,NaN,NaN,0,5,4,6,vertical,horizontal,vertical,horizontal
2b,3,100269,6,1,161,19,M,NA,constant,heterogeneous,4,present,1.21173214912415,1,vertical,vertical,1,2,green,4,1,NaN,NaN,NaN,NaN,NaN,NaN,NaN,NaN,NaN,NaN,NaN,NaN,0,3,6,4,horizontal,vertical,horizontal,vertical
2b,3,100269,6,2,162,19,M,NA,constant,heterogeneous,4,present,0.828490018844604,1,vertical,vertical,1,5,green,1,4,NaN,NaN,NaN,NaN,NaN,NaN,NaN,NaN,NaN,NaN,NaN,NaN,4,6,0,5,vertical,vertical,vertical,vertical
2b,3,100269,6,3,163,19,M,NA,constant,heterogeneous,4,present,1.15305399894714,1,horizontal,horizontal,1,5,green,4,1,NaN,NaN,NaN,NaN,NaN,NaN,NaN,NaN,NaN,NaN,NaN,NaN,6,3,5,4,horizontal,horizontal,horizontal,horizontal
2b,3,100269,6,4,164,19,M,NA,constant,heterogeneous,4,present,0.884603023529053,1,vertical,vertical,1,2,green,4,1,NaN,NaN,NaN,NaN,NaN,NaN,NaN,NaN,NaN,NaN,NaN,NaN,5,3,6,4,vertical,vertical,horizontal,vertical
2b,3,100269,6,5,165,19,M,NA,constant,heterogeneous,4,absent,1.22207307815552,1,horizontal,horizontal,1,2,green,1,NaN,NaN,NaN,NaN,NaN,NaN,NaN,NaN,NaN,NaN,NaN,NaN,NaN,4,6,3,0,horizontal,horizontal,horizontal,horizontal
2b,3,100269,6,6,166,19,M,NA,constant,heterogeneous,4,present,0.963180065155029,1,vertical,vertical,1,2,green,1,4,NaN,NaN,NaN,NaN,NaN,NaN,NaN,NaN,NaN,NaN,NaN,NaN,4,6,0,5,vertical,horizontal,vertical,horizontal
2b,3,100269,6,7,167,19,M,NA,constant,heterogeneous,4,present,0.854182958602905,1,vertical,vertical,1,3,green,2,1,NaN,NaN,NaN,NaN,NaN,NaN,NaN,NaN,NaN,NaN,NaN,NaN,6,4,0,3,vertical,vertical,horizontal,vertical
2b,3,100269,6,8,168,19,M,NA,constant,heterogeneous,4,absent,1.28388500213623,1,horizontal,horizontal,1,3,green,4,NaN,NaN,NaN,NaN,NaN,NaN,NaN,NaN,NaN,NaN,NaN,NaN,NaN,0,6,3,4,horizontal,vertical,vertical,horizontal
2b,3,100269,6,9,169,19,M,NA,constant,heterogeneous,4,present,0.917746067047119,1,horizontal,horizontal,1,2,green,3,1,NaN,NaN,NaN,NaN,NaN,NaN,NaN,NaN,NaN,NaN,NaN,NaN,5,3,4,0,horizontal,horizontal,horizontal,horizontal
2b,3,100269,6,10,170,19,M,NA,constant,heterogeneous,4,absent,0.884427070617676,1,vertical,vertical,1,2,green,1,NaN,NaN,NaN,NaN,NaN,NaN,NaN,NaN,NaN,NaN,NaN,NaN,NaN,4,3,0,5,vertical,horizontal,horizontal,vertical
2b,3,100269,6,11,171,19,M,NA,constant,heterogeneous,4,present,1.02231001853943,0,horizontal,vertical,1,3,green,4,1,NaN,NaN,NaN,NaN,NaN,NaN,NaN,NaN,NaN,NaN,NaN,NaN,3,5,6,4,horizontal,horizontal,horizontal,horizontal
2b,3,100269,6,12,172,19,M,NA,constant,heterogeneous,4,absent,0.971044778823853,1,horizontal,horizontal,1,5,green,1,NaN,NaN,NaN,NaN,NaN,NaN,NaN,NaN,NaN,NaN,NaN,NaN,NaN,4,3,0,5,horizontal,vertical,vertical,horizontal
2b,3,100269,6,13,173,19,M,NA,constant,heterogeneous,4,absent,0.770663022994995,1,vertical,vertical,1,3,green,1,NaN,NaN,NaN,NaN,NaN,NaN,NaN,NaN,NaN,NaN,NaN,NaN,NaN,4,3,6,5,vertical,horizontal,vertical,vertical
2b,3,100269,6,14,174,19,M,NA,constant,heterogeneous,4,absent,0.930302858352661,1,vertical,vertical,1,3,green,1,NaN,NaN,NaN,NaN,NaN,NaN,NaN,NaN,NaN,NaN,NaN,NaN,NaN,4,5,0,6,vertical,vertical,horizontal,horizontal
2b,3,100269,6,15,175,19,M,NA,constant,heterogeneous,4,present,1.15699911117554,0,vertical,horizontal,1,8,green,2,1,NaN,NaN,NaN,NaN,NaN,NaN,NaN,NaN,NaN,NaN,NaN,NaN,6,4,3,0,vertical,vertical,horizontal,vertical
2b,3,100269,6,16,176,19,M,NA,constant,heterogeneous,4,present,0.992417097091675,1,horizontal,horizontal,1,3,green,2,1,NaN,NaN,NaN,NaN,NaN,NaN,NaN,NaN,NaN,NaN,NaN,NaN,5,4,3,0,horizontal,horizontal,horizontal,horizontal
2b,3,100269,6,17,177,19,M,NA,constant,heterogeneous,4,absent,1.24052405357361,1,horizontal,horizontal,1,2,green,2,NaN,NaN,NaN,NaN,NaN,NaN,NaN,NaN,NaN,NaN,NaN,NaN,NaN,6,4,0,3,horizontal,horizontal,horizontal,vertical
2b,3,100269,6,18,178,19,M,NA,constant,heterogeneous,4,absent,1.16938090324402,1,vertical,vertical,1,5,green,4,NaN,NaN,NaN,NaN,NaN,NaN,NaN,NaN,NaN,NaN,NaN,NaN,NaN,6,0,3,4,vertical,horizontal,horizontal,vertical
2b,3,100269,6,19,179,19,M,NA,constant,heterogeneous,4,present,1.16119694709778,1,horizontal,horizontal,1,8,green,1,2,NaN,NaN,NaN,NaN,NaN,NaN,NaN,NaN,NaN,NaN,NaN,NaN,4,5,0,3,horizontal,vertical,vertical,horizontal
2b,3,100269,6,20,180,19,M,NA,constant,heterogeneous,4,absent,1.14853596687317,1,vertical,vertical,1,8,green,4,NaN,NaN,NaN,NaN,NaN,NaN,NaN,NaN,NaN,NaN,NaN,NaN,NaN,3,6,5,4,horizontal,horizontal,vertical,vertical
2b,3,100269,6,21,181,19,M,NA,constant,heterogeneous,4,absent,1.32399797439575,1,horizontal,horizontal,1,8,green,2,NaN,NaN,NaN,NaN,NaN,NaN,NaN,NaN,NaN,NaN,NaN,NaN,NaN,3,4,5,0,horizontal,horizontal,vertical,horizontal
2b,3,100269,6,22,182,19,M,NA,constant,heterogeneous,4,absent,1.72270607948303,1,horizontal,horizontal,1,2,green,4,NaN,NaN,NaN,NaN,NaN,NaN,NaN,NaN,NaN,NaN,NaN,NaN,NaN,6,5,0,4,horizontal,horizontal,horizontal,horizontal
2b,3,100269,6,23,183,19,M,NA,constant,heterogeneous,4,absent,0.929231882095337,1,horizontal,horizontal,1,3,green,3,NaN,NaN,NaN,NaN,NaN,NaN,NaN,NaN,NaN,NaN,NaN,NaN,NaN,0,6,4,5,horizontal,horizontal,horizontal,horizontal
2b,3,100269,6,24,184,19,M,NA,constant,heterogeneous,4,absent,1.24429988861084,1,vertical,vertical,1,5,green,4,NaN,NaN,NaN,NaN,NaN,NaN,NaN,NaN,NaN,NaN,NaN,NaN,NaN,0,5,6,4,vertical,vertical,vertical,vertical
2b,3,100269,6,25,185,19,M,NA,constant,heterogeneous,4,absent,1.36509299278259,1,horizontal,horizontal,1,5,green,1,NaN,NaN,NaN,NaN,NaN,NaN,NaN,NaN,NaN,NaN,NaN,NaN,NaN,4,6,0,3,horizontal,vertical,vertical,horizontal
2b,3,100269,6,26,186,19,M,NA,constant,heterogeneous,4,absent,1.98894786834717,1,vertical,vertical,1,2,green,3,NaN,NaN,NaN,NaN,NaN,NaN,NaN,NaN,NaN,NaN,NaN,NaN,NaN,6,5,4,3,horizontal,horizontal,vertical,vertical
2b,3,100269,6,27,187,19,M,NA,constant,heterogeneous,4,present,1.62089109420776,1,horizontal,horizontal,1,2,green,1,3,NaN,NaN,NaN,NaN,NaN,NaN,NaN,NaN,NaN,NaN,NaN,NaN,4,0,5,3,horizontal,horizontal,horizontal,horizontal
2b,3,100269,6,28,188,19,M,NA,constant,heterogeneous,4,present,0.837707996368408,1,horizontal,horizontal,1,5,green,2,3,NaN,NaN,NaN,NaN,NaN,NaN,NaN,NaN,NaN,NaN,NaN,NaN,5,4,3,0,horizontal,horizontal,vertical,vertical
2b,3,100269,6,29,189,19,M,NA,constant,heterogeneous,4,absent,NaN,0,vertical,none,0,2,green,2,NaN,NaN,NaN,NaN,NaN,NaN,NaN,NaN,NaN,NaN,NaN,NaN,NaN,0,4,3,5,vertical,vertical,vertical,horizontal
2b,3,100269,6,30,190,19,M,NA,constant,heterogeneous,4,present,0.946850061416626,1,vertical,vertical,1,5,green,3,2,NaN,NaN,NaN,NaN,NaN,NaN,NaN,NaN,NaN,NaN,NaN,NaN,6,3,4,5,horizontal,horizontal,vertical,vertical
2b,3,100269,6,31,191,19,M,NA,constant,heterogeneous,4,present,1.97805404663086,1,horizontal,horizontal,1,2,green,3,2,NaN,NaN,NaN,NaN,NaN,NaN,NaN,NaN,NaN,NaN,NaN,NaN,5,3,4,0,vertical,vertical,horizontal,vertical
2b,3,100269,6,32,192,19,M,NA,constant,heterogeneous,4,present,1.53375911712646,1,vertical,vertical,1,3,green,1,2,NaN,NaN,NaN,NaN,NaN,NaN,NaN,NaN,NaN,NaN,NaN,NaN,4,3,6,5,vertical,vertical,horizontal,horizontal
2b,3,100269,7,1,193,19,M,NA,constant,heterogeneous,4,present,1.33763408660889,0,vertical,horizontal,1,5,green,3,1,NaN,NaN,NaN,NaN,NaN,NaN,NaN,NaN,NaN,NaN,NaN,NaN,0,6,4,3,horizontal,vertical,vertical,horizontal
2b,3,100269,7,2,194,19,M,NA,constant,heterogeneous,4,absent,0.796637058258057,1,vertical,vertical,1,8,green,3,NaN,NaN,NaN,NaN,NaN,NaN,NaN,NaN,NaN,NaN,NaN,NaN,NaN,0,3,4,5,vertical,horizontal,vertical,vertical
2b,3,100269,7,3,195,19,M,NA,constant,heterogeneous,4,absent,1.23681592941284,1,horizontal,horizontal,1,5,green,1,NaN,NaN,NaN,NaN,NaN,NaN,NaN,NaN,NaN,NaN,NaN,NaN,NaN,4,0,5,6,horizontal,horizontal,horizontal,horizontal
2b,3,100269,7,4,196,19,M,NA,constant,heterogeneous,4,present,0.821838855743408,1,vertical,vertical,1,2,green,2,4,NaN,NaN,NaN,NaN,NaN,NaN,NaN,NaN,NaN,NaN,NaN,NaN,5,4,0,3,vertical,vertical,horizontal,vertical
2b,3,100269,7,5,197,19,M,NA,constant,heterogeneous,4,present,0.670500993728638,1,vertical,vertical,1,2,green,2,4,NaN,NaN,NaN,NaN,NaN,NaN,NaN,NaN,NaN,NaN,NaN,NaN,5,4,0,6,horizontal,vertical,vertical,horizontal
2b,3,100269,7,6,198,19,M,NA,constant,heterogeneous,4,absent,0.603894948959351,0,horizontal,vertical,1,3,green,2,NaN,NaN,NaN,NaN,NaN,NaN,NaN,NaN,NaN,NaN,NaN,NaN,NaN,5,4,0,3,vertical,horizontal,horizontal,horizontal
2b,3,100269,7,7,199,19,M,NA,constant,heterogeneous,4,present,0.816407918930054,1,horizontal,horizontal,1,5,green,4,1,NaN,NaN,NaN,NaN,NaN,NaN,NaN,NaN,NaN,NaN,NaN,NaN,0,5,3,4,horizontal,horizontal,vertical,horizontal
2b,3,100269,7,8,200,19,M,NA,constant,heterogeneous,4,absent,1.81703400611877,1,vertical,vertical,1,2,green,2,NaN,NaN,NaN,NaN,NaN,NaN,NaN,NaN,NaN,NaN,NaN,NaN,NaN,3,4,6,0,horizontal,vertical,vertical,horizontal
2b,3,100269,7,9,201,19,M,NA,constant,heterogeneous,4,present,0.993350028991699,1,horizontal,horizontal,1,5,green,2,3,NaN,NaN,NaN,NaN,NaN,NaN,NaN,NaN,NaN,NaN,NaN,NaN,3,4,6,5,vertical,horizontal,horizontal,horizontal
2b,3,100269,7,10,202,19,M,NA,constant,heterogeneous,4,present,1.50567889213562,1,vertical,vertical,1,3,green,2,1,NaN,NaN,NaN,NaN,NaN,NaN,NaN,NaN,NaN,NaN,NaN,NaN,0,4,5,3,horizontal,vertical,horizontal,vertical
2b,3,100269,7,11,203,19,M,NA,constant,heterogeneous,4,present,0.804075002670288,1,horizontal,horizontal,1,2,green,2,1,NaN,NaN,NaN,NaN,NaN,NaN,NaN,NaN,NaN,NaN,NaN,NaN,6,4,0,3,horizontal,horizontal,vertical,horizontal
2b,3,100269,7,12,204,19,M,NA,constant,heterogeneous,4,present,1.16817212104797,1,vertical,vertical,1,3,green,4,2,NaN,NaN,NaN,NaN,NaN,NaN,NaN,NaN,NaN,NaN,NaN,NaN,5,3,0,4,horizontal,horizontal,horizontal,vertical
2b,3,100269,7,13,205,19,M,NA,constant,heterogeneous,4,present,1.72769808769226,1,vertical,vertical,1,5,green,1,4,NaN,NaN,NaN,NaN,NaN,NaN,NaN,NaN,NaN,NaN,NaN,NaN,4,0,6,3,vertical,vertical,vertical,horizontal
2b,3,100269,7,14,206,19,M,NA,constant,heterogeneous,4,absent,NaN,0,horizontal,none,0,2,green,1,NaN,NaN,NaN,NaN,NaN,NaN,NaN,NaN,NaN,NaN,NaN,NaN,NaN,4,5,0,3,horizontal,vertical,vertical,horizontal
2b,3,100269,7,15,207,19,M,NA,constant,heterogeneous,4,absent,1.65891408920288,1,vertical,vertical,1,5,green,1,NaN,NaN,NaN,NaN,NaN,NaN,NaN,NaN,NaN,NaN,NaN,NaN,NaN,4,6,5,0,vertical,vertical,horizontal,vertical
2b,3,100269,7,16,208,19,M,NA,constant,heterogeneous,4,present,1.21214818954468,1,horizontal,horizontal,1,3,green,3,2,NaN,NaN,NaN,NaN,NaN,NaN,NaN,NaN,NaN,NaN,NaN,NaN,0,5,4,6,horizontal,horizontal,horizontal,vertical
2b,3,100269,7,17,209,19,M,NA,constant,heterogeneous,4,absent,NaN,0,horizontal,none,0,2,green,3,NaN,NaN,NaN,NaN,NaN,NaN,NaN,NaN,NaN,NaN,NaN,NaN,NaN,3,6,4,0,vertical,horizontal,horizontal,vertical
2b,3,100269,7,18,210,19,M,NA,constant,heterogeneous,4,present,NaN,0,horizontal,none,0,2,green,2,1,NaN,NaN,NaN,NaN,NaN,NaN,NaN,NaN,NaN,NaN,NaN,NaN,6,4,5,0,vertical,horizontal,vertical,horizontal
2b,3,100269,7,19,211,19,M,NA,constant,heterogeneous,4,absent,1.39746379852295,1,vertical,vertical,1,5,green,4,NaN,NaN,NaN,NaN,NaN,NaN,NaN,NaN,NaN,NaN,NaN,NaN,NaN,3,6,5,4,horizontal,horizontal,horizontal,vertical
2b,3,100269,7,20,212,19,M,NA,constant,heterogeneous,4,absent,1.29359292984009,1,horizontal,horizontal,1,8,green,4,NaN,NaN,NaN,NaN,NaN,NaN,NaN,NaN,NaN,NaN,NaN,NaN,NaN,6,3,0,4,horizontal,horizontal,vertical,horizontal
2b,3,100269,7,21,213,19,M,NA,constant,heterogeneous,4,absent,1.13185095787048,1,horizontal,horizontal,1,3,green,1,NaN,NaN,NaN,NaN,NaN,NaN,NaN,NaN,NaN,NaN,NaN,NaN,NaN,4,0,3,6,horizontal,vertical,horizontal,vertical
2b,3,100269,7,22,214,19,M,NA,constant,heterogeneous,4,absent,1.66276383399963,1,horizontal,horizontal,1,5,green,4,NaN,NaN,NaN,NaN,NaN,NaN,NaN,NaN,NaN,NaN,NaN,NaN,NaN,0,3,6,4,horizontal,vertical,vertical,horizontal
2b,3,100269,7,23,215,19,M,NA,constant,heterogeneous,4,present,1.33649110794067,1,horizontal,horizontal,1,2,green,1,2,NaN,NaN,NaN,NaN,NaN,NaN,NaN,NaN,NaN,NaN,NaN,NaN,4,6,5,3,horizontal,horizontal,vertical,vertical
2b,3,100269,7,24,216,19,M,NA,constant,heterogeneous,4,present,0.931286811828613,1,horizontal,horizontal,1,3,green,3,4,NaN,NaN,NaN,NaN,NaN,NaN,NaN,NaN,NaN,NaN,NaN,NaN,5,0,4,6,vertical,horizontal,horizontal,vertical
2b,3,100269,7,25,217,19,M,NA,constant,heterogeneous,4,absent,1.03830695152283,1,vertical,vertical,1,3,green,4,NaN,NaN,NaN,NaN,NaN,NaN,NaN,NaN,NaN,NaN,NaN,NaN,NaN,5,3,6,4,horizontal,horizontal,horizontal,vertical
2b,3,100269,7,26,218,19,M,NA,constant,heterogeneous,4,absent,0.863127946853638,1,vertical,vertical,1,3,green,3,NaN,NaN,NaN,NaN,NaN,NaN,NaN,NaN,NaN,NaN,NaN,NaN,NaN,3,5,4,0,horizontal,horizontal,vertical,horizontal
2b,3,100269,7,27,219,19,M,NA,constant,heterogeneous,4,present,1.24056816101074,1,horizontal,horizontal,1,8,green,3,2,NaN,NaN,NaN,NaN,NaN,NaN,NaN,NaN,NaN,NaN,NaN,NaN,6,3,4,5,horizontal,horizontal,horizontal,vertical
2b,3,100269,7,28,220,19,M,NA,constant,heterogeneous,4,absent,1.32156491279602,1,vertical,vertical,1,2,green,3,NaN,NaN,NaN,NaN,NaN,NaN,NaN,NaN,NaN,NaN,NaN,NaN,NaN,6,0,4,5,vertical,horizontal,vertical,horizontal
2b,3,100269,7,29,221,19,M,NA,constant,heterogeneous,4,absent,1.30427694320679,1,horizontal,horizontal,1,2,green,1,NaN,NaN,NaN,NaN,NaN,NaN,NaN,NaN,NaN,NaN,NaN,NaN,NaN,4,3,6,0,horizontal,vertical,vertical,vertical
2b,3,100269,7,30,222,19,M,NA,constant,heterogeneous,4,present,1.3426501750946,0,vertical,horizontal,1,8,green,2,4,NaN,NaN,NaN,NaN,NaN,NaN,NaN,NaN,NaN,NaN,NaN,NaN,6,4,3,0,horizontal,vertical,vertical,vertical
2b,3,100269,7,31,223,19,M,NA,constant,heterogeneous,4,present,1.70138216018677,1,vertical,vertical,1,2,green,1,3,NaN,NaN,NaN,NaN,NaN,NaN,NaN,NaN,NaN,NaN,NaN,NaN,4,5,3,6,vertical,vertical,vertical,vertical
2b,3,100269,7,32,224,19,M,NA,constant,heterogeneous,4,absent,1.21174287796021,1,vertical,vertical,1,2,green,2,NaN,NaN,NaN,NaN,NaN,NaN,NaN,NaN,NaN,NaN,NaN,NaN,NaN,3,4,6,0,vertical,vertical,horizontal,vertical
2b,3,100269,8,1,225,19,M,NA,constant,heterogeneous,4,absent,1.08325600624084,1,horizontal,horizontal,1,5,green,1,NaN,NaN,NaN,NaN,NaN,NaN,NaN,NaN,NaN,NaN,NaN,NaN,NaN,4,6,5,0,horizontal,horizontal,vertical,horizontal
2b,3,100269,8,2,226,19,M,NA,constant,heterogeneous,4,absent,0.941154003143311,1,horizontal,horizontal,1,3,green,4,NaN,NaN,NaN,NaN,NaN,NaN,NaN,NaN,NaN,NaN,NaN,NaN,NaN,0,5,3,4,vertical,vertical,vertical,horizontal
2b,3,100269,8,3,227,19,M,NA,constant,heterogeneous,4,present,0.996363878250122,1,vertical,vertical,1,2,green,4,1,NaN,NaN,NaN,NaN,NaN,NaN,NaN,NaN,NaN,NaN,NaN,NaN,5,3,6,4,horizontal,horizontal,horizontal,vertical
2b,3,100269,8,4,228,19,M,NA,constant,heterogeneous,4,present,1.076416015625,1,vertical,vertical,1,5,green,1,2,NaN,NaN,NaN,NaN,NaN,NaN,NaN,NaN,NaN,NaN,NaN,NaN,4,5,0,3,vertical,vertical,vertical,horizontal
2b,3,100269,8,5,229,19,M,NA,constant,heterogeneous,4,present,0.874143123626709,1,horizontal,horizontal,1,8,green,3,4,NaN,NaN,NaN,NaN,NaN,NaN,NaN,NaN,NaN,NaN,NaN,NaN,0,5,4,3,vertical,vertical,horizontal,vertical
2b,3,100269,8,6,230,19,M,NA,constant,heterogeneous,4,absent,1.24801301956177,1,horizontal,horizontal,1,3,green,2,NaN,NaN,NaN,NaN,NaN,NaN,NaN,NaN,NaN,NaN,NaN,NaN,NaN,6,4,3,0,horizontal,horizontal,horizontal,vertical
2b,3,100269,8,7,231,19,M,NA,constant,heterogeneous,4,absent,1.22920203208923,1,vertical,vertical,1,5,green,2,NaN,NaN,NaN,NaN,NaN,NaN,NaN,NaN,NaN,NaN,NaN,NaN,NaN,5,4,6,0,horizontal,vertical,vertical,horizontal
2b,3,100269,8,8,232,19,M,NA,constant,heterogeneous,4,present,0.858227014541626,1,horizontal,horizontal,1,2,green,2,1,NaN,NaN,NaN,NaN,NaN,NaN,NaN,NaN,NaN,NaN,NaN,NaN,6,4,5,0,vertical,horizontal,vertical,vertical
2b,3,100269,8,9,233,19,M,NA,constant,heterogeneous,4,absent,1.1876540184021,1,vertical,vertical,1,2,green,4,NaN,NaN,NaN,NaN,NaN,NaN,NaN,NaN,NaN,NaN,NaN,NaN,NaN,3,5,0,4,vertical,horizontal,horizontal,vertical
2b,3,100269,8,10,234,19,M,NA,constant,heterogeneous,4,present,1.19545102119446,1,horizontal,horizontal,1,5,green,4,3,NaN,NaN,NaN,NaN,NaN,NaN,NaN,NaN,NaN,NaN,NaN,NaN,0,5,3,4,horizontal,horizontal,horizontal,horizontal
2b,3,100269,8,11,235,19,M,NA,constant,heterogeneous,4,present,NaN,0,vertical,none,0,8,green,4,2,NaN,NaN,NaN,NaN,NaN,NaN,NaN,NaN,NaN,NaN,NaN,NaN,5,3,6,4,vertical,vertical,vertical,vertical
2b,3,100269,8,12,236,19,M,NA,constant,heterogeneous,4,absent,0.871818065643311,1,vertical,vertical,1,3,green,1,NaN,NaN,NaN,NaN,NaN,NaN,NaN,NaN,NaN,NaN,NaN,NaN,NaN,4,5,0,6,vertical,horizontal,horizontal,vertical
2b,3,100269,8,13,237,19,M,NA,constant,heterogeneous,4,absent,1.56579494476318,1,vertical,vertical,1,5,green,4,NaN,NaN,NaN,NaN,NaN,NaN,NaN,NaN,NaN,NaN,NaN,NaN,NaN,6,3,5,4,vertical,vertical,vertical,vertical
2b,3,100269,8,14,238,19,M,NA,constant,heterogeneous,4,present,1.26954388618469,1,horizontal,horizontal,1,2,green,4,1,NaN,NaN,NaN,NaN,NaN,NaN,NaN,NaN,NaN,NaN,NaN,NaN,0,6,5,4,horizontal,horizontal,horizontal,horizontal
2b,3,100269,8,15,239,19,M,NA,constant,heterogeneous,4,absent,1.49901795387268,1,horizontal,horizontal,1,5,green,1,NaN,NaN,NaN,NaN,NaN,NaN,NaN,NaN,NaN,NaN,NaN,NaN,NaN,4,0,3,5,horizontal,vertical,horizontal,horizontal
2b,3,100269,8,16,240,19,M,NA,constant,heterogeneous,4,present,0.849054098129272,1,horizontal,horizontal,1,3,green,3,2,NaN,NaN,NaN,NaN,NaN,NaN,NaN,NaN,NaN,NaN,NaN,NaN,3,6,4,0,horizontal,vertical,horizontal,horizontal
2b,3,100269,8,17,241,19,M,NA,constant,heterogeneous,4,present,1.10241389274597,0,vertical,horizontal,1,5,green,4,3,NaN,NaN,NaN,NaN,NaN,NaN,NaN,NaN,NaN,NaN,NaN,NaN,5,3,0,4,vertical,horizontal,vertical,vertical
2b,3,100269,8,18,242,19,M,NA,constant,heterogeneous,4,absent,1.18867802619934,0,vertical,horizontal,1,3,green,3,NaN,NaN,NaN,NaN,NaN,NaN,NaN,NaN,NaN,NaN,NaN,NaN,NaN,6,0,4,3,horizontal,vertical,vertical,horizontal
2b,3,100269,8,19,243,19,M,NA,constant,heterogeneous,4,absent,1.79670286178589,1,vertical,vertical,1,2,green,1,NaN,NaN,NaN,NaN,NaN,NaN,NaN,NaN,NaN,NaN,NaN,NaN,NaN,4,3,6,0,vertical,vertical,vertical,horizontal
2b,3,100269,8,20,244,19,M,NA,constant,heterogeneous,4,absent,1.75710511207581,1,vertical,vertical,1,2,green,2,NaN,NaN,NaN,NaN,NaN,NaN,NaN,NaN,NaN,NaN,NaN,NaN,NaN,5,4,3,0,vertical,vertical,vertical,vertical
2b,3,100269,8,21,245,19,M,NA,constant,heterogeneous,4,present,1.31218099594116,1,vertical,vertical,1,3,green,4,3,NaN,NaN,NaN,NaN,NaN,NaN,NaN,NaN,NaN,NaN,NaN,NaN,5,6,3,4,vertical,vertical,horizontal,vertical
2b,3,100269,8,22,246,19,M,NA,constant,heterogeneous,4,present,1.01075291633606,1,horizontal,horizontal,1,3,green,2,1,NaN,NaN,NaN,NaN,NaN,NaN,NaN,NaN,NaN,NaN,NaN,NaN,3,4,6,0,horizontal,horizontal,vertical,vertical
2b,3,100269,8,23,247,19,M,NA,constant,heterogeneous,4,absent,1.33098292350769,1,horizontal,horizontal,1,2,green,1,NaN,NaN,NaN,NaN,NaN,NaN,NaN,NaN,NaN,NaN,NaN,NaN,NaN,4,6,3,0,horizontal,vertical,vertical,vertical
2b,3,100269,8,24,248,19,M,NA,constant,heterogeneous,4,present,1.82204604148865,0,horizontal,vertical,1,5,green,2,1,NaN,NaN,NaN,NaN,NaN,NaN,NaN,NaN,NaN,NaN,NaN,NaN,3,4,5,0,horizontal,horizontal,horizontal,horizontal
2b,3,100269,8,25,249,19,M,NA,constant,heterogeneous,4,absent,1.55481219291687,1,horizontal,horizontal,1,2,green,1,NaN,NaN,NaN,NaN,NaN,NaN,NaN,NaN,NaN,NaN,NaN,NaN,NaN,4,6,5,0,horizontal,horizontal,vertical,vertical
2b,3,100269,8,26,250,19,M,NA,constant,heterogeneous,4,present,NaN,0,vertical,none,0,2,green,1,4,NaN,NaN,NaN,NaN,NaN,NaN,NaN,NaN,NaN,NaN,NaN,NaN,4,3,6,5,vertical,vertical,vertical,vertical
2b,3,100269,8,27,251,19,M,NA,constant,heterogeneous,4,present,1.54651093482971,1,vertical,vertical,1,2,green,2,1,NaN,NaN,NaN,NaN,NaN,NaN,NaN,NaN,NaN,NaN,NaN,NaN,0,4,3,6,horizontal,vertical,vertical,vertical
2b,3,100269,8,28,252,19,M,NA,constant,heterogeneous,4,absent,0.793843030929565,1,horizontal,horizontal,1,2,green,3,NaN,NaN,NaN,NaN,NaN,NaN,NaN,NaN,NaN,NaN,NaN,NaN,NaN,3,6,4,0,vertical,horizontal,horizontal,horizontal
2b,3,100269,8,29,253,19,M,NA,constant,heterogeneous,4,absent,1.0018630027771,1,vertical,vertical,1,8,green,2,NaN,NaN,NaN,NaN,NaN,NaN,NaN,NaN,NaN,NaN,NaN,NaN,NaN,3,4,6,0,vertical,vertical,vertical,horizontal
2b,3,100269,8,30,254,19,M,NA,constant,heterogeneous,4,present,1.42203497886658,1,vertical,vertical,1,3,green,2,4,NaN,NaN,NaN,NaN,NaN,NaN,NaN,NaN,NaN,NaN,NaN,NaN,3,4,6,0,vertical,vertical,vertical,horizontal
2b,3,100269,8,31,255,19,M,NA,constant,heterogeneous,4,present,1.21900320053101,1,horizontal,horizontal,1,2,green,1,3,NaN,NaN,NaN,NaN,NaN,NaN,NaN,NaN,NaN,NaN,NaN,NaN,4,5,3,6,horizontal,vertical,vertical,vertical
2b,3,100269,8,32,256,19,M,NA,constant,heterogeneous,4,absent,1.01926302909851,1,horizontal,horizontal,1,8,green,2,NaN,NaN,NaN,NaN,NaN,NaN,NaN,NaN,NaN,NaN,NaN,NaN,NaN,0,4,6,3,vertical,horizontal,horizontal,horizontal
2b,3,100269,9,1,257,19,M,NA,constant,heterogeneous,4,present,1.06724190711975,1,horizontal,horizontal,1,2,green,2,1,NaN,NaN,NaN,NaN,NaN,NaN,NaN,NaN,NaN,NaN,NaN,NaN,0,4,3,6,vertical,horizontal,horizontal,vertical
2b,3,100269,9,2,258,19,M,NA,constant,heterogeneous,4,absent,0.876548051834106,1,vertical,vertical,1,2,green,1,NaN,NaN,NaN,NaN,NaN,NaN,NaN,NaN,NaN,NaN,NaN,NaN,NaN,4,6,5,3,vertical,horizontal,vertical,horizontal
2b,3,100269,9,3,259,19,M,NA,constant,heterogeneous,4,present,0.826272964477539,1,horizontal,horizontal,1,2,green,3,4,NaN,NaN,NaN,NaN,NaN,NaN,NaN,NaN,NaN,NaN,NaN,NaN,0,3,4,6,vertical,horizontal,horizontal,vertical
2b,3,100269,9,4,260,19,M,NA,constant,heterogeneous,4,present,1.18277406692505,1,vertical,vertical,1,3,green,2,1,NaN,NaN,NaN,NaN,NaN,NaN,NaN,NaN,NaN,NaN,NaN,NaN,3,4,6,5,vertical,vertical,vertical,vertical
2b,3,100269,9,5,261,19,M,NA,constant,heterogeneous,4,absent,0.954632043838501,1,vertical,vertical,1,8,green,2,NaN,NaN,NaN,NaN,NaN,NaN,NaN,NaN,NaN,NaN,NaN,NaN,NaN,3,4,5,0,horizontal,vertical,horizontal,vertical
2b,3,100269,9,6,262,19,M,NA,constant,heterogeneous,4,present,0.974223136901855,1,vertical,vertical,1,3,green,4,2,NaN,NaN,NaN,NaN,NaN,NaN,NaN,NaN,NaN,NaN,NaN,NaN,6,5,0,4,vertical,horizontal,horizontal,vertical
2b,3,100269,9,7,263,19,M,NA,constant,heterogeneous,4,absent,0.877692937850952,1,horizontal,horizontal,1,2,green,3,NaN,NaN,NaN,NaN,NaN,NaN,NaN,NaN,NaN,NaN,NaN,NaN,NaN,5,0,4,3,horizontal,horizontal,horizontal,horizontal
2b,3,100269,9,8,264,19,M,NA,constant,heterogeneous,4,present,1.07529497146606,1,vertical,vertical,1,5,green,3,4,NaN,NaN,NaN,NaN,NaN,NaN,NaN,NaN,NaN,NaN,NaN,NaN,3,6,4,5,vertical,vertical,vertical,vertical
2b,3,100269,9,9,265,19,M,NA,constant,heterogeneous,4,present,1.0170590877533,0,vertical,horizontal,1,2,green,4,3,NaN,NaN,NaN,NaN,NaN,NaN,NaN,NaN,NaN,NaN,NaN,NaN,3,0,6,4,horizontal,vertical,horizontal,vertical
2b,3,100269,9,10,266,19,M,NA,constant,heterogeneous,4,absent,0.905545949935913,1,vertical,vertical,1,2,green,4,NaN,NaN,NaN,NaN,NaN,NaN,NaN,NaN,NaN,NaN,NaN,NaN,NaN,3,5,6,4,vertical,vertical,horizontal,vertical
2b,3,100269,9,11,267,19,M,NA,constant,heterogeneous,4,present,0.772079944610596,1,horizontal,horizontal,1,2,green,2,3,NaN,NaN,NaN,NaN,NaN,NaN,NaN,NaN,NaN,NaN,NaN,NaN,6,4,3,0,horizontal,horizontal,horizontal,vertical
2b,3,100269,9,12,268,19,M,NA,constant,heterogeneous,4,present,1.05158114433289,1,vertical,vertical,1,2,green,4,3,NaN,NaN,NaN,NaN,NaN,NaN,NaN,NaN,NaN,NaN,NaN,NaN,3,6,0,4,vertical,vertical,vertical,vertical
2b,3,100269,9,13,269,19,M,NA,constant,heterogeneous,4,absent,0.897109985351562,1,vertical,vertical,1,5,green,1,NaN,NaN,NaN,NaN,NaN,NaN,NaN,NaN,NaN,NaN,NaN,NaN,NaN,4,6,5,0,vertical,vertical,horizontal,vertical
2b,3,100269,9,14,270,19,M,NA,constant,heterogeneous,4,present,1.88709497451782,1,horizontal,horizontal,1,5,green,3,2,NaN,NaN,NaN,NaN,NaN,NaN,NaN,NaN,NaN,NaN,NaN,NaN,3,5,4,0,horizontal,horizontal,horizontal,horizontal
2b,3,100269,9,15,271,19,M,NA,constant,heterogeneous,4,absent,0.665131092071533,1,horizontal,horizontal,1,2,green,3,NaN,NaN,NaN,NaN,NaN,NaN,NaN,NaN,NaN,NaN,NaN,NaN,NaN,5,6,4,0,horizontal,horizontal,horizontal,horizontal
2b,3,100269,9,16,272,19,M,NA,constant,heterogeneous,4,present,NaN,0,horizontal,none,0,5,green,3,2,NaN,NaN,NaN,NaN,NaN,NaN,NaN,NaN,NaN,NaN,NaN,NaN,5,6,4,3,vertical,vertical,horizontal,vertical
2b,3,100269,9,17,273,19,M,NA,constant,heterogeneous,4,absent,1.32686710357666,1,horizontal,horizontal,1,3,green,2,NaN,NaN,NaN,NaN,NaN,NaN,NaN,NaN,NaN,NaN,NaN,NaN,NaN,5,4,3,0,vertical,horizontal,vertical,horizontal
2b,3,100269,9,18,274,19,M,NA,constant,heterogeneous,4,absent,0.709805011749268,1,horizontal,horizontal,1,5,green,2,NaN,NaN,NaN,NaN,NaN,NaN,NaN,NaN,NaN,NaN,NaN,NaN,NaN,6,4,0,5,vertical,horizontal,vertical,horizontal
2b,3,100269,9,19,275,19,M,NA,constant,heterogeneous,4,absent,0.672220945358276,1,vertical,vertical,1,3,green,3,NaN,NaN,NaN,NaN,NaN,NaN,NaN,NaN,NaN,NaN,NaN,NaN,NaN,3,5,4,0,vertical,horizontal,vertical,horizontal
2b,3,100269,9,20,276,19,M,NA,constant,heterogeneous,4,absent,0.813815832138062,1,vertical,vertical,1,5,green,3,NaN,NaN,NaN,NaN,NaN,NaN,NaN,NaN,NaN,NaN,NaN,NaN,NaN,6,3,4,5,vertical,horizontal,vertical,vertical
2b,3,100269,9,21,277,19,M,NA,constant,heterogeneous,4,absent,NaN,0,horizontal,none,0,5,green,4,NaN,NaN,NaN,NaN,NaN,NaN,NaN,NaN,NaN,NaN,NaN,NaN,NaN,6,5,0,4,horizontal,vertical,vertical,horizontal
2b,3,100269,9,22,278,19,M,NA,constant,heterogeneous,4,present,0.963093996047974,1,vertical,vertical,1,8,green,3,1,NaN,NaN,NaN,NaN,NaN,NaN,NaN,NaN,NaN,NaN,NaN,NaN,0,5,4,6,horizontal,vertical,vertical,horizontal
2b,3,100269,9,23,279,19,M,NA,constant,heterogeneous,4,present,NaN,0,horizontal,none,0,3,green,4,3,NaN,NaN,NaN,NaN,NaN,NaN,NaN,NaN,NaN,NaN,NaN,NaN,6,3,5,4,vertical,horizontal,vertical,horizontal
2b,3,100269,9,24,280,19,M,NA,constant,heterogeneous,4,absent,NaN,0,vertical,none,0,3,green,4,NaN,NaN,NaN,NaN,NaN,NaN,NaN,NaN,NaN,NaN,NaN,NaN,NaN,0,5,3,4,vertical,horizontal,horizontal,vertical
2b,3,100269,9,25,281,19,M,NA,constant,heterogeneous,4,absent,1.0307400226593,1,horizontal,horizontal,1,2,green,2,NaN,NaN,NaN,NaN,NaN,NaN,NaN,NaN,NaN,NaN,NaN,NaN,NaN,6,4,5,3,horizontal,horizontal,vertical,horizontal
2b,3,100269,9,26,282,19,M,NA,constant,heterogeneous,4,present,0.963316917419434,1,horizontal,horizontal,1,3,green,2,1,NaN,NaN,NaN,NaN,NaN,NaN,NaN,NaN,NaN,NaN,NaN,NaN,5,4,0,3,vertical,horizontal,horizontal,horizontal
2b,3,100269,9,27,283,19,M,NA,constant,heterogeneous,4,absent,0.907313108444214,1,horizontal,horizontal,1,3,green,2,NaN,NaN,NaN,NaN,NaN,NaN,NaN,NaN,NaN,NaN,NaN,NaN,NaN,0,4,6,5,horizontal,horizontal,horizontal,horizontal
2b,3,100269,9,28,284,19,M,NA,constant,heterogeneous,4,present,1.72578120231628,1,vertical,vertical,1,5,green,2,4,NaN,NaN,NaN,NaN,NaN,NaN,NaN,NaN,NaN,NaN,NaN,NaN,3,4,5,0,vertical,vertical,horizontal,horizontal
2b,3,100269,9,29,285,19,M,NA,constant,heterogeneous,4,absent,1.67643213272095,1,vertical,vertical,1,2,green,1,NaN,NaN,NaN,NaN,NaN,NaN,NaN,NaN,NaN,NaN,NaN,NaN,NaN,4,6,0,5,vertical,vertical,horizontal,vertical
2b,3,100269,9,30,286,19,M,NA,constant,heterogeneous,4,present,0.681987047195435,1,vertical,vertical,1,2,green,2,3,NaN,NaN,NaN,NaN,NaN,NaN,NaN,NaN,NaN,NaN,NaN,NaN,0,4,5,3,horizontal,vertical,vertical,vertical
2b,3,100269,9,31,287,19,M,NA,constant,heterogeneous,4,absent,1.47626304626465,1,horizontal,horizontal,1,8,green,2,NaN,NaN,NaN,NaN,NaN,NaN,NaN,NaN,NaN,NaN,NaN,NaN,NaN,6,4,3,0,horizontal,horizontal,horizontal,horizontal
2b,3,100269,9,32,288,19,M,NA,constant,heterogeneous,4,present,1.33791899681091,1,horizontal,horizontal,1,8,green,4,2,NaN,NaN,NaN,NaN,NaN,NaN,NaN,NaN,NaN,NaN,NaN,NaN,0,3,5,4,vertical,horizontal,vertical,horizontal
2b,3,100269,10,1,289,19,M,NA,constant,heterogeneous,4,absent,1.2470269203186,1,vertical,vertical,1,3,green,2,NaN,NaN,NaN,NaN,NaN,NaN,NaN,NaN,NaN,NaN,NaN,NaN,NaN,5,4,3,6,vertical,vertical,vertical,horizontal
2b,3,100269,10,2,290,19,M,NA,constant,heterogeneous,4,present,1.02008700370789,1,horizontal,horizontal,1,5,green,1,4,NaN,NaN,NaN,NaN,NaN,NaN,NaN,NaN,NaN,NaN,NaN,NaN,4,3,6,0,horizontal,vertical,horizontal,vertical
2b,3,100269,10,3,291,19,M,NA,constant,heterogeneous,4,present,0.892812967300415,1,vertical,vertical,1,2,green,1,2,NaN,NaN,NaN,NaN,NaN,NaN,NaN,NaN,NaN,NaN,NaN,NaN,4,0,5,6,vertical,vertical,horizontal,vertical
2b,3,100269,10,4,292,19,M,NA,constant,heterogeneous,4,present,1.13116598129272,1,vertical,vertical,1,3,green,4,2,NaN,NaN,NaN,NaN,NaN,NaN,NaN,NaN,NaN,NaN,NaN,NaN,3,0,5,4,horizontal,horizontal,vertical,vertical
2b,3,100269,10,5,293,19,M,NA,constant,heterogeneous,4,present,0.734030961990356,1,vertical,vertical,1,5,green,1,4,NaN,NaN,NaN,NaN,NaN,NaN,NaN,NaN,NaN,NaN,NaN,NaN,4,6,5,0,vertical,vertical,vertical,horizontal
2b,3,100269,10,6,294,19,M,NA,constant,heterogeneous,4,absent,1.17697095870972,1,vertical,vertical,1,2,green,2,NaN,NaN,NaN,NaN,NaN,NaN,NaN,NaN,NaN,NaN,NaN,NaN,NaN,6,4,5,3,horizontal,vertical,horizontal,horizontal
2b,3,100269,10,7,295,19,M,NA,constant,heterogeneous,4,absent,1.88466000556946,1,horizontal,horizontal,1,5,green,3,NaN,NaN,NaN,NaN,NaN,NaN,NaN,NaN,NaN,NaN,NaN,NaN,NaN,5,0,4,3,vertical,vertical,horizontal,vertical
2b,3,100269,10,8,296,19,M,NA,constant,heterogeneous,4,absent,0.734724044799805,1,vertical,vertical,1,5,green,1,NaN,NaN,NaN,NaN,NaN,NaN,NaN,NaN,NaN,NaN,NaN,NaN,NaN,4,0,6,5,vertical,vertical,vertical,horizontal
2b,3,100269,10,9,297,19,M,NA,constant,heterogeneous,4,present,1.12159705162048,1,vertical,vertical,1,3,green,4,3,NaN,NaN,NaN,NaN,NaN,NaN,NaN,NaN,NaN,NaN,NaN,NaN,0,3,5,4,vertical,vertical,vertical,vertical
2b,3,100269,10,10,298,19,M,NA,constant,heterogeneous,4,absent,1.14437294006348,1,vertical,vertical,1,2,green,2,NaN,NaN,NaN,NaN,NaN,NaN,NaN,NaN,NaN,NaN,NaN,NaN,NaN,5,4,3,0,vertical,vertical,horizontal,vertical
2b,3,100269,10,11,299,19,M,NA,constant,heterogeneous,4,present,1.51930093765259,1,horizontal,horizontal,1,3,green,4,3,NaN,NaN,NaN,NaN,NaN,NaN,NaN,NaN,NaN,NaN,NaN,NaN,0,5,3,4,horizontal,horizontal,horizontal,horizontal
2b,3,100269,10,12,300,19,M,NA,constant,heterogeneous,4,present,0.790240049362183,1,horizontal,horizontal,1,8,green,3,2,NaN,NaN,NaN,NaN,NaN,NaN,NaN,NaN,NaN,NaN,NaN,NaN,0,5,4,6,horizontal,horizontal,horizontal,vertical
2b,3,100269,10,13,301,19,M,NA,constant,heterogeneous,4,absent,1.19808912277222,1,vertical,vertical,1,3,green,4,NaN,NaN,NaN,NaN,NaN,NaN,NaN,NaN,NaN,NaN,NaN,NaN,NaN,3,6,0,4,vertical,horizontal,horizontal,vertical
2b,3,100269,10,14,302,19,M,NA,constant,heterogeneous,4,present,0.918236017227173,1,horizontal,horizontal,1,3,green,2,1,NaN,NaN,NaN,NaN,NaN,NaN,NaN,NaN,NaN,NaN,NaN,NaN,0,4,3,5,vertical,horizontal,horizontal,vertical
2b,3,100269,10,15,303,19,M,NA,constant,heterogeneous,4,absent,1.03677582740784,1,vertical,vertical,1,5,green,4,NaN,NaN,NaN,NaN,NaN,NaN,NaN,NaN,NaN,NaN,NaN,NaN,NaN,3,5,0,4,horizontal,vertical,vertical,vertical
2b,3,100269,10,16,304,19,M,NA,constant,heterogeneous,4,present,1.25399899482727,1,horizontal,horizontal,1,2,green,2,1,NaN,NaN,NaN,NaN,NaN,NaN,NaN,NaN,NaN,NaN,NaN,NaN,5,4,6,0,vertical,horizontal,vertical,horizontal
2b,3,100269,10,17,305,19,M,NA,constant,heterogeneous,4,present,0.923382997512817,1,horizontal,horizontal,1,2,green,3,1,NaN,NaN,NaN,NaN,NaN,NaN,NaN,NaN,NaN,NaN,NaN,NaN,3,0,4,6,horizontal,vertical,horizontal,vertical
2b,3,100269,10,18,306,19,M,NA,constant,heterogeneous,4,present,1.03377795219421,1,vertical,vertical,1,2,green,4,1,NaN,NaN,NaN,NaN,NaN,NaN,NaN,NaN,NaN,NaN,NaN,NaN,0,3,6,4,horizontal,horizontal,horizontal,vertical
2b,3,100269,10,19,307,19,M,NA,constant,heterogeneous,4,present,0.942629098892212,1,vertical,vertical,1,2,green,4,3,NaN,NaN,NaN,NaN,NaN,NaN,NaN,NaN,NaN,NaN,NaN,NaN,0,6,3,4,vertical,horizontal,vertical,vertical
2b,3,100269,10,20,308,19,M,NA,constant,heterogeneous,4,present,1.26145005226135,1,horizontal,horizontal,1,5,green,4,1,NaN,NaN,NaN,NaN,NaN,NaN,NaN,NaN,NaN,NaN,NaN,NaN,0,5,6,4,vertical,vertical,vertical,horizontal
2b,3,100269,10,21,309,19,M,NA,constant,heterogeneous,4,absent,1.33511304855347,1,horizontal,horizontal,1,2,green,2,NaN,NaN,NaN,NaN,NaN,NaN,NaN,NaN,NaN,NaN,NaN,NaN,NaN,3,4,6,5,horizontal,horizontal,horizontal,horizontal
2b,3,100269,10,22,310,19,M,NA,constant,heterogeneous,4,absent,1.0178759098053,1,horizontal,horizontal,1,2,green,1,NaN,NaN,NaN,NaN,NaN,NaN,NaN,NaN,NaN,NaN,NaN,NaN,NaN,4,0,6,3,horizontal,vertical,vertical,vertical
2b,3,100269,10,23,311,19,M,NA,constant,heterogeneous,4,present,1.08259987831116,1,vertical,vertical,1,8,green,3,1,NaN,NaN,NaN,NaN,NaN,NaN,NaN,NaN,NaN,NaN,NaN,NaN,6,3,4,5,horizontal,vertical,vertical,horizontal
2b,3,100269,10,24,312,19,M,NA,constant,heterogeneous,4,present,0.812749147415161,1,vertical,vertical,1,5,green,2,1,NaN,NaN,NaN,NaN,NaN,NaN,NaN,NaN,NaN,NaN,NaN,NaN,6,4,0,5,vertical,vertical,vertical,horizontal
2b,3,100269,10,25,313,19,M,NA,constant,heterogeneous,4,absent,0.869096994400024,1,vertical,vertical,1,8,green,3,NaN,NaN,NaN,NaN,NaN,NaN,NaN,NaN,NaN,NaN,NaN,NaN,NaN,6,0,4,5,vertical,vertical,vertical,horizontal
2b,3,100269,10,26,314,19,M,NA,constant,heterogeneous,4,absent,0.946976184844971,1,horizontal,horizontal,1,8,green,3,NaN,NaN,NaN,NaN,NaN,NaN,NaN,NaN,NaN,NaN,NaN,NaN,NaN,0,6,4,3,vertical,horizontal,horizontal,vertical
2b,3,100269,10,27,315,19,M,NA,constant,heterogeneous,4,present,1.51424098014832,1,horizontal,horizontal,1,2,green,1,4,NaN,NaN,NaN,NaN,NaN,NaN,NaN,NaN,NaN,NaN,NaN,NaN,4,3,6,5,horizontal,vertical,vertical,vertical
2b,3,100269,10,28,316,19,M,NA,constant,heterogeneous,4,absent,1.82875084877014,1,horizontal,horizontal,1,5,green,4,NaN,NaN,NaN,NaN,NaN,NaN,NaN,NaN,NaN,NaN,NaN,NaN,NaN,0,6,5,4,horizontal,horizontal,vertical,horizontal
2b,3,100269,10,29,317,19,M,NA,constant,heterogeneous,4,absent,1.50562500953674,1,horizontal,horizontal,1,3,green,1,NaN,NaN,NaN,NaN,NaN,NaN,NaN,NaN,NaN,NaN,NaN,NaN,NaN,4,0,3,5,horizontal,horizontal,vertical,horizontal
2b,3,100269,10,30,318,19,M,NA,constant,heterogeneous,4,absent,1.01985192298889,1,horizontal,horizontal,1,3,green,1,NaN,NaN,NaN,NaN,NaN,NaN,NaN,NaN,NaN,NaN,NaN,NaN,NaN,4,6,3,0,horizontal,vertical,vertical,horizontal
2b,3,100269,10,31,319,19,M,NA,constant,heterogeneous,4,absent,1.02063584327698,1,vertical,vertical,1,2,green,4,NaN,NaN,NaN,NaN,NaN,NaN,NaN,NaN,NaN,NaN,NaN,NaN,NaN,3,0,5,4,vertical,vertical,vertical,vertical
2b,3,100269,10,32,320,19,M,NA,constant,heterogeneous,4,absent,1.03702187538147,0,horizontal,vertical,1,2,green,4,NaN,NaN,NaN,NaN,NaN,NaN,NaN,NaN,NaN,NaN,NaN,NaN,NaN,0,3,5,4,vertical,horizontal,horizontal,horizontal
2b,3,100269,11,1,321,19,M,NA,constant,homogeneous,4,absent,0.91129994392395,1,horizontal,horizontal,1,5,green,2,NaN,980.31222920257,419.68777079743,NaN,NaN,980.31222920257,780.31222920257,980.31222920257,419.68777079743,619.68777079743,419.68777079743,619.68777079743,780.31222920257,0,4,0,0,vertical,horizontal,horizontal,horizontal
2b,3,100269,11,2,322,19,M,NA,constant,homogeneous,4,present,0.753950834274292,1,vertical,vertical,1,3,green,3,1,619.68777079743,419.68777079743,980.31222920257,780.31222920257,980.31222920257,780.31222920257,980.31222920257,419.68777079743,619.68777079743,419.68777079743,619.68777079743,780.31222920257,0,0,4,0,vertical,vertical,vertical,vertical
2b,3,100269,11,3,323,19,M,NA,constant,homogeneous,4,present,0.581071138381958,1,vertical,vertical,1,2,green,3,4,619.68777079743,419.68777079743,619.68777079743,780.31222920257,980.31222920257,780.31222920257,980.31222920257,419.68777079743,619.68777079743,419.68777079743,619.68777079743,780.31222920257,0,0,4,0,horizontal,vertical,vertical,horizontal
2b,3,100269,11,4,324,19,M,NA,constant,homogeneous,4,present,0.832824945449829,1,horizontal,horizontal,1,5,green,1,4,980.31222920257,780.31222920257,619.68777079743,780.31222920257,980.31222920257,780.31222920257,980.31222920257,419.68777079743,619.68777079743,419.68777079743,619.68777079743,780.31222920257,4,0,0,0,horizontal,horizontal,horizontal,vertical
2b,3,100269,11,5,325,19,M,NA,constant,homogeneous,4,present,1.09361600875854,1,horizontal,horizontal,1,3,green,4,2,619.68777079743,780.31222920257,980.31222920257,419.68777079743,980.31222920257,780.31222920257,980.31222920257,419.68777079743,619.68777079743,419.68777079743,619.68777079743,780.31222920257,0,0,0,4,vertical,horizontal,horizontal,horizontal
2b,3,100269,11,6,326,19,M,NA,constant,homogeneous,4,present,0.915910959243774,1,horizontal,horizontal,1,2,green,1,4,980.31222920257,780.31222920257,619.68777079743,780.31222920257,980.31222920257,780.31222920257,980.31222920257,419.68777079743,619.68777079743,419.68777079743,619.68777079743,780.31222920257,4,0,0,0,horizontal,horizontal,vertical,vertical
2b,3,100269,11,7,327,19,M,NA,constant,homogeneous,4,absent,0.758089780807495,1,vertical,vertical,1,3,green,1,NaN,980.31222920257,780.31222920257,NaN,NaN,980.31222920257,780.31222920257,980.31222920257,419.68777079743,619.68777079743,419.68777079743,619.68777079743,780.31222920257,4,0,0,0,vertical,horizontal,vertical,horizontal
2b,3,100269,11,8,328,19,M,NA,constant,homogeneous,4,present,0.977771043777466,1,vertical,vertical,1,5,green,2,3,980.31222920257,419.68777079743,619.68777079743,419.68777079743,980.31222920257,780.31222920257,980.31222920257,419.68777079743,619.68777079743,419.68777079743,619.68777079743,780.31222920257,0,4,0,0,horizontal,vertical,vertical,horizontal
2b,3,100269,11,9,329,19,M,NA,constant,homogeneous,4,absent,0.813435792922974,1,horizontal,horizontal,1,3,green,1,NaN,980.31222920257,780.31222920257,NaN,NaN,980.31222920257,780.31222920257,980.31222920257,419.68777079743,619.68777079743,419.68777079743,619.68777079743,780.31222920257,4,0,0,0,horizontal,horizontal,horizontal,horizontal
2b,3,100269,11,10,330,19,M,NA,constant,homogeneous,4,present,0.870035886764526,1,horizontal,horizontal,1,8,green,1,3,980.31222920257,780.31222920257,619.68777079743,419.68777079743,980.31222920257,780.31222920257,980.31222920257,419.68777079743,619.68777079743,419.68777079743,619.68777079743,780.31222920257,4,0,0,0,horizontal,horizontal,vertical,vertical
2b,3,100269,11,11,331,19,M,NA,constant,homogeneous,4,absent,0.96384596824646,1,horizontal,horizontal,1,8,green,4,NaN,619.68777079743,780.31222920257,NaN,NaN,980.31222920257,780.31222920257,980.31222920257,419.68777079743,619.68777079743,419.68777079743,619.68777079743,780.31222920257,0,0,0,4,vertical,vertical,vertical,horizontal
2b,3,100269,11,12,332,19,M,NA,constant,homogeneous,4,absent,1.28351306915283,1,horizontal,horizontal,1,2,green,2,NaN,980.31222920257,419.68777079743,NaN,NaN,980.31222920257,780.31222920257,980.31222920257,419.68777079743,619.68777079743,419.68777079743,619.68777079743,780.31222920257,0,4,0,0,horizontal,horizontal,horizontal,vertical
2b,3,100269,11,13,333,19,M,NA,constant,homogeneous,4,absent,0.749328851699829,1,horizontal,horizontal,1,3,green,4,NaN,619.68777079743,780.31222920257,NaN,NaN,980.31222920257,780.31222920257,980.31222920257,419.68777079743,619.68777079743,419.68777079743,619.68777079743,780.31222920257,0,0,0,4,horizontal,horizontal,horizontal,horizontal
2b,3,100269,11,14,334,19,M,NA,constant,homogeneous,4,present,0.612411975860596,1,horizontal,horizontal,1,5,green,4,1,619.68777079743,780.31222920257,980.31222920257,780.31222920257,980.31222920257,780.31222920257,980.31222920257,419.68777079743,619.68777079743,419.68777079743,619.68777079743,780.31222920257,0,0,0,4,vertical,horizontal,vertical,horizontal
2b,3,100269,11,15,335,19,M,NA,constant,homogeneous,4,present,0.796975135803223,1,vertical,vertical,1,5,green,2,1,980.31222920257,419.68777079743,980.31222920257,780.31222920257,980.31222920257,780.31222920257,980.31222920257,419.68777079743,619.68777079743,419.68777079743,619.68777079743,780.31222920257,0,4,0,0,horizontal,vertical,vertical,vertical
2b,3,100269,11,16,336,19,M,NA,constant,homogeneous,4,absent,0.765155792236328,1,horizontal,horizontal,1,2,green,4,NaN,619.68777079743,780.31222920257,NaN,NaN,980.31222920257,780.31222920257,980.31222920257,419.68777079743,619.68777079743,419.68777079743,619.68777079743,780.31222920257,0,0,0,4,vertical,vertical,vertical,horizontal
2b,3,100269,11,17,337,19,M,NA,constant,homogeneous,4,absent,1.18867897987366,1,vertical,vertical,1,2,green,3,NaN,619.68777079743,419.68777079743,NaN,NaN,980.31222920257,780.31222920257,980.31222920257,419.68777079743,619.68777079743,419.68777079743,619.68777079743,780.31222920257,0,0,4,0,horizontal,vertical,vertical,horizontal
2b,3,100269,11,18,338,19,M,NA,constant,homogeneous,4,present,1.10089302062988,1,vertical,vertical,1,3,green,2,4,980.31222920257,419.68777079743,619.68777079743,780.31222920257,980.31222920257,780.31222920257,980.31222920257,419.68777079743,619.68777079743,419.68777079743,619.68777079743,780.31222920257,0,4,0,0,vertical,vertical,horizontal,horizontal
2b,3,100269,11,19,339,19,M,NA,constant,homogeneous,4,absent,0.859026908874512,1,vertical,vertical,1,2,green,4,NaN,619.68777079743,780.31222920257,NaN,NaN,980.31222920257,780.31222920257,980.31222920257,419.68777079743,619.68777079743,419.68777079743,619.68777079743,780.31222920257,0,0,0,4,vertical,vertical,horizontal,vertical
2b,3,100269,11,20,340,19,M,NA,constant,homogeneous,4,absent,0.844535827636719,1,vertical,vertical,1,5,green,1,NaN,980.31222920257,780.31222920257,NaN,NaN,980.31222920257,780.31222920257,980.31222920257,419.68777079743,619.68777079743,419.68777079743,619.68777079743,780.31222920257,4,0,0,0,vertical,vertical,horizontal,vertical
2b,3,100269,11,21,341,19,M,NA,constant,homogeneous,4,present,0.701471090316772,1,vertical,vertical,1,2,green,2,3,980.31222920257,419.68777079743,619.68777079743,419.68777079743,980.31222920257,780.31222920257,980.31222920257,419.68777079743,619.68777079743,419.68777079743,619.68777079743,780.31222920257,0,4,0,0,horizontal,vertical,vertical,vertical
2b,3,100269,11,22,342,19,M,NA,constant,homogeneous,4,present,0.811790943145752,1,horizontal,horizontal,1,2,green,3,2,619.68777079743,419.68777079743,980.31222920257,419.68777079743,980.31222920257,780.31222920257,980.31222920257,419.68777079743,619.68777079743,419.68777079743,619.68777079743,780.31222920257,0,0,4,0,vertical,horizontal,horizontal,horizontal
2b,3,100269,11,23,343,19,M,NA,constant,homogeneous,4,absent,0.820188999176025,1,vertical,vertical,1,8,green,2,NaN,980.31222920257,419.68777079743,NaN,NaN,980.31222920257,780.31222920257,980.31222920257,419.68777079743,619.68777079743,419.68777079743,619.68777079743,780.31222920257,0,4,0,0,vertical,vertical,horizontal,horizontal
2b,3,100269,11,24,344,19,M,NA,constant,homogeneous,4,present,0.732738018035889,1,horizontal,horizontal,1,2,green,2,1,980.31222920257,419.68777079743,980.31222920257,780.31222920257,980.31222920257,780.31222920257,980.31222920257,419.68777079743,619.68777079743,419.68777079743,619.68777079743,780.31222920257,0,4,0,0,vertical,horizontal,vertical,vertical
2b,3,100269,11,25,345,19,M,NA,constant,homogeneous,4,present,1.11155009269714,1,vertical,vertical,1,8,green,2,3,980.31222920257,419.68777079743,619.68777079743,419.68777079743,980.31222920257,780.31222920257,980.31222920257,419.68777079743,619.68777079743,419.68777079743,619.68777079743,780.31222920257,0,4,0,0,vertical,vertical,vertical,horizontal
2b,3,100269,11,26,346,19,M,NA,constant,homogeneous,4,absent,1.09019684791565,1,horizontal,horizontal,1,5,green,3,NaN,619.68777079743,419.68777079743,NaN,NaN,980.31222920257,780.31222920257,980.31222920257,419.68777079743,619.68777079743,419.68777079743,619.68777079743,780.31222920257,0,0,4,0,vertical,horizontal,horizontal,horizontal
2b,3,100269,11,27,347,19,M,NA,constant,homogeneous,4,absent,0.98011589050293,1,vertical,vertical,1,3,green,4,NaN,619.68777079743,780.31222920257,NaN,NaN,980.31222920257,780.31222920257,980.31222920257,419.68777079743,619.68777079743,419.68777079743,619.68777079743,780.31222920257,0,0,0,4,vertical,horizontal,horizontal,vertical
2b,3,100269,11,28,348,19,M,NA,constant,homogeneous,4,absent,1.09610390663147,1,vertical,vertical,1,2,green,2,NaN,980.31222920257,419.68777079743,NaN,NaN,980.31222920257,780.31222920257,980.31222920257,419.68777079743,619.68777079743,419.68777079743,619.68777079743,780.31222920257,0,4,0,0,horizontal,vertical,vertical,horizontal
2b,3,100269,11,29,349,19,M,NA,constant,homogeneous,4,present,1.08603692054749,1,horizontal,horizontal,1,3,green,2,4,980.31222920257,419.68777079743,619.68777079743,780.31222920257,980.31222920257,780.31222920257,980.31222920257,419.68777079743,619.68777079743,419.68777079743,619.68777079743,780.31222920257,0,4,0,0,vertical,horizontal,vertical,horizontal
2b,3,100269,11,30,350,19,M,NA,constant,homogeneous,4,absent,1.15207505226135,1,vertical,vertical,1,5,green,4,NaN,619.68777079743,780.31222920257,NaN,NaN,980.31222920257,780.31222920257,980.31222920257,419.68777079743,619.68777079743,419.68777079743,619.68777079743,780.31222920257,0,0,0,4,vertical,horizontal,vertical,vertical
2b,3,100269,11,31,351,19,M,NA,constant,homogeneous,4,present,1.1234450340271,1,vertical,vertical,1,2,green,4,2,619.68777079743,780.31222920257,980.31222920257,419.68777079743,980.31222920257,780.31222920257,980.31222920257,419.68777079743,619.68777079743,419.68777079743,619.68777079743,780.31222920257,0,0,0,4,vertical,vertical,vertical,vertical
2b,3,100269,11,32,352,19,M,NA,constant,homogeneous,4,absent,1.38621997833252,1,horizontal,horizontal,1,2,green,3,NaN,619.68777079743,419.68777079743,NaN,NaN,980.31222920257,780.31222920257,980.31222920257,419.68777079743,619.68777079743,419.68777079743,619.68777079743,780.31222920257,0,0,4,0,horizontal,vertical,horizontal,horizontal
2b,3,100269,12,1,353,19,M,NA,constant,homogeneous,4,absent,1.05358791351318,1,horizontal,horizontal,1,3,green,2,NaN,980.31222920257,419.68777079743,NaN,NaN,980.31222920257,780.31222920257,980.31222920257,419.68777079743,619.68777079743,419.68777079743,619.68777079743,780.31222920257,0,4,0,0,horizontal,horizontal,vertical,horizontal
2b,3,100269,12,2,354,19,M,NA,constant,homogeneous,4,present,0.683014869689941,1,horizontal,horizontal,1,2,green,2,3,980.31222920257,419.68777079743,619.68777079743,419.68777079743,980.31222920257,780.31222920257,980.31222920257,419.68777079743,619.68777079743,419.68777079743,619.68777079743,780.31222920257,0,4,0,0,horizontal,horizontal,vertical,vertical
2b,3,100269,12,3,355,19,M,NA,constant,homogeneous,4,present,0.684935092926025,1,vertical,vertical,1,3,green,2,4,980.31222920257,419.68777079743,619.68777079743,780.31222920257,980.31222920257,780.31222920257,980.31222920257,419.68777079743,619.68777079743,419.68777079743,619.68777079743,780.31222920257,0,4,0,0,vertical,vertical,horizontal,horizontal
2b,3,100269,12,4,356,19,M,NA,constant,homogeneous,4,absent,0.51887583732605,1,vertical,vertical,1,2,green,2,NaN,980.31222920257,419.68777079743,NaN,NaN,980.31222920257,780.31222920257,980.31222920257,419.68777079743,619.68777079743,419.68777079743,619.68777079743,780.31222920257,0,4,0,0,horizontal,vertical,vertical,vertical
2b,3,100269,12,5,357,19,M,NA,constant,homogeneous,4,absent,0.613435029983521,1,vertical,vertical,1,8,green,2,NaN,980.31222920257,419.68777079743,NaN,NaN,980.31222920257,780.31222920257,980.31222920257,419.68777079743,619.68777079743,419.68777079743,619.68777079743,780.31222920257,0,4,0,0,horizontal,vertical,vertical,horizontal
2b,3,100269,12,6,358,19,M,NA,constant,homogeneous,4,present,0.613908052444458,1,horizontal,horizontal,1,2,green,2,4,980.31222920257,419.68777079743,619.68777079743,780.31222920257,980.31222920257,780.31222920257,980.31222920257,419.68777079743,619.68777079743,419.68777079743,619.68777079743,780.31222920257,0,4,0,0,vertical,horizontal,horizontal,horizontal
2b,3,100269,12,7,359,19,M,NA,constant,homogeneous,4,present,0.814589977264404,1,horizontal,horizontal,1,3,green,3,2,619.68777079743,419.68777079743,980.31222920257,419.68777079743,980.31222920257,780.31222920257,980.31222920257,419.68777079743,619.68777079743,419.68777079743,619.68777079743,780.31222920257,0,0,4,0,vertical,horizontal,horizontal,horizontal
2b,3,100269,12,8,360,19,M,NA,constant,homogeneous,4,present,0.959017038345337,1,horizontal,horizontal,1,3,green,4,2,619.68777079743,780.31222920257,980.31222920257,419.68777079743,980.31222920257,780.31222920257,980.31222920257,419.68777079743,619.68777079743,419.68777079743,619.68777079743,780.31222920257,0,0,0,4,horizontal,vertical,horizontal,horizontal
2b,3,100269,12,9,361,19,M,NA,constant,homogeneous,4,absent,0.866518974304199,1,vertical,vertical,1,3,green,1,NaN,980.31222920257,780.31222920257,NaN,NaN,980.31222920257,780.31222920257,980.31222920257,419.68777079743,619.68777079743,419.68777079743,619.68777079743,780.31222920257,4,0,0,0,vertical,vertical,horizontal,vertical
2b,3,100269,12,10,362,19,M,NA,constant,homogeneous,4,absent,1.06789803504944,1,vertical,vertical,1,2,green,3,NaN,619.68777079743,419.68777079743,NaN,NaN,980.31222920257,780.31222920257,980.31222920257,419.68777079743,619.68777079743,419.68777079743,619.68777079743,780.31222920257,0,0,4,0,vertical,vertical,vertical,horizontal
2b,3,100269,12,11,363,19,M,NA,constant,homogeneous,4,absent,0.85335898399353,1,vertical,vertical,1,5,green,1,NaN,980.31222920257,780.31222920257,NaN,NaN,980.31222920257,780.31222920257,980.31222920257,419.68777079743,619.68777079743,419.68777079743,619.68777079743,780.31222920257,4,0,0,0,vertical,vertical,horizontal,vertical
2b,3,100269,12,12,364,19,M,NA,constant,homogeneous,4,present,0.714552164077759,1,vertical,vertical,1,2,green,3,2,619.68777079743,419.68777079743,980.31222920257,419.68777079743,980.31222920257,780.31222920257,980.31222920257,419.68777079743,619.68777079743,419.68777079743,619.68777079743,780.31222920257,0,0,4,0,horizontal,vertical,vertical,horizontal
2b,3,100269,12,13,365,19,M,NA,constant,homogeneous,4,absent,0.765011072158813,1,horizontal,horizontal,1,2,green,1,NaN,980.31222920257,780.31222920257,NaN,NaN,980.31222920257,780.31222920257,980.31222920257,419.68777079743,619.68777079743,419.68777079743,619.68777079743,780.31222920257,4,0,0,0,horizontal,horizontal,vertical,horizontal
2b,3,100269,12,14,366,19,M,NA,constant,homogeneous,4,present,1.14081192016602,1,horizontal,horizontal,1,2,green,2,3,980.31222920257,419.68777079743,619.68777079743,419.68777079743,980.31222920257,780.31222920257,980.31222920257,419.68777079743,619.68777079743,419.68777079743,619.68777079743,780.31222920257,0,4,0,0,vertical,horizontal,horizontal,vertical
2b,3,100269,12,15,367,19,M,NA,constant,homogeneous,4,present,0.723859071731567,1,horizontal,horizontal,1,8,green,4,2,619.68777079743,780.31222920257,980.31222920257,419.68777079743,980.31222920257,780.31222920257,980.31222920257,419.68777079743,619.68777079743,419.68777079743,619.68777079743,780.31222920257,0,0,0,4,horizontal,vertical,horizontal,horizontal
2b,3,100269,12,16,368,19,M,NA,constant,homogeneous,4,absent,0.65836501121521,1,horizontal,horizontal,1,5,green,1,NaN,980.31222920257,780.31222920257,NaN,NaN,980.31222920257,780.31222920257,980.31222920257,419.68777079743,619.68777079743,419.68777079743,619.68777079743,780.31222920257,4,0,0,0,horizontal,vertical,horizontal,horizontal
2b,3,100269,12,17,369,19,M,NA,constant,homogeneous,4,present,0.72417688369751,1,vertical,vertical,1,2,green,3,1,619.68777079743,419.68777079743,980.31222920257,780.31222920257,980.31222920257,780.31222920257,980.31222920257,419.68777079743,619.68777079743,419.68777079743,619.68777079743,780.31222920257,0,0,4,0,vertical,vertical,vertical,horizontal
2b,3,100269,12,18,370,19,M,NA,constant,homogeneous,4,absent,0.690566062927246,1,horizontal,horizontal,1,3,green,3,NaN,619.68777079743,419.68777079743,NaN,NaN,980.31222920257,780.31222920257,980.31222920257,419.68777079743,619.68777079743,419.68777079743,619.68777079743,780.31222920257,0,0,4,0,vertical,vertical,horizontal,vertical
2b,3,100269,12,19,371,19,M,NA,constant,homogeneous,4,present,0.692636966705322,1,vertical,vertical,1,3,green,2,1,980.31222920257,419.68777079743,980.31222920257,780.31222920257,980.31222920257,780.31222920257,980.31222920257,419.68777079743,619.68777079743,419.68777079743,619.68777079743,780.31222920257,0,4,0,0,vertical,vertical,vertical,horizontal
2b,3,100269,12,20,372,19,M,NA,constant,homogeneous,4,present,0.618544101715088,1,horizontal,horizontal,1,5,green,3,2,619.68777079743,419.68777079743,980.31222920257,419.68777079743,980.31222920257,780.31222920257,980.31222920257,419.68777079743,619.68777079743,419.68777079743,619.68777079743,780.31222920257,0,0,4,0,vertical,horizontal,horizontal,vertical
2b,3,100269,12,21,373,19,M,NA,constant,homogeneous,4,absent,0.723416090011597,1,vertical,vertical,1,5,green,1,NaN,980.31222920257,780.31222920257,NaN,NaN,980.31222920257,780.31222920257,980.31222920257,419.68777079743,619.68777079743,419.68777079743,619.68777079743,780.31222920257,4,0,0,0,vertical,horizontal,horizontal,horizontal
2b,3,100269,12,22,374,19,M,NA,constant,homogeneous,4,absent,0.634085178375244,1,horizontal,horizontal,1,8,green,3,NaN,619.68777079743,419.68777079743,NaN,NaN,980.31222920257,780.31222920257,980.31222920257,419.68777079743,619.68777079743,419.68777079743,619.68777079743,780.31222920257,0,0,4,0,vertical,vertical,horizontal,vertical
2b,3,100269,12,23,375,19,M,NA,constant,homogeneous,4,present,0.602906942367554,1,horizontal,horizontal,1,5,green,3,1,619.68777079743,419.68777079743,980.31222920257,780.31222920257,980.31222920257,780.31222920257,980.31222920257,419.68777079743,619.68777079743,419.68777079743,619.68777079743,780.31222920257,0,0,4,0,horizontal,horizontal,horizontal,vertical
2b,3,100269,12,24,376,19,M,NA,constant,homogeneous,4,present,0.775457143783569,1,vertical,vertical,1,8,green,4,3,619.68777079743,780.31222920257,619.68777079743,419.68777079743,980.31222920257,780.31222920257,980.31222920257,419.68777079743,619.68777079743,419.68777079743,619.68777079743,780.31222920257,0,0,0,4,horizontal,horizontal,horizontal,vertical
2b,3,100269,12,25,377,19,M,NA,constant,homogeneous,4,present,0.627345085144043,1,vertical,vertical,1,2,green,4,1,619.68777079743,780.31222920257,980.31222920257,780.31222920257,980.31222920257,780.31222920257,980.31222920257,419.68777079743,619.68777079743,419.68777079743,619.68777079743,780.31222920257,0,0,0,4,horizontal,horizontal,vertical,vertical
2b,3,100269,12,26,378,19,M,NA,constant,homogeneous,4,absent,0.679952144622803,1,vertical,vertical,1,2,green,4,NaN,619.68777079743,780.31222920257,NaN,NaN,980.31222920257,780.31222920257,980.31222920257,419.68777079743,619.68777079743,419.68777079743,619.68777079743,780.31222920257,0,0,0,4,horizontal,horizontal,vertical,vertical
2b,3,100269,12,27,379,19,M,NA,constant,homogeneous,4,absent,0.637831211090088,1,horizontal,horizontal,1,2,green,4,NaN,619.68777079743,780.31222920257,NaN,NaN,980.31222920257,780.31222920257,980.31222920257,419.68777079743,619.68777079743,419.68777079743,619.68777079743,780.31222920257,0,0,0,4,vertical,vertical,vertical,horizontal
2b,3,100269,12,28,380,19,M,NA,constant,homogeneous,4,absent,0.847047090530396,1,vertical,vertical,1,3,green,3,NaN,619.68777079743,419.68777079743,NaN,NaN,980.31222920257,780.31222920257,980.31222920257,419.68777079743,619.68777079743,419.68777079743,619.68777079743,780.31222920257,0,0,4,0,horizontal,horizontal,vertical,vertical
2b,3,100269,12,29,381,19,M,NA,constant,homogeneous,4,present,0.747905969619751,1,vertical,vertical,1,5,green,4,2,619.68777079743,780.31222920257,980.31222920257,419.68777079743,980.31222920257,780.31222920257,980.31222920257,419.68777079743,619.68777079743,419.68777079743,619.68777079743,780.31222920257,0,0,0,4,vertical,horizontal,horizontal,vertical
2b,3,100269,12,30,382,19,M,NA,constant,homogeneous,4,present,0.723212003707886,1,vertical,vertical,1,5,green,1,2,980.31222920257,780.31222920257,980.31222920257,419.68777079743,980.31222920257,780.31222920257,980.31222920257,419.68777079743,619.68777079743,419.68777079743,619.68777079743,780.31222920257,4,0,0,0,vertical,vertical,vertical,vertical
2b,3,100269,12,31,383,19,M,NA,constant,homogeneous,4,absent,0.825866937637329,1,horizontal,horizontal,1,2,green,4,NaN,619.68777079743,780.31222920257,NaN,NaN,980.31222920257,780.31222920257,980.31222920257,419.68777079743,619.68777079743,419.68777079743,619.68777079743,780.31222920257,0,0,0,4,vertical,horizontal,vertical,horizontal
2b,3,100269,12,32,384,19,M,NA,constant,homogeneous,4,absent,0.622296810150146,1,horizontal,horizontal,1,5,green,4,NaN,619.68777079743,780.31222920257,NaN,NaN,980.31222920257,780.31222920257,980.31222920257,419.68777079743,619.68777079743,419.68777079743,619.68777079743,780.31222920257,0,0,0,4,vertical,horizontal,horizontal,horizontal
2b,3,100269,13,1,385,19,M,NA,constant,homogeneous,4,present,0.814779996871948,1,vertical,vertical,1,5,green,4,2,619.68777079743,780.31222920257,980.31222920257,419.68777079743,980.31222920257,780.31222920257,980.31222920257,419.68777079743,619.68777079743,419.68777079743,619.68777079743,780.31222920257,0,0,0,4,horizontal,vertical,horizontal,vertical
2b,3,100269,13,2,386,19,M,NA,constant,homogeneous,4,present,0.647416114807129,1,vertical,vertical,1,2,green,2,4,980.31222920257,419.68777079743,619.68777079743,780.31222920257,980.31222920257,780.31222920257,980.31222920257,419.68777079743,619.68777079743,419.68777079743,619.68777079743,780.31222920257,0,4,0,0,vertical,vertical,horizontal,horizontal
2b,3,100269,13,3,387,19,M,NA,constant,homogeneous,4,absent,0.692166090011597,1,vertical,vertical,1,2,green,3,NaN,619.68777079743,419.68777079743,NaN,NaN,980.31222920257,780.31222920257,980.31222920257,419.68777079743,619.68777079743,419.68777079743,619.68777079743,780.31222920257,0,0,4,0,vertical,vertical,vertical,vertical
2b,3,100269,13,4,388,19,M,NA,constant,homogeneous,4,absent,1.0382719039917,1,horizontal,horizontal,1,8,green,4,NaN,619.68777079743,780.31222920257,NaN,NaN,980.31222920257,780.31222920257,980.31222920257,419.68777079743,619.68777079743,419.68777079743,619.68777079743,780.31222920257,0,0,0,4,vertical,vertical,vertical,horizontal
2b,3,100269,13,5,389,19,M,NA,constant,homogeneous,4,absent,0.919305086135864,1,horizontal,horizontal,1,2,green,2,NaN,980.31222920257,419.68777079743,NaN,NaN,980.31222920257,780.31222920257,980.31222920257,419.68777079743,619.68777079743,419.68777079743,619.68777079743,780.31222920257,0,4,0,0,horizontal,horizontal,horizontal,vertical
2b,3,100269,13,6,390,19,M,NA,constant,homogeneous,4,present,0.64624285697937,1,horizontal,horizontal,1,2,green,3,2,619.68777079743,419.68777079743,980.31222920257,419.68777079743,980.31222920257,780.31222920257,980.31222920257,419.68777079743,619.68777079743,419.68777079743,619.68777079743,780.31222920257,0,0,4,0,vertical,horizontal,horizontal,vertical
2b,3,100269,13,7,391,19,M,NA,constant,homogeneous,4,present,0.667287826538086,1,horizontal,horizontal,1,5,green,2,4,980.31222920257,419.68777079743,619.68777079743,780.31222920257,980.31222920257,780.31222920257,980.31222920257,419.68777079743,619.68777079743,419.68777079743,619.68777079743,780.31222920257,0,4,0,0,horizontal,horizontal,horizontal,vertical
2b,3,100269,13,8,392,19,M,NA,constant,homogeneous,4,present,0.580705881118774,1,horizontal,horizontal,1,3,green,3,2,619.68777079743,419.68777079743,980.31222920257,419.68777079743,980.31222920257,780.31222920257,980.31222920257,419.68777079743,619.68777079743,419.68777079743,619.68777079743,780.31222920257,0,0,4,0,horizontal,vertical,horizontal,vertical
2b,3,100269,13,9,393,19,M,NA,constant,homogeneous,4,present,0.584718942642212,1,vertical,vertical,1,8,green,3,1,619.68777079743,419.68777079743,980.31222920257,780.31222920257,980.31222920257,780.31222920257,980.31222920257,419.68777079743,619.68777079743,419.68777079743,619.68777079743,780.31222920257,0,0,4,0,vertical,vertical,vertical,vertical
2b,3,100269,13,10,394,19,M,NA,constant,homogeneous,4,present,0.748512983322144,1,horizontal,horizontal,1,8,green,4,3,619.68777079743,780.31222920257,619.68777079743,419.68777079743,980.31222920257,780.31222920257,980.31222920257,419.68777079743,619.68777079743,419.68777079743,619.68777079743,780.31222920257,0,0,0,4,vertical,horizontal,vertical,horizontal
2b,3,100269,13,11,395,19,M,NA,constant,homogeneous,4,absent,0.707617044448853,1,horizontal,horizontal,1,3,green,2,NaN,980.31222920257,419.68777079743,NaN,NaN,980.31222920257,780.31222920257,980.31222920257,419.68777079743,619.68777079743,419.68777079743,619.68777079743,780.31222920257,0,4,0,0,vertical,horizontal,horizontal,horizontal
2b,3,100269,13,12,396,19,M,NA,constant,homogeneous,4,absent,0.782122135162354,1,vertical,vertical,1,3,green,4,NaN,619.68777079743,780.31222920257,NaN,NaN,980.31222920257,780.31222920257,980.31222920257,419.68777079743,619.68777079743,419.68777079743,619.68777079743,780.31222920257,0,0,0,4,horizontal,horizontal,vertical,vertical
2b,3,100269,13,13,397,19,M,NA,constant,homogeneous,4,absent,0.753861904144287,1,vertical,vertical,1,5,green,2,NaN,980.31222920257,419.68777079743,NaN,NaN,980.31222920257,780.31222920257,980.31222920257,419.68777079743,619.68777079743,419.68777079743,619.68777079743,780.31222920257,0,4,0,0,vertical,vertical,vertical,vertical
2b,3,100269,13,14,398,19,M,NA,constant,homogeneous,4,present,0.685352087020874,1,vertical,vertical,1,5,green,3,1,619.68777079743,419.68777079743,980.31222920257,780.31222920257,980.31222920257,780.31222920257,980.31222920257,419.68777079743,619.68777079743,419.68777079743,619.68777079743,780.31222920257,0,0,4,0,horizontal,horizontal,vertical,vertical
2b,3,100269,13,15,399,19,M,NA,constant,homogeneous,4,present,0.791436910629272,1,vertical,vertical,1,2,green,3,1,619.68777079743,419.68777079743,980.31222920257,780.31222920257,980.31222920257,780.31222920257,980.31222920257,419.68777079743,619.68777079743,419.68777079743,619.68777079743,780.31222920257,0,0,4,0,vertical,horizontal,vertical,vertical
2b,3,100269,13,16,400,19,M,NA,constant,homogeneous,4,present,0.695346832275391,1,vertical,vertical,1,2,green,4,1,619.68777079743,780.31222920257,980.31222920257,780.31222920257,980.31222920257,780.31222920257,980.31222920257,419.68777079743,619.68777079743,419.68777079743,619.68777079743,780.31222920257,0,0,0,4,horizontal,vertical,vertical,vertical
2b,3,100269,13,17,401,19,M,NA,constant,homogeneous,4,present,0.701640129089355,1,horizontal,horizontal,1,5,green,2,3,980.31222920257,419.68777079743,619.68777079743,419.68777079743,980.31222920257,780.31222920257,980.31222920257,419.68777079743,619.68777079743,419.68777079743,619.68777079743,780.31222920257,0,4,0,0,horizontal,horizontal,horizontal,vertical
2b,3,100269,13,18,402,19,M,NA,constant,homogeneous,4,absent,0.747792959213257,1,vertical,vertical,1,2,green,3,NaN,619.68777079743,419.68777079743,NaN,NaN,980.31222920257,780.31222920257,980.31222920257,419.68777079743,619.68777079743,419.68777079743,619.68777079743,780.31222920257,0,0,4,0,horizontal,horizontal,vertical,horizontal
2b,3,100269,13,19,403,19,M,NA,constant,homogeneous,4,absent,0.611080169677734,1,horizontal,horizontal,1,3,green,3,NaN,619.68777079743,419.68777079743,NaN,NaN,980.31222920257,780.31222920257,980.31222920257,419.68777079743,619.68777079743,419.68777079743,619.68777079743,780.31222920257,0,0,4,0,vertical,vertical,horizontal,horizontal
2b,3,100269,13,20,404,19,M,NA,constant,homogeneous,4,absent,0.92362904548645,1,horizontal,horizontal,1,5,green,4,NaN,619.68777079743,780.31222920257,NaN,NaN,980.31222920257,780.31222920257,980.31222920257,419.68777079743,619.68777079743,419.68777079743,619.68777079743,780.31222920257,0,0,0,4,vertical,horizontal,vertical,horizontal
2b,3,100269,13,21,405,19,M,NA,constant,homogeneous,4,absent,0.722193956375122,1,vertical,vertical,1,3,green,4,NaN,619.68777079743,780.31222920257,NaN,NaN,980.31222920257,780.31222920257,980.31222920257,419.68777079743,619.68777079743,419.68777079743,619.68777079743,780.31222920257,0,0,0,4,vertical,vertical,vertical,vertical
2b,3,100269,13,22,406,19,M,NA,constant,homogeneous,4,absent,0.792700052261353,1,vertical,vertical,1,8,green,2,NaN,980.31222920257,419.68777079743,NaN,NaN,980.31222920257,780.31222920257,980.31222920257,419.68777079743,619.68777079743,419.68777079743,619.68777079743,780.31222920257,0,4,0,0,horizontal,vertical,horizontal,vertical
2b,3,100269,13,23,407,19,M,NA,constant,homogeneous,4,present,0.888964891433716,1,horizontal,horizontal,1,2,green,4,2,619.68777079743,780.31222920257,980.31222920257,419.68777079743,980.31222920257,780.31222920257,980.31222920257,419.68777079743,619.68777079743,419.68777079743,619.68777079743,780.31222920257,0,0,0,4,horizontal,horizontal,vertical,horizontal
2b,3,100269,13,24,408,19,M,NA,constant,homogeneous,4,present,0.882935047149658,1,horizontal,horizontal,1,3,green,1,2,980.31222920257,780.31222920257,980.31222920257,419.68777079743,980.31222920257,780.31222920257,980.31222920257,419.68777079743,619.68777079743,419.68777079743,619.68777079743,780.31222920257,4,0,0,0,horizontal,vertical,horizontal,vertical
2b,3,100269,13,25,409,19,M,NA,constant,homogeneous,4,present,0.620805025100708,1,vertical,vertical,1,3,green,2,3,980.31222920257,419.68777079743,619.68777079743,419.68777079743,980.31222920257,780.31222920257,980.31222920257,419.68777079743,619.68777079743,419.68777079743,619.68777079743,780.31222920257,0,4,0,0,horizontal,vertical,horizontal,horizontal
2b,3,100269,13,26,410,19,M,NA,constant,homogeneous,4,present,0.661317110061646,1,vertical,vertical,1,3,green,3,4,619.68777079743,419.68777079743,619.68777079743,780.31222920257,980.31222920257,780.31222920257,980.31222920257,419.68777079743,619.68777079743,419.68777079743,619.68777079743,780.31222920257,0,0,4,0,vertical,horizontal,vertical,horizontal
2b,3,100269,13,27,411,19,M,NA,constant,homogeneous,4,absent,0.622660875320435,1,horizontal,horizontal,1,5,green,3,NaN,619.68777079743,419.68777079743,NaN,NaN,980.31222920257,780.31222920257,980.31222920257,419.68777079743,619.68777079743,419.68777079743,619.68777079743,780.31222920257,0,0,4,0,horizontal,horizontal,horizontal,horizontal
2b,3,100269,13,28,412,19,M,NA,constant,homogeneous,4,absent,0.747663021087646,1,vertical,vertical,1,5,green,2,NaN,980.31222920257,419.68777079743,NaN,NaN,980.31222920257,780.31222920257,980.31222920257,419.68777079743,619.68777079743,419.68777079743,619.68777079743,780.31222920257,0,4,0,0,horizontal,vertical,horizontal,horizontal
2b,3,100269,13,29,413,19,M,NA,constant,homogeneous,4,absent,0.986932992935181,1,horizontal,horizontal,1,2,green,4,NaN,619.68777079743,780.31222920257,NaN,NaN,980.31222920257,780.31222920257,980.31222920257,419.68777079743,619.68777079743,419.68777079743,619.68777079743,780.31222920257,0,0,0,4,vertical,vertical,horizontal,horizontal
