experiment,subject,uniqueID,block,trial,trial_cumulative,age,gender,color_cond_blocking,color_history,shape_type,set_size,distractor,rt,acc,target_orient,response_key,response_made,iti,target_color,target_item,distractor_item,target_X,target_Y,distractor_X,distractor_Y,item1_X,item1_Y,item2_X,item2_Y,item3_X,item3_Y,item4_X,item4_Y,item1_shape,item2_shape,item3_shape,item4_shape,item1_line,item2_line,item3_line,item4_line
2b,4,100268,1,1,1,19,F,NA,constant,heterogeneous,4,absent,1.96996903419495,1,vertical,vertical,1,2,red,3,NaN,NaN,NaN,NaN,NaN,NaN,NaN,NaN,NaN,NaN,NaN,NaN,NaN,0,3,4,6,horizontal,vertical,vertical,vertical
2b,4,100268,1,2,2,19,F,NA,constant,heterogeneous,4,present,0.913086175918579,1,horizontal,horizontal,1,5,red,3,4,NaN,NaN,NaN,NaN,NaN,NaN,NaN,NaN,NaN,NaN,NaN,NaN,0,5,4,3,vertical,horizontal,horizontal,horizontal
2b,4,100268,1,3,3,19,F,NA,constant,heterogeneous,4,absent,NaN,0,horizontal,none,0,5,red,4,NaN,NaN,NaN,NaN,NaN,NaN,NaN,NaN,NaN,NaN,NaN,NaN,NaN,6,5,0,4,vertical,horizontal,vertical,horizontal
2b,4,100268,1,4,4,19,F,NA,constant,heterogeneous,4,absent,0.847628831863403,0,vertical,horizontal,1,2,red,3,NaN,NaN,NaN,NaN,NaN,NaN,NaN,NaN,NaN,NaN,NaN,NaN,NaN,0,5,4,6,horizontal,horizontal,vertical,horizontal
2b,4,100268,1,5,5,19,F,NA,constant,heterogeneous,4,absent,1.8930811882019,1,horizontal,horizontal,1,8,red,4,NaN,NaN,NaN,NaN,NaN,NaN,NaN,NaN,NaN,NaN,NaN,NaN,NaN,5,6,3,4,horizontal,horizontal,horizontal,horizontal
2b,4,100268,1,6,6,19,F,NA,constant,heterogeneous,4,absent,0.811317920684814,0,vertical,horizontal,1,5,red,4,NaN,NaN,NaN,NaN,NaN,NaN,NaN,NaN,NaN,NaN,NaN,NaN,NaN,3,5,6,4,vertical,horizontal,horizontal,vertical
2b,4,100268,1,7,7,19,F,NA,constant,heterogeneous,4,present,1.41207814216614,1,vertical,vertical,1,8,red,2,4,NaN,NaN,NaN,NaN,NaN,NaN,NaN,NaN,NaN,NaN,NaN,NaN,0,4,5,6,vertical,vertical,horizontal,vertical
2b,4,100268,1,8,8,19,F,NA,constant,heterogeneous,4,present,1.60449504852295,1,horizontal,horizontal,1,3,red,4,2,NaN,NaN,NaN,NaN,NaN,NaN,NaN,NaN,NaN,NaN,NaN,NaN,3,6,5,4,vertical,vertical,horizontal,horizontal
2b,4,100268,1,9,9,19,F,NA,constant,heterogeneous,4,absent,1.19272208213806,1,vertical,vertical,1,3,red,1,NaN,NaN,NaN,NaN,NaN,NaN,NaN,NaN,NaN,NaN,NaN,NaN,NaN,4,0,3,6,vertical,horizontal,vertical,vertical
2b,4,100268,1,10,10,19,F,NA,constant,heterogeneous,4,absent,1.43275499343872,1,horizontal,horizontal,1,2,red,4,NaN,NaN,NaN,NaN,NaN,NaN,NaN,NaN,NaN,NaN,NaN,NaN,NaN,3,5,0,4,vertical,vertical,vertical,horizontal
2b,4,100268,1,11,11,19,F,NA,constant,heterogeneous,4,absent,1.74164700508118,1,horizontal,horizontal,1,5,red,2,NaN,NaN,NaN,NaN,NaN,NaN,NaN,NaN,NaN,NaN,NaN,NaN,NaN,5,4,6,0,vertical,horizontal,horizontal,vertical
2b,4,100268,1,12,12,19,F,NA,constant,heterogeneous,4,absent,1.10885691642761,1,vertical,vertical,1,3,red,2,NaN,NaN,NaN,NaN,NaN,NaN,NaN,NaN,NaN,NaN,NaN,NaN,NaN,0,4,3,6,horizontal,vertical,vertical,horizontal
2b,4,100268,1,13,13,19,F,NA,constant,heterogeneous,4,present,NaN,0,horizontal,none,0,2,red,1,2,NaN,NaN,NaN,NaN,NaN,NaN,NaN,NaN,NaN,NaN,NaN,NaN,4,5,3,6,horizontal,vertical,vertical,vertical
2b,4,100268,1,14,14,19,F,NA,constant,heterogeneous,4,present,0.723665952682495,1,horizontal,horizontal,1,5,red,3,4,NaN,NaN,NaN,NaN,NaN,NaN,NaN,NaN,NaN,NaN,NaN,NaN,3,0,4,5,horizontal,vertical,horizontal,vertical
2b,4,100268,1,15,15,19,F,NA,constant,heterogeneous,4,present,1.10658502578735,1,horizontal,horizontal,1,8,red,4,1,NaN,NaN,NaN,NaN,NaN,NaN,NaN,NaN,NaN,NaN,NaN,NaN,0,3,5,4,horizontal,horizontal,vertical,horizontal
2b,4,100268,1,16,16,19,F,NA,constant,heterogeneous,4,absent,1.74076294898987,0,horizontal,vertical,1,3,red,2,NaN,NaN,NaN,NaN,NaN,NaN,NaN,NaN,NaN,NaN,NaN,NaN,NaN,3,4,5,0,horizontal,horizontal,horizontal,vertical
2b,4,100268,1,17,17,19,F,NA,constant,heterogeneous,4,absent,1.82806301116943,0,vertical,horizontal,1,2,red,4,NaN,NaN,NaN,NaN,NaN,NaN,NaN,NaN,NaN,NaN,NaN,NaN,NaN,3,0,5,4,horizontal,horizontal,vertical,vertical
2b,4,100268,1,18,18,19,F,NA,constant,heterogeneous,4,absent,1.22458696365356,1,horizontal,horizontal,1,2,red,1,NaN,NaN,NaN,NaN,NaN,NaN,NaN,NaN,NaN,NaN,NaN,NaN,NaN,4,0,3,6,horizontal,horizontal,vertical,horizontal
2b,4,100268,1,19,19,19,F,NA,constant,heterogeneous,4,present,0.893416166305542,1,horizontal,horizontal,1,2,red,3,2,NaN,NaN,NaN,NaN,NaN,NaN,NaN,NaN,NaN,NaN,NaN,NaN,0,3,4,6,horizontal,horizontal,horizontal,vertical
2b,4,100268,1,20,20,19,F,NA,constant,heterogeneous,4,present,1.14762401580811,1,vertical,vertical,1,3,red,4,2,NaN,NaN,NaN,NaN,NaN,NaN,NaN,NaN,NaN,NaN,NaN,NaN,5,0,6,4,horizontal,horizontal,vertical,vertical
2b,4,100268,1,21,21,19,F,NA,constant,heterogeneous,4,present,0.786748886108398,1,vertical,vertical,1,2,red,4,3,NaN,NaN,NaN,NaN,NaN,NaN,NaN,NaN,NaN,NaN,NaN,NaN,0,5,3,4,vertical,vertical,horizontal,vertical
2b,4,100268,1,22,22,19,F,NA,constant,heterogeneous,4,present,1.85081100463867,1,vertical,vertical,1,5,red,1,4,NaN,NaN,NaN,NaN,NaN,NaN,NaN,NaN,NaN,NaN,NaN,NaN,4,5,0,3,vertical,horizontal,horizontal,vertical
2b,4,100268,1,23,23,19,F,NA,constant,heterogeneous,4,absent,1.34423303604126,1,vertical,vertical,1,8,red,4,NaN,NaN,NaN,NaN,NaN,NaN,NaN,NaN,NaN,NaN,NaN,NaN,NaN,5,3,0,4,horizontal,horizontal,horizontal,vertical
2b,4,100268,1,24,24,19,F,NA,constant,heterogeneous,4,present,0.919340133666992,0,vertical,horizontal,1,3,red,2,4,NaN,NaN,NaN,NaN,NaN,NaN,NaN,NaN,NaN,NaN,NaN,NaN,6,4,5,0,vertical,vertical,vertical,vertical
2b,4,100268,1,25,25,19,F,NA,constant,heterogeneous,4,absent,0.989901065826416,1,horizontal,horizontal,1,2,red,4,NaN,NaN,NaN,NaN,NaN,NaN,NaN,NaN,NaN,NaN,NaN,NaN,NaN,6,3,5,4,horizontal,horizontal,horizontal,horizontal
2b,4,100268,1,26,26,19,F,NA,constant,heterogeneous,4,present,0.654056072235107,1,vertical,vertical,1,5,red,3,4,NaN,NaN,NaN,NaN,NaN,NaN,NaN,NaN,NaN,NaN,NaN,NaN,3,5,4,6,vertical,horizontal,vertical,horizontal
2b,4,100268,1,27,27,19,F,NA,constant,heterogeneous,4,present,1.01129603385925,1,horizontal,horizontal,1,3,red,4,3,NaN,NaN,NaN,NaN,NaN,NaN,NaN,NaN,NaN,NaN,NaN,NaN,0,5,3,4,horizontal,horizontal,horizontal,horizontal
2b,4,100268,1,28,28,19,F,NA,constant,heterogeneous,4,present,1.03567910194397,0,vertical,horizontal,1,2,red,3,1,NaN,NaN,NaN,NaN,NaN,NaN,NaN,NaN,NaN,NaN,NaN,NaN,6,0,4,5,vertical,horizontal,vertical,vertical
2b,4,100268,1,29,29,19,F,NA,constant,heterogeneous,4,present,1.13276314735413,1,vertical,vertical,1,2,red,4,1,NaN,NaN,NaN,NaN,NaN,NaN,NaN,NaN,NaN,NaN,NaN,NaN,0,6,3,4,horizontal,horizontal,vertical,vertical
2b,4,100268,1,30,30,19,F,NA,constant,heterogeneous,4,absent,0.911738157272339,1,vertical,vertical,1,5,red,4,NaN,NaN,NaN,NaN,NaN,NaN,NaN,NaN,NaN,NaN,NaN,NaN,NaN,6,0,3,4,vertical,vertical,vertical,vertical
2b,4,100268,1,31,31,19,F,NA,constant,heterogeneous,4,present,1.0582058429718,1,horizontal,horizontal,1,2,red,3,4,NaN,NaN,NaN,NaN,NaN,NaN,NaN,NaN,NaN,NaN,NaN,NaN,3,0,4,5,horizontal,vertical,horizontal,horizontal
2b,4,100268,1,32,32,19,F,NA,constant,heterogeneous,4,absent,1.73967790603638,1,horizontal,horizontal,1,3,red,4,NaN,NaN,NaN,NaN,NaN,NaN,NaN,NaN,NaN,NaN,NaN,NaN,NaN,0,6,5,4,vertical,horizontal,vertical,horizontal
2b,4,100268,2,1,33,19,F,NA,constant,heterogeneous,4,absent,NaN,0,horizontal,none,0,3,red,3,NaN,NaN,NaN,NaN,NaN,NaN,NaN,NaN,NaN,NaN,NaN,NaN,NaN,6,5,4,3,vertical,horizontal,horizontal,horizontal
2b,4,100268,2,2,34,19,F,NA,constant,heterogeneous,4,absent,0.821839094161987,1,vertical,vertical,1,2,red,3,NaN,NaN,NaN,NaN,NaN,NaN,NaN,NaN,NaN,NaN,NaN,NaN,NaN,5,3,4,0,vertical,vertical,vertical,vertical
2b,4,100268,2,3,35,19,F,NA,constant,heterogeneous,4,present,1.45438480377197,1,horizontal,horizontal,1,2,red,4,3,NaN,NaN,NaN,NaN,NaN,NaN,NaN,NaN,NaN,NaN,NaN,NaN,5,0,3,4,vertical,vertical,vertical,horizontal
2b,4,100268,2,4,36,19,F,NA,constant,heterogeneous,4,present,0.931604146957397,1,vertical,vertical,1,2,red,4,3,NaN,NaN,NaN,NaN,NaN,NaN,NaN,NaN,NaN,NaN,NaN,NaN,3,6,0,4,horizontal,horizontal,vertical,vertical
2b,4,100268,2,5,37,19,F,NA,constant,heterogeneous,4,absent,1.05436301231384,1,vertical,vertical,1,2,red,3,NaN,NaN,NaN,NaN,NaN,NaN,NaN,NaN,NaN,NaN,NaN,NaN,NaN,6,5,4,3,horizontal,vertical,vertical,horizontal
2b,4,100268,2,6,38,19,F,NA,constant,heterogeneous,4,absent,1.47538185119629,1,horizontal,horizontal,1,2,red,1,NaN,NaN,NaN,NaN,NaN,NaN,NaN,NaN,NaN,NaN,NaN,NaN,NaN,4,5,6,3,horizontal,vertical,vertical,horizontal
2b,4,100268,2,7,39,19,F,NA,constant,heterogeneous,4,present,0.905386924743652,1,horizontal,horizontal,1,2,red,4,3,NaN,NaN,NaN,NaN,NaN,NaN,NaN,NaN,NaN,NaN,NaN,NaN,0,5,6,4,horizontal,horizontal,horizontal,horizontal
2b,4,100268,2,8,40,19,F,NA,constant,heterogeneous,4,absent,1.53187203407288,1,vertical,vertical,1,5,red,2,NaN,NaN,NaN,NaN,NaN,NaN,NaN,NaN,NaN,NaN,NaN,NaN,NaN,6,4,3,5,vertical,vertical,vertical,horizontal
2b,4,100268,2,9,41,19,F,NA,constant,heterogeneous,4,present,1.26291108131409,1,vertical,vertical,1,3,red,1,2,NaN,NaN,NaN,NaN,NaN,NaN,NaN,NaN,NaN,NaN,NaN,NaN,4,0,6,5,vertical,vertical,horizontal,vertical
2b,4,100268,2,10,42,19,F,NA,constant,heterogeneous,4,present,0.952208042144775,1,vertical,vertical,1,2,red,2,1,NaN,NaN,NaN,NaN,NaN,NaN,NaN,NaN,NaN,NaN,NaN,NaN,0,4,6,3,vertical,vertical,horizontal,vertical
2b,4,100268,2,11,43,19,F,NA,constant,heterogeneous,4,present,0.851680040359497,1,horizontal,horizontal,1,8,red,4,1,NaN,NaN,NaN,NaN,NaN,NaN,NaN,NaN,NaN,NaN,NaN,NaN,0,3,5,4,vertical,vertical,horizontal,horizontal
2b,4,100268,2,12,44,19,F,NA,constant,heterogeneous,4,absent,1.00887203216553,0,vertical,horizontal,1,3,red,3,NaN,NaN,NaN,NaN,NaN,NaN,NaN,NaN,NaN,NaN,NaN,NaN,NaN,6,5,4,0,horizontal,vertical,vertical,horizontal
2b,4,100268,2,13,45,19,F,NA,constant,heterogeneous,4,absent,0.925364971160889,0,vertical,horizontal,1,5,red,4,NaN,NaN,NaN,NaN,NaN,NaN,NaN,NaN,NaN,NaN,NaN,NaN,NaN,0,5,3,4,horizontal,horizontal,vertical,vertical
2b,4,100268,2,14,46,19,F,NA,constant,heterogeneous,4,absent,1.22008109092712,1,horizontal,horizontal,1,2,red,3,NaN,NaN,NaN,NaN,NaN,NaN,NaN,NaN,NaN,NaN,NaN,NaN,NaN,5,3,4,6,vertical,vertical,horizontal,horizontal
2b,4,100268,2,15,47,19,F,NA,constant,heterogeneous,4,absent,0.756566047668457,1,vertical,vertical,1,8,red,2,NaN,NaN,NaN,NaN,NaN,NaN,NaN,NaN,NaN,NaN,NaN,NaN,NaN,3,4,6,5,vertical,vertical,vertical,vertical
2b,4,100268,2,16,48,19,F,NA,constant,heterogeneous,4,present,0.775925159454346,1,horizontal,horizontal,1,5,red,4,1,NaN,NaN,NaN,NaN,NaN,NaN,NaN,NaN,NaN,NaN,NaN,NaN,3,5,0,4,horizontal,horizontal,vertical,horizontal
2b,4,100268,2,17,49,19,F,NA,constant,heterogeneous,4,present,0.755805015563965,1,vertical,vertical,1,5,red,1,3,NaN,NaN,NaN,NaN,NaN,NaN,NaN,NaN,NaN,NaN,NaN,NaN,4,3,6,5,vertical,vertical,horizontal,horizontal
2b,4,100268,2,18,50,19,F,NA,constant,heterogeneous,4,absent,1.22320890426636,1,horizontal,horizontal,1,5,red,1,NaN,NaN,NaN,NaN,NaN,NaN,NaN,NaN,NaN,NaN,NaN,NaN,NaN,4,6,5,3,horizontal,horizontal,horizontal,horizontal
2b,4,100268,2,19,51,19,F,NA,constant,heterogeneous,4,absent,1.22022199630737,1,vertical,vertical,1,3,red,1,NaN,NaN,NaN,NaN,NaN,NaN,NaN,NaN,NaN,NaN,NaN,NaN,NaN,4,5,0,3,vertical,vertical,vertical,horizontal
2b,4,100268,2,20,52,19,F,NA,constant,heterogeneous,4,present,0.988795042037964,0,vertical,horizontal,1,5,red,3,1,NaN,NaN,NaN,NaN,NaN,NaN,NaN,NaN,NaN,NaN,NaN,NaN,3,0,4,5,horizontal,vertical,vertical,horizontal
2b,4,100268,2,21,53,19,F,NA,constant,heterogeneous,4,present,1.29297804832458,1,vertical,vertical,1,8,red,2,4,NaN,NaN,NaN,NaN,NaN,NaN,NaN,NaN,NaN,NaN,NaN,NaN,3,4,5,6,vertical,vertical,horizontal,horizontal
2b,4,100268,2,22,54,19,F,NA,constant,heterogeneous,4,absent,1.33095788955688,1,vertical,vertical,1,2,red,3,NaN,NaN,NaN,NaN,NaN,NaN,NaN,NaN,NaN,NaN,NaN,NaN,NaN,3,0,4,6,vertical,horizontal,vertical,vertical
2b,4,100268,2,23,55,19,F,NA,constant,heterogeneous,4,present,1.22203397750854,1,horizontal,horizontal,1,2,red,1,4,NaN,NaN,NaN,NaN,NaN,NaN,NaN,NaN,NaN,NaN,NaN,NaN,4,5,3,0,horizontal,horizontal,horizontal,horizontal
2b,4,100268,2,24,56,19,F,NA,constant,heterogeneous,4,present,1.3945209980011,1,horizontal,horizontal,1,3,red,1,4,NaN,NaN,NaN,NaN,NaN,NaN,NaN,NaN,NaN,NaN,NaN,NaN,4,5,3,0,horizontal,vertical,horizontal,horizontal
2b,4,100268,2,25,57,19,F,NA,constant,heterogeneous,4,present,1.65072011947632,1,vertical,vertical,1,2,red,4,1,NaN,NaN,NaN,NaN,NaN,NaN,NaN,NaN,NaN,NaN,NaN,NaN,6,0,3,4,vertical,horizontal,horizontal,vertical
2b,4,100268,2,26,58,19,F,NA,constant,heterogeneous,4,present,1.24780488014221,1,horizontal,horizontal,1,5,red,2,3,NaN,NaN,NaN,NaN,NaN,NaN,NaN,NaN,NaN,NaN,NaN,NaN,3,4,0,5,horizontal,horizontal,vertical,horizontal
2b,4,100268,2,27,59,19,F,NA,constant,heterogeneous,4,absent,1.06113195419312,1,horizontal,horizontal,1,8,red,1,NaN,NaN,NaN,NaN,NaN,NaN,NaN,NaN,NaN,NaN,NaN,NaN,NaN,4,3,0,6,horizontal,horizontal,horizontal,vertical
2b,4,100268,2,28,60,19,F,NA,constant,heterogeneous,4,absent,1.67083120346069,1,horizontal,horizontal,1,5,red,1,NaN,NaN,NaN,NaN,NaN,NaN,NaN,NaN,NaN,NaN,NaN,NaN,NaN,4,0,3,5,horizontal,vertical,vertical,vertical
2b,4,100268,2,29,61,19,F,NA,constant,heterogeneous,4,absent,NaN,0,horizontal,none,0,2,red,3,NaN,NaN,NaN,NaN,NaN,NaN,NaN,NaN,NaN,NaN,NaN,NaN,NaN,0,6,4,3,horizontal,horizontal,horizontal,horizontal
2b,4,100268,2,30,62,19,F,NA,constant,heterogeneous,4,absent,1.16086101531982,1,horizontal,horizontal,1,3,red,4,NaN,NaN,NaN,NaN,NaN,NaN,NaN,NaN,NaN,NaN,NaN,NaN,NaN,6,0,3,4,horizontal,horizontal,horizontal,horizontal
2b,4,100268,2,31,63,19,F,NA,constant,heterogeneous,4,present,0.940210103988647,1,vertical,vertical,1,3,red,1,3,NaN,NaN,NaN,NaN,NaN,NaN,NaN,NaN,NaN,NaN,NaN,NaN,4,0,6,3,vertical,horizontal,vertical,vertical
2b,4,100268,2,32,64,19,F,NA,constant,heterogeneous,4,present,1.27537894248962,1,horizontal,horizontal,1,3,red,3,4,NaN,NaN,NaN,NaN,NaN,NaN,NaN,NaN,NaN,NaN,NaN,NaN,5,0,4,6,vertical,horizontal,horizontal,horizontal
2b,4,100268,3,1,65,19,F,NA,constant,heterogeneous,4,absent,1.42844486236572,1,vertical,vertical,1,2,red,4,NaN,NaN,NaN,NaN,NaN,NaN,NaN,NaN,NaN,NaN,NaN,NaN,NaN,6,5,0,4,horizontal,horizontal,vertical,vertical
2b,4,100268,3,2,66,19,F,NA,constant,heterogeneous,4,present,1.2013099193573,1,horizontal,horizontal,1,8,red,3,4,NaN,NaN,NaN,NaN,NaN,NaN,NaN,NaN,NaN,NaN,NaN,NaN,6,5,4,3,vertical,vertical,horizontal,horizontal
2b,4,100268,3,3,67,19,F,NA,constant,heterogeneous,4,absent,NaN,0,horizontal,none,0,5,red,4,NaN,NaN,NaN,NaN,NaN,NaN,NaN,NaN,NaN,NaN,NaN,NaN,NaN,3,5,0,4,vertical,horizontal,vertical,horizontal
2b,4,100268,3,4,68,19,F,NA,constant,heterogeneous,4,present,0.786144018173218,0,vertical,horizontal,1,8,red,3,1,NaN,NaN,NaN,NaN,NaN,NaN,NaN,NaN,NaN,NaN,NaN,NaN,3,5,4,6,horizontal,horizontal,vertical,horizontal
2b,4,100268,3,5,69,19,F,NA,constant,heterogeneous,4,absent,0.917912006378174,1,vertical,vertical,1,3,red,2,NaN,NaN,NaN,NaN,NaN,NaN,NaN,NaN,NaN,NaN,NaN,NaN,NaN,6,4,3,0,vertical,vertical,vertical,vertical
2b,4,100268,3,6,70,19,F,NA,constant,heterogeneous,4,present,0.524632215499878,1,vertical,vertical,1,5,red,2,4,NaN,NaN,NaN,NaN,NaN,NaN,NaN,NaN,NaN,NaN,NaN,NaN,0,4,6,3,horizontal,vertical,vertical,horizontal
2b,4,100268,3,7,71,19,F,NA,constant,heterogeneous,4,present,0.635483026504517,0,vertical,horizontal,1,5,red,4,3,NaN,NaN,NaN,NaN,NaN,NaN,NaN,NaN,NaN,NaN,NaN,NaN,3,0,6,4,vertical,horizontal,horizontal,vertical
2b,4,100268,3,8,72,19,F,NA,constant,heterogeneous,4,absent,1.0923159122467,0,horizontal,vertical,1,3,red,1,NaN,NaN,NaN,NaN,NaN,NaN,NaN,NaN,NaN,NaN,NaN,NaN,NaN,4,3,0,5,horizontal,horizontal,vertical,vertical
2b,4,100268,3,9,73,19,F,NA,constant,heterogeneous,4,absent,1.07819819450378,1,vertical,vertical,1,2,red,2,NaN,NaN,NaN,NaN,NaN,NaN,NaN,NaN,NaN,NaN,NaN,NaN,NaN,0,4,5,3,vertical,vertical,vertical,vertical
2b,4,100268,3,10,74,19,F,NA,constant,heterogeneous,4,absent,0.635955810546875,1,horizontal,horizontal,1,2,red,2,NaN,NaN,NaN,NaN,NaN,NaN,NaN,NaN,NaN,NaN,NaN,NaN,NaN,6,4,0,5,vertical,horizontal,vertical,horizontal
2b,4,100268,3,11,75,19,F,NA,constant,heterogeneous,4,present,0.677013874053955,0,horizontal,vertical,1,5,red,3,1,NaN,NaN,NaN,NaN,NaN,NaN,NaN,NaN,NaN,NaN,NaN,NaN,3,6,4,0,vertical,horizontal,horizontal,vertical
2b,4,100268,3,12,76,19,F,NA,constant,heterogeneous,4,absent,0.858654022216797,1,vertical,vertical,1,2,red,2,NaN,NaN,NaN,NaN,NaN,NaN,NaN,NaN,NaN,NaN,NaN,NaN,NaN,3,4,6,5,horizontal,vertical,horizontal,horizontal
2b,4,100268,3,13,77,19,F,NA,constant,heterogeneous,4,present,0.676242828369141,1,horizontal,horizontal,1,3,red,2,1,NaN,NaN,NaN,NaN,NaN,NaN,NaN,NaN,NaN,NaN,NaN,NaN,6,4,5,0,vertical,horizontal,horizontal,horizontal
2b,4,100268,3,14,78,19,F,NA,constant,heterogeneous,4,absent,1.06595396995544,1,vertical,vertical,1,5,red,4,NaN,NaN,NaN,NaN,NaN,NaN,NaN,NaN,NaN,NaN,NaN,NaN,NaN,0,6,3,4,horizontal,horizontal,horizontal,vertical
2b,4,100268,3,15,79,19,F,NA,constant,heterogeneous,4,present,0.955520868301392,1,horizontal,horizontal,1,2,red,4,2,NaN,NaN,NaN,NaN,NaN,NaN,NaN,NaN,NaN,NaN,NaN,NaN,3,5,0,4,horizontal,vertical,vertical,horizontal
2b,4,100268,3,16,80,19,F,NA,constant,heterogeneous,4,absent,0.950798988342285,1,horizontal,horizontal,1,8,red,4,NaN,NaN,NaN,NaN,NaN,NaN,NaN,NaN,NaN,NaN,NaN,NaN,NaN,3,0,5,4,vertical,vertical,horizontal,horizontal
2b,4,100268,3,17,81,19,F,NA,constant,heterogeneous,4,present,1.17378687858582,1,horizontal,horizontal,1,2,red,1,3,NaN,NaN,NaN,NaN,NaN,NaN,NaN,NaN,NaN,NaN,NaN,NaN,4,5,0,6,horizontal,horizontal,vertical,horizontal
2b,4,100268,3,18,82,19,F,NA,constant,heterogeneous,4,present,0.741492986679077,1,vertical,vertical,1,2,red,4,3,NaN,NaN,NaN,NaN,NaN,NaN,NaN,NaN,NaN,NaN,NaN,NaN,6,0,5,4,horizontal,vertical,horizontal,vertical
2b,4,100268,3,19,83,19,F,NA,constant,heterogeneous,4,absent,1.42877602577209,1,vertical,vertical,1,8,red,2,NaN,NaN,NaN,NaN,NaN,NaN,NaN,NaN,NaN,NaN,NaN,NaN,NaN,3,4,0,6,vertical,vertical,horizontal,vertical
2b,4,100268,3,20,84,19,F,NA,constant,heterogeneous,4,absent,1.83352899551392,1,horizontal,horizontal,1,2,red,3,NaN,NaN,NaN,NaN,NaN,NaN,NaN,NaN,NaN,NaN,NaN,NaN,NaN,0,5,4,3,vertical,horizontal,horizontal,vertical
2b,4,100268,3,21,85,19,F,NA,constant,heterogeneous,4,present,1.4302990436554,1,horizontal,horizontal,1,3,red,1,2,NaN,NaN,NaN,NaN,NaN,NaN,NaN,NaN,NaN,NaN,NaN,NaN,4,6,5,0,horizontal,vertical,vertical,vertical
2b,4,100268,3,22,86,19,F,NA,constant,heterogeneous,4,absent,1.25115394592285,1,horizontal,horizontal,1,5,red,4,NaN,NaN,NaN,NaN,NaN,NaN,NaN,NaN,NaN,NaN,NaN,NaN,NaN,0,6,3,4,horizontal,horizontal,horizontal,horizontal
2b,4,100268,3,23,87,19,F,NA,constant,heterogeneous,4,absent,1.79225301742554,0,vertical,horizontal,1,5,red,3,NaN,NaN,NaN,NaN,NaN,NaN,NaN,NaN,NaN,NaN,NaN,NaN,NaN,6,0,4,5,vertical,vertical,vertical,vertical
2b,4,100268,3,24,88,19,F,NA,constant,heterogeneous,4,present,0.816479206085205,1,vertical,vertical,1,2,red,3,2,NaN,NaN,NaN,NaN,NaN,NaN,NaN,NaN,NaN,NaN,NaN,NaN,0,3,4,5,horizontal,vertical,vertical,vertical
2b,4,100268,3,25,89,19,F,NA,constant,heterogeneous,4,present,NaN,0,vertical,none,0,3,red,1,2,NaN,NaN,NaN,NaN,NaN,NaN,NaN,NaN,NaN,NaN,NaN,NaN,4,6,5,3,vertical,vertical,vertical,vertical
2b,4,100268,3,26,90,19,F,NA,constant,heterogeneous,4,absent,1.07753705978394,1,horizontal,horizontal,1,2,red,2,NaN,NaN,NaN,NaN,NaN,NaN,NaN,NaN,NaN,NaN,NaN,NaN,NaN,3,4,6,0,vertical,horizontal,vertical,vertical
2b,4,100268,3,27,91,19,F,NA,constant,heterogeneous,4,present,0.787024021148682,1,vertical,vertical,1,3,red,2,3,NaN,NaN,NaN,NaN,NaN,NaN,NaN,NaN,NaN,NaN,NaN,NaN,0,4,6,5,horizontal,vertical,horizontal,horizontal
2b,4,100268,3,28,92,19,F,NA,constant,heterogeneous,4,present,0.803048133850098,1,horizontal,horizontal,1,5,red,2,3,NaN,NaN,NaN,NaN,NaN,NaN,NaN,NaN,NaN,NaN,NaN,NaN,0,4,6,5,horizontal,horizontal,horizontal,vertical
2b,4,100268,3,29,93,19,F,NA,constant,heterogeneous,4,present,0.95940089225769,1,horizontal,horizontal,1,2,red,3,1,NaN,NaN,NaN,NaN,NaN,NaN,NaN,NaN,NaN,NaN,NaN,NaN,0,6,4,5,horizontal,horizontal,horizontal,vertical
2b,4,100268,3,30,94,19,F,NA,constant,heterogeneous,4,absent,1.02687191963196,1,vertical,vertical,1,3,red,1,NaN,NaN,NaN,NaN,NaN,NaN,NaN,NaN,NaN,NaN,NaN,NaN,NaN,4,0,3,6,vertical,horizontal,horizontal,vertical
2b,4,100268,3,31,95,19,F,NA,constant,heterogeneous,4,present,1.24760317802429,0,vertical,horizontal,1,2,red,2,1,NaN,NaN,NaN,NaN,NaN,NaN,NaN,NaN,NaN,NaN,NaN,NaN,6,4,3,5,vertical,vertical,horizontal,vertical
2b,4,100268,3,32,96,19,F,NA,constant,heterogeneous,4,absent,1.93291401863098,1,horizontal,horizontal,1,3,red,4,NaN,NaN,NaN,NaN,NaN,NaN,NaN,NaN,NaN,NaN,NaN,NaN,NaN,5,0,6,4,vertical,vertical,horizontal,horizontal
2b,4,100268,4,1,97,19,F,NA,constant,heterogeneous,4,absent,1.53588104248047,1,horizontal,horizontal,1,2,red,1,NaN,NaN,NaN,NaN,NaN,NaN,NaN,NaN,NaN,NaN,NaN,NaN,NaN,4,5,6,3,horizontal,vertical,vertical,vertical
2b,4,100268,4,2,98,19,F,NA,constant,heterogeneous,4,absent,1.17076182365417,1,horizontal,horizontal,1,3,red,3,NaN,NaN,NaN,NaN,NaN,NaN,NaN,NaN,NaN,NaN,NaN,NaN,NaN,6,3,4,0,horizontal,vertical,horizontal,horizontal
2b,4,100268,4,3,99,19,F,NA,constant,heterogeneous,4,absent,0.802447080612183,1,horizontal,horizontal,1,2,red,3,NaN,NaN,NaN,NaN,NaN,NaN,NaN,NaN,NaN,NaN,NaN,NaN,NaN,5,0,4,6,vertical,horizontal,horizontal,vertical
2b,4,100268,4,4,100,19,F,NA,constant,heterogeneous,4,absent,0.846603155136108,0,horizontal,vertical,1,3,red,1,NaN,NaN,NaN,NaN,NaN,NaN,NaN,NaN,NaN,NaN,NaN,NaN,NaN,4,6,3,5,horizontal,horizontal,horizontal,vertical
2b,4,100268,4,5,101,19,F,NA,constant,heterogeneous,4,present,0.892006874084473,1,vertical,vertical,1,2,red,3,1,NaN,NaN,NaN,NaN,NaN,NaN,NaN,NaN,NaN,NaN,NaN,NaN,3,0,4,5,vertical,horizontal,vertical,horizontal
2b,4,100268,4,6,102,19,F,NA,constant,heterogeneous,4,present,1.0060088634491,1,vertical,vertical,1,2,red,1,3,NaN,NaN,NaN,NaN,NaN,NaN,NaN,NaN,NaN,NaN,NaN,NaN,4,3,5,0,vertical,horizontal,vertical,vertical
2b,4,100268,4,7,103,19,F,NA,constant,heterogeneous,4,absent,1.17015504837036,1,vertical,vertical,1,5,red,4,NaN,NaN,NaN,NaN,NaN,NaN,NaN,NaN,NaN,NaN,NaN,NaN,NaN,6,5,0,4,vertical,vertical,vertical,vertical
2b,4,100268,4,8,104,19,F,NA,constant,heterogeneous,4,present,0.78587794303894,1,vertical,vertical,1,8,red,4,2,NaN,NaN,NaN,NaN,NaN,NaN,NaN,NaN,NaN,NaN,NaN,NaN,0,3,6,4,vertical,vertical,horizontal,vertical
2b,4,100268,4,9,105,19,F,NA,constant,heterogeneous,4,absent,0.757647037506104,1,vertical,vertical,1,8,red,1,NaN,NaN,NaN,NaN,NaN,NaN,NaN,NaN,NaN,NaN,NaN,NaN,NaN,4,0,6,5,vertical,vertical,vertical,vertical
2b,4,100268,4,10,106,19,F,NA,constant,heterogeneous,4,present,0.712980031967163,1,vertical,vertical,1,5,red,1,2,NaN,NaN,NaN,NaN,NaN,NaN,NaN,NaN,NaN,NaN,NaN,NaN,4,6,0,3,vertical,horizontal,vertical,horizontal
2b,4,100268,4,11,107,19,F,NA,constant,heterogeneous,4,present,0.891748905181885,1,horizontal,horizontal,1,2,red,4,3,NaN,NaN,NaN,NaN,NaN,NaN,NaN,NaN,NaN,NaN,NaN,NaN,6,5,0,4,horizontal,vertical,vertical,horizontal
2b,4,100268,4,12,108,19,F,NA,constant,heterogeneous,4,present,0.957508087158203,1,horizontal,horizontal,1,2,red,3,1,NaN,NaN,NaN,NaN,NaN,NaN,NaN,NaN,NaN,NaN,NaN,NaN,3,6,4,0,vertical,vertical,horizontal,vertical
2b,4,100268,4,13,109,19,F,NA,constant,heterogeneous,4,present,0.992897987365723,1,horizontal,horizontal,1,3,red,3,2,NaN,NaN,NaN,NaN,NaN,NaN,NaN,NaN,NaN,NaN,NaN,NaN,0,3,4,6,vertical,vertical,horizontal,horizontal
2b,4,100268,4,14,110,19,F,NA,constant,heterogeneous,4,absent,1.01697087287903,1,vertical,vertical,1,3,red,4,NaN,NaN,NaN,NaN,NaN,NaN,NaN,NaN,NaN,NaN,NaN,NaN,NaN,5,6,0,4,vertical,horizontal,horizontal,vertical
2b,4,100268,4,15,111,19,F,NA,constant,heterogeneous,4,absent,NaN,0,horizontal,none,0,5,red,2,NaN,NaN,NaN,NaN,NaN,NaN,NaN,NaN,NaN,NaN,NaN,NaN,NaN,6,4,5,3,vertical,horizontal,vertical,horizontal
2b,4,100268,4,16,112,19,F,NA,constant,heterogeneous,4,absent,1.31772303581238,1,vertical,vertical,1,2,red,1,NaN,NaN,NaN,NaN,NaN,NaN,NaN,NaN,NaN,NaN,NaN,NaN,NaN,4,6,0,5,vertical,horizontal,vertical,horizontal
2b,4,100268,4,17,113,19,F,NA,constant,heterogeneous,4,present,0.604417085647583,1,vertical,vertical,1,3,red,1,2,NaN,NaN,NaN,NaN,NaN,NaN,NaN,NaN,NaN,NaN,NaN,NaN,4,0,3,6,vertical,vertical,vertical,horizontal
2b,4,100268,4,18,114,19,F,NA,constant,heterogeneous,4,absent,0.840975999832153,1,vertical,vertical,1,2,red,1,NaN,NaN,NaN,NaN,NaN,NaN,NaN,NaN,NaN,NaN,NaN,NaN,NaN,4,6,5,3,vertical,vertical,vertical,vertical
2b,4,100268,4,19,115,19,F,NA,constant,heterogeneous,4,present,1.42589116096497,1,horizontal,horizontal,1,8,red,4,2,NaN,NaN,NaN,NaN,NaN,NaN,NaN,NaN,NaN,NaN,NaN,NaN,5,3,0,4,horizontal,vertical,horizontal,horizontal
2b,4,100268,4,20,116,19,F,NA,constant,heterogeneous,4,present,1.31092095375061,1,horizontal,horizontal,1,5,red,4,2,NaN,NaN,NaN,NaN,NaN,NaN,NaN,NaN,NaN,NaN,NaN,NaN,5,3,6,4,horizontal,vertical,horizontal,horizontal
2b,4,100268,4,21,117,19,F,NA,constant,heterogeneous,4,absent,0.961371898651123,1,vertical,vertical,1,3,red,3,NaN,NaN,NaN,NaN,NaN,NaN,NaN,NaN,NaN,NaN,NaN,NaN,NaN,6,0,4,5,vertical,vertical,vertical,vertical
2b,4,100268,4,22,118,19,F,NA,constant,heterogeneous,4,present,1.37235999107361,1,horizontal,horizontal,1,2,red,2,4,NaN,NaN,NaN,NaN,NaN,NaN,NaN,NaN,NaN,NaN,NaN,NaN,6,4,0,3,vertical,horizontal,horizontal,horizontal
2b,4,100268,4,23,119,19,F,NA,constant,heterogeneous,4,present,1.228107213974,1,vertical,vertical,1,2,red,4,1,NaN,NaN,NaN,NaN,NaN,NaN,NaN,NaN,NaN,NaN,NaN,NaN,6,3,0,4,vertical,horizontal,horizontal,vertical
2b,4,100268,4,24,120,19,F,NA,constant,heterogeneous,4,absent,1.15296697616577,1,horizontal,horizontal,1,8,red,3,NaN,NaN,NaN,NaN,NaN,NaN,NaN,NaN,NaN,NaN,NaN,NaN,NaN,5,0,4,6,horizontal,vertical,horizontal,horizontal
2b,4,100268,4,25,121,19,F,NA,constant,heterogeneous,4,present,1.06033992767334,1,vertical,vertical,1,5,red,4,2,NaN,NaN,NaN,NaN,NaN,NaN,NaN,NaN,NaN,NaN,NaN,NaN,5,6,3,4,vertical,vertical,horizontal,vertical
2b,4,100268,4,26,122,19,F,NA,constant,heterogeneous,4,absent,1.42991304397583,1,horizontal,horizontal,1,2,red,3,NaN,NaN,NaN,NaN,NaN,NaN,NaN,NaN,NaN,NaN,NaN,NaN,NaN,6,0,4,3,horizontal,horizontal,horizontal,horizontal
2b,4,100268,4,27,123,19,F,NA,constant,heterogeneous,4,absent,NaN,0,vertical,none,0,5,red,2,NaN,NaN,NaN,NaN,NaN,NaN,NaN,NaN,NaN,NaN,NaN,NaN,NaN,6,4,0,5,vertical,vertical,horizontal,horizontal
2b,4,100268,4,28,124,19,F,NA,constant,heterogeneous,4,present,1.09496116638184,1,vertical,vertical,1,3,red,1,2,NaN,NaN,NaN,NaN,NaN,NaN,NaN,NaN,NaN,NaN,NaN,NaN,4,5,3,0,vertical,vertical,vertical,horizontal
2b,4,100268,4,29,125,19,F,NA,constant,heterogeneous,4,absent,0.757347106933594,1,vertical,vertical,1,2,red,1,NaN,NaN,NaN,NaN,NaN,NaN,NaN,NaN,NaN,NaN,NaN,NaN,NaN,4,5,3,6,vertical,vertical,vertical,horizontal
2b,4,100268,4,30,126,19,F,NA,constant,heterogeneous,4,absent,1.69649791717529,1,horizontal,horizontal,1,5,red,4,NaN,NaN,NaN,NaN,NaN,NaN,NaN,NaN,NaN,NaN,NaN,NaN,NaN,3,5,0,4,horizontal,vertical,vertical,horizontal
2b,4,100268,4,31,127,19,F,NA,constant,heterogeneous,4,present,0.878638029098511,1,horizontal,horizontal,1,5,red,4,3,NaN,NaN,NaN,NaN,NaN,NaN,NaN,NaN,NaN,NaN,NaN,NaN,3,6,0,4,horizontal,vertical,horizontal,horizontal
2b,4,100268,4,32,128,19,F,NA,constant,heterogeneous,4,present,1.55667281150818,1,horizontal,horizontal,1,3,red,2,4,NaN,NaN,NaN,NaN,NaN,NaN,NaN,NaN,NaN,NaN,NaN,NaN,0,4,6,5,horizontal,horizontal,horizontal,horizontal
2b,4,100268,5,1,129,19,F,NA,constant,heterogeneous,4,present,1.45421195030212,1,horizontal,horizontal,1,2,red,1,4,NaN,NaN,NaN,NaN,NaN,NaN,NaN,NaN,NaN,NaN,NaN,NaN,4,6,0,5,horizontal,horizontal,vertical,vertical
2b,4,100268,5,2,130,19,F,NA,constant,heterogeneous,4,present,0.979596138000488,1,horizontal,horizontal,1,3,red,2,1,NaN,NaN,NaN,NaN,NaN,NaN,NaN,NaN,NaN,NaN,NaN,NaN,0,4,6,5,vertical,horizontal,horizontal,horizontal
2b,4,100268,5,3,131,19,F,NA,constant,heterogeneous,4,absent,1.50348615646362,1,horizontal,horizontal,1,5,red,1,NaN,NaN,NaN,NaN,NaN,NaN,NaN,NaN,NaN,NaN,NaN,NaN,NaN,4,0,3,5,horizontal,horizontal,vertical,vertical
2b,4,100268,5,4,132,19,F,NA,constant,heterogeneous,4,absent,1.28545808792114,1,vertical,vertical,1,3,red,1,NaN,NaN,NaN,NaN,NaN,NaN,NaN,NaN,NaN,NaN,NaN,NaN,NaN,4,3,6,5,vertical,horizontal,horizontal,horizontal
2b,4,100268,5,5,133,19,F,NA,constant,heterogeneous,4,absent,0.631278991699219,1,vertical,vertical,1,2,red,1,NaN,NaN,NaN,NaN,NaN,NaN,NaN,NaN,NaN,NaN,NaN,NaN,NaN,4,5,6,0,vertical,horizontal,vertical,vertical
2b,4,100268,5,6,134,19,F,NA,constant,heterogeneous,4,absent,0.884176015853882,1,vertical,vertical,1,5,red,3,NaN,NaN,NaN,NaN,NaN,NaN,NaN,NaN,NaN,NaN,NaN,NaN,NaN,6,0,4,5,vertical,vertical,vertical,horizontal
2b,4,100268,5,7,135,19,F,NA,constant,heterogeneous,4,absent,0.998000860214233,1,vertical,vertical,1,2,red,2,NaN,NaN,NaN,NaN,NaN,NaN,NaN,NaN,NaN,NaN,NaN,NaN,NaN,0,4,5,3,vertical,vertical,horizontal,vertical
2b,4,100268,5,8,136,19,F,NA,constant,heterogeneous,4,present,0.80633807182312,1,horizontal,horizontal,1,2,red,4,3,NaN,NaN,NaN,NaN,NaN,NaN,NaN,NaN,NaN,NaN,NaN,NaN,5,3,6,4,horizontal,vertical,horizontal,horizontal
2b,4,100268,5,9,137,19,F,NA,constant,heterogeneous,4,absent,1.01850485801697,1,vertical,vertical,1,5,red,1,NaN,NaN,NaN,NaN,NaN,NaN,NaN,NaN,NaN,NaN,NaN,NaN,NaN,4,6,5,3,vertical,vertical,vertical,horizontal
2b,4,100268,5,10,138,19,F,NA,constant,heterogeneous,4,present,0.738934993743896,0,vertical,horizontal,1,2,red,3,4,NaN,NaN,NaN,NaN,NaN,NaN,NaN,NaN,NaN,NaN,NaN,NaN,6,3,4,0,horizontal,horizontal,vertical,vertical
2b,4,100268,5,11,139,19,F,NA,constant,heterogeneous,4,absent,0.718111038208008,0,horizontal,vertical,1,2,red,1,NaN,NaN,NaN,NaN,NaN,NaN,NaN,NaN,NaN,NaN,NaN,NaN,NaN,4,6,0,5,horizontal,vertical,vertical,horizontal
2b,4,100268,5,12,140,19,F,NA,constant,heterogeneous,4,present,0.77253794670105,1,vertical,vertical,1,5,red,1,2,NaN,NaN,NaN,NaN,NaN,NaN,NaN,NaN,NaN,NaN,NaN,NaN,4,0,5,3,vertical,vertical,horizontal,horizontal
2b,4,100268,5,13,141,19,F,NA,constant,heterogeneous,4,absent,1.0840380191803,1,horizontal,horizontal,1,2,red,1,NaN,NaN,NaN,NaN,NaN,NaN,NaN,NaN,NaN,NaN,NaN,NaN,NaN,4,6,3,0,horizontal,horizontal,horizontal,vertical
2b,4,100268,5,14,142,19,F,NA,constant,heterogeneous,4,absent,1.36607503890991,1,vertical,vertical,1,2,red,2,NaN,NaN,NaN,NaN,NaN,NaN,NaN,NaN,NaN,NaN,NaN,NaN,NaN,5,4,3,6,vertical,vertical,horizontal,horizontal
2b,4,100268,5,15,143,19,F,NA,constant,heterogeneous,4,present,0.949833869934082,1,vertical,vertical,1,5,red,1,4,NaN,NaN,NaN,NaN,NaN,NaN,NaN,NaN,NaN,NaN,NaN,NaN,4,6,3,5,vertical,vertical,horizontal,horizontal
2b,4,100268,5,16,144,19,F,NA,constant,heterogeneous,4,present,1.33317613601685,1,horizontal,horizontal,1,3,red,4,1,NaN,NaN,NaN,NaN,NaN,NaN,NaN,NaN,NaN,NaN,NaN,NaN,0,3,5,4,horizontal,vertical,vertical,horizontal
2b,4,100268,5,17,145,19,F,NA,constant,heterogeneous,4,absent,1.55181980133057,0,horizontal,vertical,1,2,red,2,NaN,NaN,NaN,NaN,NaN,NaN,NaN,NaN,NaN,NaN,NaN,NaN,NaN,6,4,0,3,horizontal,horizontal,horizontal,horizontal
2b,4,100268,5,18,146,19,F,NA,constant,heterogeneous,4,absent,1.71532511711121,1,vertical,vertical,1,3,red,3,NaN,NaN,NaN,NaN,NaN,NaN,NaN,NaN,NaN,NaN,NaN,NaN,NaN,5,3,4,0,vertical,vertical,vertical,vertical
2b,4,100268,5,19,147,19,F,NA,constant,heterogeneous,4,present,1.66161680221558,1,vertical,vertical,1,8,red,4,1,NaN,NaN,NaN,NaN,NaN,NaN,NaN,NaN,NaN,NaN,NaN,NaN,0,3,6,4,vertical,horizontal,horizontal,vertical
2b,4,100268,5,20,148,19,F,NA,constant,heterogeneous,4,present,0.887309074401855,1,vertical,vertical,1,2,red,4,1,NaN,NaN,NaN,NaN,NaN,NaN,NaN,NaN,NaN,NaN,NaN,NaN,5,3,0,4,vertical,vertical,horizontal,vertical
2b,4,100268,5,21,149,19,F,NA,constant,heterogeneous,4,present,1.28120112419128,1,horizontal,horizontal,1,5,red,1,3,NaN,NaN,NaN,NaN,NaN,NaN,NaN,NaN,NaN,NaN,NaN,NaN,4,3,0,6,horizontal,horizontal,vertical,vertical
2b,4,100268,5,22,150,19,F,NA,constant,heterogeneous,4,present,1.73909497261047,1,vertical,vertical,1,2,red,1,4,NaN,NaN,NaN,NaN,NaN,NaN,NaN,NaN,NaN,NaN,NaN,NaN,4,3,0,6,vertical,horizontal,horizontal,horizontal
2b,4,100268,5,23,151,19,F,NA,constant,heterogeneous,4,present,1.6700382232666,1,horizontal,horizontal,1,2,red,4,1,NaN,NaN,NaN,NaN,NaN,NaN,NaN,NaN,NaN,NaN,NaN,NaN,3,5,6,4,horizontal,horizontal,horizontal,horizontal
2b,4,100268,5,24,152,19,F,NA,constant,heterogeneous,4,present,NaN,0,vertical,none,0,3,red,3,4,NaN,NaN,NaN,NaN,NaN,NaN,NaN,NaN,NaN,NaN,NaN,NaN,6,5,4,3,horizontal,horizontal,vertical,vertical
2b,4,100268,5,25,153,19,F,NA,constant,heterogeneous,4,absent,NaN,0,vertical,none,0,8,red,4,NaN,NaN,NaN,NaN,NaN,NaN,NaN,NaN,NaN,NaN,NaN,NaN,NaN,3,6,5,4,horizontal,vertical,vertical,vertical
2b,4,100268,5,26,154,19,F,NA,constant,heterogeneous,4,absent,0.820512056350708,1,horizontal,horizontal,1,3,red,2,NaN,NaN,NaN,NaN,NaN,NaN,NaN,NaN,NaN,NaN,NaN,NaN,NaN,5,4,0,3,vertical,horizontal,horizontal,horizontal
2b,4,100268,5,27,155,19,F,NA,constant,heterogeneous,4,absent,NaN,0,horizontal,none,0,3,red,2,NaN,NaN,NaN,NaN,NaN,NaN,NaN,NaN,NaN,NaN,NaN,NaN,NaN,6,4,0,3,horizontal,horizontal,horizontal,horizontal
2b,4,100268,5,28,156,19,F,NA,constant,heterogeneous,4,present,1.69734597206116,1,horizontal,horizontal,1,5,red,4,1,NaN,NaN,NaN,NaN,NaN,NaN,NaN,NaN,NaN,NaN,NaN,NaN,6,0,5,4,horizontal,vertical,horizontal,horizontal
2b,4,100268,5,29,157,19,F,NA,constant,heterogeneous,4,present,0.975588798522949,1,vertical,vertical,1,3,red,2,1,NaN,NaN,NaN,NaN,NaN,NaN,NaN,NaN,NaN,NaN,NaN,NaN,3,4,5,0,vertical,vertical,horizontal,vertical
2b,4,100268,5,30,158,19,F,NA,constant,heterogeneous,4,present,0.979745864868164,1,horizontal,horizontal,1,8,red,4,2,NaN,NaN,NaN,NaN,NaN,NaN,NaN,NaN,NaN,NaN,NaN,NaN,6,5,3,4,horizontal,horizontal,horizontal,horizontal
2b,4,100268,5,31,159,19,F,NA,constant,heterogeneous,4,absent,0.951409816741943,1,horizontal,horizontal,1,8,red,3,NaN,NaN,NaN,NaN,NaN,NaN,NaN,NaN,NaN,NaN,NaN,NaN,NaN,3,5,4,6,vertical,horizontal,horizontal,horizontal
2b,4,100268,5,32,160,19,F,NA,constant,heterogeneous,4,absent,1.19060087203979,1,horizontal,horizontal,1,5,red,4,NaN,NaN,NaN,NaN,NaN,NaN,NaN,NaN,NaN,NaN,NaN,NaN,NaN,3,0,6,4,vertical,vertical,horizontal,horizontal
2b,4,100268,6,1,161,19,F,NA,constant,heterogeneous,4,present,0.990455150604248,1,vertical,vertical,1,2,red,3,4,NaN,NaN,NaN,NaN,NaN,NaN,NaN,NaN,NaN,NaN,NaN,NaN,5,6,4,3,horizontal,horizontal,vertical,horizontal
2b,4,100268,6,2,162,19,F,NA,constant,heterogeneous,4,absent,1.24667811393738,1,vertical,vertical,1,5,red,1,NaN,NaN,NaN,NaN,NaN,NaN,NaN,NaN,NaN,NaN,NaN,NaN,NaN,4,0,3,5,vertical,vertical,horizontal,horizontal
2b,4,100268,6,3,163,19,F,NA,constant,heterogeneous,4,present,0.747853994369507,1,vertical,vertical,1,5,red,2,3,NaN,NaN,NaN,NaN,NaN,NaN,NaN,NaN,NaN,NaN,NaN,NaN,5,4,3,0,horizontal,vertical,vertical,horizontal
2b,4,100268,6,4,164,19,F,NA,constant,heterogeneous,4,absent,0.763144969940186,1,vertical,vertical,1,5,red,3,NaN,NaN,NaN,NaN,NaN,NaN,NaN,NaN,NaN,NaN,NaN,NaN,NaN,6,3,4,0,horizontal,horizontal,vertical,horizontal
2b,4,100268,6,5,165,19,F,NA,constant,heterogeneous,4,present,0.670367002487183,1,vertical,vertical,1,2,red,2,3,NaN,NaN,NaN,NaN,NaN,NaN,NaN,NaN,NaN,NaN,NaN,NaN,0,4,5,3,horizontal,vertical,vertical,vertical
2b,4,100268,6,6,166,19,F,NA,constant,heterogeneous,4,present,0.748138189315796,1,horizontal,horizontal,1,2,red,2,4,NaN,NaN,NaN,NaN,NaN,NaN,NaN,NaN,NaN,NaN,NaN,NaN,5,4,3,6,vertical,horizontal,vertical,horizontal
2b,4,100268,6,7,167,19,F,NA,constant,heterogeneous,4,present,0.907425165176392,1,vertical,vertical,1,8,red,2,4,NaN,NaN,NaN,NaN,NaN,NaN,NaN,NaN,NaN,NaN,NaN,NaN,5,4,6,3,horizontal,vertical,horizontal,vertical
2b,4,100268,6,8,168,19,F,NA,constant,heterogeneous,4,absent,1.38182210922241,1,vertical,vertical,1,2,red,4,NaN,NaN,NaN,NaN,NaN,NaN,NaN,NaN,NaN,NaN,NaN,NaN,NaN,0,5,6,4,vertical,vertical,horizontal,vertical
2b,4,100268,6,9,169,19,F,NA,constant,heterogeneous,4,absent,1.08968710899353,1,vertical,vertical,1,2,red,2,NaN,NaN,NaN,NaN,NaN,NaN,NaN,NaN,NaN,NaN,NaN,NaN,NaN,3,4,0,5,horizontal,vertical,horizontal,vertical
2b,4,100268,6,10,170,19,F,NA,constant,heterogeneous,4,absent,1.12361812591553,1,horizontal,horizontal,1,5,red,2,NaN,NaN,NaN,NaN,NaN,NaN,NaN,NaN,NaN,NaN,NaN,NaN,NaN,5,4,3,6,vertical,horizontal,vertical,vertical
2b,4,100268,6,11,171,19,F,NA,constant,heterogeneous,4,absent,1.69013404846191,1,vertical,vertical,1,3,red,4,NaN,NaN,NaN,NaN,NaN,NaN,NaN,NaN,NaN,NaN,NaN,NaN,NaN,0,3,5,4,horizontal,horizontal,vertical,vertical
2b,4,100268,6,12,172,19,F,NA,constant,heterogeneous,4,absent,NaN,0,vertical,none,0,3,red,3,NaN,NaN,NaN,NaN,NaN,NaN,NaN,NaN,NaN,NaN,NaN,NaN,NaN,6,3,4,0,vertical,horizontal,vertical,vertical
2b,4,100268,6,13,173,19,F,NA,constant,heterogeneous,4,present,0.704738140106201,1,vertical,vertical,1,3,red,3,4,NaN,NaN,NaN,NaN,NaN,NaN,NaN,NaN,NaN,NaN,NaN,NaN,0,3,4,6,horizontal,horizontal,vertical,horizontal
2b,4,100268,6,14,174,19,F,NA,constant,heterogeneous,4,absent,NaN,0,vertical,none,0,2,red,2,NaN,NaN,NaN,NaN,NaN,NaN,NaN,NaN,NaN,NaN,NaN,NaN,NaN,6,4,5,3,vertical,vertical,horizontal,vertical
2b,4,100268,6,15,175,19,F,NA,constant,heterogeneous,4,present,0.791336059570312,1,horizontal,horizontal,1,2,red,3,2,NaN,NaN,NaN,NaN,NaN,NaN,NaN,NaN,NaN,NaN,NaN,NaN,6,0,4,5,horizontal,horizontal,horizontal,vertical
2b,4,100268,6,16,176,19,F,NA,constant,heterogeneous,4,absent,1.51930999755859,1,horizontal,horizontal,1,2,red,2,NaN,NaN,NaN,NaN,NaN,NaN,NaN,NaN,NaN,NaN,NaN,NaN,NaN,6,4,5,3,horizontal,horizontal,vertical,vertical
2b,4,100268,6,17,177,19,F,NA,constant,heterogeneous,4,present,1.11822104454041,1,vertical,vertical,1,3,red,4,3,NaN,NaN,NaN,NaN,NaN,NaN,NaN,NaN,NaN,NaN,NaN,NaN,0,6,5,4,vertical,horizontal,horizontal,vertical
2b,4,100268,6,18,178,19,F,NA,constant,heterogeneous,4,present,0.876983165740967,1,horizontal,horizontal,1,8,red,3,2,NaN,NaN,NaN,NaN,NaN,NaN,NaN,NaN,NaN,NaN,NaN,NaN,6,3,4,0,vertical,vertical,horizontal,horizontal
2b,4,100268,6,19,179,19,F,NA,constant,heterogeneous,4,present,1.34643602371216,1,horizontal,horizontal,1,5,red,3,1,NaN,NaN,NaN,NaN,NaN,NaN,NaN,NaN,NaN,NaN,NaN,NaN,5,0,4,3,vertical,vertical,horizontal,vertical
2b,4,100268,6,20,180,19,F,NA,constant,heterogeneous,4,absent,0.937596797943115,1,horizontal,horizontal,1,2,red,2,NaN,NaN,NaN,NaN,NaN,NaN,NaN,NaN,NaN,NaN,NaN,NaN,NaN,6,4,5,3,vertical,horizontal,horizontal,horizontal
2b,4,100268,6,21,181,19,F,NA,constant,heterogeneous,4,absent,1.05246210098267,1,horizontal,horizontal,1,3,red,4,NaN,NaN,NaN,NaN,NaN,NaN,NaN,NaN,NaN,NaN,NaN,NaN,NaN,0,6,3,4,horizontal,vertical,horizontal,horizontal
2b,4,100268,6,22,182,19,F,NA,constant,heterogeneous,4,present,0.897791862487793,1,vertical,vertical,1,2,red,1,4,NaN,NaN,NaN,NaN,NaN,NaN,NaN,NaN,NaN,NaN,NaN,NaN,4,5,0,6,vertical,horizontal,vertical,horizontal
2b,4,100268,6,23,183,19,F,NA,constant,heterogeneous,4,absent,1.0079939365387,1,horizontal,horizontal,1,2,red,3,NaN,NaN,NaN,NaN,NaN,NaN,NaN,NaN,NaN,NaN,NaN,NaN,NaN,5,6,4,3,horizontal,vertical,horizontal,vertical
2b,4,100268,6,24,184,19,F,NA,constant,heterogeneous,4,absent,1.06868505477905,1,horizontal,horizontal,1,8,red,1,NaN,NaN,NaN,NaN,NaN,NaN,NaN,NaN,NaN,NaN,NaN,NaN,NaN,4,5,3,0,horizontal,horizontal,horizontal,vertical
2b,4,100268,6,25,185,19,F,NA,constant,heterogeneous,4,present,0.709884166717529,1,horizontal,horizontal,1,3,red,3,1,NaN,NaN,NaN,NaN,NaN,NaN,NaN,NaN,NaN,NaN,NaN,NaN,3,0,4,6,horizontal,horizontal,horizontal,horizontal
2b,4,100268,6,26,186,19,F,NA,constant,heterogeneous,4,present,0.768486022949219,1,horizontal,horizontal,1,3,red,4,1,NaN,NaN,NaN,NaN,NaN,NaN,NaN,NaN,NaN,NaN,NaN,NaN,6,3,0,4,horizontal,horizontal,horizontal,horizontal
2b,4,100268,6,27,187,19,F,NA,constant,heterogeneous,4,present,0.831872940063477,1,vertical,vertical,1,5,red,2,4,NaN,NaN,NaN,NaN,NaN,NaN,NaN,NaN,NaN,NaN,NaN,NaN,6,4,0,5,vertical,vertical,horizontal,horizontal
2b,4,100268,6,28,188,19,F,NA,constant,heterogeneous,4,absent,0.70871114730835,1,vertical,vertical,1,8,red,3,NaN,NaN,NaN,NaN,NaN,NaN,NaN,NaN,NaN,NaN,NaN,NaN,NaN,5,0,4,6,horizontal,vertical,vertical,horizontal
2b,4,100268,6,29,189,19,F,NA,constant,heterogeneous,4,absent,0.615155935287476,1,horizontal,horizontal,1,3,red,3,NaN,NaN,NaN,NaN,NaN,NaN,NaN,NaN,NaN,NaN,NaN,NaN,NaN,3,6,4,5,vertical,vertical,horizontal,vertical
2b,4,100268,6,30,190,19,F,NA,constant,heterogeneous,4,present,1.19972395896912,1,horizontal,horizontal,1,2,red,2,1,NaN,NaN,NaN,NaN,NaN,NaN,NaN,NaN,NaN,NaN,NaN,NaN,5,4,6,3,horizontal,horizontal,horizontal,horizontal
2b,4,100268,6,31,191,19,F,NA,constant,heterogeneous,4,absent,0.756069898605347,1,horizontal,horizontal,1,5,red,2,NaN,NaN,NaN,NaN,NaN,NaN,NaN,NaN,NaN,NaN,NaN,NaN,NaN,3,4,6,0,horizontal,horizontal,vertical,vertical
2b,4,100268,6,32,192,19,F,NA,constant,heterogeneous,4,present,0.000941991806030273,1,horizontal,horizontal,1,5,red,1,3,NaN,NaN,NaN,NaN,NaN,NaN,NaN,NaN,NaN,NaN,NaN,NaN,4,0,6,3,horizontal,vertical,vertical,horizontal
2b,4,100268,7,1,193,19,F,NA,constant,heterogeneous,4,present,1.45576500892639,1,vertical,vertical,1,2,red,1,3,NaN,NaN,NaN,NaN,NaN,NaN,NaN,NaN,NaN,NaN,NaN,NaN,4,3,6,5,vertical,vertical,vertical,vertical
2b,4,100268,7,2,194,19,F,NA,constant,heterogeneous,4,absent,0.645060062408447,1,vertical,vertical,1,2,red,4,NaN,NaN,NaN,NaN,NaN,NaN,NaN,NaN,NaN,NaN,NaN,NaN,NaN,0,3,5,4,horizontal,horizontal,vertical,vertical
2b,4,100268,7,3,195,19,F,NA,constant,heterogeneous,4,absent,1.34185600280762,1,vertical,vertical,1,8,red,2,NaN,NaN,NaN,NaN,NaN,NaN,NaN,NaN,NaN,NaN,NaN,NaN,NaN,0,4,3,6,vertical,vertical,vertical,horizontal
2b,4,100268,7,4,196,19,F,NA,constant,heterogeneous,4,absent,0.93316912651062,1,horizontal,horizontal,1,8,red,2,NaN,NaN,NaN,NaN,NaN,NaN,NaN,NaN,NaN,NaN,NaN,NaN,NaN,0,4,3,5,vertical,horizontal,horizontal,horizontal
2b,4,100268,7,5,197,19,F,NA,constant,heterogeneous,4,present,0.856076002120972,1,vertical,vertical,1,3,red,1,2,NaN,NaN,NaN,NaN,NaN,NaN,NaN,NaN,NaN,NaN,NaN,NaN,4,5,6,3,vertical,vertical,horizontal,horizontal
2b,4,100268,7,6,198,19,F,NA,constant,heterogeneous,4,absent,1.24536514282227,1,horizontal,horizontal,1,5,red,3,NaN,NaN,NaN,NaN,NaN,NaN,NaN,NaN,NaN,NaN,NaN,NaN,NaN,3,5,4,0,horizontal,vertical,horizontal,vertical
2b,4,100268,7,7,199,19,F,NA,constant,heterogeneous,4,absent,0.910358905792236,1,vertical,vertical,1,2,red,2,NaN,NaN,NaN,NaN,NaN,NaN,NaN,NaN,NaN,NaN,NaN,NaN,NaN,5,4,3,6,horizontal,vertical,horizontal,horizontal
2b,4,100268,7,8,200,19,F,NA,constant,heterogeneous,4,absent,0.888789176940918,0,horizontal,vertical,1,2,red,1,NaN,NaN,NaN,NaN,NaN,NaN,NaN,NaN,NaN,NaN,NaN,NaN,NaN,4,0,5,6,horizontal,vertical,vertical,vertical
2b,4,100268,7,9,201,19,F,NA,constant,heterogeneous,4,present,1.40281200408936,1,vertical,vertical,1,8,red,2,4,NaN,NaN,NaN,NaN,NaN,NaN,NaN,NaN,NaN,NaN,NaN,NaN,5,4,3,0,vertical,vertical,vertical,horizontal
2b,4,100268,7,10,202,19,F,NA,constant,heterogeneous,4,present,1.21518206596375,1,vertical,vertical,1,3,red,4,2,NaN,NaN,NaN,NaN,NaN,NaN,NaN,NaN,NaN,NaN,NaN,NaN,3,6,5,4,vertical,horizontal,vertical,vertical
2b,4,100268,7,11,203,19,F,NA,constant,heterogeneous,4,absent,1.23157000541687,1,horizontal,horizontal,1,3,red,2,NaN,NaN,NaN,NaN,NaN,NaN,NaN,NaN,NaN,NaN,NaN,NaN,NaN,6,4,0,5,horizontal,horizontal,horizontal,vertical
2b,4,100268,7,12,204,19,F,NA,constant,heterogeneous,4,present,1.06052017211914,1,horizontal,horizontal,1,5,red,1,3,NaN,NaN,NaN,NaN,NaN,NaN,NaN,NaN,NaN,NaN,NaN,NaN,4,3,5,0,horizontal,vertical,horizontal,horizontal
2b,4,100268,7,13,205,19,F,NA,constant,heterogeneous,4,absent,1.59791493415833,1,vertical,vertical,1,2,red,2,NaN,NaN,NaN,NaN,NaN,NaN,NaN,NaN,NaN,NaN,NaN,NaN,NaN,5,4,0,3,vertical,vertical,vertical,horizontal
2b,4,100268,7,14,206,19,F,NA,constant,heterogeneous,4,absent,0.678015947341919,1,vertical,vertical,1,3,red,4,NaN,NaN,NaN,NaN,NaN,NaN,NaN,NaN,NaN,NaN,NaN,NaN,NaN,3,0,6,4,horizontal,vertical,vertical,vertical
2b,4,100268,7,15,207,19,F,NA,constant,heterogeneous,4,absent,0.923725843429565,1,vertical,vertical,1,5,red,2,NaN,NaN,NaN,NaN,NaN,NaN,NaN,NaN,NaN,NaN,NaN,NaN,NaN,5,4,0,6,horizontal,vertical,vertical,vertical
2b,4,100268,7,16,208,19,F,NA,constant,heterogeneous,4,present,0.818536996841431,1,horizontal,horizontal,1,3,red,3,4,NaN,NaN,NaN,NaN,NaN,NaN,NaN,NaN,NaN,NaN,NaN,NaN,6,5,4,3,vertical,horizontal,horizontal,vertical
2b,4,100268,7,17,209,19,F,NA,constant,heterogeneous,4,present,1.13117289543152,1,vertical,vertical,1,5,red,1,4,NaN,NaN,NaN,NaN,NaN,NaN,NaN,NaN,NaN,NaN,NaN,NaN,4,6,3,0,vertical,horizontal,vertical,horizontal
2b,4,100268,7,18,210,19,F,NA,constant,heterogeneous,4,present,0.8698890209198,1,horizontal,horizontal,1,2,red,2,3,NaN,NaN,NaN,NaN,NaN,NaN,NaN,NaN,NaN,NaN,NaN,NaN,0,4,3,5,vertical,horizontal,horizontal,horizontal
2b,4,100268,7,19,211,19,F,NA,constant,heterogeneous,4,absent,1.25971698760986,1,horizontal,horizontal,1,2,red,3,NaN,NaN,NaN,NaN,NaN,NaN,NaN,NaN,NaN,NaN,NaN,NaN,NaN,0,6,4,3,vertical,horizontal,horizontal,horizontal
2b,4,100268,7,20,212,19,F,NA,constant,heterogeneous,4,present,0.925311088562012,1,horizontal,horizontal,1,8,red,3,2,NaN,NaN,NaN,NaN,NaN,NaN,NaN,NaN,NaN,NaN,NaN,NaN,0,3,4,6,vertical,vertical,horizontal,horizontal
2b,4,100268,7,21,213,19,F,NA,constant,heterogeneous,4,present,NaN,0,vertical,none,0,5,red,1,3,NaN,NaN,NaN,NaN,NaN,NaN,NaN,NaN,NaN,NaN,NaN,NaN,4,5,0,3,vertical,vertical,vertical,horizontal
2b,4,100268,7,22,214,19,F,NA,constant,heterogeneous,4,absent,0.688234806060791,0,horizontal,vertical,1,5,red,3,NaN,NaN,NaN,NaN,NaN,NaN,NaN,NaN,NaN,NaN,NaN,NaN,NaN,5,0,4,6,vertical,horizontal,horizontal,vertical
2b,4,100268,7,23,215,19,F,NA,constant,heterogeneous,4,present,0.962184906005859,1,vertical,vertical,1,2,red,4,3,NaN,NaN,NaN,NaN,NaN,NaN,NaN,NaN,NaN,NaN,NaN,NaN,3,5,6,4,vertical,horizontal,vertical,vertical
2b,4,100268,7,24,216,19,F,NA,constant,heterogeneous,4,absent,0.965673923492432,1,vertical,vertical,1,5,red,3,NaN,NaN,NaN,NaN,NaN,NaN,NaN,NaN,NaN,NaN,NaN,NaN,NaN,5,3,4,6,vertical,horizontal,vertical,vertical
2b,4,100268,7,25,217,19,F,NA,constant,heterogeneous,4,absent,NaN,0,horizontal,none,0,2,red,3,NaN,NaN,NaN,NaN,NaN,NaN,NaN,NaN,NaN,NaN,NaN,NaN,NaN,5,0,4,6,horizontal,vertical,horizontal,horizontal
2b,4,100268,7,26,218,19,F,NA,constant,heterogeneous,4,present,NaN,0,horizontal,none,0,2,red,4,3,NaN,NaN,NaN,NaN,NaN,NaN,NaN,NaN,NaN,NaN,NaN,NaN,0,5,3,4,vertical,vertical,horizontal,horizontal
2b,4,100268,7,27,219,19,F,NA,constant,heterogeneous,4,absent,1.52583384513855,1,vertical,vertical,1,3,red,3,NaN,NaN,NaN,NaN,NaN,NaN,NaN,NaN,NaN,NaN,NaN,NaN,NaN,6,3,4,5,vertical,vertical,vertical,horizontal
2b,4,100268,7,28,220,19,F,NA,constant,heterogeneous,4,present,1.07647085189819,1,horizontal,horizontal,1,5,red,1,3,NaN,NaN,NaN,NaN,NaN,NaN,NaN,NaN,NaN,NaN,NaN,NaN,4,3,6,0,horizontal,vertical,horizontal,horizontal
2b,4,100268,7,29,221,19,F,NA,constant,heterogeneous,4,present,0.866141080856323,1,vertical,vertical,1,2,red,1,4,NaN,NaN,NaN,NaN,NaN,NaN,NaN,NaN,NaN,NaN,NaN,NaN,4,5,6,0,vertical,vertical,horizontal,vertical
2b,4,100268,7,30,222,19,F,NA,constant,heterogeneous,4,present,NaN,0,horizontal,none,0,2,red,1,3,NaN,NaN,NaN,NaN,NaN,NaN,NaN,NaN,NaN,NaN,NaN,NaN,4,6,3,0,horizontal,vertical,horizontal,vertical
2b,4,100268,7,31,223,19,F,NA,constant,heterogeneous,4,present,1.01601099967957,1,horizontal,horizontal,1,3,red,1,2,NaN,NaN,NaN,NaN,NaN,NaN,NaN,NaN,NaN,NaN,NaN,NaN,4,0,6,3,horizontal,vertical,vertical,vertical
2b,4,100268,7,32,224,19,F,NA,constant,heterogeneous,4,absent,1.08051896095276,0,horizontal,vertical,1,3,red,3,NaN,NaN,NaN,NaN,NaN,NaN,NaN,NaN,NaN,NaN,NaN,NaN,NaN,5,6,4,0,vertical,horizontal,horizontal,horizontal
2b,4,100268,8,1,225,19,F,NA,constant,heterogeneous,4,present,1.29344391822815,1,horizontal,horizontal,1,5,red,3,2,NaN,NaN,NaN,NaN,NaN,NaN,NaN,NaN,NaN,NaN,NaN,NaN,6,5,4,3,horizontal,vertical,horizontal,horizontal
2b,4,100268,8,2,226,19,F,NA,constant,heterogeneous,4,present,1.29963302612305,1,vertical,vertical,1,3,red,1,2,NaN,NaN,NaN,NaN,NaN,NaN,NaN,NaN,NaN,NaN,NaN,NaN,4,5,6,3,vertical,vertical,horizontal,horizontal
2b,4,100268,8,3,227,19,F,NA,constant,heterogeneous,4,absent,0.825960874557495,1,vertical,vertical,1,8,red,3,NaN,NaN,NaN,NaN,NaN,NaN,NaN,NaN,NaN,NaN,NaN,NaN,NaN,6,0,4,3,horizontal,vertical,vertical,horizontal
2b,4,100268,8,4,228,19,F,NA,constant,heterogeneous,4,present,0.75065016746521,1,horizontal,horizontal,1,5,red,3,2,NaN,NaN,NaN,NaN,NaN,NaN,NaN,NaN,NaN,NaN,NaN,NaN,3,5,4,0,horizontal,horizontal,horizontal,vertical
2b,4,100268,8,5,229,19,F,NA,constant,heterogeneous,4,present,0.797926902770996,1,vertical,vertical,1,5,red,4,3,NaN,NaN,NaN,NaN,NaN,NaN,NaN,NaN,NaN,NaN,NaN,NaN,0,6,5,4,vertical,vertical,horizontal,vertical
2b,4,100268,8,6,230,19,F,NA,constant,heterogeneous,4,absent,1.30999088287354,1,horizontal,horizontal,1,3,red,4,NaN,NaN,NaN,NaN,NaN,NaN,NaN,NaN,NaN,NaN,NaN,NaN,NaN,3,6,5,4,vertical,horizontal,horizontal,horizontal
2b,4,100268,8,7,231,19,F,NA,constant,heterogeneous,4,absent,0.824331045150757,1,horizontal,horizontal,1,2,red,1,NaN,NaN,NaN,NaN,NaN,NaN,NaN,NaN,NaN,NaN,NaN,NaN,NaN,4,5,3,6,horizontal,vertical,vertical,vertical
2b,4,100268,8,8,232,19,F,NA,constant,heterogeneous,4,absent,0.965167999267578,1,vertical,vertical,1,2,red,3,NaN,NaN,NaN,NaN,NaN,NaN,NaN,NaN,NaN,NaN,NaN,NaN,NaN,5,6,4,0,horizontal,vertical,vertical,horizontal
2b,4,100268,8,9,233,19,F,NA,constant,heterogeneous,4,absent,0.9407958984375,1,vertical,vertical,1,3,red,1,NaN,NaN,NaN,NaN,NaN,NaN,NaN,NaN,NaN,NaN,NaN,NaN,NaN,4,3,5,6,vertical,horizontal,horizontal,vertical
2b,4,100268,8,10,234,19,F,NA,constant,heterogeneous,4,present,0.844190120697021,1,horizontal,horizontal,1,8,red,4,2,NaN,NaN,NaN,NaN,NaN,NaN,NaN,NaN,NaN,NaN,NaN,NaN,6,5,0,4,horizontal,vertical,horizontal,horizontal
2b,4,100268,8,11,235,19,F,NA,constant,heterogeneous,4,absent,0.612984895706177,0,vertical,horizontal,1,2,red,4,NaN,NaN,NaN,NaN,NaN,NaN,NaN,NaN,NaN,NaN,NaN,NaN,NaN,5,3,6,4,horizontal,horizontal,vertical,vertical
2b,4,100268,8,12,236,19,F,NA,constant,heterogeneous,4,present,0.669453144073486,1,vertical,vertical,1,2,red,4,2,NaN,NaN,NaN,NaN,NaN,NaN,NaN,NaN,NaN,NaN,NaN,NaN,6,5,0,4,horizontal,horizontal,vertical,vertical
2b,4,100268,8,13,237,19,F,NA,constant,heterogeneous,4,absent,0.611339092254639,1,horizontal,horizontal,1,8,red,4,NaN,NaN,NaN,NaN,NaN,NaN,NaN,NaN,NaN,NaN,NaN,NaN,NaN,3,5,0,4,horizontal,horizontal,horizontal,horizontal
2b,4,100268,8,14,238,19,F,NA,constant,heterogeneous,4,present,0.64380407333374,0,horizontal,vertical,1,3,red,2,1,NaN,NaN,NaN,NaN,NaN,NaN,NaN,NaN,NaN,NaN,NaN,NaN,0,4,6,5,vertical,horizontal,horizontal,vertical
2b,4,100268,8,15,239,19,F,NA,constant,heterogeneous,4,absent,0.797052145004272,0,horizontal,vertical,1,3,red,4,NaN,NaN,NaN,NaN,NaN,NaN,NaN,NaN,NaN,NaN,NaN,NaN,NaN,0,6,5,4,horizontal,vertical,horizontal,horizontal
2b,4,100268,8,16,240,19,F,NA,constant,heterogeneous,4,present,0.764873027801514,1,vertical,vertical,1,5,red,2,3,NaN,NaN,NaN,NaN,NaN,NaN,NaN,NaN,NaN,NaN,NaN,NaN,5,4,3,0,horizontal,vertical,horizontal,horizontal
2b,4,100268,8,17,241,19,F,NA,constant,heterogeneous,4,absent,1.14048480987549,1,vertical,vertical,1,3,red,3,NaN,NaN,NaN,NaN,NaN,NaN,NaN,NaN,NaN,NaN,NaN,NaN,NaN,3,0,4,5,vertical,vertical,vertical,vertical
2b,4,100268,8,18,242,19,F,NA,constant,heterogeneous,4,present,1.12364387512207,1,horizontal,horizontal,1,3,red,4,1,NaN,NaN,NaN,NaN,NaN,NaN,NaN,NaN,NaN,NaN,NaN,NaN,0,5,3,4,horizontal,vertical,horizontal,horizontal
2b,4,100268,8,19,243,19,F,NA,constant,heterogeneous,4,absent,1.01036500930786,1,vertical,vertical,1,2,red,1,NaN,NaN,NaN,NaN,NaN,NaN,NaN,NaN,NaN,NaN,NaN,NaN,NaN,4,5,3,6,vertical,vertical,horizontal,vertical
2b,4,100268,8,20,244,19,F,NA,constant,heterogeneous,4,absent,0.874804973602295,1,horizontal,horizontal,1,2,red,4,NaN,NaN,NaN,NaN,NaN,NaN,NaN,NaN,NaN,NaN,NaN,NaN,NaN,5,0,6,4,vertical,vertical,horizontal,horizontal
2b,4,100268,8,21,245,19,F,NA,constant,heterogeneous,4,absent,0.968719959259033,1,horizontal,horizontal,1,5,red,1,NaN,NaN,NaN,NaN,NaN,NaN,NaN,NaN,NaN,NaN,NaN,NaN,NaN,4,3,0,5,horizontal,vertical,vertical,horizontal
2b,4,100268,8,22,246,19,F,NA,constant,heterogeneous,4,absent,0.648230075836182,1,horizontal,horizontal,1,2,red,1,NaN,NaN,NaN,NaN,NaN,NaN,NaN,NaN,NaN,NaN,NaN,NaN,NaN,4,5,3,0,horizontal,vertical,horizontal,vertical
2b,4,100268,8,23,247,19,F,NA,constant,heterogeneous,4,present,1.33333301544189,1,vertical,vertical,1,2,red,2,4,NaN,NaN,NaN,NaN,NaN,NaN,NaN,NaN,NaN,NaN,NaN,NaN,0,4,5,6,horizontal,vertical,horizontal,vertical
2b,4,100268,8,24,248,19,F,NA,constant,heterogeneous,4,absent,1.39228105545044,1,vertical,vertical,1,5,red,3,NaN,NaN,NaN,NaN,NaN,NaN,NaN,NaN,NaN,NaN,NaN,NaN,NaN,5,3,4,6,vertical,vertical,vertical,horizontal
2b,4,100268,8,25,249,19,F,NA,constant,heterogeneous,4,absent,1.440505027771,1,horizontal,horizontal,1,5,red,1,NaN,NaN,NaN,NaN,NaN,NaN,NaN,NaN,NaN,NaN,NaN,NaN,NaN,4,0,3,6,horizontal,vertical,vertical,horizontal
2b,4,100268,8,26,250,19,F,NA,constant,heterogeneous,4,present,0.609840154647827,0,vertical,horizontal,1,8,red,4,2,NaN,NaN,NaN,NaN,NaN,NaN,NaN,NaN,NaN,NaN,NaN,NaN,3,0,5,4,horizontal,horizontal,vertical,vertical
2b,4,100268,8,27,251,19,F,NA,constant,heterogeneous,4,present,0.933888912200928,1,vertical,vertical,1,2,red,2,1,NaN,NaN,NaN,NaN,NaN,NaN,NaN,NaN,NaN,NaN,NaN,NaN,5,4,6,0,horizontal,vertical,horizontal,horizontal
2b,4,100268,8,28,252,19,F,NA,constant,heterogeneous,4,present,0.920769929885864,1,horizontal,horizontal,1,2,red,4,2,NaN,NaN,NaN,NaN,NaN,NaN,NaN,NaN,NaN,NaN,NaN,NaN,0,3,5,4,vertical,vertical,horizontal,horizontal
2b,4,100268,8,29,253,19,F,NA,constant,heterogeneous,4,absent,1.05535078048706,1,vertical,vertical,1,5,red,2,NaN,NaN,NaN,NaN,NaN,NaN,NaN,NaN,NaN,NaN,NaN,NaN,NaN,6,4,3,5,horizontal,vertical,vertical,vertical
2b,4,100268,8,30,254,19,F,NA,constant,heterogeneous,4,present,0.916960000991821,0,vertical,horizontal,1,3,red,2,4,NaN,NaN,NaN,NaN,NaN,NaN,NaN,NaN,NaN,NaN,NaN,NaN,5,4,0,6,horizontal,vertical,vertical,vertical
2b,4,100268,8,31,255,19,F,NA,constant,heterogeneous,4,present,0.731381177902222,1,horizontal,horizontal,1,2,red,2,3,NaN,NaN,NaN,NaN,NaN,NaN,NaN,NaN,NaN,NaN,NaN,NaN,6,4,0,3,vertical,horizontal,horizontal,horizontal
2b,4,100268,8,32,256,19,F,NA,constant,heterogeneous,4,present,0.838265895843506,1,horizontal,horizontal,1,2,red,3,4,NaN,NaN,NaN,NaN,NaN,NaN,NaN,NaN,NaN,NaN,NaN,NaN,6,0,4,5,horizontal,vertical,horizontal,vertical
2b,4,100268,9,1,257,19,F,NA,constant,heterogeneous,4,present,1.34052300453186,1,horizontal,horizontal,1,8,red,1,2,NaN,NaN,NaN,NaN,NaN,NaN,NaN,NaN,NaN,NaN,NaN,NaN,4,5,0,3,horizontal,vertical,vertical,horizontal
2b,4,100268,9,2,258,19,F,NA,constant,heterogeneous,4,present,0.827709913253784,1,vertical,vertical,1,2,red,1,4,NaN,NaN,NaN,NaN,NaN,NaN,NaN,NaN,NaN,NaN,NaN,NaN,4,5,0,6,vertical,horizontal,horizontal,vertical
2b,4,100268,9,3,259,19,F,NA,constant,heterogeneous,4,absent,0.944482088088989,0,vertical,horizontal,1,2,red,4,NaN,NaN,NaN,NaN,NaN,NaN,NaN,NaN,NaN,NaN,NaN,NaN,NaN,6,5,0,4,horizontal,vertical,vertical,vertical
2b,4,100268,9,4,260,19,F,NA,constant,heterogeneous,4,present,0.959451913833618,1,horizontal,horizontal,1,2,red,1,2,NaN,NaN,NaN,NaN,NaN,NaN,NaN,NaN,NaN,NaN,NaN,NaN,4,0,6,5,horizontal,vertical,vertical,vertical
2b,4,100268,9,5,261,19,F,NA,constant,heterogeneous,4,present,1.05091190338135,1,horizontal,horizontal,1,5,red,2,4,NaN,NaN,NaN,NaN,NaN,NaN,NaN,NaN,NaN,NaN,NaN,NaN,6,4,0,5,vertical,horizontal,vertical,horizontal
2b,4,100268,9,6,262,19,F,NA,constant,heterogeneous,4,absent,0.976172924041748,1,vertical,vertical,1,2,red,2,NaN,NaN,NaN,NaN,NaN,NaN,NaN,NaN,NaN,NaN,NaN,NaN,NaN,5,4,0,3,horizontal,vertical,vertical,vertical
2b,4,100268,9,7,263,19,F,NA,constant,heterogeneous,4,absent,1.13211607933044,1,horizontal,horizontal,1,3,red,3,NaN,NaN,NaN,NaN,NaN,NaN,NaN,NaN,NaN,NaN,NaN,NaN,NaN,0,3,4,5,vertical,vertical,horizontal,horizontal
2b,4,100268,9,8,264,19,F,NA,constant,heterogeneous,4,absent,1.2791600227356,1,horizontal,horizontal,1,3,red,2,NaN,NaN,NaN,NaN,NaN,NaN,NaN,NaN,NaN,NaN,NaN,NaN,NaN,6,4,3,5,vertical,horizontal,horizontal,vertical
2b,4,100268,9,9,265,19,F,NA,constant,heterogeneous,4,present,0.684842109680176,1,vertical,vertical,1,5,red,1,3,NaN,NaN,NaN,NaN,NaN,NaN,NaN,NaN,NaN,NaN,NaN,NaN,4,3,5,0,vertical,horizontal,vertical,horizontal
2b,4,100268,9,10,266,19,F,NA,constant,heterogeneous,4,absent,0.758772134780884,1,horizontal,horizontal,1,5,red,4,NaN,NaN,NaN,NaN,NaN,NaN,NaN,NaN,NaN,NaN,NaN,NaN,NaN,0,5,6,4,horizontal,vertical,horizontal,horizontal
2b,4,100268,9,11,267,19,F,NA,constant,heterogeneous,4,absent,1.0101490020752,1,vertical,vertical,1,3,red,1,NaN,NaN,NaN,NaN,NaN,NaN,NaN,NaN,NaN,NaN,NaN,NaN,NaN,4,5,0,3,vertical,horizontal,horizontal,horizontal
2b,4,100268,9,12,268,19,F,NA,constant,heterogeneous,4,present,0.814435958862305,1,vertical,vertical,1,3,red,1,2,NaN,NaN,NaN,NaN,NaN,NaN,NaN,NaN,NaN,NaN,NaN,NaN,4,3,6,0,vertical,horizontal,horizontal,vertical
2b,4,100268,9,13,269,19,F,NA,constant,heterogeneous,4,absent,0.719073057174683,1,vertical,vertical,1,2,red,4,NaN,NaN,NaN,NaN,NaN,NaN,NaN,NaN,NaN,NaN,NaN,NaN,NaN,3,6,5,4,vertical,vertical,horizontal,vertical
2b,4,100268,9,14,270,19,F,NA,constant,heterogeneous,4,present,1.09332704544067,1,vertical,vertical,1,2,red,4,2,NaN,NaN,NaN,NaN,NaN,NaN,NaN,NaN,NaN,NaN,NaN,NaN,5,0,3,4,vertical,horizontal,vertical,vertical
2b,4,100268,9,15,271,19,F,NA,constant,heterogeneous,4,absent,1.23571705818176,1,horizontal,horizontal,1,2,red,3,NaN,NaN,NaN,NaN,NaN,NaN,NaN,NaN,NaN,NaN,NaN,NaN,NaN,6,5,4,0,horizontal,horizontal,horizontal,horizontal
2b,4,100268,9,16,272,19,F,NA,constant,heterogeneous,4,present,0.884565830230713,0,horizontal,vertical,1,2,red,1,2,NaN,NaN,NaN,NaN,NaN,NaN,NaN,NaN,NaN,NaN,NaN,NaN,4,5,6,3,horizontal,vertical,vertical,horizontal
2b,4,100268,9,17,273,19,F,NA,constant,heterogeneous,4,present,0.64659595489502,1,vertical,vertical,1,2,red,2,3,NaN,NaN,NaN,NaN,NaN,NaN,NaN,NaN,NaN,NaN,NaN,NaN,6,4,5,0,horizontal,vertical,vertical,vertical
2b,4,100268,9,18,274,19,F,NA,constant,heterogeneous,4,absent,0.771789073944092,1,horizontal,horizontal,1,2,red,1,NaN,NaN,NaN,NaN,NaN,NaN,NaN,NaN,NaN,NaN,NaN,NaN,NaN,4,0,5,6,horizontal,vertical,vertical,horizontal
2b,4,100268,9,19,275,19,F,NA,constant,heterogeneous,4,absent,1.86744499206543,0,horizontal,vertical,1,2,red,2,NaN,NaN,NaN,NaN,NaN,NaN,NaN,NaN,NaN,NaN,NaN,NaN,NaN,6,4,3,5,horizontal,horizontal,vertical,vertical
2b,4,100268,9,20,276,19,F,NA,constant,heterogeneous,4,present,1.14885592460632,1,horizontal,horizontal,1,3,red,4,1,NaN,NaN,NaN,NaN,NaN,NaN,NaN,NaN,NaN,NaN,NaN,NaN,0,6,5,4,horizontal,horizontal,vertical,horizontal
2b,4,100268,9,21,277,19,F,NA,constant,heterogeneous,4,present,1.24400687217712,0,horizontal,vertical,1,5,red,2,4,NaN,NaN,NaN,NaN,NaN,NaN,NaN,NaN,NaN,NaN,NaN,NaN,3,4,5,6,horizontal,horizontal,vertical,horizontal
2b,4,100268,9,22,278,19,F,NA,constant,heterogeneous,4,present,0.853378057479858,1,vertical,vertical,1,5,red,1,3,NaN,NaN,NaN,NaN,NaN,NaN,NaN,NaN,NaN,NaN,NaN,NaN,4,5,0,3,vertical,vertical,horizontal,horizontal
2b,4,100268,9,23,279,19,F,NA,constant,heterogeneous,4,present,1.27430891990662,1,vertical,vertical,1,3,red,3,4,NaN,NaN,NaN,NaN,NaN,NaN,NaN,NaN,NaN,NaN,NaN,NaN,5,6,4,0,horizontal,horizontal,vertical,vertical
2b,4,100268,9,24,280,19,F,NA,constant,heterogeneous,4,present,NaN,0,horizontal,none,0,3,red,1,2,NaN,NaN,NaN,NaN,NaN,NaN,NaN,NaN,NaN,NaN,NaN,NaN,4,0,6,5,horizontal,horizontal,horizontal,horizontal
2b,4,100268,9,25,281,19,F,NA,constant,heterogeneous,4,absent,1.06055998802185,1,horizontal,horizontal,1,8,red,2,NaN,NaN,NaN,NaN,NaN,NaN,NaN,NaN,NaN,NaN,NaN,NaN,NaN,3,4,6,0,horizontal,horizontal,vertical,horizontal
2b,4,100268,9,26,282,19,F,NA,constant,heterogeneous,4,present,1.07801699638367,1,horizontal,horizontal,1,2,red,4,3,NaN,NaN,NaN,NaN,NaN,NaN,NaN,NaN,NaN,NaN,NaN,NaN,6,3,0,4,horizontal,horizontal,vertical,horizontal
2b,4,100268,9,27,283,19,F,NA,constant,heterogeneous,4,absent,1.90766191482544,1,vertical,vertical,1,3,red,2,NaN,NaN,NaN,NaN,NaN,NaN,NaN,NaN,NaN,NaN,NaN,NaN,NaN,3,4,5,6,vertical,vertical,vertical,horizontal
2b,4,100268,9,28,284,19,F,NA,constant,heterogeneous,4,absent,NaN,0,vertical,none,0,5,red,1,NaN,NaN,NaN,NaN,NaN,NaN,NaN,NaN,NaN,NaN,NaN,NaN,NaN,4,6,0,5,vertical,horizontal,vertical,vertical
2b,4,100268,9,29,285,19,F,NA,constant,heterogeneous,4,absent,1.15463519096375,1,horizontal,horizontal,1,5,red,3,NaN,NaN,NaN,NaN,NaN,NaN,NaN,NaN,NaN,NaN,NaN,NaN,NaN,5,6,4,3,horizontal,vertical,horizontal,horizontal
2b,4,100268,9,30,286,19,F,NA,constant,heterogeneous,4,present,NaN,0,vertical,none,0,8,red,3,1,NaN,NaN,NaN,NaN,NaN,NaN,NaN,NaN,NaN,NaN,NaN,NaN,6,3,4,5,horizontal,vertical,vertical,vertical
2b,4,100268,9,31,287,19,F,NA,constant,heterogeneous,4,absent,0.778309106826782,1,vertical,vertical,1,5,red,2,NaN,NaN,NaN,NaN,NaN,NaN,NaN,NaN,NaN,NaN,NaN,NaN,NaN,6,4,5,3,vertical,vertical,vertical,horizontal
2b,4,100268,9,32,288,19,F,NA,constant,heterogeneous,4,absent,0.774358034133911,1,vertical,vertical,1,8,red,2,NaN,NaN,NaN,NaN,NaN,NaN,NaN,NaN,NaN,NaN,NaN,NaN,NaN,3,4,0,6,horizontal,vertical,horizontal,vertical
2b,4,100268,10,1,289,19,F,NA,constant,heterogeneous,4,present,1.4056670665741,1,horizontal,horizontal,1,8,red,4,1,NaN,NaN,NaN,NaN,NaN,NaN,NaN,NaN,NaN,NaN,NaN,NaN,3,5,6,4,horizontal,vertical,horizontal,horizontal
2b,4,100268,10,2,290,19,F,NA,constant,heterogeneous,4,absent,0.817928075790405,1,vertical,vertical,1,3,red,1,NaN,NaN,NaN,NaN,NaN,NaN,NaN,NaN,NaN,NaN,NaN,NaN,NaN,4,6,5,0,vertical,vertical,horizontal,vertical
2b,4,100268,10,3,291,19,F,NA,constant,heterogeneous,4,present,0.906538009643555,1,vertical,vertical,1,2,red,2,1,NaN,NaN,NaN,NaN,NaN,NaN,NaN,NaN,NaN,NaN,NaN,NaN,5,4,0,3,vertical,vertical,horizontal,vertical
2b,4,100268,10,4,292,19,F,NA,constant,heterogeneous,4,present,0.997002840042114,1,horizontal,horizontal,1,2,red,3,4,NaN,NaN,NaN,NaN,NaN,NaN,NaN,NaN,NaN,NaN,NaN,NaN,6,3,4,5,vertical,horizontal,horizontal,horizontal
2b,4,100268,10,5,293,19,F,NA,constant,heterogeneous,4,present,0.653174877166748,1,vertical,vertical,1,5,red,1,2,NaN,NaN,NaN,NaN,NaN,NaN,NaN,NaN,NaN,NaN,NaN,NaN,4,3,6,0,vertical,horizontal,vertical,vertical
2b,4,100268,10,6,294,19,F,NA,constant,heterogeneous,4,absent,0.86637282371521,1,vertical,vertical,1,2,red,1,NaN,NaN,NaN,NaN,NaN,NaN,NaN,NaN,NaN,NaN,NaN,NaN,NaN,4,3,6,0,vertical,horizontal,vertical,horizontal
2b,4,100268,10,7,295,19,F,NA,constant,heterogeneous,4,absent,0.827829122543335,1,vertical,vertical,1,3,red,1,NaN,NaN,NaN,NaN,NaN,NaN,NaN,NaN,NaN,NaN,NaN,NaN,NaN,4,6,0,5,vertical,horizontal,horizontal,vertical
2b,4,100268,10,8,296,19,F,NA,constant,heterogeneous,4,absent,1.39257788658142,1,horizontal,horizontal,1,8,red,3,NaN,NaN,NaN,NaN,NaN,NaN,NaN,NaN,NaN,NaN,NaN,NaN,NaN,0,6,4,5,horizontal,vertical,horizontal,vertical
2b,4,100268,10,9,297,19,F,NA,constant,heterogeneous,4,present,1.05664896965027,1,vertical,vertical,1,3,red,1,3,NaN,NaN,NaN,NaN,NaN,NaN,NaN,NaN,NaN,NaN,NaN,NaN,4,5,3,0,vertical,horizontal,horizontal,horizontal
2b,4,100268,10,10,298,19,F,NA,constant,heterogeneous,4,present,NaN,0,horizontal,none,0,2,red,1,3,NaN,NaN,NaN,NaN,NaN,NaN,NaN,NaN,NaN,NaN,NaN,NaN,4,0,3,6,horizontal,vertical,horizontal,vertical
2b,4,100268,10,11,299,19,F,NA,constant,heterogeneous,4,present,NaN,0,horizontal,none,0,2,red,3,2,NaN,NaN,NaN,NaN,NaN,NaN,NaN,NaN,NaN,NaN,NaN,NaN,3,5,4,0,vertical,horizontal,horizontal,vertical
2b,4,100268,10,12,300,19,F,NA,constant,heterogeneous,4,present,0.750720024108887,1,vertical,vertical,1,8,red,2,3,NaN,NaN,NaN,NaN,NaN,NaN,NaN,NaN,NaN,NaN,NaN,NaN,3,4,5,0,vertical,vertical,horizontal,horizontal
2b,4,100268,10,13,301,19,F,NA,constant,heterogeneous,4,absent,1.20581698417664,1,horizontal,horizontal,1,2,red,1,NaN,NaN,NaN,NaN,NaN,NaN,NaN,NaN,NaN,NaN,NaN,NaN,NaN,4,6,5,3,horizontal,horizontal,horizontal,horizontal
2b,4,100268,10,14,302,19,F,NA,constant,heterogeneous,4,absent,1.0663628578186,1,vertical,vertical,1,2,red,3,NaN,NaN,NaN,NaN,NaN,NaN,NaN,NaN,NaN,NaN,NaN,NaN,NaN,3,5,4,6,vertical,vertical,vertical,vertical
2b,4,100268,10,15,303,19,F,NA,constant,heterogeneous,4,absent,1.12371897697449,1,vertical,vertical,1,8,red,2,NaN,NaN,NaN,NaN,NaN,NaN,NaN,NaN,NaN,NaN,NaN,NaN,NaN,5,4,0,6,horizontal,vertical,vertical,horizontal
2b,4,100268,10,16,304,19,F,NA,constant,heterogeneous,4,absent,1.11435890197754,1,horizontal,horizontal,1,3,red,2,NaN,NaN,NaN,NaN,NaN,NaN,NaN,NaN,NaN,NaN,NaN,NaN,NaN,0,4,6,3,vertical,horizontal,horizontal,vertical
2b,4,100268,10,17,305,19,F,NA,constant,heterogeneous,4,absent,0.764724969863892,1,horizontal,horizontal,1,2,red,1,NaN,NaN,NaN,NaN,NaN,NaN,NaN,NaN,NaN,NaN,NaN,NaN,NaN,4,6,3,0,horizontal,horizontal,horizontal,horizontal
2b,4,100268,10,18,306,19,F,NA,constant,heterogeneous,4,absent,0.940272808074951,1,horizontal,horizontal,1,5,red,3,NaN,NaN,NaN,NaN,NaN,NaN,NaN,NaN,NaN,NaN,NaN,NaN,NaN,3,6,4,5,horizontal,vertical,horizontal,vertical
2b,4,100268,10,19,307,19,F,NA,constant,heterogeneous,4,present,0.883600950241089,1,horizontal,horizontal,1,5,red,3,2,NaN,NaN,NaN,NaN,NaN,NaN,NaN,NaN,NaN,NaN,NaN,NaN,0,5,4,6,vertical,horizontal,horizontal,horizontal
2b,4,100268,10,20,308,19,F,NA,constant,heterogeneous,4,present,0.845566034317017,1,horizontal,horizontal,1,5,red,4,3,NaN,NaN,NaN,NaN,NaN,NaN,NaN,NaN,NaN,NaN,NaN,NaN,6,0,5,4,vertical,horizontal,vertical,horizontal
2b,4,100268,10,21,309,19,F,NA,constant,heterogeneous,4,absent,0.898797035217285,1,vertical,vertical,1,5,red,4,NaN,NaN,NaN,NaN,NaN,NaN,NaN,NaN,NaN,NaN,NaN,NaN,NaN,5,3,6,4,horizontal,horizontal,horizontal,vertical
2b,4,100268,10,22,310,19,F,NA,constant,heterogeneous,4,absent,1.24105000495911,1,horizontal,horizontal,1,3,red,3,NaN,NaN,NaN,NaN,NaN,NaN,NaN,NaN,NaN,NaN,NaN,NaN,NaN,5,0,4,6,horizontal,horizontal,horizontal,horizontal
2b,4,100268,10,23,311,19,F,NA,constant,heterogeneous,4,present,1.00217294692993,1,vertical,vertical,1,5,red,1,2,NaN,NaN,NaN,NaN,NaN,NaN,NaN,NaN,NaN,NaN,NaN,NaN,4,3,0,6,vertical,horizontal,horizontal,vertical
2b,4,100268,10,24,312,19,F,NA,constant,heterogeneous,4,present,0.902432918548584,1,vertical,vertical,1,2,red,2,4,NaN,NaN,NaN,NaN,NaN,NaN,NaN,NaN,NaN,NaN,NaN,NaN,6,4,0,5,vertical,vertical,horizontal,vertical
2b,4,100268,10,25,313,19,F,NA,constant,heterogeneous,4,absent,0.708629846572876,1,vertical,vertical,1,5,red,2,NaN,NaN,NaN,NaN,NaN,NaN,NaN,NaN,NaN,NaN,NaN,NaN,NaN,5,4,6,3,vertical,vertical,horizontal,horizontal
2b,4,100268,10,26,314,19,F,NA,constant,heterogeneous,4,present,1.01505398750305,1,horizontal,horizontal,1,3,red,1,4,NaN,NaN,NaN,NaN,NaN,NaN,NaN,NaN,NaN,NaN,NaN,NaN,4,5,6,0,horizontal,vertical,vertical,horizontal
2b,4,100268,10,27,315,19,F,NA,constant,heterogeneous,4,absent,0.000805139541625977,0,horizontal,vertical,1,5,red,4,NaN,NaN,NaN,NaN,NaN,NaN,NaN,NaN,NaN,NaN,NaN,NaN,NaN,5,6,0,4,horizontal,horizontal,vertical,horizontal
2b,4,100268,10,28,316,19,F,NA,constant,heterogeneous,4,absent,0.000689983367919922,1,vertical,vertical,1,2,red,4,NaN,NaN,NaN,NaN,NaN,NaN,NaN,NaN,NaN,NaN,NaN,NaN,NaN,0,6,5,4,vertical,vertical,horizontal,vertical
2b,4,100268,10,29,317,19,F,NA,constant,heterogeneous,4,present,0.000641107559204102,0,horizontal,vertical,1,3,red,2,1,NaN,NaN,NaN,NaN,NaN,NaN,NaN,NaN,NaN,NaN,NaN,NaN,5,4,3,6,horizontal,horizontal,horizontal,vertical
2b,4,100268,10,30,318,19,F,NA,constant,heterogeneous,4,present,0.000976085662841797,1,vertical,vertical,1,3,red,2,3,NaN,NaN,NaN,NaN,NaN,NaN,NaN,NaN,NaN,NaN,NaN,NaN,3,4,5,6,vertical,vertical,horizontal,horizontal
2b,4,100268,10,31,319,19,F,NA,constant,heterogeneous,4,absent,0.000998020172119141,0,horizontal,vertical,1,2,red,2,NaN,NaN,NaN,NaN,NaN,NaN,NaN,NaN,NaN,NaN,NaN,NaN,NaN,3,4,0,5,vertical,horizontal,vertical,vertical
2b,4,100268,10,32,320,19,F,NA,constant,heterogeneous,4,present,0.000777006149291992,1,vertical,vertical,1,2,red,1,4,NaN,NaN,NaN,NaN,NaN,NaN,NaN,NaN,NaN,NaN,NaN,NaN,4,6,5,0,vertical,horizontal,horizontal,vertical
2b,4,100268,11,1,321,19,F,NA,constant,homogeneous,4,absent,NaN,0,vertical,none,0,2,red,1,NaN,980.31222920257,780.31222920257,NaN,NaN,980.31222920257,780.31222920257,980.31222920257,419.68777079743,619.68777079743,419.68777079743,619.68777079743,780.31222920257,4,0,0,0,vertical,vertical,vertical,horizontal
2b,4,100268,11,2,322,19,F,NA,constant,homogeneous,4,present,1.04628801345825,1,vertical,vertical,1,2,red,1,4,980.31222920257,780.31222920257,619.68777079743,780.31222920257,980.31222920257,780.31222920257,980.31222920257,419.68777079743,619.68777079743,419.68777079743,619.68777079743,780.31222920257,4,0,0,0,vertical,vertical,horizontal,vertical
2b,4,100268,11,3,323,19,F,NA,constant,homogeneous,4,present,0.899350166320801,1,horizontal,horizontal,1,3,red,1,4,980.31222920257,780.31222920257,619.68777079743,780.31222920257,980.31222920257,780.31222920257,980.31222920257,419.68777079743,619.68777079743,419.68777079743,619.68777079743,780.31222920257,4,0,0,0,horizontal,horizontal,horizontal,vertical
2b,4,100268,11,4,324,19,F,NA,constant,homogeneous,4,absent,0.809548139572144,1,vertical,vertical,1,5,red,2,NaN,980.31222920257,419.68777079743,NaN,NaN,980.31222920257,780.31222920257,980.31222920257,419.68777079743,619.68777079743,419.68777079743,619.68777079743,780.31222920257,0,4,0,0,vertical,vertical,vertical,vertical
2b,4,100268,11,5,325,19,F,NA,constant,homogeneous,4,present,1.0698401927948,1,horizontal,horizontal,1,3,red,3,1,619.68777079743,419.68777079743,980.31222920257,780.31222920257,980.31222920257,780.31222920257,980.31222920257,419.68777079743,619.68777079743,419.68777079743,619.68777079743,780.31222920257,0,0,4,0,vertical,vertical,horizontal,horizontal
2b,4,100268,11,6,326,19,F,NA,constant,homogeneous,4,absent,0.707319974899292,1,horizontal,horizontal,1,2,red,1,NaN,980.31222920257,780.31222920257,NaN,NaN,980.31222920257,780.31222920257,980.31222920257,419.68777079743,619.68777079743,419.68777079743,619.68777079743,780.31222920257,4,0,0,0,horizontal,horizontal,horizontal,horizontal
2b,4,100268,11,7,327,19,F,NA,constant,homogeneous,4,present,0.853806018829346,1,horizontal,horizontal,1,5,red,2,3,980.31222920257,419.68777079743,619.68777079743,419.68777079743,980.31222920257,780.31222920257,980.31222920257,419.68777079743,619.68777079743,419.68777079743,619.68777079743,780.31222920257,0,4,0,0,vertical,horizontal,vertical,vertical
2b,4,100268,11,8,328,19,F,NA,constant,homogeneous,4,present,0.634970903396606,1,horizontal,horizontal,1,2,red,3,1,619.68777079743,419.68777079743,980.31222920257,780.31222920257,980.31222920257,780.31222920257,980.31222920257,419.68777079743,619.68777079743,419.68777079743,619.68777079743,780.31222920257,0,0,4,0,vertical,vertical,horizontal,horizontal
2b,4,100268,11,9,329,19,F,NA,constant,homogeneous,4,present,0.611895799636841,1,horizontal,horizontal,1,2,red,4,1,619.68777079743,780.31222920257,980.31222920257,780.31222920257,980.31222920257,780.31222920257,980.31222920257,419.68777079743,619.68777079743,419.68777079743,619.68777079743,780.31222920257,0,0,0,4,vertical,horizontal,horizontal,horizontal
2b,4,100268,11,10,330,19,F,NA,constant,homogeneous,4,absent,0.628486156463623,1,vertical,vertical,1,2,red,1,NaN,980.31222920257,780.31222920257,NaN,NaN,980.31222920257,780.31222920257,980.31222920257,419.68777079743,619.68777079743,419.68777079743,619.68777079743,780.31222920257,4,0,0,0,vertical,horizontal,vertical,vertical
2b,4,100268,11,11,331,19,F,NA,constant,homogeneous,4,absent,0.457138061523438,1,vertical,vertical,1,3,red,2,NaN,980.31222920257,419.68777079743,NaN,NaN,980.31222920257,780.31222920257,980.31222920257,419.68777079743,619.68777079743,419.68777079743,619.68777079743,780.31222920257,0,4,0,0,vertical,vertical,vertical,horizontal
2b,4,100268,11,12,332,19,F,NA,constant,homogeneous,4,present,0.630555868148804,1,horizontal,horizontal,1,8,red,2,3,980.31222920257,419.68777079743,619.68777079743,419.68777079743,980.31222920257,780.31222920257,980.31222920257,419.68777079743,619.68777079743,419.68777079743,619.68777079743,780.31222920257,0,4,0,0,vertical,horizontal,vertical,vertical
2b,4,100268,11,13,333,19,F,NA,constant,homogeneous,4,absent,0.651380062103271,1,horizontal,horizontal,1,5,red,3,NaN,619.68777079743,419.68777079743,NaN,NaN,980.31222920257,780.31222920257,980.31222920257,419.68777079743,619.68777079743,419.68777079743,619.68777079743,780.31222920257,0,0,4,0,vertical,vertical,horizontal,vertical
2b,4,100268,11,14,334,19,F,NA,constant,homogeneous,4,absent,0.656590938568115,0,vertical,horizontal,1,8,red,4,NaN,619.68777079743,780.31222920257,NaN,NaN,980.31222920257,780.31222920257,980.31222920257,419.68777079743,619.68777079743,419.68777079743,619.68777079743,780.31222920257,0,0,0,4,vertical,horizontal,horizontal,vertical
2b,4,100268,11,15,335,19,F,NA,constant,homogeneous,4,absent,0.694149971008301,1,vertical,vertical,1,2,red,3,NaN,619.68777079743,419.68777079743,NaN,NaN,980.31222920257,780.31222920257,980.31222920257,419.68777079743,619.68777079743,419.68777079743,619.68777079743,780.31222920257,0,0,4,0,horizontal,horizontal,vertical,horizontal
2b,4,100268,11,16,336,19,F,NA,constant,homogeneous,4,present,0.620134830474854,1,vertical,vertical,1,3,red,1,3,980.31222920257,780.31222920257,619.68777079743,419.68777079743,980.31222920257,780.31222920257,980.31222920257,419.68777079743,619.68777079743,419.68777079743,619.68777079743,780.31222920257,4,0,0,0,vertical,horizontal,horizontal,vertical
2b,4,100268,11,17,337,19,F,NA,constant,homogeneous,4,absent,0.55671215057373,1,horizontal,horizontal,1,8,red,3,NaN,619.68777079743,419.68777079743,NaN,NaN,980.31222920257,780.31222920257,980.31222920257,419.68777079743,619.68777079743,419.68777079743,619.68777079743,780.31222920257,0,0,4,0,vertical,horizontal,horizontal,horizontal
2b,4,100268,11,18,338,19,F,NA,constant,homogeneous,4,present,0.600178003311157,1,vertical,vertical,1,2,red,1,4,980.31222920257,780.31222920257,619.68777079743,780.31222920257,980.31222920257,780.31222920257,980.31222920257,419.68777079743,619.68777079743,419.68777079743,619.68777079743,780.31222920257,4,0,0,0,vertical,vertical,horizontal,horizontal
2b,4,100268,11,19,339,19,F,NA,constant,homogeneous,4,present,0.756486177444458,1,vertical,vertical,1,8,red,2,4,980.31222920257,419.68777079743,619.68777079743,780.31222920257,980.31222920257,780.31222920257,980.31222920257,419.68777079743,619.68777079743,419.68777079743,619.68777079743,780.31222920257,0,4,0,0,vertical,vertical,vertical,vertical
2b,4,100268,11,20,340,19,F,NA,constant,homogeneous,4,absent,0.600164175033569,1,vertical,vertical,1,5,red,2,NaN,980.31222920257,419.68777079743,NaN,NaN,980.31222920257,780.31222920257,980.31222920257,419.68777079743,619.68777079743,419.68777079743,619.68777079743,780.31222920257,0,4,0,0,vertical,vertical,horizontal,vertical
2b,4,100268,11,21,341,19,F,NA,constant,homogeneous,4,absent,0.724198818206787,1,horizontal,horizontal,1,3,red,3,NaN,619.68777079743,419.68777079743,NaN,NaN,980.31222920257,780.31222920257,980.31222920257,419.68777079743,619.68777079743,419.68777079743,619.68777079743,780.31222920257,0,0,4,0,vertical,horizontal,horizontal,vertical
2b,4,100268,11,22,342,19,F,NA,constant,homogeneous,4,absent,0.954973936080933,1,horizontal,horizontal,1,5,red,4,NaN,619.68777079743,780.31222920257,NaN,NaN,980.31222920257,780.31222920257,980.31222920257,419.68777079743,619.68777079743,419.68777079743,619.68777079743,780.31222920257,0,0,0,4,vertical,vertical,horizontal,horizontal
2b,4,100268,11,23,343,19,F,NA,constant,homogeneous,4,present,0.614300012588501,0,horizontal,vertical,1,5,red,1,4,980.31222920257,780.31222920257,619.68777079743,780.31222920257,980.31222920257,780.31222920257,980.31222920257,419.68777079743,619.68777079743,419.68777079743,619.68777079743,780.31222920257,4,0,0,0,horizontal,vertical,horizontal,horizontal
2b,4,100268,11,24,344,19,F,NA,constant,homogeneous,4,absent,0.670788049697876,1,horizontal,horizontal,1,2,red,1,NaN,980.31222920257,780.31222920257,NaN,NaN,980.31222920257,780.31222920257,980.31222920257,419.68777079743,619.68777079743,419.68777079743,619.68777079743,780.31222920257,4,0,0,0,horizontal,horizontal,horizontal,horizontal
2b,4,100268,11,25,345,19,F,NA,constant,homogeneous,4,present,0.716464996337891,1,vertical,vertical,1,3,red,2,1,980.31222920257,419.68777079743,980.31222920257,780.31222920257,980.31222920257,780.31222920257,980.31222920257,419.68777079743,619.68777079743,419.68777079743,619.68777079743,780.31222920257,0,4,0,0,vertical,vertical,horizontal,horizontal
2b,4,100268,11,26,346,19,F,NA,constant,homogeneous,4,present,0.691272974014282,1,vertical,vertical,1,5,red,2,4,980.31222920257,419.68777079743,619.68777079743,780.31222920257,980.31222920257,780.31222920257,980.31222920257,419.68777079743,619.68777079743,419.68777079743,619.68777079743,780.31222920257,0,4,0,0,horizontal,vertical,vertical,horizontal
2b,4,100268,11,27,347,19,F,NA,constant,homogeneous,4,absent,0.941031932830811,1,horizontal,horizontal,1,2,red,1,NaN,980.31222920257,780.31222920257,NaN,NaN,980.31222920257,780.31222920257,980.31222920257,419.68777079743,619.68777079743,419.68777079743,619.68777079743,780.31222920257,4,0,0,0,horizontal,horizontal,horizontal,vertical
2b,4,100268,11,28,348,19,F,NA,constant,homogeneous,4,present,0.788245916366577,1,vertical,vertical,1,2,red,4,1,619.68777079743,780.31222920257,980.31222920257,780.31222920257,980.31222920257,780.31222920257,980.31222920257,419.68777079743,619.68777079743,419.68777079743,619.68777079743,780.31222920257,0,0,0,4,vertical,horizontal,vertical,vertical
2b,4,100268,11,29,349,19,F,NA,constant,homogeneous,4,present,1.220547914505,1,vertical,vertical,1,5,red,1,2,980.31222920257,780.31222920257,980.31222920257,419.68777079743,980.31222920257,780.31222920257,980.31222920257,419.68777079743,619.68777079743,419.68777079743,619.68777079743,780.31222920257,4,0,0,0,vertical,vertical,horizontal,vertical
2b,4,100268,11,30,350,19,F,NA,constant,homogeneous,4,absent,1.26096510887146,1,horizontal,horizontal,1,3,red,3,NaN,619.68777079743,419.68777079743,NaN,NaN,980.31222920257,780.31222920257,980.31222920257,419.68777079743,619.68777079743,419.68777079743,619.68777079743,780.31222920257,0,0,4,0,horizontal,horizontal,horizontal,vertical
2b,4,100268,11,31,351,19,F,NA,constant,homogeneous,4,present,NaN,0,horizontal,none,0,2,red,4,1,619.68777079743,780.31222920257,980.31222920257,780.31222920257,980.31222920257,780.31222920257,980.31222920257,419.68777079743,619.68777079743,419.68777079743,619.68777079743,780.31222920257,0,0,0,4,vertical,vertical,horizontal,horizontal
2b,4,100268,11,32,352,19,F,NA,constant,homogeneous,4,absent,0.970869064331055,1,vertical,vertical,1,3,red,2,NaN,980.31222920257,419.68777079743,NaN,NaN,980.31222920257,780.31222920257,980.31222920257,419.68777079743,619.68777079743,419.68777079743,619.68777079743,780.31222920257,0,4,0,0,vertical,vertical,vertical,vertical
2b,4,100268,12,1,353,19,F,NA,constant,homogeneous,4,absent,0.909831047058105,1,horizontal,horizontal,1,8,red,2,NaN,980.31222920257,419.68777079743,NaN,NaN,980.31222920257,780.31222920257,980.31222920257,419.68777079743,619.68777079743,419.68777079743,619.68777079743,780.31222920257,0,4,0,0,vertical,horizontal,vertical,vertical
2b,4,100268,12,2,354,19,F,NA,constant,homogeneous,4,absent,0.576442956924438,1,vertical,vertical,1,2,red,2,NaN,980.31222920257,419.68777079743,NaN,NaN,980.31222920257,780.31222920257,980.31222920257,419.68777079743,619.68777079743,419.68777079743,619.68777079743,780.31222920257,0,4,0,0,vertical,vertical,horizontal,horizontal
2b,4,100268,12,3,355,19,F,NA,constant,homogeneous,4,present,0.868034839630127,1,vertical,vertical,1,3,red,1,2,980.31222920257,780.31222920257,980.31222920257,419.68777079743,980.31222920257,780.31222920257,980.31222920257,419.68777079743,619.68777079743,419.68777079743,619.68777079743,780.31222920257,4,0,0,0,vertical,vertical,vertical,vertical
2b,4,100268,12,4,356,19,F,NA,constant,homogeneous,4,present,1.40556693077087,1,horizontal,horizontal,1,2,red,3,4,619.68777079743,419.68777079743,619.68777079743,780.31222920257,980.31222920257,780.31222920257,980.31222920257,419.68777079743,619.68777079743,419.68777079743,619.68777079743,780.31222920257,0,0,4,0,horizontal,vertical,horizontal,horizontal
2b,4,100268,12,5,357,19,F,NA,constant,homogeneous,4,absent,0.689906120300293,1,vertical,vertical,1,3,red,1,NaN,980.31222920257,780.31222920257,NaN,NaN,980.31222920257,780.31222920257,980.31222920257,419.68777079743,619.68777079743,419.68777079743,619.68777079743,780.31222920257,4,0,0,0,vertical,vertical,vertical,horizontal
2b,4,100268,12,6,358,19,F,NA,constant,homogeneous,4,absent,0.675877094268799,1,horizontal,horizontal,1,5,red,3,NaN,619.68777079743,419.68777079743,NaN,NaN,980.31222920257,780.31222920257,980.31222920257,419.68777079743,619.68777079743,419.68777079743,619.68777079743,780.31222920257,0,0,4,0,vertical,horizontal,horizontal,vertical
2b,4,100268,12,7,359,19,F,NA,constant,homogeneous,4,absent,0.745646953582764,0,horizontal,vertical,1,5,red,2,NaN,980.31222920257,419.68777079743,NaN,NaN,980.31222920257,780.31222920257,980.31222920257,419.68777079743,619.68777079743,419.68777079743,619.68777079743,780.31222920257,0,4,0,0,vertical,horizontal,horizontal,horizontal
2b,4,100268,12,8,360,19,F,NA,constant,homogeneous,4,present,0.960694074630737,1,vertical,vertical,1,2,red,4,1,619.68777079743,780.31222920257,980.31222920257,780.31222920257,980.31222920257,780.31222920257,980.31222920257,419.68777079743,619.68777079743,419.68777079743,619.68777079743,780.31222920257,0,0,0,4,horizontal,horizontal,horizontal,vertical
2b,4,100268,12,9,361,19,F,NA,constant,homogeneous,4,present,0.932085990905762,1,vertical,vertical,1,8,red,1,4,980.31222920257,780.31222920257,619.68777079743,780.31222920257,980.31222920257,780.31222920257,980.31222920257,419.68777079743,619.68777079743,419.68777079743,619.68777079743,780.31222920257,4,0,0,0,vertical,horizontal,horizontal,horizontal
2b,4,100268,12,10,362,19,F,NA,constant,homogeneous,4,absent,0.662971973419189,1,horizontal,horizontal,1,2,red,1,NaN,980.31222920257,780.31222920257,NaN,NaN,980.31222920257,780.31222920257,980.31222920257,419.68777079743,619.68777079743,419.68777079743,619.68777079743,780.31222920257,4,0,0,0,horizontal,horizontal,horizontal,horizontal
2b,4,100268,12,11,363,19,F,NA,constant,homogeneous,4,absent,0.712391138076782,1,horizontal,horizontal,1,3,red,3,NaN,619.68777079743,419.68777079743,NaN,NaN,980.31222920257,780.31222920257,980.31222920257,419.68777079743,619.68777079743,419.68777079743,619.68777079743,780.31222920257,0,0,4,0,vertical,vertical,horizontal,horizontal
2b,4,100268,12,12,364,19,F,NA,constant,homogeneous,4,absent,0.579080104827881,0,vertical,horizontal,1,8,red,4,NaN,619.68777079743,780.31222920257,NaN,NaN,980.31222920257,780.31222920257,980.31222920257,419.68777079743,619.68777079743,419.68777079743,619.68777079743,780.31222920257,0,0,0,4,vertical,horizontal,vertical,vertical
2b,4,100268,12,13,365,19,F,NA,constant,homogeneous,4,present,0.638838052749634,1,vertical,vertical,1,5,red,4,2,619.68777079743,780.31222920257,980.31222920257,419.68777079743,980.31222920257,780.31222920257,980.31222920257,419.68777079743,619.68777079743,419.68777079743,619.68777079743,780.31222920257,0,0,0,4,vertical,vertical,horizontal,vertical
2b,4,100268,12,14,366,19,F,NA,constant,homogeneous,4,present,0.608165979385376,1,vertical,vertical,1,5,red,4,2,619.68777079743,780.31222920257,980.31222920257,419.68777079743,980.31222920257,780.31222920257,980.31222920257,419.68777079743,619.68777079743,419.68777079743,619.68777079743,780.31222920257,0,0,0,4,vertical,vertical,vertical,vertical
2b,4,100268,12,15,367,19,F,NA,constant,homogeneous,4,absent,0.740102052688599,1,horizontal,horizontal,1,2,red,3,NaN,619.68777079743,419.68777079743,NaN,NaN,980.31222920257,780.31222920257,980.31222920257,419.68777079743,619.68777079743,419.68777079743,619.68777079743,780.31222920257,0,0,4,0,vertical,horizontal,horizontal,horizontal
2b,4,100268,12,16,368,19,F,NA,constant,homogeneous,4,present,0.611335039138794,0,vertical,horizontal,1,3,red,3,1,619.68777079743,419.68777079743,980.31222920257,780.31222920257,980.31222920257,780.31222920257,980.31222920257,419.68777079743,619.68777079743,419.68777079743,619.68777079743,780.31222920257,0,0,4,0,horizontal,horizontal,vertical,horizontal
2b,4,100268,12,17,369,19,F,NA,constant,homogeneous,4,present,1.21994495391846,0,horizontal,vertical,1,5,red,2,1,980.31222920257,419.68777079743,980.31222920257,780.31222920257,980.31222920257,780.31222920257,980.31222920257,419.68777079743,619.68777079743,419.68777079743,619.68777079743,780.31222920257,0,4,0,0,horizontal,horizontal,vertical,horizontal
2b,4,100268,12,18,370,19,F,NA,constant,homogeneous,4,present,0.956551790237427,1,vertical,vertical,1,2,red,4,3,619.68777079743,780.31222920257,619.68777079743,419.68777079743,980.31222920257,780.31222920257,980.31222920257,419.68777079743,619.68777079743,419.68777079743,619.68777079743,780.31222920257,0,0,0,4,vertical,horizontal,vertical,vertical
2b,4,100268,12,19,371,19,F,NA,constant,homogeneous,4,present,0.703988075256348,1,vertical,vertical,1,2,red,4,2,619.68777079743,780.31222920257,980.31222920257,419.68777079743,980.31222920257,780.31222920257,980.31222920257,419.68777079743,619.68777079743,419.68777079743,619.68777079743,780.31222920257,0,0,0,4,vertical,horizontal,horizontal,vertical
2b,4,100268,12,20,372,19,F,NA,constant,homogeneous,4,present,0.654030799865723,1,horizontal,horizontal,1,2,red,3,4,619.68777079743,419.68777079743,619.68777079743,780.31222920257,980.31222920257,780.31222920257,980.31222920257,419.68777079743,619.68777079743,419.68777079743,619.68777079743,780.31222920257,0,0,4,0,vertical,horizontal,horizontal,horizontal
2b,4,100268,12,21,373,19,F,NA,constant,homogeneous,4,present,0.515365839004517,1,horizontal,horizontal,1,3,red,3,1,619.68777079743,419.68777079743,980.31222920257,780.31222920257,980.31222920257,780.31222920257,980.31222920257,419.68777079743,619.68777079743,419.68777079743,619.68777079743,780.31222920257,0,0,4,0,vertical,horizontal,horizontal,horizontal
2b,4,100268,12,22,374,19,F,NA,constant,homogeneous,4,absent,0.965583086013794,1,vertical,vertical,1,3,red,4,NaN,619.68777079743,780.31222920257,NaN,NaN,980.31222920257,780.31222920257,980.31222920257,419.68777079743,619.68777079743,419.68777079743,619.68777079743,780.31222920257,0,0,0,4,vertical,vertical,vertical,vertical
2b,4,100268,12,23,375,19,F,NA,constant,homogeneous,4,absent,0.877171993255615,1,vertical,vertical,1,5,red,2,NaN,980.31222920257,419.68777079743,NaN,NaN,980.31222920257,780.31222920257,980.31222920257,419.68777079743,619.68777079743,419.68777079743,619.68777079743,780.31222920257,0,4,0,0,vertical,vertical,horizontal,vertical
2b,4,100268,12,24,376,19,F,NA,constant,homogeneous,4,present,0.723012924194336,1,horizontal,horizontal,1,5,red,1,3,980.31222920257,780.31222920257,619.68777079743,419.68777079743,980.31222920257,780.31222920257,980.31222920257,419.68777079743,619.68777079743,419.68777079743,619.68777079743,780.31222920257,4,0,0,0,horizontal,vertical,horizontal,horizontal
2b,4,100268,12,25,377,19,F,NA,constant,homogeneous,4,present,1.99366402626038,0,horizontal,vertical,1,3,red,1,3,980.31222920257,780.31222920257,619.68777079743,419.68777079743,980.31222920257,780.31222920257,980.31222920257,419.68777079743,619.68777079743,419.68777079743,619.68777079743,780.31222920257,4,0,0,0,horizontal,vertical,horizontal,horizontal
2b,4,100268,12,26,378,19,F,NA,constant,homogeneous,4,absent,0.649892091751099,1,vertical,vertical,1,2,red,2,NaN,980.31222920257,419.68777079743,NaN,NaN,980.31222920257,780.31222920257,980.31222920257,419.68777079743,619.68777079743,419.68777079743,619.68777079743,780.31222920257,0,4,0,0,horizontal,vertical,vertical,horizontal
2b,4,100268,12,27,379,19,F,NA,constant,homogeneous,4,absent,1.27892804145813,1,horizontal,horizontal,1,3,red,3,NaN,619.68777079743,419.68777079743,NaN,NaN,980.31222920257,780.31222920257,980.31222920257,419.68777079743,619.68777079743,419.68777079743,619.68777079743,780.31222920257,0,0,4,0,vertical,horizontal,horizontal,vertical
2b,4,100268,12,28,380,19,F,NA,constant,homogeneous,4,absent,1.6288161277771,1,horizontal,horizontal,1,2,red,4,NaN,619.68777079743,780.31222920257,NaN,NaN,980.31222920257,780.31222920257,980.31222920257,419.68777079743,619.68777079743,419.68777079743,619.68777079743,780.31222920257,0,0,0,4,vertical,vertical,vertical,horizontal
2b,4,100268,12,29,381,19,F,NA,constant,homogeneous,4,absent,0.961529016494751,1,vertical,vertical,1,5,red,3,NaN,619.68777079743,419.68777079743,NaN,NaN,980.31222920257,780.31222920257,980.31222920257,419.68777079743,619.68777079743,419.68777079743,619.68777079743,780.31222920257,0,0,4,0,vertical,horizontal,vertical,horizontal
2b,4,100268,12,30,382,19,F,NA,constant,homogeneous,4,absent,0.748856067657471,1,vertical,vertical,1,2,red,2,NaN,980.31222920257,419.68777079743,NaN,NaN,980.31222920257,780.31222920257,980.31222920257,419.68777079743,619.68777079743,419.68777079743,619.68777079743,780.31222920257,0,4,0,0,vertical,vertical,horizontal,horizontal
2b,4,100268,12,31,383,19,F,NA,constant,homogeneous,4,present,1.26813912391663,0,horizontal,vertical,1,8,red,3,2,619.68777079743,419.68777079743,980.31222920257,419.68777079743,980.31222920257,780.31222920257,980.31222920257,419.68777079743,619.68777079743,419.68777079743,619.68777079743,780.31222920257,0,0,4,0,horizontal,vertical,horizontal,vertical
2b,4,100268,12,32,384,19,F,NA,constant,homogeneous,4,present,0.973462104797363,1,horizontal,horizontal,1,2,red,3,2,619.68777079743,419.68777079743,980.31222920257,419.68777079743,980.31222920257,780.31222920257,980.31222920257,419.68777079743,619.68777079743,419.68777079743,619.68777079743,780.31222920257,0,0,4,0,horizontal,horizontal,horizontal,horizontal
2b,4,100268,13,1,385,19,F,NA,constant,homogeneous,4,present,0.929978132247925,1,horizontal,horizontal,1,2,red,3,2,619.68777079743,419.68777079743,980.31222920257,419.68777079743,980.31222920257,780.31222920257,980.31222920257,419.68777079743,619.68777079743,419.68777079743,619.68777079743,780.31222920257,0,0,4,0,vertical,vertical,horizontal,vertical
2b,4,100268,13,2,386,19,F,NA,constant,homogeneous,4,present,1.02904105186462,1,horizontal,horizontal,1,8,red,1,4,980.31222920257,780.31222920257,619.68777079743,780.31222920257,980.31222920257,780.31222920257,980.31222920257,419.68777079743,619.68777079743,419.68777079743,619.68777079743,780.31222920257,4,0,0,0,horizontal,vertical,vertical,vertical
2b,4,100268,13,3,387,19,F,NA,constant,homogeneous,4,present,0.761806011199951,1,vertical,vertical,1,5,red,2,3,980.31222920257,419.68777079743,619.68777079743,419.68777079743,980.31222920257,780.31222920257,980.31222920257,419.68777079743,619.68777079743,419.68777079743,619.68777079743,780.31222920257,0,4,0,0,vertical,vertical,horizontal,vertical
2b,4,100268,13,4,388,19,F,NA,constant,homogeneous,4,present,0.84509801864624,1,vertical,vertical,1,2,red,1,2,980.31222920257,780.31222920257,980.31222920257,419.68777079743,980.31222920257,780.31222920257,980.31222920257,419.68777079743,619.68777079743,419.68777079743,619.68777079743,780.31222920257,4,0,0,0,vertical,horizontal,vertical,horizontal
2b,4,100268,13,5,389,19,F,NA,constant,homogeneous,4,present,0.630068063735962,1,vertical,vertical,1,2,red,3,1,619.68777079743,419.68777079743,980.31222920257,780.31222920257,980.31222920257,780.31222920257,980.31222920257,419.68777079743,619.68777079743,419.68777079743,619.68777079743,780.31222920257,0,0,4,0,vertical,vertical,vertical,vertical
2b,4,100268,13,6,390,19,F,NA,constant,homogeneous,4,present,0.738933086395264,1,horizontal,horizontal,1,2,red,1,4,980.31222920257,780.31222920257,619.68777079743,780.31222920257,980.31222920257,780.31222920257,980.31222920257,419.68777079743,619.68777079743,419.68777079743,619.68777079743,780.31222920257,4,0,0,0,horizontal,vertical,vertical,vertical
2b,4,100268,13,7,391,19,F,NA,constant,homogeneous,4,absent,1.29386711120605,1,horizontal,horizontal,1,5,red,2,NaN,980.31222920257,419.68777079743,NaN,NaN,980.31222920257,780.31222920257,980.31222920257,419.68777079743,619.68777079743,419.68777079743,619.68777079743,780.31222920257,0,4,0,0,horizontal,horizontal,horizontal,vertical
2b,4,100268,13,8,392,19,F,NA,constant,homogeneous,4,present,0.772064924240112,1,vertical,vertical,1,8,red,2,4,980.31222920257,419.68777079743,619.68777079743,780.31222920257,980.31222920257,780.31222920257,980.31222920257,419.68777079743,619.68777079743,419.68777079743,619.68777079743,780.31222920257,0,4,0,0,horizontal,vertical,vertical,vertical
2b,4,100268,13,9,393,19,F,NA,constant,homogeneous,4,absent,1.02789807319641,1,vertical,vertical,1,3,red,1,NaN,980.31222920257,780.31222920257,NaN,NaN,980.31222920257,780.31222920257,980.31222920257,419.68777079743,619.68777079743,419.68777079743,619.68777079743,780.31222920257,4,0,0,0,vertical,vertical,vertical,vertical
2b,4,100268,13,10,394,19,F,NA,constant,homogeneous,4,absent,0.75261402130127,1,horizontal,horizontal,1,2,red,1,NaN,980.31222920257,780.31222920257,NaN,NaN,980.31222920257,780.31222920257,980.31222920257,419.68777079743,619.68777079743,419.68777079743,619.68777079743,780.31222920257,4,0,0,0,horizontal,vertical,vertical,vertical
2b,4,100268,13,11,395,19,F,NA,constant,homogeneous,4,absent,1.37177395820618,1,vertical,vertical,1,5,red,1,NaN,980.31222920257,780.31222920257,NaN,NaN,980.31222920257,780.31222920257,980.31222920257,419.68777079743,619.68777079743,419.68777079743,619.68777079743,780.31222920257,4,0,0,0,vertical,vertical,horizontal,vertical
2b,4,100268,13,12,396,19,F,NA,constant,homogeneous,4,absent,1.3156681060791,1,vertical,vertical,1,2,red,3,NaN,619.68777079743,419.68777079743,NaN,NaN,980.31222920257,780.31222920257,980.31222920257,419.68777079743,619.68777079743,419.68777079743,619.68777079743,780.31222920257,0,0,4,0,horizontal,horizontal,vertical,horizontal
2b,4,100268,13,13,397,19,F,NA,constant,homogeneous,4,absent,0.821956872940063,1,horizontal,horizontal,1,5,red,3,NaN,619.68777079743,419.68777079743,NaN,NaN,980.31222920257,780.31222920257,980.31222920257,419.68777079743,619.68777079743,419.68777079743,619.68777079743,780.31222920257,0,0,4,0,horizontal,vertical,horizontal,horizontal
2b,4,100268,13,14,398,19,F,NA,constant,homogeneous,4,present,0.870477199554443,0,vertical,horizontal,1,3,red,3,2,619.68777079743,419.68777079743,980.31222920257,419.68777079743,980.31222920257,780.31222920257,980.31222920257,419.68777079743,619.68777079743,419.68777079743,619.68777079743,780.31222920257,0,0,4,0,horizontal,horizontal,vertical,vertical
2b,4,100268,13,15,399,19,F,NA,constant,homogeneous,4,absent,1.90017294883728,1,vertical,vertical,1,3,red,3,NaN,619.68777079743,419.68777079743,NaN,NaN,980.31222920257,780.31222920257,980.31222920257,419.68777079743,619.68777079743,419.68777079743,619.68777079743,780.31222920257,0,0,4,0,vertical,vertical,vertical,horizontal
2b,4,100268,13,16,400,19,F,NA,constant,homogeneous,4,present,0.906419992446899,1,horizontal,horizontal,1,5,red,1,2,980.31222920257,780.31222920257,980.31222920257,419.68777079743,980.31222920257,780.31222920257,980.31222920257,419.68777079743,619.68777079743,419.68777079743,619.68777079743,780.31222920257,4,0,0,0,horizontal,vertical,horizontal,vertical
2b,4,100268,13,17,401,19,F,NA,constant,homogeneous,4,absent,0.676784038543701,1,horizontal,horizontal,1,2,red,4,NaN,619.68777079743,780.31222920257,NaN,NaN,980.31222920257,780.31222920257,980.31222920257,419.68777079743,619.68777079743,419.68777079743,619.68777079743,780.31222920257,0,0,0,4,vertical,vertical,horizontal,horizontal
2b,4,100268,13,18,402,19,F,NA,constant,homogeneous,4,absent,0.602560043334961,1,horizontal,horizontal,1,2,red,4,NaN,619.68777079743,780.31222920257,NaN,NaN,980.31222920257,780.31222920257,980.31222920257,419.68777079743,619.68777079743,419.68777079743,619.68777079743,780.31222920257,0,0,0,4,vertical,vertical,vertical,horizontal
2b,4,100268,13,19,403,19,F,NA,constant,homogeneous,4,absent,0.81482982635498,1,vertical,vertical,1,2,red,3,NaN,619.68777079743,419.68777079743,NaN,NaN,980.31222920257,780.31222920257,980.31222920257,419.68777079743,619.68777079743,419.68777079743,619.68777079743,780.31222920257,0,0,4,0,horizontal,horizontal,vertical,vertical
2b,4,100268,13,20,404,19,F,NA,constant,homogeneous,4,present,0.703306198120117,1,vertical,vertical,1,2,red,3,2,619.68777079743,419.68777079743,980.31222920257,419.68777079743,980.31222920257,780.31222920257,980.31222920257,419.68777079743,619.68777079743,419.68777079743,619.68777079743,780.31222920257,0,0,4,0,horizontal,vertical,vertical,vertical
2b,4,100268,13,21,405,19,F,NA,constant,homogeneous,4,present,0.62951397895813,0,vertical,horizontal,1,5,red,1,2,980.31222920257,780.31222920257,980.31222920257,419.68777079743,980.31222920257,780.31222920257,980.31222920257,419.68777079743,619.68777079743,419.68777079743,619.68777079743,780.31222920257,4,0,0,0,vertical,vertical,horizontal,vertical
2b,4,100268,13,22,406,19,F,NA,constant,homogeneous,4,present,1.41835188865662,1,horizontal,horizontal,1,3,red,4,3,619.68777079743,780.31222920257,619.68777079743,419.68777079743,980.31222920257,780.31222920257,980.31222920257,419.68777079743,619.68777079743,419.68777079743,619.68777079743,780.31222920257,0,0,0,4,horizontal,horizontal,vertical,horizontal
2b,4,100268,13,23,407,19,F,NA,constant,homogeneous,4,absent,NaN,0,vertical,none,0,2,red,1,NaN,980.31222920257,780.31222920257,NaN,NaN,980.31222920257,780.31222920257,980.31222920257,419.68777079743,619.68777079743,419.68777079743,619.68777079743,780.31222920257,4,0,0,0,vertical,vertical,horizontal,horizontal
2b,4,100268,13,24,408,19,F,NA,constant,homogeneous,4,absent,1.63925790786743,1,vertical,vertical,1,5,red,2,NaN,980.31222920257,419.68777079743,NaN,NaN,980.31222920257,780.31222920257,980.31222920257,419.68777079743,619.68777079743,419.68777079743,619.68777079743,780.31222920257,0,4,0,0,horizontal,vertical,horizontal,horizontal
2b,4,100268,13,25,409,19,F,NA,constant,homogeneous,4,present,NaN,0,horizontal,none,0,2,red,4,2,619.68777079743,780.31222920257,980.31222920257,419.68777079743,980.31222920257,780.31222920257,980.31222920257,419.68777079743,619.68777079743,419.68777079743,619.68777079743,780.31222920257,0,0,0,4,vertical,vertical,horizontal,horizontal
2b,4,100268,13,26,410,19,F,NA,constant,homogeneous,4,present,0.964691877365112,1,horizontal,horizontal,1,3,red,3,4,619.68777079743,419.68777079743,619.68777079743,780.31222920257,980.31222920257,780.31222920257,980.31222920257,419.68777079743,619.68777079743,419.68777079743,619.68777079743,780.31222920257,0,0,4,0,vertical,vertical,horizontal,vertical
2b,4,100268,13,27,411,19,F,NA,constant,homogeneous,4,absent,1.16419005393982,1,horizontal,horizontal,1,3,red,2,NaN,980.31222920257,419.68777079743,NaN,NaN,980.31222920257,780.31222920257,980.31222920257,419.68777079743,619.68777079743,419.68777079743,619.68777079743,780.31222920257,0,4,0,0,vertical,horizontal,vertical,vertical
2b,4,100268,13,28,412,19,F,NA,constant,homogeneous,4,present,1.25181102752686,1,horizontal,horizontal,1,5,red,2,4,980.31222920257,419.68777079743,619.68777079743,780.31222920257,980.31222920257,780.31222920257,980.31222920257,419.68777079743,619.68777079743,419.68777079743,619.68777079743,780.31222920257,0,4,0,0,horizontal,horizontal,horizontal,vertical
2b,4,100268,13,29,413,19,F,NA,constant,homogeneous,4,absent,0.705509185791016,1,vertical,vertical,1,8,red,2,NaN,980.31222920257,419.68777079743,NaN,NaN,980.31222920257,780.31222920257,980.31222920257,419.68777079743,619.68777079743,419.68777079743,619.68777079743,780.31222920257,0,4,0,0,horizontal,vertical,vertical,vertical
2b,4,100268,13,30,414,19,F,NA,constant,homogeneous,4,present,1.115553855896,1,vertical,vertical,1,3,red,3,4,619.68777079743,419.68777079743,619.68777079743,780.31222920257,980.31222920257,780.31222920257,980.31222920257,419.68777079743,619.68777079743,419.68777079743,619.68777079743,780.31222920257,0,0,4,0,vertical,vertical,vertical,horizontal
2b,4,100268,13,31,415,19,F,NA,constant,homogeneous,4,absent,0.853914022445679,1,horizontal,horizontal,1,3,red,1,NaN,980.31222920257,780.31222920257,NaN,NaN,980.31222920257,780.31222920257,980.31222920257,419.68777079743,619.68777079743,419.68777079743,619.68777079743,780.31222920257,4,0,0,0,horizontal,vertical,horizontal,vertical
2b,4,100268,13,32,416,19,F,NA,constant,homogeneous,4,absent,1.17127704620361,1,horizontal,horizontal,1,8,red,1,NaN,980.31222920257,780.31222920257,NaN,NaN,980.31222920257,780.31222920257,980.31222920257,419.68777079743,619.68777079743,419.68777079743,619.68777079743,780.31222920257,4,0,0,0,horizontal,vertical,vertical,horizontal
