experiment,subject,uniqueID,block,trial,trial_cumulative,age,gender,color_cond_blocking,color_history,shape_type,set_size,distractor,rt,acc,target_orient,response_key,response_made,iti,target_color,target_item,distractor_item,target_X,target_Y,distractor_X,distractor_Y,item1_X,item1_Y,item2_X,item2_Y,item3_X,item3_Y,item4_X,item4_Y,item1_shape,item2_shape,item3_shape,item4_shape,item1_line,item2_line,item3_line,item4_line
2b,7,100272,1,1,1,20,F,NA,constant,heterogeneous,4,present,NaN,0,vertical,none,0,3,green,2,1,NaN,NaN,NaN,NaN,NaN,NaN,NaN,NaN,NaN,NaN,NaN,NaN,0,4,3,5,vertical,vertical,vertical,vertical
2b,7,100272,1,2,2,20,F,NA,constant,heterogeneous,4,present,0.923577070236206,1,horizontal,horizontal,1,3,green,1,2,NaN,NaN,NaN,NaN,NaN,NaN,NaN,NaN,NaN,NaN,NaN,NaN,4,5,0,3,horizontal,vertical,horizontal,vertical
2b,7,100272,1,3,3,20,F,NA,constant,heterogeneous,4,present,1.72262907028198,1,horizontal,horizontal,1,2,green,4,3,NaN,NaN,NaN,NaN,NaN,NaN,NaN,NaN,NaN,NaN,NaN,NaN,6,5,3,4,vertical,horizontal,horizontal,horizontal
2b,7,100272,1,4,4,20,F,NA,constant,heterogeneous,4,present,1.53719902038574,1,vertical,vertical,1,5,green,4,3,NaN,NaN,NaN,NaN,NaN,NaN,NaN,NaN,NaN,NaN,NaN,NaN,3,5,6,4,horizontal,horizontal,horizontal,vertical
2b,7,100272,1,5,5,20,F,NA,constant,heterogeneous,4,present,NaN,0,horizontal,none,0,2,green,3,2,NaN,NaN,NaN,NaN,NaN,NaN,NaN,NaN,NaN,NaN,NaN,NaN,5,6,4,3,vertical,vertical,horizontal,horizontal
2b,7,100272,1,6,6,20,F,NA,constant,heterogeneous,4,absent,0.727752208709717,1,horizontal,horizontal,1,3,green,3,NaN,NaN,NaN,NaN,NaN,NaN,NaN,NaN,NaN,NaN,NaN,NaN,NaN,6,5,4,3,horizontal,vertical,horizontal,horizontal
2b,7,100272,1,7,7,20,F,NA,constant,heterogeneous,4,absent,0.92289400100708,1,vertical,vertical,1,5,green,2,NaN,NaN,NaN,NaN,NaN,NaN,NaN,NaN,NaN,NaN,NaN,NaN,NaN,0,4,3,6,vertical,vertical,vertical,vertical
2b,7,100272,1,8,8,20,F,NA,constant,heterogeneous,4,present,0.745399951934814,1,horizontal,horizontal,1,8,green,4,2,NaN,NaN,NaN,NaN,NaN,NaN,NaN,NaN,NaN,NaN,NaN,NaN,5,6,0,4,horizontal,horizontal,horizontal,horizontal
2b,7,100272,1,9,9,20,F,NA,constant,heterogeneous,4,absent,0.808924913406372,1,vertical,vertical,1,2,green,1,NaN,NaN,NaN,NaN,NaN,NaN,NaN,NaN,NaN,NaN,NaN,NaN,NaN,4,6,5,3,vertical,horizontal,horizontal,horizontal
2b,7,100272,1,10,10,20,F,NA,constant,heterogeneous,4,present,0.701148986816406,1,horizontal,horizontal,1,2,green,4,1,NaN,NaN,NaN,NaN,NaN,NaN,NaN,NaN,NaN,NaN,NaN,NaN,0,6,5,4,vertical,horizontal,horizontal,horizontal
2b,7,100272,1,11,11,20,F,NA,constant,heterogeneous,4,absent,1.03504395484924,1,vertical,vertical,1,2,green,2,NaN,NaN,NaN,NaN,NaN,NaN,NaN,NaN,NaN,NaN,NaN,NaN,NaN,0,4,6,5,vertical,vertical,vertical,horizontal
2b,7,100272,1,12,12,20,F,NA,constant,heterogeneous,4,present,1.08416485786438,1,horizontal,horizontal,1,5,green,1,4,NaN,NaN,NaN,NaN,NaN,NaN,NaN,NaN,NaN,NaN,NaN,NaN,4,6,5,0,horizontal,horizontal,vertical,vertical
2b,7,100272,1,13,13,20,F,NA,constant,heterogeneous,4,present,0.78229284286499,1,vertical,vertical,1,3,green,4,1,NaN,NaN,NaN,NaN,NaN,NaN,NaN,NaN,NaN,NaN,NaN,NaN,0,6,5,4,vertical,horizontal,horizontal,vertical
2b,7,100272,1,14,14,20,F,NA,constant,heterogeneous,4,absent,0.962079048156738,1,vertical,vertical,1,5,green,1,NaN,NaN,NaN,NaN,NaN,NaN,NaN,NaN,NaN,NaN,NaN,NaN,NaN,4,6,5,0,vertical,horizontal,vertical,horizontal
2b,7,100272,1,15,15,20,F,NA,constant,heterogeneous,4,absent,1.26930904388428,0,horizontal,vertical,1,5,green,1,NaN,NaN,NaN,NaN,NaN,NaN,NaN,NaN,NaN,NaN,NaN,NaN,NaN,4,6,0,3,horizontal,horizontal,horizontal,horizontal
2b,7,100272,1,16,16,20,F,NA,constant,heterogeneous,4,absent,1.10732102394104,1,horizontal,horizontal,1,8,green,3,NaN,NaN,NaN,NaN,NaN,NaN,NaN,NaN,NaN,NaN,NaN,NaN,NaN,0,3,4,5,vertical,horizontal,horizontal,vertical
2b,7,100272,1,17,17,20,F,NA,constant,heterogeneous,4,present,1.25381088256836,1,vertical,vertical,1,2,green,1,2,NaN,NaN,NaN,NaN,NaN,NaN,NaN,NaN,NaN,NaN,NaN,NaN,4,6,0,3,vertical,vertical,horizontal,vertical
2b,7,100272,1,18,18,20,F,NA,constant,heterogeneous,4,absent,1.01079607009888,1,vertical,vertical,1,3,green,1,NaN,NaN,NaN,NaN,NaN,NaN,NaN,NaN,NaN,NaN,NaN,NaN,NaN,4,0,5,6,vertical,vertical,horizontal,vertical
2b,7,100272,1,19,19,20,F,NA,constant,heterogeneous,4,absent,1.55533790588379,1,vertical,vertical,1,8,green,2,NaN,NaN,NaN,NaN,NaN,NaN,NaN,NaN,NaN,NaN,NaN,NaN,NaN,5,4,0,3,horizontal,vertical,vertical,horizontal
2b,7,100272,1,20,20,20,F,NA,constant,heterogeneous,4,present,1.19893193244934,1,vertical,vertical,1,5,green,2,4,NaN,NaN,NaN,NaN,NaN,NaN,NaN,NaN,NaN,NaN,NaN,NaN,3,4,6,0,vertical,vertical,horizontal,vertical
2b,7,100272,1,21,21,20,F,NA,constant,heterogeneous,4,present,1.53937292098999,1,vertical,vertical,1,8,green,3,4,NaN,NaN,NaN,NaN,NaN,NaN,NaN,NaN,NaN,NaN,NaN,NaN,3,0,4,6,vertical,vertical,vertical,vertical
2b,7,100272,1,22,22,20,F,NA,constant,heterogeneous,4,present,NaN,0,horizontal,none,0,3,green,3,1,NaN,NaN,NaN,NaN,NaN,NaN,NaN,NaN,NaN,NaN,NaN,NaN,3,6,4,5,vertical,horizontal,horizontal,horizontal
2b,7,100272,1,23,23,20,F,NA,constant,heterogeneous,4,absent,1.58676695823669,1,horizontal,horizontal,1,3,green,2,NaN,NaN,NaN,NaN,NaN,NaN,NaN,NaN,NaN,NaN,NaN,NaN,NaN,5,4,3,0,vertical,horizontal,vertical,horizontal
2b,7,100272,1,24,24,20,F,NA,constant,heterogeneous,4,present,1.22645401954651,1,horizontal,horizontal,1,5,green,3,2,NaN,NaN,NaN,NaN,NaN,NaN,NaN,NaN,NaN,NaN,NaN,NaN,6,5,4,0,horizontal,horizontal,horizontal,vertical
2b,7,100272,1,25,25,20,F,NA,constant,heterogeneous,4,present,0.935516119003296,1,vertical,vertical,1,2,green,2,1,NaN,NaN,NaN,NaN,NaN,NaN,NaN,NaN,NaN,NaN,NaN,NaN,6,4,0,5,vertical,vertical,horizontal,horizontal
2b,7,100272,1,26,26,20,F,NA,constant,heterogeneous,4,absent,1.14649701118469,1,horizontal,horizontal,1,2,green,4,NaN,NaN,NaN,NaN,NaN,NaN,NaN,NaN,NaN,NaN,NaN,NaN,NaN,6,3,5,4,vertical,vertical,vertical,horizontal
2b,7,100272,1,27,27,20,F,NA,constant,heterogeneous,4,absent,1.49730706214905,1,horizontal,horizontal,1,2,green,4,NaN,NaN,NaN,NaN,NaN,NaN,NaN,NaN,NaN,NaN,NaN,NaN,NaN,3,6,5,4,horizontal,vertical,vertical,horizontal
2b,7,100272,1,28,28,20,F,NA,constant,heterogeneous,4,absent,0.759581804275513,1,vertical,vertical,1,2,green,2,NaN,NaN,NaN,NaN,NaN,NaN,NaN,NaN,NaN,NaN,NaN,NaN,NaN,0,4,3,5,vertical,vertical,horizontal,horizontal
2b,7,100272,1,29,29,20,F,NA,constant,heterogeneous,4,absent,1.29106903076172,1,horizontal,horizontal,1,2,green,1,NaN,NaN,NaN,NaN,NaN,NaN,NaN,NaN,NaN,NaN,NaN,NaN,NaN,4,0,3,5,horizontal,horizontal,horizontal,vertical
2b,7,100272,1,30,30,20,F,NA,constant,heterogeneous,4,absent,0.884810924530029,1,vertical,vertical,1,3,green,1,NaN,NaN,NaN,NaN,NaN,NaN,NaN,NaN,NaN,NaN,NaN,NaN,NaN,4,3,6,5,vertical,vertical,horizontal,vertical
2b,7,100272,1,31,31,20,F,NA,constant,heterogeneous,4,present,0.758925914764404,0,vertical,horizontal,1,2,green,2,4,NaN,NaN,NaN,NaN,NaN,NaN,NaN,NaN,NaN,NaN,NaN,NaN,5,4,0,3,vertical,vertical,horizontal,vertical
2b,7,100272,1,32,32,20,F,NA,constant,heterogeneous,4,absent,0.865967988967896,1,horizontal,horizontal,1,5,green,2,NaN,NaN,NaN,NaN,NaN,NaN,NaN,NaN,NaN,NaN,NaN,NaN,NaN,3,4,0,5,vertical,horizontal,vertical,horizontal
2b,7,100272,2,1,33,20,F,NA,constant,heterogeneous,4,absent,1.30474710464478,1,horizontal,horizontal,1,3,green,3,NaN,NaN,NaN,NaN,NaN,NaN,NaN,NaN,NaN,NaN,NaN,NaN,NaN,5,6,4,0,horizontal,vertical,horizontal,vertical
2b,7,100272,2,2,34,20,F,NA,constant,heterogeneous,4,present,1.02708506584167,1,horizontal,horizontal,1,2,green,1,2,NaN,NaN,NaN,NaN,NaN,NaN,NaN,NaN,NaN,NaN,NaN,NaN,4,5,6,0,horizontal,vertical,horizontal,horizontal
2b,7,100272,2,3,35,20,F,NA,constant,heterogeneous,4,present,1.77598690986633,1,horizontal,horizontal,1,5,green,1,3,NaN,NaN,NaN,NaN,NaN,NaN,NaN,NaN,NaN,NaN,NaN,NaN,4,3,0,6,horizontal,horizontal,horizontal,vertical
2b,7,100272,2,4,36,20,F,NA,constant,heterogeneous,4,present,1.33982515335083,1,vertical,vertical,1,5,green,3,4,NaN,NaN,NaN,NaN,NaN,NaN,NaN,NaN,NaN,NaN,NaN,NaN,5,6,4,3,horizontal,vertical,vertical,horizontal
2b,7,100272,2,5,37,20,F,NA,constant,heterogeneous,4,absent,1.13092803955078,1,horizontal,horizontal,1,3,green,3,NaN,NaN,NaN,NaN,NaN,NaN,NaN,NaN,NaN,NaN,NaN,NaN,NaN,5,3,4,0,horizontal,horizontal,horizontal,vertical
2b,7,100272,2,6,38,20,F,NA,constant,heterogeneous,4,present,1.12581300735474,1,vertical,vertical,1,2,green,1,2,NaN,NaN,NaN,NaN,NaN,NaN,NaN,NaN,NaN,NaN,NaN,NaN,4,0,3,5,vertical,vertical,horizontal,vertical
2b,7,100272,2,7,39,20,F,NA,constant,heterogeneous,4,present,1.42045211791992,1,horizontal,horizontal,1,2,green,4,3,NaN,NaN,NaN,NaN,NaN,NaN,NaN,NaN,NaN,NaN,NaN,NaN,3,5,0,4,horizontal,vertical,horizontal,horizontal
2b,7,100272,2,8,40,20,F,NA,constant,heterogeneous,4,absent,1.40497708320618,0,horizontal,vertical,1,2,green,1,NaN,NaN,NaN,NaN,NaN,NaN,NaN,NaN,NaN,NaN,NaN,NaN,NaN,4,3,5,6,horizontal,vertical,vertical,vertical
2b,7,100272,2,9,41,20,F,NA,constant,heterogeneous,4,present,1.66521096229553,1,horizontal,horizontal,1,5,green,2,1,NaN,NaN,NaN,NaN,NaN,NaN,NaN,NaN,NaN,NaN,NaN,NaN,0,4,3,5,horizontal,horizontal,horizontal,horizontal
2b,7,100272,2,10,42,20,F,NA,constant,heterogeneous,4,absent,0.979021787643433,1,vertical,vertical,1,5,green,2,NaN,NaN,NaN,NaN,NaN,NaN,NaN,NaN,NaN,NaN,NaN,NaN,NaN,5,4,0,6,horizontal,vertical,vertical,horizontal
2b,7,100272,2,11,43,20,F,NA,constant,heterogeneous,4,absent,1.62257814407349,1,vertical,vertical,1,8,green,4,NaN,NaN,NaN,NaN,NaN,NaN,NaN,NaN,NaN,NaN,NaN,NaN,NaN,3,5,0,4,vertical,horizontal,vertical,vertical
2b,7,100272,2,12,44,20,F,NA,constant,heterogeneous,4,present,1.45939898490906,1,vertical,vertical,1,2,green,2,4,NaN,NaN,NaN,NaN,NaN,NaN,NaN,NaN,NaN,NaN,NaN,NaN,6,4,5,3,horizontal,vertical,horizontal,vertical
2b,7,100272,2,13,45,20,F,NA,constant,heterogeneous,4,absent,0.949126005172729,1,horizontal,horizontal,1,2,green,2,NaN,NaN,NaN,NaN,NaN,NaN,NaN,NaN,NaN,NaN,NaN,NaN,NaN,5,4,6,3,vertical,horizontal,vertical,vertical
2b,7,100272,2,14,46,20,F,NA,constant,heterogeneous,4,absent,1.58813619613647,1,horizontal,horizontal,1,5,green,4,NaN,NaN,NaN,NaN,NaN,NaN,NaN,NaN,NaN,NaN,NaN,NaN,NaN,0,6,5,4,vertical,vertical,vertical,horizontal
2b,7,100272,2,15,47,20,F,NA,constant,heterogeneous,4,present,1.39636898040771,1,horizontal,horizontal,1,8,green,2,4,NaN,NaN,NaN,NaN,NaN,NaN,NaN,NaN,NaN,NaN,NaN,NaN,6,4,3,5,horizontal,horizontal,horizontal,horizontal
2b,7,100272,2,16,48,20,F,NA,constant,heterogeneous,4,absent,1.08448696136475,1,vertical,vertical,1,2,green,4,NaN,NaN,NaN,NaN,NaN,NaN,NaN,NaN,NaN,NaN,NaN,NaN,NaN,6,0,3,4,horizontal,horizontal,vertical,vertical
2b,7,100272,2,17,49,20,F,NA,constant,heterogeneous,4,present,0.97452187538147,1,vertical,vertical,1,3,green,1,3,NaN,NaN,NaN,NaN,NaN,NaN,NaN,NaN,NaN,NaN,NaN,NaN,4,0,6,5,vertical,vertical,vertical,horizontal
2b,7,100272,2,18,50,20,F,NA,constant,heterogeneous,4,absent,1.07808685302734,1,vertical,vertical,1,3,green,2,NaN,NaN,NaN,NaN,NaN,NaN,NaN,NaN,NaN,NaN,NaN,NaN,NaN,5,4,0,3,horizontal,vertical,vertical,vertical
2b,7,100272,2,19,51,20,F,NA,constant,heterogeneous,4,present,0.85162878036499,1,horizontal,horizontal,1,3,green,2,1,NaN,NaN,NaN,NaN,NaN,NaN,NaN,NaN,NaN,NaN,NaN,NaN,5,4,6,3,horizontal,horizontal,vertical,vertical
2b,7,100272,2,20,52,20,F,NA,constant,heterogeneous,4,absent,NaN,0,horizontal,none,0,2,green,3,NaN,NaN,NaN,NaN,NaN,NaN,NaN,NaN,NaN,NaN,NaN,NaN,NaN,6,3,4,0,vertical,horizontal,horizontal,horizontal
2b,7,100272,2,21,53,20,F,NA,constant,heterogeneous,4,present,0.949131011962891,1,vertical,vertical,1,5,green,1,2,NaN,NaN,NaN,NaN,NaN,NaN,NaN,NaN,NaN,NaN,NaN,NaN,4,5,0,3,vertical,vertical,vertical,horizontal
2b,7,100272,2,22,54,20,F,NA,constant,heterogeneous,4,absent,1.06827998161316,1,horizontal,horizontal,1,8,green,4,NaN,NaN,NaN,NaN,NaN,NaN,NaN,NaN,NaN,NaN,NaN,NaN,NaN,6,3,5,4,vertical,vertical,vertical,horizontal
2b,7,100272,2,23,55,20,F,NA,constant,heterogeneous,4,present,0.901953935623169,1,vertical,vertical,1,3,green,1,3,NaN,NaN,NaN,NaN,NaN,NaN,NaN,NaN,NaN,NaN,NaN,NaN,4,6,3,5,vertical,vertical,horizontal,horizontal
2b,7,100272,2,24,56,20,F,NA,constant,heterogeneous,4,present,1.10008096694946,0,vertical,horizontal,1,8,green,3,2,NaN,NaN,NaN,NaN,NaN,NaN,NaN,NaN,NaN,NaN,NaN,NaN,5,0,4,6,vertical,vertical,vertical,vertical
2b,7,100272,2,25,57,20,F,NA,constant,heterogeneous,4,absent,1.38623118400574,1,vertical,vertical,1,2,green,4,NaN,NaN,NaN,NaN,NaN,NaN,NaN,NaN,NaN,NaN,NaN,NaN,NaN,5,3,6,4,horizontal,vertical,horizontal,vertical
2b,7,100272,2,26,58,20,F,NA,constant,heterogeneous,4,absent,1.2380039691925,0,horizontal,vertical,1,5,green,2,NaN,NaN,NaN,NaN,NaN,NaN,NaN,NaN,NaN,NaN,NaN,NaN,NaN,5,4,6,0,vertical,horizontal,horizontal,horizontal
2b,7,100272,2,27,59,20,F,NA,constant,heterogeneous,4,present,1.3591480255127,1,horizontal,horizontal,1,3,green,1,2,NaN,NaN,NaN,NaN,NaN,NaN,NaN,NaN,NaN,NaN,NaN,NaN,4,0,3,5,horizontal,vertical,vertical,vertical
2b,7,100272,2,28,60,20,F,NA,constant,heterogeneous,4,absent,1.17036199569702,0,vertical,horizontal,1,3,green,3,NaN,NaN,NaN,NaN,NaN,NaN,NaN,NaN,NaN,NaN,NaN,NaN,NaN,3,5,4,0,vertical,vertical,vertical,horizontal
2b,7,100272,2,29,61,20,F,NA,constant,heterogeneous,4,present,1.13030290603638,1,vertical,vertical,1,2,green,1,4,NaN,NaN,NaN,NaN,NaN,NaN,NaN,NaN,NaN,NaN,NaN,NaN,4,0,6,3,vertical,horizontal,vertical,vertical
2b,7,100272,2,30,62,20,F,NA,constant,heterogeneous,4,absent,0.9169921875,1,vertical,vertical,1,2,green,1,NaN,NaN,NaN,NaN,NaN,NaN,NaN,NaN,NaN,NaN,NaN,NaN,NaN,4,6,3,0,vertical,vertical,horizontal,horizontal
2b,7,100272,2,31,63,20,F,NA,constant,heterogeneous,4,absent,1.22770595550537,1,vertical,vertical,1,5,green,3,NaN,NaN,NaN,NaN,NaN,NaN,NaN,NaN,NaN,NaN,NaN,NaN,NaN,3,0,4,6,vertical,horizontal,vertical,horizontal
2b,7,100272,2,32,64,20,F,NA,constant,heterogeneous,4,present,1.19246912002563,1,horizontal,horizontal,1,2,green,2,1,NaN,NaN,NaN,NaN,NaN,NaN,NaN,NaN,NaN,NaN,NaN,NaN,6,4,5,3,vertical,horizontal,vertical,vertical
2b,7,100272,3,1,65,20,F,NA,constant,heterogeneous,4,present,1.31769299507141,1,horizontal,horizontal,1,2,green,2,3,NaN,NaN,NaN,NaN,NaN,NaN,NaN,NaN,NaN,NaN,NaN,NaN,5,4,6,0,vertical,horizontal,horizontal,horizontal
2b,7,100272,3,2,66,20,F,NA,constant,heterogeneous,4,absent,1.34016084671021,1,horizontal,horizontal,1,3,green,3,NaN,NaN,NaN,NaN,NaN,NaN,NaN,NaN,NaN,NaN,NaN,NaN,NaN,6,3,4,0,vertical,horizontal,horizontal,vertical
2b,7,100272,3,3,67,20,F,NA,constant,heterogeneous,4,present,0.747469186782837,1,horizontal,horizontal,1,5,green,4,2,NaN,NaN,NaN,NaN,NaN,NaN,NaN,NaN,NaN,NaN,NaN,NaN,6,5,0,4,vertical,horizontal,horizontal,horizontal
2b,7,100272,3,4,68,20,F,NA,constant,heterogeneous,4,present,0.882402181625366,1,vertical,vertical,1,5,green,3,4,NaN,NaN,NaN,NaN,NaN,NaN,NaN,NaN,NaN,NaN,NaN,NaN,0,6,4,3,horizontal,horizontal,vertical,vertical
2b,7,100272,3,5,69,20,F,NA,constant,heterogeneous,4,absent,1.54855298995972,1,vertical,vertical,1,5,green,1,NaN,NaN,NaN,NaN,NaN,NaN,NaN,NaN,NaN,NaN,NaN,NaN,NaN,4,5,3,0,vertical,vertical,horizontal,horizontal
2b,7,100272,3,6,70,20,F,NA,constant,heterogeneous,4,present,1.42803692817688,1,horizontal,horizontal,1,3,green,4,3,NaN,NaN,NaN,NaN,NaN,NaN,NaN,NaN,NaN,NaN,NaN,NaN,6,3,0,4,horizontal,vertical,vertical,horizontal
2b,7,100272,3,7,71,20,F,NA,constant,heterogeneous,4,absent,1.28046298027039,1,vertical,vertical,1,3,green,3,NaN,NaN,NaN,NaN,NaN,NaN,NaN,NaN,NaN,NaN,NaN,NaN,NaN,5,0,4,3,vertical,vertical,vertical,vertical
2b,7,100272,3,8,72,20,F,NA,constant,heterogeneous,4,present,1.09434199333191,1,vertical,vertical,1,3,green,2,4,NaN,NaN,NaN,NaN,NaN,NaN,NaN,NaN,NaN,NaN,NaN,NaN,3,4,5,6,horizontal,vertical,horizontal,horizontal
2b,7,100272,3,9,73,20,F,NA,constant,heterogeneous,4,absent,1.76420903205872,1,horizontal,horizontal,1,8,green,4,NaN,NaN,NaN,NaN,NaN,NaN,NaN,NaN,NaN,NaN,NaN,NaN,NaN,5,3,0,4,vertical,horizontal,vertical,horizontal
2b,7,100272,3,10,74,20,F,NA,constant,heterogeneous,4,absent,1.19611811637878,1,vertical,vertical,1,3,green,4,NaN,NaN,NaN,NaN,NaN,NaN,NaN,NaN,NaN,NaN,NaN,NaN,NaN,5,0,6,4,vertical,horizontal,horizontal,vertical
2b,7,100272,3,11,75,20,F,NA,constant,heterogeneous,4,absent,1.43624401092529,1,vertical,vertical,1,2,green,3,NaN,NaN,NaN,NaN,NaN,NaN,NaN,NaN,NaN,NaN,NaN,NaN,NaN,6,0,4,3,vertical,horizontal,vertical,vertical
2b,7,100272,3,12,76,20,F,NA,constant,heterogeneous,4,present,0.941490888595581,1,horizontal,horizontal,1,3,green,4,3,NaN,NaN,NaN,NaN,NaN,NaN,NaN,NaN,NaN,NaN,NaN,NaN,0,6,3,4,vertical,horizontal,horizontal,horizontal
2b,7,100272,3,13,77,20,F,NA,constant,heterogeneous,4,absent,1.40430903434753,1,horizontal,horizontal,1,5,green,1,NaN,NaN,NaN,NaN,NaN,NaN,NaN,NaN,NaN,NaN,NaN,NaN,NaN,4,3,6,0,horizontal,vertical,horizontal,horizontal
2b,7,100272,3,14,78,20,F,NA,constant,heterogeneous,4,absent,1.44877290725708,1,vertical,vertical,1,2,green,1,NaN,NaN,NaN,NaN,NaN,NaN,NaN,NaN,NaN,NaN,NaN,NaN,NaN,4,0,3,6,vertical,vertical,vertical,horizontal
2b,7,100272,3,15,79,20,F,NA,constant,heterogeneous,4,present,1.3577561378479,1,vertical,vertical,1,5,green,2,3,NaN,NaN,NaN,NaN,NaN,NaN,NaN,NaN,NaN,NaN,NaN,NaN,5,4,6,3,horizontal,vertical,vertical,horizontal
2b,7,100272,3,16,80,20,F,NA,constant,heterogeneous,4,absent,NaN,0,vertical,none,0,5,green,4,NaN,NaN,NaN,NaN,NaN,NaN,NaN,NaN,NaN,NaN,NaN,NaN,NaN,5,3,0,4,vertical,horizontal,vertical,vertical
2b,7,100272,3,17,81,20,F,NA,constant,heterogeneous,4,present,0.885670900344849,1,horizontal,horizontal,1,2,green,2,3,NaN,NaN,NaN,NaN,NaN,NaN,NaN,NaN,NaN,NaN,NaN,NaN,6,4,0,3,horizontal,horizontal,horizontal,vertical
2b,7,100272,3,18,82,20,F,NA,constant,heterogeneous,4,present,1.12764883041382,1,horizontal,horizontal,1,2,green,3,1,NaN,NaN,NaN,NaN,NaN,NaN,NaN,NaN,NaN,NaN,NaN,NaN,6,3,4,0,vertical,vertical,horizontal,vertical
2b,7,100272,3,19,83,20,F,NA,constant,heterogeneous,4,absent,1.17396402359009,1,horizontal,horizontal,1,3,green,1,NaN,NaN,NaN,NaN,NaN,NaN,NaN,NaN,NaN,NaN,NaN,NaN,NaN,4,5,6,0,horizontal,horizontal,vertical,horizontal
2b,7,100272,3,20,84,20,F,NA,constant,heterogeneous,4,present,0.813668012619019,1,horizontal,horizontal,1,8,green,3,4,NaN,NaN,NaN,NaN,NaN,NaN,NaN,NaN,NaN,NaN,NaN,NaN,6,5,4,0,horizontal,horizontal,horizontal,vertical
2b,7,100272,3,21,85,20,F,NA,constant,heterogeneous,4,present,0.934156894683838,1,vertical,vertical,1,2,green,3,4,NaN,NaN,NaN,NaN,NaN,NaN,NaN,NaN,NaN,NaN,NaN,NaN,6,3,4,5,horizontal,vertical,vertical,vertical
2b,7,100272,3,22,86,20,F,NA,constant,heterogeneous,4,present,0.841423988342285,1,vertical,vertical,1,2,green,2,4,NaN,NaN,NaN,NaN,NaN,NaN,NaN,NaN,NaN,NaN,NaN,NaN,6,4,5,3,horizontal,vertical,horizontal,vertical
2b,7,100272,3,23,87,20,F,NA,constant,heterogeneous,4,present,1.01828479766846,1,vertical,vertical,1,2,green,1,4,NaN,NaN,NaN,NaN,NaN,NaN,NaN,NaN,NaN,NaN,NaN,NaN,4,0,5,3,vertical,horizontal,vertical,vertical
2b,7,100272,3,24,88,20,F,NA,constant,heterogeneous,4,present,0.946707963943481,1,horizontal,horizontal,1,5,green,4,3,NaN,NaN,NaN,NaN,NaN,NaN,NaN,NaN,NaN,NaN,NaN,NaN,6,0,5,4,horizontal,vertical,vertical,horizontal
2b,7,100272,3,25,89,20,F,NA,constant,heterogeneous,4,absent,1.11408305168152,1,horizontal,horizontal,1,2,green,1,NaN,NaN,NaN,NaN,NaN,NaN,NaN,NaN,NaN,NaN,NaN,NaN,NaN,4,6,5,0,horizontal,vertical,horizontal,vertical
2b,7,100272,3,26,90,20,F,NA,constant,heterogeneous,4,absent,0.900339126586914,1,horizontal,horizontal,1,5,green,3,NaN,NaN,NaN,NaN,NaN,NaN,NaN,NaN,NaN,NaN,NaN,NaN,NaN,5,6,4,0,horizontal,horizontal,horizontal,horizontal
2b,7,100272,3,27,91,20,F,NA,constant,heterogeneous,4,present,1.01074194908142,0,vertical,horizontal,1,3,green,1,4,NaN,NaN,NaN,NaN,NaN,NaN,NaN,NaN,NaN,NaN,NaN,NaN,4,5,0,6,vertical,vertical,horizontal,vertical
2b,7,100272,3,28,92,20,F,NA,constant,heterogeneous,4,absent,1.34692883491516,1,horizontal,horizontal,1,2,green,1,NaN,NaN,NaN,NaN,NaN,NaN,NaN,NaN,NaN,NaN,NaN,NaN,NaN,4,5,0,3,horizontal,vertical,vertical,vertical
2b,7,100272,3,29,93,20,F,NA,constant,heterogeneous,4,absent,1.67443895339966,1,vertical,vertical,1,8,green,4,NaN,NaN,NaN,NaN,NaN,NaN,NaN,NaN,NaN,NaN,NaN,NaN,NaN,5,6,3,4,horizontal,vertical,horizontal,vertical
2b,7,100272,3,30,94,20,F,NA,constant,heterogeneous,4,absent,1.33613085746765,1,horizontal,horizontal,1,2,green,1,NaN,NaN,NaN,NaN,NaN,NaN,NaN,NaN,NaN,NaN,NaN,NaN,NaN,4,3,5,6,horizontal,horizontal,horizontal,vertical
2b,7,100272,3,31,95,20,F,NA,constant,heterogeneous,4,absent,1.43497800827026,1,vertical,vertical,1,2,green,2,NaN,NaN,NaN,NaN,NaN,NaN,NaN,NaN,NaN,NaN,NaN,NaN,NaN,5,4,6,3,vertical,vertical,horizontal,horizontal
2b,7,100272,3,32,96,20,F,NA,constant,heterogeneous,4,present,1.10822200775146,1,vertical,vertical,1,8,green,1,2,NaN,NaN,NaN,NaN,NaN,NaN,NaN,NaN,NaN,NaN,NaN,NaN,4,0,6,5,vertical,horizontal,horizontal,horizontal
2b,7,100272,4,1,97,20,F,NA,constant,heterogeneous,4,present,0.980727910995483,1,vertical,vertical,1,3,green,2,4,NaN,NaN,NaN,NaN,NaN,NaN,NaN,NaN,NaN,NaN,NaN,NaN,6,4,5,3,horizontal,vertical,vertical,vertical
2b,7,100272,4,2,98,20,F,NA,constant,heterogeneous,4,absent,1.04039788246155,1,horizontal,horizontal,1,3,green,2,NaN,NaN,NaN,NaN,NaN,NaN,NaN,NaN,NaN,NaN,NaN,NaN,NaN,3,4,6,0,horizontal,horizontal,horizontal,horizontal
2b,7,100272,4,3,99,20,F,NA,constant,heterogeneous,4,present,0.713359117507935,1,horizontal,horizontal,1,2,green,2,4,NaN,NaN,NaN,NaN,NaN,NaN,NaN,NaN,NaN,NaN,NaN,NaN,5,4,6,3,vertical,horizontal,horizontal,horizontal
2b,7,100272,4,4,100,20,F,NA,constant,heterogeneous,4,present,0.747972011566162,1,vertical,vertical,1,2,green,4,2,NaN,NaN,NaN,NaN,NaN,NaN,NaN,NaN,NaN,NaN,NaN,NaN,0,6,5,4,vertical,vertical,horizontal,vertical
2b,7,100272,4,5,101,20,F,NA,constant,heterogeneous,4,absent,1.29108285903931,1,horizontal,horizontal,1,2,green,1,NaN,NaN,NaN,NaN,NaN,NaN,NaN,NaN,NaN,NaN,NaN,NaN,NaN,4,5,6,3,horizontal,vertical,vertical,horizontal
2b,7,100272,4,6,102,20,F,NA,constant,heterogeneous,4,present,0.829113006591797,0,horizontal,vertical,1,2,green,4,3,NaN,NaN,NaN,NaN,NaN,NaN,NaN,NaN,NaN,NaN,NaN,NaN,3,0,5,4,vertical,vertical,horizontal,horizontal
2b,7,100272,4,7,103,20,F,NA,constant,heterogeneous,4,present,1.24958610534668,1,horizontal,horizontal,1,3,green,1,4,NaN,NaN,NaN,NaN,NaN,NaN,NaN,NaN,NaN,NaN,NaN,NaN,4,5,3,0,horizontal,vertical,vertical,horizontal
2b,7,100272,4,8,104,20,F,NA,constant,heterogeneous,4,present,0.950840950012207,1,horizontal,horizontal,1,8,green,4,3,NaN,NaN,NaN,NaN,NaN,NaN,NaN,NaN,NaN,NaN,NaN,NaN,6,0,3,4,horizontal,horizontal,vertical,horizontal
2b,7,100272,4,9,105,20,F,NA,constant,heterogeneous,4,absent,0.814000844955444,1,vertical,vertical,1,8,green,4,NaN,NaN,NaN,NaN,NaN,NaN,NaN,NaN,NaN,NaN,NaN,NaN,NaN,5,0,6,4,vertical,horizontal,horizontal,vertical
2b,7,100272,4,10,106,20,F,NA,constant,heterogeneous,4,present,0.974865198135376,1,vertical,vertical,1,3,green,3,1,NaN,NaN,NaN,NaN,NaN,NaN,NaN,NaN,NaN,NaN,NaN,NaN,5,3,4,6,horizontal,vertical,vertical,horizontal
2b,7,100272,4,11,107,20,F,NA,constant,heterogeneous,4,absent,1.04641699790955,1,vertical,vertical,1,3,green,2,NaN,NaN,NaN,NaN,NaN,NaN,NaN,NaN,NaN,NaN,NaN,NaN,NaN,3,4,0,5,horizontal,vertical,vertical,vertical
2b,7,100272,4,12,108,20,F,NA,constant,heterogeneous,4,absent,1.02738499641418,1,vertical,vertical,1,2,green,2,NaN,NaN,NaN,NaN,NaN,NaN,NaN,NaN,NaN,NaN,NaN,NaN,NaN,0,4,5,6,horizontal,vertical,vertical,horizontal
2b,7,100272,4,13,109,20,F,NA,constant,heterogeneous,4,absent,1.68806505203247,1,horizontal,horizontal,1,2,green,1,NaN,NaN,NaN,NaN,NaN,NaN,NaN,NaN,NaN,NaN,NaN,NaN,NaN,4,6,5,3,horizontal,vertical,horizontal,horizontal
2b,7,100272,4,14,110,20,F,NA,constant,heterogeneous,4,present,1.11432003974915,1,vertical,vertical,1,2,green,3,4,NaN,NaN,NaN,NaN,NaN,NaN,NaN,NaN,NaN,NaN,NaN,NaN,6,0,4,3,vertical,horizontal,vertical,vertical
2b,7,100272,4,15,111,20,F,NA,constant,heterogeneous,4,absent,1.32497596740723,1,horizontal,horizontal,1,8,green,3,NaN,NaN,NaN,NaN,NaN,NaN,NaN,NaN,NaN,NaN,NaN,NaN,NaN,0,3,4,5,horizontal,horizontal,horizontal,horizontal
2b,7,100272,4,16,112,20,F,NA,constant,heterogeneous,4,present,1.2512469291687,1,horizontal,horizontal,1,3,green,3,4,NaN,NaN,NaN,NaN,NaN,NaN,NaN,NaN,NaN,NaN,NaN,NaN,0,6,4,3,vertical,horizontal,horizontal,horizontal
2b,7,100272,4,17,113,20,F,NA,constant,heterogeneous,4,absent,1.64863109588623,0,vertical,horizontal,1,3,green,4,NaN,NaN,NaN,NaN,NaN,NaN,NaN,NaN,NaN,NaN,NaN,NaN,NaN,3,0,5,4,horizontal,vertical,horizontal,vertical
2b,7,100272,4,18,114,20,F,NA,constant,heterogeneous,4,absent,1.94994401931763,0,horizontal,vertical,1,3,green,1,NaN,NaN,NaN,NaN,NaN,NaN,NaN,NaN,NaN,NaN,NaN,NaN,NaN,4,3,6,5,horizontal,horizontal,vertical,horizontal
2b,7,100272,4,19,115,20,F,NA,constant,heterogeneous,4,present,1.62119102478027,1,horizontal,horizontal,1,5,green,1,3,NaN,NaN,NaN,NaN,NaN,NaN,NaN,NaN,NaN,NaN,NaN,NaN,4,0,3,6,horizontal,vertical,horizontal,vertical
2b,7,100272,4,20,116,20,F,NA,constant,heterogeneous,4,present,1.05367612838745,1,horizontal,horizontal,1,2,green,4,3,NaN,NaN,NaN,NaN,NaN,NaN,NaN,NaN,NaN,NaN,NaN,NaN,5,0,3,4,horizontal,vertical,horizontal,horizontal
2b,7,100272,4,21,117,20,F,NA,constant,heterogeneous,4,present,1.47491407394409,1,horizontal,horizontal,1,5,green,3,4,NaN,NaN,NaN,NaN,NaN,NaN,NaN,NaN,NaN,NaN,NaN,NaN,0,3,4,6,vertical,vertical,horizontal,horizontal
2b,7,100272,4,22,118,20,F,NA,constant,heterogeneous,4,present,1.54450416564941,1,vertical,vertical,1,2,green,2,4,NaN,NaN,NaN,NaN,NaN,NaN,NaN,NaN,NaN,NaN,NaN,NaN,6,4,0,5,horizontal,vertical,horizontal,horizontal
2b,7,100272,4,23,119,20,F,NA,constant,heterogeneous,4,absent,1.83989381790161,1,horizontal,horizontal,1,5,green,4,NaN,NaN,NaN,NaN,NaN,NaN,NaN,NaN,NaN,NaN,NaN,NaN,NaN,0,3,5,4,vertical,horizontal,vertical,horizontal
2b,7,100272,4,24,120,20,F,NA,constant,heterogeneous,4,present,1.08078622817993,1,vertical,vertical,1,8,green,1,4,NaN,NaN,NaN,NaN,NaN,NaN,NaN,NaN,NaN,NaN,NaN,NaN,4,0,6,5,vertical,horizontal,horizontal,vertical
2b,7,100272,4,25,121,20,F,NA,constant,heterogeneous,4,absent,1.85902500152588,1,vertical,vertical,1,2,green,3,NaN,NaN,NaN,NaN,NaN,NaN,NaN,NaN,NaN,NaN,NaN,NaN,NaN,0,6,4,5,horizontal,vertical,vertical,horizontal
2b,7,100272,4,26,122,20,F,NA,constant,heterogeneous,4,absent,1.07633996009827,1,horizontal,horizontal,1,2,green,1,NaN,NaN,NaN,NaN,NaN,NaN,NaN,NaN,NaN,NaN,NaN,NaN,NaN,4,0,3,5,horizontal,vertical,vertical,vertical
2b,7,100272,4,27,123,20,F,NA,constant,heterogeneous,4,absent,NaN,0,vertical,none,0,2,green,1,NaN,NaN,NaN,NaN,NaN,NaN,NaN,NaN,NaN,NaN,NaN,NaN,NaN,4,6,0,3,vertical,vertical,horizontal,vertical
2b,7,100272,4,28,124,20,F,NA,constant,heterogeneous,4,present,0.998255014419556,1,vertical,vertical,1,5,green,2,4,NaN,NaN,NaN,NaN,NaN,NaN,NaN,NaN,NaN,NaN,NaN,NaN,0,4,3,6,horizontal,vertical,horizontal,vertical
2b,7,100272,4,29,125,20,F,NA,constant,heterogeneous,4,absent,0.806312084197998,1,horizontal,horizontal,1,5,green,4,NaN,NaN,NaN,NaN,NaN,NaN,NaN,NaN,NaN,NaN,NaN,NaN,NaN,5,6,0,4,vertical,horizontal,vertical,horizontal
2b,7,100272,4,30,126,20,F,NA,constant,heterogeneous,4,absent,1.01071691513062,1,vertical,vertical,1,5,green,4,NaN,NaN,NaN,NaN,NaN,NaN,NaN,NaN,NaN,NaN,NaN,NaN,NaN,6,3,5,4,vertical,horizontal,horizontal,vertical
2b,7,100272,4,31,127,20,F,NA,constant,heterogeneous,4,absent,1.17928099632263,0,vertical,horizontal,1,5,green,3,NaN,NaN,NaN,NaN,NaN,NaN,NaN,NaN,NaN,NaN,NaN,NaN,NaN,3,6,4,0,vertical,horizontal,vertical,horizontal
2b,7,100272,4,32,128,20,F,NA,constant,heterogeneous,4,present,1.34330201148987,1,vertical,vertical,1,5,green,2,3,NaN,NaN,NaN,NaN,NaN,NaN,NaN,NaN,NaN,NaN,NaN,NaN,5,4,6,3,vertical,vertical,horizontal,vertical
2b,7,100272,5,1,129,20,F,NA,constant,heterogeneous,4,present,0.914744138717651,1,vertical,vertical,1,2,green,4,1,NaN,NaN,NaN,NaN,NaN,NaN,NaN,NaN,NaN,NaN,NaN,NaN,5,0,6,4,horizontal,vertical,vertical,vertical
2b,7,100272,5,2,130,20,F,NA,constant,heterogeneous,4,absent,0.853172063827515,1,vertical,vertical,1,3,green,2,NaN,NaN,NaN,NaN,NaN,NaN,NaN,NaN,NaN,NaN,NaN,NaN,NaN,3,4,5,0,vertical,vertical,vertical,vertical
2b,7,100272,5,3,131,20,F,NA,constant,heterogeneous,4,absent,1.16215109825134,1,vertical,vertical,1,2,green,3,NaN,NaN,NaN,NaN,NaN,NaN,NaN,NaN,NaN,NaN,NaN,NaN,NaN,0,5,4,6,vertical,vertical,vertical,vertical
2b,7,100272,5,4,132,20,F,NA,constant,heterogeneous,4,present,0.877739191055298,1,vertical,vertical,1,2,green,2,1,NaN,NaN,NaN,NaN,NaN,NaN,NaN,NaN,NaN,NaN,NaN,NaN,6,4,0,5,vertical,vertical,vertical,horizontal
2b,7,100272,5,5,133,20,F,NA,constant,heterogeneous,4,present,0.899260997772217,1,horizontal,horizontal,1,5,green,1,2,NaN,NaN,NaN,NaN,NaN,NaN,NaN,NaN,NaN,NaN,NaN,NaN,4,6,0,3,horizontal,vertical,vertical,horizontal
2b,7,100272,5,6,134,20,F,NA,constant,heterogeneous,4,absent,1.03352499008179,1,vertical,vertical,1,8,green,2,NaN,NaN,NaN,NaN,NaN,NaN,NaN,NaN,NaN,NaN,NaN,NaN,NaN,6,4,5,0,horizontal,vertical,horizontal,horizontal
2b,7,100272,5,7,135,20,F,NA,constant,heterogeneous,4,absent,1.61447811126709,1,horizontal,horizontal,1,2,green,3,NaN,NaN,NaN,NaN,NaN,NaN,NaN,NaN,NaN,NaN,NaN,NaN,NaN,6,3,4,5,vertical,vertical,horizontal,horizontal
2b,7,100272,5,8,136,20,F,NA,constant,heterogeneous,4,present,1.32679891586304,1,horizontal,horizontal,1,3,green,2,4,NaN,NaN,NaN,NaN,NaN,NaN,NaN,NaN,NaN,NaN,NaN,NaN,3,4,6,5,vertical,horizontal,horizontal,horizontal
2b,7,100272,5,9,137,20,F,NA,constant,heterogeneous,4,absent,1.74945712089539,0,horizontal,vertical,1,3,green,2,NaN,NaN,NaN,NaN,NaN,NaN,NaN,NaN,NaN,NaN,NaN,NaN,NaN,6,4,3,0,horizontal,horizontal,horizontal,vertical
2b,7,100272,5,10,138,20,F,NA,constant,heterogeneous,4,present,1.14072108268738,1,vertical,vertical,1,3,green,2,4,NaN,NaN,NaN,NaN,NaN,NaN,NaN,NaN,NaN,NaN,NaN,NaN,0,4,5,3,vertical,vertical,vertical,horizontal
2b,7,100272,5,11,139,20,F,NA,constant,heterogeneous,4,present,0.819930076599121,1,horizontal,horizontal,1,2,green,4,3,NaN,NaN,NaN,NaN,NaN,NaN,NaN,NaN,NaN,NaN,NaN,NaN,6,3,5,4,horizontal,horizontal,vertical,horizontal
2b,7,100272,5,12,140,20,F,NA,constant,heterogeneous,4,absent,1.72428011894226,1,vertical,vertical,1,2,green,4,NaN,NaN,NaN,NaN,NaN,NaN,NaN,NaN,NaN,NaN,NaN,NaN,NaN,5,0,3,4,horizontal,vertical,horizontal,vertical
2b,7,100272,5,13,141,20,F,NA,constant,heterogeneous,4,present,1.86709594726562,1,vertical,vertical,1,8,green,3,2,NaN,NaN,NaN,NaN,NaN,NaN,NaN,NaN,NaN,NaN,NaN,NaN,5,0,4,6,horizontal,horizontal,vertical,horizontal
2b,7,100272,5,14,142,20,F,NA,constant,heterogeneous,4,absent,1.54066681861877,0,vertical,horizontal,1,3,green,1,NaN,NaN,NaN,NaN,NaN,NaN,NaN,NaN,NaN,NaN,NaN,NaN,NaN,4,3,6,0,vertical,vertical,horizontal,vertical
2b,7,100272,5,15,143,20,F,NA,constant,heterogeneous,4,absent,1.20351386070251,1,horizontal,horizontal,1,2,green,3,NaN,NaN,NaN,NaN,NaN,NaN,NaN,NaN,NaN,NaN,NaN,NaN,NaN,3,6,4,5,vertical,horizontal,horizontal,horizontal
2b,7,100272,5,16,144,20,F,NA,constant,heterogeneous,4,present,1.00816607475281,1,vertical,vertical,1,3,green,4,1,NaN,NaN,NaN,NaN,NaN,NaN,NaN,NaN,NaN,NaN,NaN,NaN,0,5,6,4,horizontal,horizontal,horizontal,vertical
2b,7,100272,5,17,145,20,F,NA,constant,heterogeneous,4,absent,1.03647112846375,1,vertical,vertical,1,2,green,4,NaN,NaN,NaN,NaN,NaN,NaN,NaN,NaN,NaN,NaN,NaN,NaN,NaN,5,0,3,4,horizontal,vertical,horizontal,vertical
2b,7,100272,5,18,146,20,F,NA,constant,heterogeneous,4,present,0.893306016921997,1,vertical,vertical,1,5,green,1,2,NaN,NaN,NaN,NaN,NaN,NaN,NaN,NaN,NaN,NaN,NaN,NaN,4,0,3,6,vertical,horizontal,vertical,horizontal
2b,7,100272,5,19,147,20,F,NA,constant,heterogeneous,4,absent,1.12357306480408,1,horizontal,horizontal,1,8,green,2,NaN,NaN,NaN,NaN,NaN,NaN,NaN,NaN,NaN,NaN,NaN,NaN,NaN,0,4,3,6,vertical,horizontal,horizontal,horizontal
2b,7,100272,5,20,148,20,F,NA,constant,heterogeneous,4,absent,1.09026098251343,1,vertical,vertical,1,5,green,3,NaN,NaN,NaN,NaN,NaN,NaN,NaN,NaN,NaN,NaN,NaN,NaN,NaN,0,3,4,6,vertical,horizontal,vertical,vertical
2b,7,100272,5,21,149,20,F,NA,constant,heterogeneous,4,present,1.05995392799377,1,horizontal,horizontal,1,5,green,1,2,NaN,NaN,NaN,NaN,NaN,NaN,NaN,NaN,NaN,NaN,NaN,NaN,4,5,6,0,horizontal,horizontal,horizontal,vertical
2b,7,100272,5,22,150,20,F,NA,constant,heterogeneous,4,present,1.30183911323547,1,horizontal,horizontal,1,2,green,4,3,NaN,NaN,NaN,NaN,NaN,NaN,NaN,NaN,NaN,NaN,NaN,NaN,6,5,3,4,horizontal,vertical,horizontal,horizontal
2b,7,100272,5,23,151,20,F,NA,constant,heterogeneous,4,absent,1.31585907936096,1,horizontal,horizontal,1,5,green,2,NaN,NaN,NaN,NaN,NaN,NaN,NaN,NaN,NaN,NaN,NaN,NaN,NaN,0,4,3,5,vertical,horizontal,horizontal,vertical
2b,7,100272,5,24,152,20,F,NA,constant,heterogeneous,4,absent,1.44659113883972,1,vertical,vertical,1,5,green,2,NaN,NaN,NaN,NaN,NaN,NaN,NaN,NaN,NaN,NaN,NaN,NaN,NaN,3,4,0,5,horizontal,vertical,vertical,horizontal
2b,7,100272,5,25,153,20,F,NA,constant,heterogeneous,4,absent,1.14767503738403,1,horizontal,horizontal,1,3,green,3,NaN,NaN,NaN,NaN,NaN,NaN,NaN,NaN,NaN,NaN,NaN,NaN,NaN,0,5,4,3,vertical,vertical,horizontal,vertical
2b,7,100272,5,26,154,20,F,NA,constant,heterogeneous,4,present,0.98679780960083,1,vertical,vertical,1,2,green,2,1,NaN,NaN,NaN,NaN,NaN,NaN,NaN,NaN,NaN,NaN,NaN,NaN,5,4,3,6,horizontal,vertical,horizontal,vertical
2b,7,100272,5,27,155,20,F,NA,constant,heterogeneous,4,present,0.910621881484985,1,horizontal,horizontal,1,8,green,4,3,NaN,NaN,NaN,NaN,NaN,NaN,NaN,NaN,NaN,NaN,NaN,NaN,5,6,0,4,horizontal,horizontal,horizontal,horizontal
2b,7,100272,5,28,156,20,F,NA,constant,heterogeneous,4,absent,1.20921206474304,1,horizontal,horizontal,1,2,green,1,NaN,NaN,NaN,NaN,NaN,NaN,NaN,NaN,NaN,NaN,NaN,NaN,NaN,4,3,6,0,horizontal,horizontal,horizontal,vertical
2b,7,100272,5,29,157,20,F,NA,constant,heterogeneous,4,present,1.23734092712402,1,horizontal,horizontal,1,3,green,2,4,NaN,NaN,NaN,NaN,NaN,NaN,NaN,NaN,NaN,NaN,NaN,NaN,6,4,3,5,horizontal,horizontal,horizontal,horizontal
2b,7,100272,5,30,158,20,F,NA,constant,heterogeneous,4,present,0.782406091690063,1,vertical,vertical,1,5,green,4,3,NaN,NaN,NaN,NaN,NaN,NaN,NaN,NaN,NaN,NaN,NaN,NaN,0,6,5,4,vertical,vertical,horizontal,vertical
2b,7,100272,5,31,159,20,F,NA,constant,heterogeneous,4,present,0.874366044998169,1,horizontal,horizontal,1,2,green,3,1,NaN,NaN,NaN,NaN,NaN,NaN,NaN,NaN,NaN,NaN,NaN,NaN,6,0,4,5,horizontal,horizontal,horizontal,vertical
2b,7,100272,5,32,160,20,F,NA,constant,heterogeneous,4,absent,1.39199805259705,1,horizontal,horizontal,1,5,green,1,NaN,NaN,NaN,NaN,NaN,NaN,NaN,NaN,NaN,NaN,NaN,NaN,NaN,4,6,3,5,horizontal,horizontal,vertical,vertical
2b,7,100272,6,1,161,20,F,NA,constant,heterogeneous,4,present,1.21396398544312,1,horizontal,horizontal,1,5,green,2,1,NaN,NaN,NaN,NaN,NaN,NaN,NaN,NaN,NaN,NaN,NaN,NaN,3,4,0,5,vertical,horizontal,vertical,horizontal
2b,7,100272,6,2,162,20,F,NA,constant,heterogeneous,4,absent,0.798441886901855,1,horizontal,horizontal,1,5,green,3,NaN,NaN,NaN,NaN,NaN,NaN,NaN,NaN,NaN,NaN,NaN,NaN,NaN,5,6,4,0,horizontal,vertical,horizontal,vertical
2b,7,100272,6,3,163,20,F,NA,constant,heterogeneous,4,present,1.21882581710815,1,horizontal,horizontal,1,8,green,3,1,NaN,NaN,NaN,NaN,NaN,NaN,NaN,NaN,NaN,NaN,NaN,NaN,0,5,4,6,vertical,vertical,horizontal,horizontal
2b,7,100272,6,4,164,20,F,NA,constant,heterogeneous,4,absent,1.04313516616821,1,vertical,vertical,1,3,green,2,NaN,NaN,NaN,NaN,NaN,NaN,NaN,NaN,NaN,NaN,NaN,NaN,NaN,3,4,5,0,horizontal,vertical,vertical,vertical
2b,7,100272,6,5,165,20,F,NA,constant,heterogeneous,4,absent,0.692353963851929,1,horizontal,horizontal,1,3,green,3,NaN,NaN,NaN,NaN,NaN,NaN,NaN,NaN,NaN,NaN,NaN,NaN,NaN,6,0,4,3,horizontal,horizontal,horizontal,horizontal
2b,7,100272,6,6,166,20,F,NA,constant,heterogeneous,4,present,1.31025218963623,1,horizontal,horizontal,1,2,green,4,1,NaN,NaN,NaN,NaN,NaN,NaN,NaN,NaN,NaN,NaN,NaN,NaN,5,6,3,4,vertical,vertical,vertical,horizontal
2b,7,100272,6,7,167,20,F,NA,constant,heterogeneous,4,present,1.32095217704773,1,vertical,vertical,1,2,green,2,3,NaN,NaN,NaN,NaN,NaN,NaN,NaN,NaN,NaN,NaN,NaN,NaN,5,4,0,6,horizontal,vertical,horizontal,horizontal
2b,7,100272,6,8,168,20,F,NA,constant,heterogeneous,4,absent,1.16734409332275,1,horizontal,horizontal,1,3,green,2,NaN,NaN,NaN,NaN,NaN,NaN,NaN,NaN,NaN,NaN,NaN,NaN,NaN,3,4,6,0,vertical,horizontal,horizontal,vertical
2b,7,100272,6,9,169,20,F,NA,constant,heterogeneous,4,present,1.69511604309082,1,vertical,vertical,1,5,green,4,1,NaN,NaN,NaN,NaN,NaN,NaN,NaN,NaN,NaN,NaN,NaN,NaN,0,3,6,4,horizontal,horizontal,vertical,vertical
2b,7,100272,6,10,170,20,F,NA,constant,heterogeneous,4,present,0.965408086776733,1,vertical,vertical,1,2,green,4,1,NaN,NaN,NaN,NaN,NaN,NaN,NaN,NaN,NaN,NaN,NaN,NaN,3,0,5,4,vertical,horizontal,horizontal,vertical
2b,7,100272,6,11,171,20,F,NA,constant,heterogeneous,4,absent,0.924768924713135,1,vertical,vertical,1,5,green,2,NaN,NaN,NaN,NaN,NaN,NaN,NaN,NaN,NaN,NaN,NaN,NaN,NaN,5,4,0,6,vertical,vertical,horizontal,vertical
2b,7,100272,6,12,172,20,F,NA,constant,heterogeneous,4,present,NaN,0,horizontal,none,0,3,green,3,2,NaN,NaN,NaN,NaN,NaN,NaN,NaN,NaN,NaN,NaN,NaN,NaN,5,3,4,0,horizontal,vertical,horizontal,horizontal
2b,7,100272,6,13,173,20,F,NA,constant,heterogeneous,4,absent,1.67961001396179,1,horizontal,horizontal,1,5,green,1,NaN,NaN,NaN,NaN,NaN,NaN,NaN,NaN,NaN,NaN,NaN,NaN,NaN,4,0,5,3,horizontal,horizontal,horizontal,vertical
2b,7,100272,6,14,174,20,F,NA,constant,heterogeneous,4,present,1.34171104431152,1,horizontal,horizontal,1,2,green,4,3,NaN,NaN,NaN,NaN,NaN,NaN,NaN,NaN,NaN,NaN,NaN,NaN,0,3,5,4,horizontal,vertical,vertical,horizontal
2b,7,100272,6,15,175,20,F,NA,constant,heterogeneous,4,absent,0.884504079818726,0,horizontal,vertical,1,8,green,1,NaN,NaN,NaN,NaN,NaN,NaN,NaN,NaN,NaN,NaN,NaN,NaN,NaN,4,0,3,6,horizontal,horizontal,horizontal,vertical
2b,7,100272,6,16,176,20,F,NA,constant,heterogeneous,4,absent,1.35864591598511,1,vertical,vertical,1,5,green,1,NaN,NaN,NaN,NaN,NaN,NaN,NaN,NaN,NaN,NaN,NaN,NaN,NaN,4,6,3,0,vertical,vertical,vertical,vertical
2b,7,100272,6,17,177,20,F,NA,constant,heterogeneous,4,present,0.810248851776123,1,vertical,vertical,1,8,green,1,2,NaN,NaN,NaN,NaN,NaN,NaN,NaN,NaN,NaN,NaN,NaN,NaN,4,6,3,0,vertical,horizontal,vertical,horizontal
2b,7,100272,6,18,178,20,F,NA,constant,heterogeneous,4,present,1.15477395057678,1,horizontal,horizontal,1,2,green,2,3,NaN,NaN,NaN,NaN,NaN,NaN,NaN,NaN,NaN,NaN,NaN,NaN,6,4,5,0,horizontal,horizontal,vertical,horizontal
2b,7,100272,6,19,179,20,F,NA,constant,heterogeneous,4,present,0.950080156326294,1,vertical,vertical,1,2,green,2,4,NaN,NaN,NaN,NaN,NaN,NaN,NaN,NaN,NaN,NaN,NaN,NaN,6,4,0,5,horizontal,vertical,horizontal,vertical
2b,7,100272,6,20,180,20,F,NA,constant,heterogeneous,4,absent,1.21307277679443,0,vertical,horizontal,1,2,green,2,NaN,NaN,NaN,NaN,NaN,NaN,NaN,NaN,NaN,NaN,NaN,NaN,NaN,5,4,3,6,vertical,vertical,vertical,vertical
2b,7,100272,6,21,181,20,F,NA,constant,heterogeneous,4,present,1.18164205551147,0,vertical,horizontal,1,3,green,3,4,NaN,NaN,NaN,NaN,NaN,NaN,NaN,NaN,NaN,NaN,NaN,NaN,3,6,4,0,vertical,vertical,vertical,horizontal
2b,7,100272,6,22,182,20,F,NA,constant,heterogeneous,4,absent,1.19361519813538,1,horizontal,horizontal,1,2,green,1,NaN,NaN,NaN,NaN,NaN,NaN,NaN,NaN,NaN,NaN,NaN,NaN,NaN,4,6,3,0,horizontal,vertical,horizontal,vertical
2b,7,100272,6,23,183,20,F,NA,constant,heterogeneous,4,present,1.47376704216003,1,horizontal,horizontal,1,3,green,1,2,NaN,NaN,NaN,NaN,NaN,NaN,NaN,NaN,NaN,NaN,NaN,NaN,4,3,6,5,horizontal,vertical,vertical,vertical
2b,7,100272,6,24,184,20,F,NA,constant,heterogeneous,4,absent,1.32723307609558,1,vertical,vertical,1,3,green,4,NaN,NaN,NaN,NaN,NaN,NaN,NaN,NaN,NaN,NaN,NaN,NaN,NaN,6,5,3,4,vertical,vertical,vertical,vertical
2b,7,100272,6,25,185,20,F,NA,constant,heterogeneous,4,present,1.94204807281494,1,vertical,vertical,1,5,green,3,2,NaN,NaN,NaN,NaN,NaN,NaN,NaN,NaN,NaN,NaN,NaN,NaN,5,6,4,3,vertical,vertical,vertical,horizontal
2b,7,100272,6,26,186,20,F,NA,constant,heterogeneous,4,absent,1.90924215316772,0,vertical,horizontal,1,2,green,4,NaN,NaN,NaN,NaN,NaN,NaN,NaN,NaN,NaN,NaN,NaN,NaN,NaN,6,0,3,4,vertical,horizontal,horizontal,vertical
2b,7,100272,6,27,187,20,F,NA,constant,heterogeneous,4,absent,1.47959303855896,1,vertical,vertical,1,8,green,3,NaN,NaN,NaN,NaN,NaN,NaN,NaN,NaN,NaN,NaN,NaN,NaN,NaN,0,3,4,5,vertical,horizontal,vertical,horizontal
2b,7,100272,6,28,188,20,F,NA,constant,heterogeneous,4,absent,1.06967806816101,1,horizontal,horizontal,1,2,green,1,NaN,NaN,NaN,NaN,NaN,NaN,NaN,NaN,NaN,NaN,NaN,NaN,NaN,4,5,0,3,horizontal,horizontal,vertical,vertical
2b,7,100272,6,29,189,20,F,NA,constant,heterogeneous,4,absent,1.01116299629211,1,horizontal,horizontal,1,2,green,2,NaN,NaN,NaN,NaN,NaN,NaN,NaN,NaN,NaN,NaN,NaN,NaN,NaN,0,4,5,3,horizontal,horizontal,horizontal,vertical
2b,7,100272,6,30,190,20,F,NA,constant,heterogeneous,4,present,1.16365003585815,1,horizontal,horizontal,1,5,green,1,4,NaN,NaN,NaN,NaN,NaN,NaN,NaN,NaN,NaN,NaN,NaN,NaN,4,0,5,6,horizontal,horizontal,horizontal,horizontal
2b,7,100272,6,31,191,20,F,NA,constant,heterogeneous,4,absent,1.20314502716064,1,vertical,vertical,1,2,green,3,NaN,NaN,NaN,NaN,NaN,NaN,NaN,NaN,NaN,NaN,NaN,NaN,NaN,5,0,4,3,horizontal,horizontal,vertical,vertical
2b,7,100272,6,32,192,20,F,NA,constant,heterogeneous,4,present,1.24770092964172,1,vertical,vertical,1,3,green,4,1,NaN,NaN,NaN,NaN,NaN,NaN,NaN,NaN,NaN,NaN,NaN,NaN,5,3,0,4,vertical,horizontal,vertical,vertical
2b,7,100272,7,1,193,20,F,NA,constant,heterogeneous,4,present,1.76303005218506,0,horizontal,vertical,1,3,green,1,4,NaN,NaN,NaN,NaN,NaN,NaN,NaN,NaN,NaN,NaN,NaN,NaN,4,3,6,5,horizontal,horizontal,horizontal,horizontal
2b,7,100272,7,2,194,20,F,NA,constant,heterogeneous,4,absent,1.51027607917786,0,vertical,horizontal,1,3,green,3,NaN,NaN,NaN,NaN,NaN,NaN,NaN,NaN,NaN,NaN,NaN,NaN,NaN,5,3,4,0,horizontal,horizontal,vertical,vertical
2b,7,100272,7,3,195,20,F,NA,constant,heterogeneous,4,absent,1.11292695999146,1,vertical,vertical,1,8,green,1,NaN,NaN,NaN,NaN,NaN,NaN,NaN,NaN,NaN,NaN,NaN,NaN,NaN,4,3,5,6,vertical,vertical,horizontal,vertical
2b,7,100272,7,4,196,20,F,NA,constant,heterogeneous,4,absent,1.06708812713623,1,vertical,vertical,1,2,green,3,NaN,NaN,NaN,NaN,NaN,NaN,NaN,NaN,NaN,NaN,NaN,NaN,NaN,6,5,4,0,vertical,horizontal,vertical,horizontal
2b,7,100272,7,5,197,20,F,NA,constant,heterogeneous,4,present,0.924590110778809,1,vertical,vertical,1,2,green,2,1,NaN,NaN,NaN,NaN,NaN,NaN,NaN,NaN,NaN,NaN,NaN,NaN,3,4,5,6,vertical,vertical,vertical,vertical
2b,7,100272,7,6,198,20,F,NA,constant,heterogeneous,4,present,1.29908204078674,1,horizontal,horizontal,1,3,green,4,3,NaN,NaN,NaN,NaN,NaN,NaN,NaN,NaN,NaN,NaN,NaN,NaN,3,5,0,4,vertical,vertical,vertical,horizontal
2b,7,100272,7,7,199,20,F,NA,constant,heterogeneous,4,absent,0.945444107055664,1,vertical,vertical,1,3,green,2,NaN,NaN,NaN,NaN,NaN,NaN,NaN,NaN,NaN,NaN,NaN,NaN,NaN,6,4,3,5,vertical,vertical,vertical,vertical
2b,7,100272,7,8,200,20,F,NA,constant,heterogeneous,4,absent,0.98458194732666,1,horizontal,horizontal,1,2,green,1,NaN,NaN,NaN,NaN,NaN,NaN,NaN,NaN,NaN,NaN,NaN,NaN,NaN,4,5,0,6,horizontal,vertical,vertical,horizontal
2b,7,100272,7,9,201,20,F,NA,constant,heterogeneous,4,absent,1.30039000511169,1,vertical,vertical,1,5,green,1,NaN,NaN,NaN,NaN,NaN,NaN,NaN,NaN,NaN,NaN,NaN,NaN,NaN,4,6,3,0,vertical,horizontal,horizontal,horizontal
2b,7,100272,7,10,202,20,F,NA,constant,heterogeneous,4,absent,1.15480303764343,1,vertical,vertical,1,5,green,1,NaN,NaN,NaN,NaN,NaN,NaN,NaN,NaN,NaN,NaN,NaN,NaN,NaN,4,6,0,3,vertical,vertical,horizontal,vertical
2b,7,100272,7,11,203,20,F,NA,constant,heterogeneous,4,absent,0.677969932556152,1,vertical,vertical,1,2,green,1,NaN,NaN,NaN,NaN,NaN,NaN,NaN,NaN,NaN,NaN,NaN,NaN,NaN,4,5,6,0,vertical,horizontal,vertical,horizontal
2b,7,100272,7,12,204,20,F,NA,constant,heterogeneous,4,present,0.963744878768921,1,horizontal,horizontal,1,5,green,3,2,NaN,NaN,NaN,NaN,NaN,NaN,NaN,NaN,NaN,NaN,NaN,NaN,6,3,4,5,vertical,horizontal,horizontal,vertical
2b,7,100272,7,13,205,20,F,NA,constant,heterogeneous,4,present,1.02741694450378,1,vertical,vertical,1,8,green,4,2,NaN,NaN,NaN,NaN,NaN,NaN,NaN,NaN,NaN,NaN,NaN,NaN,3,0,5,4,horizontal,horizontal,vertical,vertical
2b,7,100272,7,14,206,20,F,NA,constant,heterogeneous,4,present,0.792071104049683,1,horizontal,horizontal,1,2,green,3,4,NaN,NaN,NaN,NaN,NaN,NaN,NaN,NaN,NaN,NaN,NaN,NaN,0,5,4,6,vertical,horizontal,horizontal,vertical
2b,7,100272,7,15,207,20,F,NA,constant,heterogeneous,4,absent,1.09625101089478,1,vertical,vertical,1,2,green,1,NaN,NaN,NaN,NaN,NaN,NaN,NaN,NaN,NaN,NaN,NaN,NaN,NaN,4,0,5,6,vertical,vertical,vertical,horizontal
2b,7,100272,7,16,208,20,F,NA,constant,heterogeneous,4,present,1.58239412307739,1,vertical,vertical,1,3,green,4,3,NaN,NaN,NaN,NaN,NaN,NaN,NaN,NaN,NaN,NaN,NaN,NaN,5,3,6,4,horizontal,horizontal,vertical,vertical
2b,7,100272,7,17,209,20,F,NA,constant,heterogeneous,4,absent,NaN,0,horizontal,none,0,5,green,2,NaN,NaN,NaN,NaN,NaN,NaN,NaN,NaN,NaN,NaN,NaN,NaN,NaN,5,4,3,6,horizontal,horizontal,vertical,vertical
2b,7,100272,7,18,210,20,F,NA,constant,heterogeneous,4,absent,0.862658977508545,1,horizontal,horizontal,1,5,green,1,NaN,NaN,NaN,NaN,NaN,NaN,NaN,NaN,NaN,NaN,NaN,NaN,NaN,4,0,5,3,horizontal,vertical,horizontal,vertical
2b,7,100272,7,19,211,20,F,NA,constant,heterogeneous,4,present,1.00015687942505,1,vertical,vertical,1,2,green,4,3,NaN,NaN,NaN,NaN,NaN,NaN,NaN,NaN,NaN,NaN,NaN,NaN,0,5,3,4,horizontal,horizontal,vertical,vertical
2b,7,100272,7,20,212,20,F,NA,constant,heterogeneous,4,present,1.14027905464172,1,horizontal,horizontal,1,2,green,3,2,NaN,NaN,NaN,NaN,NaN,NaN,NaN,NaN,NaN,NaN,NaN,NaN,6,3,4,5,horizontal,vertical,horizontal,horizontal
2b,7,100272,7,21,213,20,F,NA,constant,heterogeneous,4,present,1.28361988067627,1,horizontal,horizontal,1,8,green,1,4,NaN,NaN,NaN,NaN,NaN,NaN,NaN,NaN,NaN,NaN,NaN,NaN,4,6,0,3,horizontal,horizontal,vertical,horizontal
2b,7,100272,7,22,214,20,F,NA,constant,heterogeneous,4,present,1.00581908226013,1,vertical,vertical,1,5,green,4,3,NaN,NaN,NaN,NaN,NaN,NaN,NaN,NaN,NaN,NaN,NaN,NaN,6,0,3,4,vertical,horizontal,vertical,vertical
2b,7,100272,7,23,215,20,F,NA,constant,heterogeneous,4,present,0.72980785369873,1,vertical,vertical,1,2,green,2,1,NaN,NaN,NaN,NaN,NaN,NaN,NaN,NaN,NaN,NaN,NaN,NaN,6,4,5,0,vertical,vertical,horizontal,vertical
2b,7,100272,7,24,216,20,F,NA,constant,heterogeneous,4,absent,0.732756853103638,1,horizontal,horizontal,1,3,green,2,NaN,NaN,NaN,NaN,NaN,NaN,NaN,NaN,NaN,NaN,NaN,NaN,NaN,5,4,0,6,horizontal,horizontal,horizontal,vertical
2b,7,100272,7,25,217,20,F,NA,constant,heterogeneous,4,absent,1.15979790687561,1,horizontal,horizontal,1,2,green,3,NaN,NaN,NaN,NaN,NaN,NaN,NaN,NaN,NaN,NaN,NaN,NaN,NaN,5,0,4,3,vertical,vertical,horizontal,horizontal
2b,7,100272,7,26,218,20,F,NA,constant,heterogeneous,4,present,0.819121837615967,1,horizontal,horizontal,1,5,green,4,1,NaN,NaN,NaN,NaN,NaN,NaN,NaN,NaN,NaN,NaN,NaN,NaN,3,0,5,4,horizontal,horizontal,vertical,horizontal
2b,7,100272,7,27,219,20,F,NA,constant,heterogeneous,4,absent,1.31560397148132,1,horizontal,horizontal,1,3,green,4,NaN,NaN,NaN,NaN,NaN,NaN,NaN,NaN,NaN,NaN,NaN,NaN,NaN,3,0,6,4,vertical,horizontal,horizontal,horizontal
2b,7,100272,7,28,220,20,F,NA,constant,heterogeneous,4,present,1.0700888633728,1,horizontal,horizontal,1,2,green,3,4,NaN,NaN,NaN,NaN,NaN,NaN,NaN,NaN,NaN,NaN,NaN,NaN,3,0,4,5,vertical,vertical,horizontal,vertical
2b,7,100272,7,29,221,20,F,NA,constant,heterogeneous,4,absent,NaN,0,horizontal,none,0,8,green,2,NaN,NaN,NaN,NaN,NaN,NaN,NaN,NaN,NaN,NaN,NaN,NaN,NaN,3,4,0,6,horizontal,horizontal,vertical,vertical
2b,7,100272,7,30,222,20,F,NA,constant,heterogeneous,4,absent,1.09619188308716,0,horizontal,vertical,1,2,green,1,NaN,NaN,NaN,NaN,NaN,NaN,NaN,NaN,NaN,NaN,NaN,NaN,NaN,4,0,6,5,horizontal,vertical,horizontal,horizontal
2b,7,100272,7,31,223,20,F,NA,constant,heterogeneous,4,present,1.32627487182617,1,vertical,vertical,1,5,green,1,2,NaN,NaN,NaN,NaN,NaN,NaN,NaN,NaN,NaN,NaN,NaN,NaN,4,6,3,5,vertical,horizontal,horizontal,horizontal
2b,7,100272,7,32,224,20,F,NA,constant,heterogeneous,4,present,0.756911993026733,1,vertical,vertical,1,3,green,1,2,NaN,NaN,NaN,NaN,NaN,NaN,NaN,NaN,NaN,NaN,NaN,NaN,4,6,5,0,vertical,horizontal,vertical,vertical
2b,7,100272,8,1,225,20,F,NA,constant,heterogeneous,4,absent,1.13423013687134,1,horizontal,horizontal,1,2,green,3,NaN,NaN,NaN,NaN,NaN,NaN,NaN,NaN,NaN,NaN,NaN,NaN,NaN,3,6,4,0,vertical,vertical,horizontal,vertical
2b,7,100272,8,2,226,20,F,NA,constant,heterogeneous,4,present,0.713104009628296,1,horizontal,horizontal,1,2,green,3,4,NaN,NaN,NaN,NaN,NaN,NaN,NaN,NaN,NaN,NaN,NaN,NaN,3,5,4,0,horizontal,horizontal,horizontal,vertical
2b,7,100272,8,3,227,20,F,NA,constant,heterogeneous,4,present,0.771575927734375,1,vertical,vertical,1,5,green,3,2,NaN,NaN,NaN,NaN,NaN,NaN,NaN,NaN,NaN,NaN,NaN,NaN,3,5,4,0,horizontal,horizontal,vertical,vertical
2b,7,100272,8,4,228,20,F,NA,constant,heterogeneous,4,absent,0.83504581451416,1,vertical,vertical,1,3,green,1,NaN,NaN,NaN,NaN,NaN,NaN,NaN,NaN,NaN,NaN,NaN,NaN,NaN,4,5,0,6,vertical,vertical,vertical,vertical
2b,7,100272,8,5,229,20,F,NA,constant,heterogeneous,4,absent,0.980134010314941,1,horizontal,horizontal,1,2,green,2,NaN,NaN,NaN,NaN,NaN,NaN,NaN,NaN,NaN,NaN,NaN,NaN,NaN,0,4,6,3,vertical,horizontal,vertical,horizontal
2b,7,100272,8,6,230,20,F,NA,constant,heterogeneous,4,absent,1.04032397270203,1,vertical,vertical,1,5,green,4,NaN,NaN,NaN,NaN,NaN,NaN,NaN,NaN,NaN,NaN,NaN,NaN,NaN,0,3,5,4,horizontal,vertical,vertical,vertical
2b,7,100272,8,7,231,20,F,NA,constant,heterogeneous,4,present,0.824949979782104,1,vertical,vertical,1,2,green,2,4,NaN,NaN,NaN,NaN,NaN,NaN,NaN,NaN,NaN,NaN,NaN,NaN,0,4,3,5,horizontal,vertical,vertical,vertical
2b,7,100272,8,8,232,20,F,NA,constant,heterogeneous,4,present,0.757915019989014,1,vertical,vertical,1,8,green,1,4,NaN,NaN,NaN,NaN,NaN,NaN,NaN,NaN,NaN,NaN,NaN,NaN,4,5,6,3,vertical,vertical,vertical,vertical
2b,7,100272,8,9,233,20,F,NA,constant,heterogeneous,4,absent,0.665229082107544,1,horizontal,horizontal,1,8,green,1,NaN,NaN,NaN,NaN,NaN,NaN,NaN,NaN,NaN,NaN,NaN,NaN,NaN,4,0,5,6,horizontal,horizontal,vertical,horizontal
2b,7,100272,8,10,234,20,F,NA,constant,heterogeneous,4,present,0.850786924362183,0,horizontal,vertical,1,5,green,2,4,NaN,NaN,NaN,NaN,NaN,NaN,NaN,NaN,NaN,NaN,NaN,NaN,3,4,0,6,horizontal,horizontal,vertical,vertical
2b,7,100272,8,11,235,20,F,NA,constant,heterogeneous,4,present,0.847941160202026,1,vertical,vertical,1,3,green,2,4,NaN,NaN,NaN,NaN,NaN,NaN,NaN,NaN,NaN,NaN,NaN,NaN,5,4,3,6,vertical,vertical,horizontal,vertical
2b,7,100272,8,12,236,20,F,NA,constant,heterogeneous,4,absent,0.661280870437622,1,horizontal,horizontal,1,2,green,2,NaN,NaN,NaN,NaN,NaN,NaN,NaN,NaN,NaN,NaN,NaN,NaN,NaN,0,4,6,5,horizontal,horizontal,vertical,vertical
2b,7,100272,8,13,237,20,F,NA,constant,heterogeneous,4,absent,1.11081385612488,0,vertical,horizontal,1,8,green,1,NaN,NaN,NaN,NaN,NaN,NaN,NaN,NaN,NaN,NaN,NaN,NaN,NaN,4,5,3,6,vertical,horizontal,vertical,vertical
2b,7,100272,8,14,238,20,F,NA,constant,heterogeneous,4,absent,1.08927989006042,1,horizontal,horizontal,1,5,green,4,NaN,NaN,NaN,NaN,NaN,NaN,NaN,NaN,NaN,NaN,NaN,NaN,NaN,0,6,5,4,vertical,vertical,horizontal,horizontal
2b,7,100272,8,15,239,20,F,NA,constant,heterogeneous,4,present,0.827160120010376,1,vertical,vertical,1,2,green,3,2,NaN,NaN,NaN,NaN,NaN,NaN,NaN,NaN,NaN,NaN,NaN,NaN,6,0,4,5,horizontal,horizontal,vertical,vertical
2b,7,100272,8,16,240,20,F,NA,constant,heterogeneous,4,present,0.879982948303223,1,vertical,vertical,1,3,green,3,2,NaN,NaN,NaN,NaN,NaN,NaN,NaN,NaN,NaN,NaN,NaN,NaN,0,3,4,5,horizontal,horizontal,vertical,horizontal
2b,7,100272,8,17,241,20,F,NA,constant,heterogeneous,4,absent,0.909902095794678,1,vertical,vertical,1,2,green,1,NaN,NaN,NaN,NaN,NaN,NaN,NaN,NaN,NaN,NaN,NaN,NaN,NaN,4,3,5,6,vertical,horizontal,horizontal,horizontal
2b,7,100272,8,18,242,20,F,NA,constant,heterogeneous,4,present,0.704107046127319,1,vertical,vertical,1,5,green,1,2,NaN,NaN,NaN,NaN,NaN,NaN,NaN,NaN,NaN,NaN,NaN,NaN,4,0,6,3,vertical,vertical,vertical,vertical
2b,7,100272,8,19,243,20,F,NA,constant,heterogeneous,4,present,0.838531017303467,0,horizontal,vertical,1,5,green,1,4,NaN,NaN,NaN,NaN,NaN,NaN,NaN,NaN,NaN,NaN,NaN,NaN,4,0,5,6,horizontal,horizontal,horizontal,horizontal
2b,7,100272,8,20,244,20,F,NA,constant,heterogeneous,4,absent,1.50356793403625,1,vertical,vertical,1,5,green,3,NaN,NaN,NaN,NaN,NaN,NaN,NaN,NaN,NaN,NaN,NaN,NaN,NaN,0,6,4,5,vertical,vertical,vertical,vertical
2b,7,100272,8,21,245,20,F,NA,constant,heterogeneous,4,absent,0.685691118240356,1,vertical,vertical,1,2,green,3,NaN,NaN,NaN,NaN,NaN,NaN,NaN,NaN,NaN,NaN,NaN,NaN,NaN,3,0,4,5,horizontal,horizontal,vertical,vertical
2b,7,100272,8,22,246,20,F,NA,constant,heterogeneous,4,present,0.703630208969116,1,horizontal,horizontal,1,3,green,3,2,NaN,NaN,NaN,NaN,NaN,NaN,NaN,NaN,NaN,NaN,NaN,NaN,6,5,4,0,horizontal,horizontal,horizontal,vertical
2b,7,100272,8,23,247,20,F,NA,constant,heterogeneous,4,absent,0.653632879257202,1,vertical,vertical,1,2,green,3,NaN,NaN,NaN,NaN,NaN,NaN,NaN,NaN,NaN,NaN,NaN,NaN,NaN,5,6,4,3,horizontal,horizontal,vertical,vertical
2b,7,100272,8,24,248,20,F,NA,constant,heterogeneous,4,present,0.746819972991943,1,vertical,vertical,1,2,green,3,1,NaN,NaN,NaN,NaN,NaN,NaN,NaN,NaN,NaN,NaN,NaN,NaN,5,3,4,0,horizontal,horizontal,vertical,vertical
2b,7,100272,8,25,249,20,F,NA,constant,heterogeneous,4,present,0.905925989151001,1,horizontal,horizontal,1,2,green,4,3,NaN,NaN,NaN,NaN,NaN,NaN,NaN,NaN,NaN,NaN,NaN,NaN,0,3,6,4,vertical,vertical,horizontal,horizontal
2b,7,100272,8,26,250,20,F,NA,constant,heterogeneous,4,present,0.700193166732788,1,horizontal,horizontal,1,3,green,2,3,NaN,NaN,NaN,NaN,NaN,NaN,NaN,NaN,NaN,NaN,NaN,NaN,0,4,6,3,vertical,horizontal,vertical,vertical
2b,7,100272,8,27,251,20,F,NA,constant,heterogeneous,4,absent,1.01066398620605,1,horizontal,horizontal,1,3,green,4,NaN,NaN,NaN,NaN,NaN,NaN,NaN,NaN,NaN,NaN,NaN,NaN,NaN,0,6,3,4,horizontal,vertical,horizontal,horizontal
2b,7,100272,8,28,252,20,F,NA,constant,heterogeneous,4,present,1.17120814323425,1,horizontal,horizontal,1,8,green,1,4,NaN,NaN,NaN,NaN,NaN,NaN,NaN,NaN,NaN,NaN,NaN,NaN,4,0,6,5,horizontal,vertical,vertical,horizontal
2b,7,100272,8,29,253,20,F,NA,constant,heterogeneous,4,absent,1.02667999267578,1,horizontal,horizontal,1,3,green,2,NaN,NaN,NaN,NaN,NaN,NaN,NaN,NaN,NaN,NaN,NaN,NaN,NaN,5,4,0,6,vertical,horizontal,vertical,vertical
2b,7,100272,8,30,254,20,F,NA,constant,heterogeneous,4,absent,0.847724914550781,1,horizontal,horizontal,1,5,green,1,NaN,NaN,NaN,NaN,NaN,NaN,NaN,NaN,NaN,NaN,NaN,NaN,NaN,4,5,0,6,horizontal,horizontal,vertical,vertical
2b,7,100272,8,31,255,20,F,NA,constant,heterogeneous,4,absent,0.989158153533936,1,vertical,vertical,1,3,green,4,NaN,NaN,NaN,NaN,NaN,NaN,NaN,NaN,NaN,NaN,NaN,NaN,NaN,5,6,3,4,horizontal,horizontal,vertical,vertical
2b,7,100272,8,32,256,20,F,NA,constant,heterogeneous,4,present,1.14094400405884,1,horizontal,horizontal,1,2,green,2,1,NaN,NaN,NaN,NaN,NaN,NaN,NaN,NaN,NaN,NaN,NaN,NaN,6,4,3,0,vertical,horizontal,vertical,vertical
2b,7,100272,9,1,257,20,F,NA,constant,heterogeneous,4,present,1.12567186355591,1,vertical,vertical,1,5,green,4,2,NaN,NaN,NaN,NaN,NaN,NaN,NaN,NaN,NaN,NaN,NaN,NaN,5,6,0,4,vertical,horizontal,horizontal,vertical
2b,7,100272,9,2,258,20,F,NA,constant,heterogeneous,4,present,0.996219873428345,1,vertical,vertical,1,3,green,4,1,NaN,NaN,NaN,NaN,NaN,NaN,NaN,NaN,NaN,NaN,NaN,NaN,3,6,5,4,horizontal,horizontal,horizontal,vertical
2b,7,100272,9,3,259,20,F,NA,constant,heterogeneous,4,absent,1.21229290962219,1,horizontal,horizontal,1,8,green,4,NaN,NaN,NaN,NaN,NaN,NaN,NaN,NaN,NaN,NaN,NaN,NaN,NaN,0,5,3,4,horizontal,horizontal,vertical,horizontal
2b,7,100272,9,4,260,20,F,NA,constant,heterogeneous,4,present,1.30091404914856,0,vertical,horizontal,1,2,green,3,2,NaN,NaN,NaN,NaN,NaN,NaN,NaN,NaN,NaN,NaN,NaN,NaN,3,6,4,5,horizontal,vertical,vertical,horizontal
2b,7,100272,9,5,261,20,F,NA,constant,heterogeneous,4,present,0.915196895599365,1,horizontal,horizontal,1,3,green,3,1,NaN,NaN,NaN,NaN,NaN,NaN,NaN,NaN,NaN,NaN,NaN,NaN,6,3,4,5,vertical,horizontal,horizontal,vertical
2b,7,100272,9,6,262,20,F,NA,constant,heterogeneous,4,absent,0.981744050979614,1,vertical,vertical,1,3,green,2,NaN,NaN,NaN,NaN,NaN,NaN,NaN,NaN,NaN,NaN,NaN,NaN,NaN,5,4,0,3,horizontal,vertical,vertical,horizontal
2b,7,100272,9,7,263,20,F,NA,constant,heterogeneous,4,present,0.889547109603882,1,horizontal,horizontal,1,2,green,3,4,NaN,NaN,NaN,NaN,NaN,NaN,NaN,NaN,NaN,NaN,NaN,NaN,5,0,4,6,horizontal,vertical,horizontal,horizontal
2b,7,100272,9,8,264,20,F,NA,constant,heterogeneous,4,present,0.771302938461304,1,horizontal,horizontal,1,5,green,4,1,NaN,NaN,NaN,NaN,NaN,NaN,NaN,NaN,NaN,NaN,NaN,NaN,3,5,6,4,vertical,horizontal,horizontal,horizontal
2b,7,100272,9,9,265,20,F,NA,constant,heterogeneous,4,absent,0.96301794052124,1,vertical,vertical,1,3,green,3,NaN,NaN,NaN,NaN,NaN,NaN,NaN,NaN,NaN,NaN,NaN,NaN,NaN,0,3,4,6,vertical,horizontal,vertical,vertical
2b,7,100272,9,10,266,20,F,NA,constant,heterogeneous,4,absent,0.954452991485596,1,horizontal,horizontal,1,3,green,4,NaN,NaN,NaN,NaN,NaN,NaN,NaN,NaN,NaN,NaN,NaN,NaN,NaN,3,0,5,4,horizontal,vertical,vertical,horizontal
2b,7,100272,9,11,267,20,F,NA,constant,heterogeneous,4,present,1.03789901733398,1,horizontal,horizontal,1,5,green,1,4,NaN,NaN,NaN,NaN,NaN,NaN,NaN,NaN,NaN,NaN,NaN,NaN,4,0,6,5,horizontal,vertical,horizontal,vertical
2b,7,100272,9,12,268,20,F,NA,constant,heterogeneous,4,present,0.863126039505005,1,vertical,vertical,1,5,green,3,4,NaN,NaN,NaN,NaN,NaN,NaN,NaN,NaN,NaN,NaN,NaN,NaN,6,3,4,5,vertical,horizontal,vertical,vertical
2b,7,100272,9,13,269,20,F,NA,constant,heterogeneous,4,absent,0.712265968322754,0,vertical,horizontal,1,2,green,1,NaN,NaN,NaN,NaN,NaN,NaN,NaN,NaN,NaN,NaN,NaN,NaN,NaN,4,6,5,3,vertical,horizontal,vertical,vertical
2b,7,100272,9,14,270,20,F,NA,constant,heterogeneous,4,absent,0.954806804656982,1,vertical,vertical,1,2,green,1,NaN,NaN,NaN,NaN,NaN,NaN,NaN,NaN,NaN,NaN,NaN,NaN,NaN,4,0,3,6,vertical,horizontal,horizontal,vertical
2b,7,100272,9,15,271,20,F,NA,constant,heterogeneous,4,absent,0.798237085342407,1,horizontal,horizontal,1,5,green,3,NaN,NaN,NaN,NaN,NaN,NaN,NaN,NaN,NaN,NaN,NaN,NaN,NaN,3,5,4,6,horizontal,vertical,horizontal,horizontal
2b,7,100272,9,16,272,20,F,NA,constant,heterogeneous,4,absent,0.926450967788696,1,horizontal,horizontal,1,2,green,2,NaN,NaN,NaN,NaN,NaN,NaN,NaN,NaN,NaN,NaN,NaN,NaN,NaN,3,4,0,5,horizontal,horizontal,horizontal,vertical
2b,7,100272,9,17,273,20,F,NA,constant,heterogeneous,4,present,0.797103881835938,1,vertical,vertical,1,2,green,1,2,NaN,NaN,NaN,NaN,NaN,NaN,NaN,NaN,NaN,NaN,NaN,NaN,4,3,6,5,vertical,vertical,vertical,vertical
2b,7,100272,9,18,274,20,F,NA,constant,heterogeneous,4,present,0.861065149307251,1,horizontal,horizontal,1,2,green,4,2,NaN,NaN,NaN,NaN,NaN,NaN,NaN,NaN,NaN,NaN,NaN,NaN,6,5,3,4,vertical,horizontal,vertical,horizontal
2b,7,100272,9,19,275,20,F,NA,constant,heterogeneous,4,absent,0.734498023986816,1,horizontal,horizontal,1,3,green,2,NaN,NaN,NaN,NaN,NaN,NaN,NaN,NaN,NaN,NaN,NaN,NaN,NaN,3,4,5,6,horizontal,horizontal,horizontal,horizontal
2b,7,100272,9,20,276,20,F,NA,constant,heterogeneous,4,present,1.01762008666992,1,vertical,vertical,1,8,green,1,3,NaN,NaN,NaN,NaN,NaN,NaN,NaN,NaN,NaN,NaN,NaN,NaN,4,5,0,6,vertical,horizontal,horizontal,vertical
2b,7,100272,9,21,277,20,F,NA,constant,heterogeneous,4,absent,1.03399515151978,1,horizontal,horizontal,1,2,green,2,NaN,NaN,NaN,NaN,NaN,NaN,NaN,NaN,NaN,NaN,NaN,NaN,NaN,6,4,5,3,horizontal,horizontal,vertical,horizontal
2b,7,100272,9,22,278,20,F,NA,constant,heterogeneous,4,absent,1.05102801322937,1,vertical,vertical,1,5,green,1,NaN,NaN,NaN,NaN,NaN,NaN,NaN,NaN,NaN,NaN,NaN,NaN,NaN,4,5,6,3,vertical,vertical,horizontal,vertical
2b,7,100272,9,23,279,20,F,NA,constant,heterogeneous,4,absent,0.848294973373413,1,horizontal,horizontal,1,5,green,1,NaN,NaN,NaN,NaN,NaN,NaN,NaN,NaN,NaN,NaN,NaN,NaN,NaN,4,5,0,6,horizontal,horizontal,horizontal,vertical
2b,7,100272,9,24,280,20,F,NA,constant,heterogeneous,4,absent,1.42952013015747,0,vertical,horizontal,1,8,green,3,NaN,NaN,NaN,NaN,NaN,NaN,NaN,NaN,NaN,NaN,NaN,NaN,NaN,5,3,4,6,horizontal,vertical,vertical,horizontal
2b,7,100272,9,25,281,20,F,NA,constant,heterogeneous,4,present,0.842600107192993,1,horizontal,horizontal,1,8,green,4,3,NaN,NaN,NaN,NaN,NaN,NaN,NaN,NaN,NaN,NaN,NaN,NaN,5,6,0,4,horizontal,vertical,horizontal,horizontal
2b,7,100272,9,26,282,20,F,NA,constant,heterogeneous,4,absent,0.779775857925415,1,vertical,vertical,1,2,green,4,NaN,NaN,NaN,NaN,NaN,NaN,NaN,NaN,NaN,NaN,NaN,NaN,NaN,3,6,5,4,vertical,vertical,vertical,vertical
2b,7,100272,9,27,283,20,F,NA,constant,heterogeneous,4,present,0.767425060272217,1,horizontal,horizontal,1,3,green,4,1,NaN,NaN,NaN,NaN,NaN,NaN,NaN,NaN,NaN,NaN,NaN,NaN,3,5,6,4,horizontal,vertical,vertical,horizontal
2b,7,100272,9,28,284,20,F,NA,constant,heterogeneous,4,present,0.854804992675781,1,horizontal,horizontal,1,2,green,1,2,NaN,NaN,NaN,NaN,NaN,NaN,NaN,NaN,NaN,NaN,NaN,NaN,4,5,6,0,horizontal,horizontal,horizontal,vertical
2b,7,100272,9,29,285,20,F,NA,constant,heterogeneous,4,present,0.875880002975464,1,vertical,vertical,1,2,green,2,1,NaN,NaN,NaN,NaN,NaN,NaN,NaN,NaN,NaN,NaN,NaN,NaN,3,4,5,6,vertical,vertical,horizontal,vertical
2b,7,100272,9,30,286,20,F,NA,constant,heterogeneous,4,absent,0.745772838592529,1,horizontal,horizontal,1,2,green,3,NaN,NaN,NaN,NaN,NaN,NaN,NaN,NaN,NaN,NaN,NaN,NaN,NaN,5,0,4,6,horizontal,horizontal,horizontal,horizontal
2b,7,100272,9,31,287,20,F,NA,constant,heterogeneous,4,absent,0.784763097763062,1,vertical,vertical,1,5,green,2,NaN,NaN,NaN,NaN,NaN,NaN,NaN,NaN,NaN,NaN,NaN,NaN,NaN,5,4,3,6,vertical,vertical,horizontal,vertical
2b,7,100272,9,32,288,20,F,NA,constant,heterogeneous,4,present,0.692759990692139,1,vertical,vertical,1,3,green,1,2,NaN,NaN,NaN,NaN,NaN,NaN,NaN,NaN,NaN,NaN,NaN,NaN,4,6,5,3,vertical,vertical,vertical,horizontal
2b,7,100272,10,1,289,20,F,NA,constant,heterogeneous,4,present,0.866528987884521,1,vertical,vertical,1,5,green,1,4,NaN,NaN,NaN,NaN,NaN,NaN,NaN,NaN,NaN,NaN,NaN,NaN,4,5,6,3,vertical,vertical,horizontal,vertical
2b,7,100272,10,2,290,20,F,NA,constant,heterogeneous,4,absent,0.875933170318604,1,horizontal,horizontal,1,2,green,1,NaN,NaN,NaN,NaN,NaN,NaN,NaN,NaN,NaN,NaN,NaN,NaN,NaN,4,5,3,6,horizontal,vertical,horizontal,vertical
2b,7,100272,10,3,291,20,F,NA,constant,heterogeneous,4,absent,0.873773813247681,1,horizontal,horizontal,1,2,green,3,NaN,NaN,NaN,NaN,NaN,NaN,NaN,NaN,NaN,NaN,NaN,NaN,NaN,6,5,4,3,horizontal,horizontal,horizontal,horizontal
2b,7,100272,10,4,292,20,F,NA,constant,heterogeneous,4,present,0.847514867782593,0,horizontal,vertical,1,5,green,2,4,NaN,NaN,NaN,NaN,NaN,NaN,NaN,NaN,NaN,NaN,NaN,NaN,5,4,0,6,vertical,horizontal,vertical,vertical
2b,7,100272,10,5,293,20,F,NA,constant,heterogeneous,4,absent,0.900969982147217,1,horizontal,horizontal,1,8,green,4,NaN,NaN,NaN,NaN,NaN,NaN,NaN,NaN,NaN,NaN,NaN,NaN,NaN,0,3,5,4,vertical,vertical,horizontal,horizontal
2b,7,100272,10,6,294,20,F,NA,constant,heterogeneous,4,absent,0.811164140701294,1,vertical,vertical,1,8,green,4,NaN,NaN,NaN,NaN,NaN,NaN,NaN,NaN,NaN,NaN,NaN,NaN,NaN,3,5,0,4,horizontal,horizontal,vertical,vertical
2b,7,100272,10,7,295,20,F,NA,constant,heterogeneous,4,present,0.739800930023193,1,vertical,vertical,1,2,green,1,4,NaN,NaN,NaN,NaN,NaN,NaN,NaN,NaN,NaN,NaN,NaN,NaN,4,0,6,5,vertical,horizontal,horizontal,horizontal
2b,7,100272,10,8,296,20,F,NA,constant,heterogeneous,4,absent,1.05083894729614,1,vertical,vertical,1,3,green,2,NaN,NaN,NaN,NaN,NaN,NaN,NaN,NaN,NaN,NaN,NaN,NaN,NaN,5,4,3,0,vertical,vertical,vertical,horizontal
2b,7,100272,10,9,297,20,F,NA,constant,heterogeneous,4,present,1.45610809326172,1,horizontal,horizontal,1,5,green,4,1,NaN,NaN,NaN,NaN,NaN,NaN,NaN,NaN,NaN,NaN,NaN,NaN,5,6,3,4,horizontal,vertical,vertical,horizontal
2b,7,100272,10,10,298,20,F,NA,constant,heterogeneous,4,present,0.845460891723633,1,horizontal,horizontal,1,2,green,4,1,NaN,NaN,NaN,NaN,NaN,NaN,NaN,NaN,NaN,NaN,NaN,NaN,5,3,6,4,vertical,vertical,vertical,horizontal
2b,7,100272,10,11,299,20,F,NA,constant,heterogeneous,4,present,0.822325944900513,1,vertical,vertical,1,3,green,3,2,NaN,NaN,NaN,NaN,NaN,NaN,NaN,NaN,NaN,NaN,NaN,NaN,5,6,4,0,vertical,horizontal,vertical,vertical
2b,7,100272,10,12,300,20,F,NA,constant,heterogeneous,4,absent,0.850890159606934,1,horizontal,horizontal,1,2,green,2,NaN,NaN,NaN,NaN,NaN,NaN,NaN,NaN,NaN,NaN,NaN,NaN,NaN,0,4,6,5,horizontal,horizontal,vertical,vertical
2b,7,100272,10,13,301,20,F,NA,constant,heterogeneous,4,present,0.776301860809326,1,vertical,vertical,1,8,green,3,4,NaN,NaN,NaN,NaN,NaN,NaN,NaN,NaN,NaN,NaN,NaN,NaN,3,5,4,6,vertical,horizontal,vertical,vertical
2b,7,100272,10,14,302,20,F,NA,constant,heterogeneous,4,present,0.572004079818726,0,vertical,horizontal,1,5,green,3,4,NaN,NaN,NaN,NaN,NaN,NaN,NaN,NaN,NaN,NaN,NaN,NaN,6,0,4,3,horizontal,vertical,vertical,horizontal
2b,7,100272,10,15,303,20,F,NA,constant,heterogeneous,4,present,1.19576096534729,1,vertical,vertical,1,2,green,4,1,NaN,NaN,NaN,NaN,NaN,NaN,NaN,NaN,NaN,NaN,NaN,NaN,3,6,0,4,horizontal,vertical,horizontal,vertical
2b,7,100272,10,16,304,20,F,NA,constant,heterogeneous,4,present,0.643723011016846,1,vertical,vertical,1,3,green,3,2,NaN,NaN,NaN,NaN,NaN,NaN,NaN,NaN,NaN,NaN,NaN,NaN,0,5,4,6,horizontal,horizontal,vertical,horizontal
2b,7,100272,10,17,305,20,F,NA,constant,heterogeneous,4,present,0.80506706237793,1,horizontal,horizontal,1,3,green,2,4,NaN,NaN,NaN,NaN,NaN,NaN,NaN,NaN,NaN,NaN,NaN,NaN,5,4,3,6,vertical,horizontal,vertical,horizontal
2b,7,100272,10,18,306,20,F,NA,constant,heterogeneous,4,present,1.0492479801178,1,vertical,vertical,1,2,green,3,4,NaN,NaN,NaN,NaN,NaN,NaN,NaN,NaN,NaN,NaN,NaN,NaN,5,3,4,0,vertical,vertical,vertical,vertical
2b,7,100272,10,19,307,20,F,NA,constant,heterogeneous,4,absent,0.950494050979614,1,vertical,vertical,1,2,green,2,NaN,NaN,NaN,NaN,NaN,NaN,NaN,NaN,NaN,NaN,NaN,NaN,NaN,3,4,6,0,vertical,vertical,vertical,horizontal
2b,7,100272,10,20,308,20,F,NA,constant,heterogeneous,4,absent,0.829477071762085,1,vertical,vertical,1,2,green,4,NaN,NaN,NaN,NaN,NaN,NaN,NaN,NaN,NaN,NaN,NaN,NaN,NaN,5,3,0,4,horizontal,vertical,vertical,vertical
2b,7,100272,10,21,309,20,F,NA,constant,heterogeneous,4,absent,0.930290937423706,1,horizontal,horizontal,1,5,green,2,NaN,NaN,NaN,NaN,NaN,NaN,NaN,NaN,NaN,NaN,NaN,NaN,NaN,5,4,0,3,horizontal,horizontal,horizontal,vertical
2b,7,100272,10,22,310,20,F,NA,constant,heterogeneous,4,absent,0.773023843765259,1,vertical,vertical,1,2,green,3,NaN,NaN,NaN,NaN,NaN,NaN,NaN,NaN,NaN,NaN,NaN,NaN,NaN,3,0,4,5,horizontal,horizontal,vertical,horizontal
2b,7,100272,10,23,311,20,F,NA,constant,heterogeneous,4,present,1.01259183883667,1,horizontal,horizontal,1,3,green,2,1,NaN,NaN,NaN,NaN,NaN,NaN,NaN,NaN,NaN,NaN,NaN,NaN,5,4,6,0,vertical,horizontal,vertical,horizontal
2b,7,100272,10,24,312,20,F,NA,constant,heterogeneous,4,absent,0.637154102325439,1,vertical,vertical,1,3,green,3,NaN,NaN,NaN,NaN,NaN,NaN,NaN,NaN,NaN,NaN,NaN,NaN,NaN,6,0,4,3,horizontal,vertical,vertical,horizontal
2b,7,100272,10,25,313,20,F,NA,constant,heterogeneous,4,absent,1.13423299789429,1,vertical,vertical,1,5,green,2,NaN,NaN,NaN,NaN,NaN,NaN,NaN,NaN,NaN,NaN,NaN,NaN,NaN,6,4,0,5,vertical,vertical,horizontal,horizontal
2b,7,100272,10,26,314,20,F,NA,constant,heterogeneous,4,absent,0.721034049987793,1,vertical,vertical,1,5,green,3,NaN,NaN,NaN,NaN,NaN,NaN,NaN,NaN,NaN,NaN,NaN,NaN,NaN,5,0,4,6,horizontal,vertical,vertical,vertical
2b,7,100272,10,27,315,20,F,NA,constant,heterogeneous,4,present,0.85595178604126,1,horizontal,horizontal,1,2,green,2,4,NaN,NaN,NaN,NaN,NaN,NaN,NaN,NaN,NaN,NaN,NaN,NaN,5,4,3,6,vertical,horizontal,vertical,vertical
2b,7,100272,10,28,316,20,F,NA,constant,heterogeneous,4,absent,1.2532970905304,1,horizontal,horizontal,1,3,green,1,NaN,NaN,NaN,NaN,NaN,NaN,NaN,NaN,NaN,NaN,NaN,NaN,NaN,4,5,0,3,horizontal,horizontal,vertical,horizontal
2b,7,100272,10,29,317,20,F,NA,constant,heterogeneous,4,present,1.01834607124329,1,horizontal,horizontal,1,8,green,1,2,NaN,NaN,NaN,NaN,NaN,NaN,NaN,NaN,NaN,NaN,NaN,NaN,4,6,0,3,horizontal,horizontal,horizontal,horizontal
2b,7,100272,10,30,318,20,F,NA,constant,heterogeneous,4,absent,0.723057985305786,1,horizontal,horizontal,1,5,green,2,NaN,NaN,NaN,NaN,NaN,NaN,NaN,NaN,NaN,NaN,NaN,NaN,NaN,5,4,0,3,horizontal,horizontal,horizontal,horizontal
2b,7,100272,10,31,319,20,F,NA,constant,heterogeneous,4,present,1.25800490379333,1,horizontal,horizontal,1,2,green,1,4,NaN,NaN,NaN,NaN,NaN,NaN,NaN,NaN,NaN,NaN,NaN,NaN,4,0,5,6,horizontal,vertical,horizontal,vertical
2b,7,100272,10,32,320,20,F,NA,constant,heterogeneous,4,absent,0.907238960266113,1,horizontal,horizontal,1,3,green,3,NaN,NaN,NaN,NaN,NaN,NaN,NaN,NaN,NaN,NaN,NaN,NaN,NaN,3,0,4,6,vertical,horizontal,horizontal,horizontal
2b,7,100272,11,1,321,20,F,NA,constant,homogeneous,4,present,1.7365939617157,1,horizontal,horizontal,1,2,green,4,2,619.68777079743,780.31222920257,980.31222920257,419.68777079743,980.31222920257,780.31222920257,980.31222920257,419.68777079743,619.68777079743,419.68777079743,619.68777079743,780.31222920257,0,0,0,4,horizontal,horizontal,horizontal,horizontal
2b,7,100272,11,2,322,20,F,NA,constant,homogeneous,4,absent,0.811377048492432,1,vertical,vertical,1,2,green,2,NaN,980.31222920257,419.68777079743,NaN,NaN,980.31222920257,780.31222920257,980.31222920257,419.68777079743,619.68777079743,419.68777079743,619.68777079743,780.31222920257,0,4,0,0,vertical,vertical,horizontal,vertical
2b,7,100272,11,3,323,20,F,NA,constant,homogeneous,4,absent,0.651994943618774,1,vertical,vertical,1,3,green,4,NaN,619.68777079743,780.31222920257,NaN,NaN,980.31222920257,780.31222920257,980.31222920257,419.68777079743,619.68777079743,419.68777079743,619.68777079743,780.31222920257,0,0,0,4,horizontal,vertical,horizontal,vertical
2b,7,100272,11,4,324,20,F,NA,constant,homogeneous,4,present,0.832823038101196,1,vertical,vertical,1,5,green,1,2,980.31222920257,780.31222920257,980.31222920257,419.68777079743,980.31222920257,780.31222920257,980.31222920257,419.68777079743,619.68777079743,419.68777079743,619.68777079743,780.31222920257,4,0,0,0,vertical,vertical,horizontal,horizontal
2b,7,100272,11,5,325,20,F,NA,constant,homogeneous,4,present,0.901762962341309,1,horizontal,horizontal,1,3,green,1,3,980.31222920257,780.31222920257,619.68777079743,419.68777079743,980.31222920257,780.31222920257,980.31222920257,419.68777079743,619.68777079743,419.68777079743,619.68777079743,780.31222920257,4,0,0,0,horizontal,vertical,vertical,horizontal
2b,7,100272,11,6,326,20,F,NA,constant,homogeneous,4,absent,0.627726793289185,1,horizontal,horizontal,1,5,green,3,NaN,619.68777079743,419.68777079743,NaN,NaN,980.31222920257,780.31222920257,980.31222920257,419.68777079743,619.68777079743,419.68777079743,619.68777079743,780.31222920257,0,0,4,0,vertical,vertical,horizontal,horizontal
2b,7,100272,11,7,327,20,F,NA,constant,homogeneous,4,present,0.736654043197632,1,horizontal,horizontal,1,3,green,1,2,980.31222920257,780.31222920257,980.31222920257,419.68777079743,980.31222920257,780.31222920257,980.31222920257,419.68777079743,619.68777079743,419.68777079743,619.68777079743,780.31222920257,4,0,0,0,horizontal,vertical,horizontal,vertical
2b,7,100272,11,8,328,20,F,NA,constant,homogeneous,4,absent,0.707464933395386,1,vertical,vertical,1,5,green,2,NaN,980.31222920257,419.68777079743,NaN,NaN,980.31222920257,780.31222920257,980.31222920257,419.68777079743,619.68777079743,419.68777079743,619.68777079743,780.31222920257,0,4,0,0,vertical,vertical,vertical,vertical
2b,7,100272,11,9,329,20,F,NA,constant,homogeneous,4,absent,0.701896905899048,0,vertical,horizontal,1,3,green,1,NaN,980.31222920257,780.31222920257,NaN,NaN,980.31222920257,780.31222920257,980.31222920257,419.68777079743,619.68777079743,419.68777079743,619.68777079743,780.31222920257,4,0,0,0,vertical,vertical,horizontal,vertical
2b,7,100272,11,10,330,20,F,NA,constant,homogeneous,4,absent,1.09218001365662,1,horizontal,horizontal,1,5,green,3,NaN,619.68777079743,419.68777079743,NaN,NaN,980.31222920257,780.31222920257,980.31222920257,419.68777079743,619.68777079743,419.68777079743,619.68777079743,780.31222920257,0,0,4,0,horizontal,horizontal,horizontal,vertical
2b,7,100272,11,11,331,20,F,NA,constant,homogeneous,4,absent,1.05426478385925,1,vertical,vertical,1,8,green,3,NaN,619.68777079743,419.68777079743,NaN,NaN,980.31222920257,780.31222920257,980.31222920257,419.68777079743,619.68777079743,419.68777079743,619.68777079743,780.31222920257,0,0,4,0,vertical,vertical,vertical,horizontal
2b,7,100272,11,12,332,20,F,NA,constant,homogeneous,4,present,0.811609983444214,1,vertical,vertical,1,2,green,2,4,980.31222920257,419.68777079743,619.68777079743,780.31222920257,980.31222920257,780.31222920257,980.31222920257,419.68777079743,619.68777079743,419.68777079743,619.68777079743,780.31222920257,0,4,0,0,vertical,vertical,vertical,vertical
2b,7,100272,11,13,333,20,F,NA,constant,homogeneous,4,absent,0.827973127365112,1,horizontal,horizontal,1,3,green,1,NaN,980.31222920257,780.31222920257,NaN,NaN,980.31222920257,780.31222920257,980.31222920257,419.68777079743,619.68777079743,419.68777079743,619.68777079743,780.31222920257,4,0,0,0,horizontal,vertical,horizontal,vertical
2b,7,100272,11,14,334,20,F,NA,constant,homogeneous,4,absent,0.768845081329346,1,vertical,vertical,1,5,green,3,NaN,619.68777079743,419.68777079743,NaN,NaN,980.31222920257,780.31222920257,980.31222920257,419.68777079743,619.68777079743,419.68777079743,619.68777079743,780.31222920257,0,0,4,0,horizontal,horizontal,vertical,vertical
2b,7,100272,11,15,335,20,F,NA,constant,homogeneous,4,present,1.55221199989319,1,vertical,vertical,1,3,green,2,4,980.31222920257,419.68777079743,619.68777079743,780.31222920257,980.31222920257,780.31222920257,980.31222920257,419.68777079743,619.68777079743,419.68777079743,619.68777079743,780.31222920257,0,4,0,0,horizontal,vertical,vertical,horizontal
2b,7,100272,11,16,336,20,F,NA,constant,homogeneous,4,present,0.771896123886108,1,horizontal,horizontal,1,2,green,1,3,980.31222920257,780.31222920257,619.68777079743,419.68777079743,980.31222920257,780.31222920257,980.31222920257,419.68777079743,619.68777079743,419.68777079743,619.68777079743,780.31222920257,4,0,0,0,horizontal,horizontal,vertical,vertical
2b,7,100272,11,17,337,20,F,NA,constant,homogeneous,4,absent,1.35534310340881,1,horizontal,horizontal,1,2,green,3,NaN,619.68777079743,419.68777079743,NaN,NaN,980.31222920257,780.31222920257,980.31222920257,419.68777079743,619.68777079743,419.68777079743,619.68777079743,780.31222920257,0,0,4,0,horizontal,horizontal,horizontal,vertical
2b,7,100272,11,18,338,20,F,NA,constant,homogeneous,4,absent,0.758675098419189,1,horizontal,horizontal,1,2,green,1,NaN,980.31222920257,780.31222920257,NaN,NaN,980.31222920257,780.31222920257,980.31222920257,419.68777079743,619.68777079743,419.68777079743,619.68777079743,780.31222920257,4,0,0,0,horizontal,vertical,horizontal,horizontal
2b,7,100272,11,19,339,20,F,NA,constant,homogeneous,4,present,0.666173934936523,1,vertical,vertical,1,2,green,3,2,619.68777079743,419.68777079743,980.31222920257,419.68777079743,980.31222920257,780.31222920257,980.31222920257,419.68777079743,619.68777079743,419.68777079743,619.68777079743,780.31222920257,0,0,4,0,vertical,horizontal,vertical,vertical
2b,7,100272,11,20,340,20,F,NA,constant,homogeneous,4,present,0.883597135543823,1,horizontal,horizontal,1,5,green,1,3,980.31222920257,780.31222920257,619.68777079743,419.68777079743,980.31222920257,780.31222920257,980.31222920257,419.68777079743,619.68777079743,419.68777079743,619.68777079743,780.31222920257,4,0,0,0,horizontal,vertical,horizontal,horizontal
2b,7,100272,11,21,341,20,F,NA,constant,homogeneous,4,absent,0.757247924804688,1,vertical,vertical,1,2,green,1,NaN,980.31222920257,780.31222920257,NaN,NaN,980.31222920257,780.31222920257,980.31222920257,419.68777079743,619.68777079743,419.68777079743,619.68777079743,780.31222920257,4,0,0,0,vertical,vertical,horizontal,vertical
2b,7,100272,11,22,342,20,F,NA,constant,homogeneous,4,present,1.31290888786316,1,vertical,vertical,1,5,green,3,4,619.68777079743,419.68777079743,619.68777079743,780.31222920257,980.31222920257,780.31222920257,980.31222920257,419.68777079743,619.68777079743,419.68777079743,619.68777079743,780.31222920257,0,0,4,0,horizontal,horizontal,vertical,vertical
2b,7,100272,11,23,343,20,F,NA,constant,homogeneous,4,present,0.747261047363281,1,vertical,vertical,1,2,green,1,3,980.31222920257,780.31222920257,619.68777079743,419.68777079743,980.31222920257,780.31222920257,980.31222920257,419.68777079743,619.68777079743,419.68777079743,619.68777079743,780.31222920257,4,0,0,0,vertical,horizontal,vertical,vertical
2b,7,100272,11,24,344,20,F,NA,constant,homogeneous,4,present,0.706331968307495,1,horizontal,horizontal,1,5,green,2,1,980.31222920257,419.68777079743,980.31222920257,780.31222920257,980.31222920257,780.31222920257,980.31222920257,419.68777079743,619.68777079743,419.68777079743,619.68777079743,780.31222920257,0,4,0,0,vertical,horizontal,horizontal,horizontal
2b,7,100272,11,25,345,20,F,NA,constant,homogeneous,4,present,0.692823171615601,1,horizontal,horizontal,1,8,green,1,4,980.31222920257,780.31222920257,619.68777079743,780.31222920257,980.31222920257,780.31222920257,980.31222920257,419.68777079743,619.68777079743,419.68777079743,619.68777079743,780.31222920257,4,0,0,0,horizontal,vertical,horizontal,vertical
2b,7,100272,11,26,346,20,F,NA,constant,homogeneous,4,present,0.818941831588745,1,vertical,vertical,1,8,green,4,1,619.68777079743,780.31222920257,980.31222920257,780.31222920257,980.31222920257,780.31222920257,980.31222920257,419.68777079743,619.68777079743,419.68777079743,619.68777079743,780.31222920257,0,0,0,4,vertical,horizontal,horizontal,vertical
2b,7,100272,11,27,347,20,F,NA,constant,homogeneous,4,absent,0.723788976669312,1,horizontal,horizontal,1,3,green,3,NaN,619.68777079743,419.68777079743,NaN,NaN,980.31222920257,780.31222920257,980.31222920257,419.68777079743,619.68777079743,419.68777079743,619.68777079743,780.31222920257,0,0,4,0,vertical,vertical,horizontal,vertical
2b,7,100272,11,28,348,20,F,NA,constant,homogeneous,4,absent,0.986504077911377,1,horizontal,horizontal,1,8,green,3,NaN,619.68777079743,419.68777079743,NaN,NaN,980.31222920257,780.31222920257,980.31222920257,419.68777079743,619.68777079743,419.68777079743,619.68777079743,780.31222920257,0,0,4,0,horizontal,horizontal,horizontal,horizontal
2b,7,100272,11,29,349,20,F,NA,constant,homogeneous,4,present,0.962579965591431,1,horizontal,horizontal,1,2,green,2,1,980.31222920257,419.68777079743,980.31222920257,780.31222920257,980.31222920257,780.31222920257,980.31222920257,419.68777079743,619.68777079743,419.68777079743,619.68777079743,780.31222920257,0,4,0,0,vertical,horizontal,vertical,horizontal
2b,7,100272,11,30,350,20,F,NA,constant,homogeneous,4,absent,0.766102075576782,1,vertical,vertical,1,2,green,3,NaN,619.68777079743,419.68777079743,NaN,NaN,980.31222920257,780.31222920257,980.31222920257,419.68777079743,619.68777079743,419.68777079743,619.68777079743,780.31222920257,0,0,4,0,horizontal,vertical,vertical,horizontal
2b,7,100272,11,31,351,20,F,NA,constant,homogeneous,4,absent,0.869449138641357,1,horizontal,horizontal,1,2,green,3,NaN,619.68777079743,419.68777079743,NaN,NaN,980.31222920257,780.31222920257,980.31222920257,419.68777079743,619.68777079743,419.68777079743,619.68777079743,780.31222920257,0,0,4,0,vertical,horizontal,horizontal,horizontal
2b,7,100272,11,32,352,20,F,NA,constant,homogeneous,4,present,0.82678484916687,1,vertical,vertical,1,3,green,4,3,619.68777079743,780.31222920257,619.68777079743,419.68777079743,980.31222920257,780.31222920257,980.31222920257,419.68777079743,619.68777079743,419.68777079743,619.68777079743,780.31222920257,0,0,0,4,horizontal,horizontal,horizontal,vertical
2b,7,100272,12,1,353,20,F,NA,constant,homogeneous,4,absent,0.986477136611938,1,horizontal,horizontal,1,5,green,1,NaN,980.31222920257,780.31222920257,NaN,NaN,980.31222920257,780.31222920257,980.31222920257,419.68777079743,619.68777079743,419.68777079743,619.68777079743,780.31222920257,4,0,0,0,horizontal,vertical,vertical,horizontal
2b,7,100272,12,2,354,20,F,NA,constant,homogeneous,4,present,0.790244817733765,1,vertical,vertical,1,5,green,4,1,619.68777079743,780.31222920257,980.31222920257,780.31222920257,980.31222920257,780.31222920257,980.31222920257,419.68777079743,619.68777079743,419.68777079743,619.68777079743,780.31222920257,0,0,0,4,vertical,horizontal,horizontal,vertical
2b,7,100272,12,3,355,20,F,NA,constant,homogeneous,4,absent,0.694214105606079,1,horizontal,horizontal,1,2,green,2,NaN,980.31222920257,419.68777079743,NaN,NaN,980.31222920257,780.31222920257,980.31222920257,419.68777079743,619.68777079743,419.68777079743,619.68777079743,780.31222920257,0,4,0,0,horizontal,horizontal,vertical,horizontal
2b,7,100272,12,4,356,20,F,NA,constant,homogeneous,4,present,0.748368978500366,1,vertical,vertical,1,3,green,4,1,619.68777079743,780.31222920257,980.31222920257,780.31222920257,980.31222920257,780.31222920257,980.31222920257,419.68777079743,619.68777079743,419.68777079743,619.68777079743,780.31222920257,0,0,0,4,vertical,horizontal,horizontal,vertical
2b,7,100272,12,5,357,20,F,NA,constant,homogeneous,4,absent,0.635693788528442,1,horizontal,horizontal,1,2,green,2,NaN,980.31222920257,419.68777079743,NaN,NaN,980.31222920257,780.31222920257,980.31222920257,419.68777079743,619.68777079743,419.68777079743,619.68777079743,780.31222920257,0,4,0,0,horizontal,horizontal,horizontal,horizontal
2b,7,100272,12,6,358,20,F,NA,constant,homogeneous,4,present,0.596818208694458,1,horizontal,horizontal,1,8,green,2,4,980.31222920257,419.68777079743,619.68777079743,780.31222920257,980.31222920257,780.31222920257,980.31222920257,419.68777079743,619.68777079743,419.68777079743,619.68777079743,780.31222920257,0,4,0,0,horizontal,horizontal,horizontal,horizontal
2b,7,100272,12,7,359,20,F,NA,constant,homogeneous,4,present,0.701035976409912,1,vertical,vertical,1,2,green,1,3,980.31222920257,780.31222920257,619.68777079743,419.68777079743,980.31222920257,780.31222920257,980.31222920257,419.68777079743,619.68777079743,419.68777079743,619.68777079743,780.31222920257,4,0,0,0,vertical,horizontal,vertical,horizontal
2b,7,100272,12,8,360,20,F,NA,constant,homogeneous,4,absent,0.707272052764893,1,horizontal,horizontal,1,5,green,2,NaN,980.31222920257,419.68777079743,NaN,NaN,980.31222920257,780.31222920257,980.31222920257,419.68777079743,619.68777079743,419.68777079743,619.68777079743,780.31222920257,0,4,0,0,vertical,horizontal,vertical,vertical
2b,7,100272,12,9,361,20,F,NA,constant,homogeneous,4,present,0.749113082885742,1,horizontal,horizontal,1,3,green,1,2,980.31222920257,780.31222920257,980.31222920257,419.68777079743,980.31222920257,780.31222920257,980.31222920257,419.68777079743,619.68777079743,419.68777079743,619.68777079743,780.31222920257,4,0,0,0,horizontal,vertical,vertical,vertical
2b,7,100272,12,10,362,20,F,NA,constant,homogeneous,4,absent,0.732327938079834,1,vertical,vertical,1,2,green,4,NaN,619.68777079743,780.31222920257,NaN,NaN,980.31222920257,780.31222920257,980.31222920257,419.68777079743,619.68777079743,419.68777079743,619.68777079743,780.31222920257,0,0,0,4,horizontal,vertical,horizontal,vertical
2b,7,100272,12,11,363,20,F,NA,constant,homogeneous,4,absent,1.16717219352722,1,vertical,vertical,1,3,green,4,NaN,619.68777079743,780.31222920257,NaN,NaN,980.31222920257,780.31222920257,980.31222920257,419.68777079743,619.68777079743,419.68777079743,619.68777079743,780.31222920257,0,0,0,4,vertical,horizontal,vertical,vertical
2b,7,100272,12,12,364,20,F,NA,constant,homogeneous,4,absent,0.966958999633789,1,vertical,vertical,1,8,green,3,NaN,619.68777079743,419.68777079743,NaN,NaN,980.31222920257,780.31222920257,980.31222920257,419.68777079743,619.68777079743,419.68777079743,619.68777079743,780.31222920257,0,0,4,0,vertical,vertical,vertical,vertical
2b,7,100272,12,13,365,20,F,NA,constant,homogeneous,4,absent,0.926854133605957,1,horizontal,horizontal,1,3,green,1,NaN,980.31222920257,780.31222920257,NaN,NaN,980.31222920257,780.31222920257,980.31222920257,419.68777079743,619.68777079743,419.68777079743,619.68777079743,780.31222920257,4,0,0,0,horizontal,horizontal,vertical,horizontal
2b,7,100272,12,14,366,20,F,NA,constant,homogeneous,4,present,1.24506092071533,1,vertical,vertical,1,2,green,1,2,980.31222920257,780.31222920257,980.31222920257,419.68777079743,980.31222920257,780.31222920257,980.31222920257,419.68777079743,619.68777079743,419.68777079743,619.68777079743,780.31222920257,4,0,0,0,vertical,vertical,vertical,horizontal
2b,7,100272,12,15,367,20,F,NA,constant,homogeneous,4,absent,0.638167858123779,1,horizontal,horizontal,1,2,green,2,NaN,980.31222920257,419.68777079743,NaN,NaN,980.31222920257,780.31222920257,980.31222920257,419.68777079743,619.68777079743,419.68777079743,619.68777079743,780.31222920257,0,4,0,0,vertical,horizontal,horizontal,vertical
2b,7,100272,12,16,368,20,F,NA,constant,homogeneous,4,absent,0.967381000518799,1,horizontal,horizontal,1,8,green,1,NaN,980.31222920257,780.31222920257,NaN,NaN,980.31222920257,780.31222920257,980.31222920257,419.68777079743,619.68777079743,419.68777079743,619.68777079743,780.31222920257,4,0,0,0,horizontal,horizontal,horizontal,vertical
2b,7,100272,12,17,369,20,F,NA,constant,homogeneous,4,absent,1.53502917289734,1,vertical,vertical,1,5,green,2,NaN,980.31222920257,419.68777079743,NaN,NaN,980.31222920257,780.31222920257,980.31222920257,419.68777079743,619.68777079743,419.68777079743,619.68777079743,780.31222920257,0,4,0,0,vertical,vertical,horizontal,horizontal
2b,7,100272,12,18,370,20,F,NA,constant,homogeneous,4,present,0.721812963485718,1,horizontal,horizontal,1,5,green,1,2,980.31222920257,780.31222920257,980.31222920257,419.68777079743,980.31222920257,780.31222920257,980.31222920257,419.68777079743,619.68777079743,419.68777079743,619.68777079743,780.31222920257,4,0,0,0,horizontal,horizontal,horizontal,horizontal
2b,7,100272,12,19,371,20,F,NA,constant,homogeneous,4,present,0.784778118133545,1,vertical,vertical,1,5,green,3,1,619.68777079743,419.68777079743,980.31222920257,780.31222920257,980.31222920257,780.31222920257,980.31222920257,419.68777079743,619.68777079743,419.68777079743,619.68777079743,780.31222920257,0,0,4,0,horizontal,horizontal,vertical,vertical
2b,7,100272,12,20,372,20,F,NA,constant,homogeneous,4,absent,1.13249397277832,1,vertical,vertical,1,2,green,1,NaN,980.31222920257,780.31222920257,NaN,NaN,980.31222920257,780.31222920257,980.31222920257,419.68777079743,619.68777079743,419.68777079743,619.68777079743,780.31222920257,4,0,0,0,vertical,vertical,horizontal,vertical
2b,7,100272,12,21,373,20,F,NA,constant,homogeneous,4,present,0.919232845306396,1,horizontal,horizontal,1,2,green,4,2,619.68777079743,780.31222920257,980.31222920257,419.68777079743,980.31222920257,780.31222920257,980.31222920257,419.68777079743,619.68777079743,419.68777079743,619.68777079743,780.31222920257,0,0,0,4,horizontal,vertical,horizontal,horizontal
2b,7,100272,12,22,374,20,F,NA,constant,homogeneous,4,absent,0.662083864212036,1,vertical,vertical,1,2,green,1,NaN,980.31222920257,780.31222920257,NaN,NaN,980.31222920257,780.31222920257,980.31222920257,419.68777079743,619.68777079743,419.68777079743,619.68777079743,780.31222920257,4,0,0,0,vertical,horizontal,vertical,horizontal
2b,7,100272,12,23,375,20,F,NA,constant,homogeneous,4,present,1.11137700080872,1,vertical,vertical,1,8,green,2,3,980.31222920257,419.68777079743,619.68777079743,419.68777079743,980.31222920257,780.31222920257,980.31222920257,419.68777079743,619.68777079743,419.68777079743,619.68777079743,780.31222920257,0,4,0,0,horizontal,vertical,horizontal,horizontal
2b,7,100272,12,24,376,20,F,NA,constant,homogeneous,4,absent,0.625906944274902,1,horizontal,horizontal,1,3,green,4,NaN,619.68777079743,780.31222920257,NaN,NaN,980.31222920257,780.31222920257,980.31222920257,419.68777079743,619.68777079743,419.68777079743,619.68777079743,780.31222920257,0,0,0,4,vertical,horizontal,horizontal,horizontal
2b,7,100272,12,25,377,20,F,NA,constant,homogeneous,4,present,0.694736957550049,1,horizontal,horizontal,1,2,green,3,1,619.68777079743,419.68777079743,980.31222920257,780.31222920257,980.31222920257,780.31222920257,980.31222920257,419.68777079743,619.68777079743,419.68777079743,619.68777079743,780.31222920257,0,0,4,0,horizontal,horizontal,horizontal,horizontal
2b,7,100272,12,26,378,20,F,NA,constant,homogeneous,4,present,1.0208477973938,1,horizontal,horizontal,1,3,green,4,2,619.68777079743,780.31222920257,980.31222920257,419.68777079743,980.31222920257,780.31222920257,980.31222920257,419.68777079743,619.68777079743,419.68777079743,619.68777079743,780.31222920257,0,0,0,4,horizontal,horizontal,vertical,horizontal
2b,7,100272,12,27,379,20,F,NA,constant,homogeneous,4,present,0.85322904586792,1,horizontal,horizontal,1,5,green,3,4,619.68777079743,419.68777079743,619.68777079743,780.31222920257,980.31222920257,780.31222920257,980.31222920257,419.68777079743,619.68777079743,419.68777079743,619.68777079743,780.31222920257,0,0,4,0,vertical,vertical,horizontal,vertical
2b,7,100272,12,28,380,20,F,NA,constant,homogeneous,4,present,0.930659770965576,1,vertical,vertical,1,3,green,1,2,980.31222920257,780.31222920257,980.31222920257,419.68777079743,980.31222920257,780.31222920257,980.31222920257,419.68777079743,619.68777079743,419.68777079743,619.68777079743,780.31222920257,4,0,0,0,vertical,vertical,horizontal,horizontal
2b,7,100272,12,29,381,20,F,NA,constant,homogeneous,4,absent,1.69340395927429,1,vertical,vertical,1,3,green,1,NaN,980.31222920257,780.31222920257,NaN,NaN,980.31222920257,780.31222920257,980.31222920257,419.68777079743,619.68777079743,419.68777079743,619.68777079743,780.31222920257,4,0,0,0,vertical,vertical,horizontal,vertical
2b,7,100272,12,30,382,20,F,NA,constant,homogeneous,4,absent,NaN,0,vertical,none,0,5,green,3,NaN,619.68777079743,419.68777079743,NaN,NaN,980.31222920257,780.31222920257,980.31222920257,419.68777079743,619.68777079743,419.68777079743,619.68777079743,780.31222920257,0,0,4,0,vertical,horizontal,vertical,vertical
2b,7,100272,12,31,383,20,F,NA,constant,homogeneous,4,present,0.911890029907227,1,vertical,vertical,1,2,green,2,3,980.31222920257,419.68777079743,619.68777079743,419.68777079743,980.31222920257,780.31222920257,980.31222920257,419.68777079743,619.68777079743,419.68777079743,619.68777079743,780.31222920257,0,4,0,0,vertical,vertical,horizontal,horizontal
2b,7,100272,12,32,384,20,F,NA,constant,homogeneous,4,present,0.714576005935669,1,horizontal,horizontal,1,2,green,1,2,980.31222920257,780.31222920257,980.31222920257,419.68777079743,980.31222920257,780.31222920257,980.31222920257,419.68777079743,619.68777079743,419.68777079743,619.68777079743,780.31222920257,4,0,0,0,horizontal,horizontal,vertical,vertical
2b,7,100272,13,1,385,20,F,NA,constant,homogeneous,4,absent,0.695466995239258,1,vertical,vertical,1,8,green,4,NaN,619.68777079743,780.31222920257,NaN,NaN,980.31222920257,780.31222920257,980.31222920257,419.68777079743,619.68777079743,419.68777079743,619.68777079743,780.31222920257,0,0,0,4,horizontal,horizontal,vertical,vertical
2b,7,100272,13,2,386,20,F,NA,constant,homogeneous,4,present,0.805804967880249,1,horizontal,horizontal,1,2,green,4,1,619.68777079743,780.31222920257,980.31222920257,780.31222920257,980.31222920257,780.31222920257,980.31222920257,419.68777079743,619.68777079743,419.68777079743,619.68777079743,780.31222920257,0,0,0,4,horizontal,vertical,horizontal,horizontal
2b,7,100272,13,3,387,20,F,NA,constant,homogeneous,4,present,0.75370979309082,1,vertical,vertical,1,3,green,3,4,619.68777079743,419.68777079743,619.68777079743,780.31222920257,980.31222920257,780.31222920257,980.31222920257,419.68777079743,619.68777079743,419.68777079743,619.68777079743,780.31222920257,0,0,4,0,horizontal,vertical,vertical,horizontal
2b,7,100272,13,4,388,20,F,NA,constant,homogeneous,4,absent,0.677173852920532,1,horizontal,horizontal,1,2,green,1,NaN,980.31222920257,780.31222920257,NaN,NaN,980.31222920257,780.31222920257,980.31222920257,419.68777079743,619.68777079743,419.68777079743,619.68777079743,780.31222920257,4,0,0,0,horizontal,horizontal,vertical,horizontal
2b,7,100272,13,5,389,20,F,NA,constant,homogeneous,4,absent,0.58712100982666,0,vertical,horizontal,1,2,green,2,NaN,980.31222920257,419.68777079743,NaN,NaN,980.31222920257,780.31222920257,980.31222920257,419.68777079743,619.68777079743,419.68777079743,619.68777079743,780.31222920257,0,4,0,0,vertical,vertical,vertical,vertical
2b,7,100272,13,6,390,20,F,NA,constant,homogeneous,4,present,0.851270914077759,1,vertical,vertical,1,8,green,1,3,980.31222920257,780.31222920257,619.68777079743,419.68777079743,980.31222920257,780.31222920257,980.31222920257,419.68777079743,619.68777079743,419.68777079743,619.68777079743,780.31222920257,4,0,0,0,vertical,vertical,horizontal,vertical
2b,7,100272,13,7,391,20,F,NA,constant,homogeneous,4,absent,0.624315023422241,1,vertical,vertical,1,3,green,1,NaN,980.31222920257,780.31222920257,NaN,NaN,980.31222920257,780.31222920257,980.31222920257,419.68777079743,619.68777079743,419.68777079743,619.68777079743,780.31222920257,4,0,0,0,vertical,horizontal,vertical,horizontal
2b,7,100272,13,8,392,20,F,NA,constant,homogeneous,4,present,0.877106189727783,1,horizontal,horizontal,1,3,green,4,3,619.68777079743,780.31222920257,619.68777079743,419.68777079743,980.31222920257,780.31222920257,980.31222920257,419.68777079743,619.68777079743,419.68777079743,619.68777079743,780.31222920257,0,0,0,4,vertical,vertical,horizontal,horizontal
2b,7,100272,13,9,393,20,F,NA,constant,homogeneous,4,present,0.891134023666382,0,horizontal,vertical,1,8,green,1,3,980.31222920257,780.31222920257,619.68777079743,419.68777079743,980.31222920257,780.31222920257,980.31222920257,419.68777079743,619.68777079743,419.68777079743,619.68777079743,780.31222920257,4,0,0,0,horizontal,vertical,vertical,vertical
2b,7,100272,13,10,394,20,F,NA,constant,homogeneous,4,present,0.996994018554688,1,horizontal,horizontal,1,5,green,3,1,619.68777079743,419.68777079743,980.31222920257,780.31222920257,980.31222920257,780.31222920257,980.31222920257,419.68777079743,619.68777079743,419.68777079743,619.68777079743,780.31222920257,0,0,4,0,vertical,vertical,horizontal,horizontal
2b,7,100272,13,11,395,20,F,NA,constant,homogeneous,4,absent,0.749117136001587,1,vertical,vertical,1,2,green,1,NaN,980.31222920257,780.31222920257,NaN,NaN,980.31222920257,780.31222920257,980.31222920257,419.68777079743,619.68777079743,419.68777079743,619.68777079743,780.31222920257,4,0,0,0,vertical,horizontal,vertical,horizontal
2b,7,100272,13,12,396,20,F,NA,constant,homogeneous,4,absent,0.740181922912598,1,vertical,vertical,1,5,green,2,NaN,980.31222920257,419.68777079743,NaN,NaN,980.31222920257,780.31222920257,980.31222920257,419.68777079743,619.68777079743,419.68777079743,619.68777079743,780.31222920257,0,4,0,0,vertical,vertical,horizontal,horizontal
2b,7,100272,13,13,397,20,F,NA,constant,homogeneous,4,present,0.963099002838135,1,horizontal,horizontal,1,2,green,1,3,980.31222920257,780.31222920257,619.68777079743,419.68777079743,980.31222920257,780.31222920257,980.31222920257,419.68777079743,619.68777079743,419.68777079743,619.68777079743,780.31222920257,4,0,0,0,horizontal,vertical,horizontal,vertical
2b,7,100272,13,14,398,20,F,NA,constant,homogeneous,4,present,0.706610918045044,1,vertical,vertical,1,2,green,4,1,619.68777079743,780.31222920257,980.31222920257,780.31222920257,980.31222920257,780.31222920257,980.31222920257,419.68777079743,619.68777079743,419.68777079743,619.68777079743,780.31222920257,0,0,0,4,vertical,horizontal,vertical,vertical
2b,7,100272,13,15,399,20,F,NA,constant,homogeneous,4,absent,0.917148113250732,1,horizontal,horizontal,1,2,green,3,NaN,619.68777079743,419.68777079743,NaN,NaN,980.31222920257,780.31222920257,980.31222920257,419.68777079743,619.68777079743,419.68777079743,619.68777079743,780.31222920257,0,0,4,0,horizontal,vertical,horizontal,vertical
2b,7,100272,13,16,400,20,F,NA,constant,homogeneous,4,present,0.643839120864868,1,vertical,vertical,1,2,green,2,1,980.31222920257,419.68777079743,980.31222920257,780.31222920257,980.31222920257,780.31222920257,980.31222920257,419.68777079743,619.68777079743,419.68777079743,619.68777079743,780.31222920257,0,4,0,0,horizontal,vertical,vertical,vertical
2b,7,100272,13,17,401,20,F,NA,constant,homogeneous,4,present,0.836740970611572,1,horizontal,horizontal,1,5,green,3,2,619.68777079743,419.68777079743,980.31222920257,419.68777079743,980.31222920257,780.31222920257,980.31222920257,419.68777079743,619.68777079743,419.68777079743,619.68777079743,780.31222920257,0,0,4,0,horizontal,vertical,horizontal,horizontal
2b,7,100272,13,18,402,20,F,NA,constant,homogeneous,4,absent,1.31778311729431,1,vertical,vertical,1,2,green,4,NaN,619.68777079743,780.31222920257,NaN,NaN,980.31222920257,780.31222920257,980.31222920257,419.68777079743,619.68777079743,419.68777079743,619.68777079743,780.31222920257,0,0,0,4,vertical,vertical,horizontal,vertical
2b,7,100272,13,19,403,20,F,NA,constant,homogeneous,4,absent,0.756381034851074,1,horizontal,horizontal,1,8,green,1,NaN,980.31222920257,780.31222920257,NaN,NaN,980.31222920257,780.31222920257,980.31222920257,419.68777079743,619.68777079743,419.68777079743,619.68777079743,780.31222920257,4,0,0,0,horizontal,vertical,horizontal,vertical
2b,7,100272,13,20,404,20,F,NA,constant,homogeneous,4,present,0.752225875854492,1,vertical,vertical,1,5,green,3,4,619.68777079743,419.68777079743,619.68777079743,780.31222920257,980.31222920257,780.31222920257,980.31222920257,419.68777079743,619.68777079743,419.68777079743,619.68777079743,780.31222920257,0,0,4,0,vertical,vertical,vertical,horizontal
2b,7,100272,13,21,405,20,F,NA,constant,homogeneous,4,absent,1.13130497932434,1,vertical,vertical,1,5,green,1,NaN,980.31222920257,780.31222920257,NaN,NaN,980.31222920257,780.31222920257,980.31222920257,419.68777079743,619.68777079743,419.68777079743,619.68777079743,780.31222920257,4,0,0,0,vertical,vertical,horizontal,horizontal
2b,7,100272,13,22,406,20,F,NA,constant,homogeneous,4,absent,1.03820419311523,1,horizontal,horizontal,1,3,green,4,NaN,619.68777079743,780.31222920257,NaN,NaN,980.31222920257,780.31222920257,980.31222920257,419.68777079743,619.68777079743,419.68777079743,619.68777079743,780.31222920257,0,0,0,4,horizontal,vertical,horizontal,horizontal
2b,7,100272,13,23,407,20,F,NA,constant,homogeneous,4,present,1.13533711433411,1,vertical,vertical,1,5,green,4,3,619.68777079743,780.31222920257,619.68777079743,419.68777079743,980.31222920257,780.31222920257,980.31222920257,419.68777079743,619.68777079743,419.68777079743,619.68777079743,780.31222920257,0,0,0,4,vertical,horizontal,horizontal,vertical
2b,7,100272,13,24,408,20,F,NA,constant,homogeneous,4,absent,1.60220408439636,1,horizontal,horizontal,1,5,green,4,NaN,619.68777079743,780.31222920257,NaN,NaN,980.31222920257,780.31222920257,980.31222920257,419.68777079743,619.68777079743,419.68777079743,619.68777079743,780.31222920257,0,0,0,4,horizontal,horizontal,horizontal,horizontal
2b,7,100272,13,25,409,20,F,NA,constant,homogeneous,4,absent,1.20654892921448,1,horizontal,horizontal,1,2,green,1,NaN,980.31222920257,780.31222920257,NaN,NaN,980.31222920257,780.31222920257,980.31222920257,419.68777079743,619.68777079743,419.68777079743,619.68777079743,780.31222920257,4,0,0,0,horizontal,horizontal,vertical,horizontal
2b,7,100272,13,26,410,20,F,NA,constant,homogeneous,4,present,1.33900594711304,1,horizontal,horizontal,1,2,green,4,1,619.68777079743,780.31222920257,980.31222920257,780.31222920257,980.31222920257,780.31222920257,980.31222920257,419.68777079743,619.68777079743,419.68777079743,619.68777079743,780.31222920257,0,0,0,4,vertical,vertical,horizontal,horizontal
2b,7,100272,13,27,411,20,F,NA,constant,homogeneous,4,present,1.10958385467529,1,vertical,vertical,1,3,green,2,3,980.31222920257,419.68777079743,619.68777079743,419.68777079743,980.31222920257,780.31222920257,980.31222920257,419.68777079743,619.68777079743,419.68777079743,619.68777079743,780.31222920257,0,4,0,0,horizontal,vertical,vertical,vertical
2b,7,100272,13,28,412,20,F,NA,constant,homogeneous,4,present,0.824243068695068,1,vertical,vertical,1,2,green,3,4,619.68777079743,419.68777079743,619.68777079743,780.31222920257,980.31222920257,780.31222920257,980.31222920257,419.68777079743,619.68777079743,419.68777079743,619.68777079743,780.31222920257,0,0,4,0,vertical,horizontal,vertical,horizontal
2b,7,100272,13,29,413,20,F,NA,constant,homogeneous,4,present,0.765163898468018,1,horizontal,horizontal,1,3,green,3,4,619.68777079743,419.68777079743,619.68777079743,780.31222920257,980.31222920257,780.31222920257,980.31222920257,419.68777079743,619.68777079743,419.68777079743,619.68777079743,780.31222920257,0,0,4,0,horizontal,vertical,horizontal,horizontal
