experiment,subject,uniqueID,block,trial,trial_cumulative,age,gender,color_cond_blocking,color_history,shape_type,set_size,distractor,rt,acc,target_orient,response_key,response_made,iti,target_color,target_item,distractor_item,target_X,target_Y,distractor_X,distractor_Y,item1_X,item1_Y,item2_X,item2_Y,item3_X,item3_Y,item4_X,item4_Y,item1_shape,item2_shape,item3_shape,item4_shape,item1_line,item2_line,item3_line,item4_line
2b,8,100273,1,1,1,18,F,NA,constant,heterogeneous,4,present,NaN,0,vertical,none,0,5,red,1,4,NaN,NaN,NaN,NaN,NaN,NaN,NaN,NaN,NaN,NaN,NaN,NaN,4,0,6,3,vertical,vertical,vertical,vertical
2b,8,100273,1,2,2,18,F,NA,constant,heterogeneous,4,present,NaN,0,vertical,none,0,2,red,4,2,NaN,NaN,NaN,NaN,NaN,NaN,NaN,NaN,NaN,NaN,NaN,NaN,5,0,3,4,horizontal,vertical,horizontal,vertical
2b,8,100273,1,3,3,18,F,NA,constant,heterogeneous,4,present,1.24571084976196,0,vertical,horizontal,1,8,red,3,1,NaN,NaN,NaN,NaN,NaN,NaN,NaN,NaN,NaN,NaN,NaN,NaN,3,6,4,5,horizontal,horizontal,vertical,horizontal
2b,8,100273,1,4,4,18,F,NA,constant,heterogeneous,4,absent,1.69846701622009,1,horizontal,horizontal,1,3,red,4,NaN,NaN,NaN,NaN,NaN,NaN,NaN,NaN,NaN,NaN,NaN,NaN,NaN,5,3,6,4,horizontal,horizontal,horizontal,horizontal
2b,8,100273,1,5,5,18,F,NA,constant,heterogeneous,4,present,0.944814920425415,1,vertical,vertical,1,3,red,1,2,NaN,NaN,NaN,NaN,NaN,NaN,NaN,NaN,NaN,NaN,NaN,NaN,4,0,5,6,vertical,vertical,vertical,vertical
2b,8,100273,1,6,6,18,F,NA,constant,heterogeneous,4,present,1.75952291488647,1,vertical,vertical,1,3,red,2,1,NaN,NaN,NaN,NaN,NaN,NaN,NaN,NaN,NaN,NaN,NaN,NaN,3,4,5,0,vertical,vertical,horizontal,horizontal
2b,8,100273,1,7,7,18,F,NA,constant,heterogeneous,4,absent,1.47485780715942,1,horizontal,horizontal,1,2,red,1,NaN,NaN,NaN,NaN,NaN,NaN,NaN,NaN,NaN,NaN,NaN,NaN,NaN,4,3,0,5,horizontal,vertical,horizontal,horizontal
2b,8,100273,1,8,8,18,F,NA,constant,heterogeneous,4,absent,NaN,0,vertical,none,0,5,red,4,NaN,NaN,NaN,NaN,NaN,NaN,NaN,NaN,NaN,NaN,NaN,NaN,NaN,5,0,3,4,horizontal,vertical,vertical,vertical
2b,8,100273,1,9,9,18,F,NA,constant,heterogeneous,4,absent,1.13311910629272,1,vertical,vertical,1,3,red,3,NaN,NaN,NaN,NaN,NaN,NaN,NaN,NaN,NaN,NaN,NaN,NaN,NaN,6,3,4,0,vertical,horizontal,vertical,vertical
2b,8,100273,1,10,10,18,F,NA,constant,heterogeneous,4,present,1.08007597923279,1,horizontal,horizontal,1,3,red,1,4,NaN,NaN,NaN,NaN,NaN,NaN,NaN,NaN,NaN,NaN,NaN,NaN,4,6,5,0,horizontal,vertical,vertical,horizontal
2b,8,100273,1,11,11,18,F,NA,constant,heterogeneous,4,absent,NaN,0,vertical,none,0,5,red,2,NaN,NaN,NaN,NaN,NaN,NaN,NaN,NaN,NaN,NaN,NaN,NaN,NaN,5,4,0,3,vertical,vertical,vertical,horizontal
2b,8,100273,1,12,12,18,F,NA,constant,heterogeneous,4,absent,1.36218595504761,1,horizontal,horizontal,1,5,red,4,NaN,NaN,NaN,NaN,NaN,NaN,NaN,NaN,NaN,NaN,NaN,NaN,NaN,0,6,3,4,horizontal,vertical,vertical,horizontal
2b,8,100273,1,13,13,18,F,NA,constant,heterogeneous,4,present,0.917532920837402,1,horizontal,horizontal,1,8,red,3,4,NaN,NaN,NaN,NaN,NaN,NaN,NaN,NaN,NaN,NaN,NaN,NaN,0,6,4,5,vertical,horizontal,horizontal,vertical
2b,8,100273,1,14,14,18,F,NA,constant,heterogeneous,4,present,1.02028203010559,1,horizontal,horizontal,1,2,red,2,3,NaN,NaN,NaN,NaN,NaN,NaN,NaN,NaN,NaN,NaN,NaN,NaN,0,4,5,3,vertical,horizontal,horizontal,horizontal
2b,8,100273,1,15,15,18,F,NA,constant,heterogeneous,4,absent,0.852715015411377,1,vertical,vertical,1,2,red,2,NaN,NaN,NaN,NaN,NaN,NaN,NaN,NaN,NaN,NaN,NaN,NaN,NaN,0,4,5,6,horizontal,vertical,vertical,horizontal
2b,8,100273,1,16,16,18,F,NA,constant,heterogeneous,4,present,0.906053066253662,1,horizontal,horizontal,1,2,red,1,3,NaN,NaN,NaN,NaN,NaN,NaN,NaN,NaN,NaN,NaN,NaN,NaN,4,3,0,5,horizontal,horizontal,horizontal,horizontal
2b,8,100273,1,17,17,18,F,NA,constant,heterogeneous,4,absent,1.42823886871338,1,vertical,vertical,1,2,red,2,NaN,NaN,NaN,NaN,NaN,NaN,NaN,NaN,NaN,NaN,NaN,NaN,NaN,3,4,5,0,horizontal,vertical,vertical,vertical
2b,8,100273,1,18,18,18,F,NA,constant,heterogeneous,4,absent,1.39309406280518,1,horizontal,horizontal,1,2,red,1,NaN,NaN,NaN,NaN,NaN,NaN,NaN,NaN,NaN,NaN,NaN,NaN,NaN,4,5,3,6,horizontal,vertical,horizontal,vertical
2b,8,100273,1,19,19,18,F,NA,constant,heterogeneous,4,absent,1.15314388275146,1,horizontal,horizontal,1,8,red,2,NaN,NaN,NaN,NaN,NaN,NaN,NaN,NaN,NaN,NaN,NaN,NaN,NaN,3,4,6,0,horizontal,horizontal,horizontal,horizontal
2b,8,100273,1,20,20,18,F,NA,constant,heterogeneous,4,present,1.27662205696106,1,horizontal,horizontal,1,2,red,2,4,NaN,NaN,NaN,NaN,NaN,NaN,NaN,NaN,NaN,NaN,NaN,NaN,3,4,6,5,vertical,horizontal,vertical,horizontal
2b,8,100273,1,21,21,18,F,NA,constant,heterogeneous,4,absent,1.76230001449585,1,vertical,vertical,1,8,red,4,NaN,NaN,NaN,NaN,NaN,NaN,NaN,NaN,NaN,NaN,NaN,NaN,NaN,0,5,6,4,horizontal,vertical,vertical,vertical
2b,8,100273,1,22,22,18,F,NA,constant,heterogeneous,4,present,0.725836038589478,1,vertical,vertical,1,2,red,2,1,NaN,NaN,NaN,NaN,NaN,NaN,NaN,NaN,NaN,NaN,NaN,NaN,0,4,3,5,vertical,vertical,horizontal,horizontal
2b,8,100273,1,23,23,18,F,NA,constant,heterogeneous,4,present,1.14043402671814,1,horizontal,horizontal,1,5,red,1,3,NaN,NaN,NaN,NaN,NaN,NaN,NaN,NaN,NaN,NaN,NaN,NaN,4,5,0,6,horizontal,vertical,vertical,horizontal
2b,8,100273,1,24,24,18,F,NA,constant,heterogeneous,4,absent,1.14781808853149,0,horizontal,vertical,1,3,red,4,NaN,NaN,NaN,NaN,NaN,NaN,NaN,NaN,NaN,NaN,NaN,NaN,NaN,3,0,6,4,vertical,horizontal,vertical,horizontal
2b,8,100273,1,25,25,18,F,NA,constant,heterogeneous,4,present,0.954864025115967,1,vertical,vertical,1,2,red,1,3,NaN,NaN,NaN,NaN,NaN,NaN,NaN,NaN,NaN,NaN,NaN,NaN,4,3,6,0,vertical,horizontal,vertical,vertical
2b,8,100273,1,26,26,18,F,NA,constant,heterogeneous,4,present,1.12623381614685,1,vertical,vertical,1,5,red,4,3,NaN,NaN,NaN,NaN,NaN,NaN,NaN,NaN,NaN,NaN,NaN,NaN,3,0,6,4,horizontal,vertical,vertical,vertical
2b,8,100273,1,27,27,18,F,NA,constant,heterogeneous,4,absent,1.18074703216553,1,vertical,vertical,1,3,red,2,NaN,NaN,NaN,NaN,NaN,NaN,NaN,NaN,NaN,NaN,NaN,NaN,NaN,6,4,3,5,horizontal,vertical,vertical,vertical
2b,8,100273,1,28,28,18,F,NA,constant,heterogeneous,4,absent,0.984760999679565,1,horizontal,horizontal,1,2,red,2,NaN,NaN,NaN,NaN,NaN,NaN,NaN,NaN,NaN,NaN,NaN,NaN,NaN,5,4,6,3,vertical,horizontal,vertical,vertical
2b,8,100273,1,29,29,18,F,NA,constant,heterogeneous,4,absent,1.28452682495117,1,horizontal,horizontal,1,5,red,1,NaN,NaN,NaN,NaN,NaN,NaN,NaN,NaN,NaN,NaN,NaN,NaN,NaN,4,5,6,0,horizontal,horizontal,vertical,horizontal
2b,8,100273,1,30,30,18,F,NA,constant,heterogeneous,4,present,1.35844206809998,1,horizontal,horizontal,1,3,red,3,2,NaN,NaN,NaN,NaN,NaN,NaN,NaN,NaN,NaN,NaN,NaN,NaN,6,5,4,3,horizontal,horizontal,horizontal,horizontal
2b,8,100273,1,31,31,18,F,NA,constant,heterogeneous,4,present,1.04180812835693,1,horizontal,horizontal,1,5,red,1,4,NaN,NaN,NaN,NaN,NaN,NaN,NaN,NaN,NaN,NaN,NaN,NaN,4,3,6,5,horizontal,vertical,vertical,horizontal
2b,8,100273,1,32,32,18,F,NA,constant,heterogeneous,4,absent,NaN,0,vertical,none,0,2,red,3,NaN,NaN,NaN,NaN,NaN,NaN,NaN,NaN,NaN,NaN,NaN,NaN,NaN,0,6,4,3,vertical,vertical,vertical,horizontal
2b,8,100273,2,1,33,18,F,NA,constant,heterogeneous,4,absent,1.30726003646851,1,vertical,vertical,1,5,red,1,NaN,NaN,NaN,NaN,NaN,NaN,NaN,NaN,NaN,NaN,NaN,NaN,NaN,4,3,5,0,vertical,horizontal,horizontal,horizontal
2b,8,100273,2,2,34,18,F,NA,constant,heterogeneous,4,present,0.861618995666504,1,vertical,vertical,1,3,red,2,3,NaN,NaN,NaN,NaN,NaN,NaN,NaN,NaN,NaN,NaN,NaN,NaN,6,4,5,0,vertical,vertical,horizontal,vertical
2b,8,100273,2,3,35,18,F,NA,constant,heterogeneous,4,absent,1.66309189796448,1,horizontal,horizontal,1,2,red,1,NaN,NaN,NaN,NaN,NaN,NaN,NaN,NaN,NaN,NaN,NaN,NaN,NaN,4,3,5,6,horizontal,vertical,horizontal,horizontal
2b,8,100273,2,4,36,18,F,NA,constant,heterogeneous,4,absent,0.768611907958984,1,vertical,vertical,1,3,red,1,NaN,NaN,NaN,NaN,NaN,NaN,NaN,NaN,NaN,NaN,NaN,NaN,NaN,4,3,0,6,vertical,horizontal,vertical,horizontal
2b,8,100273,2,5,37,18,F,NA,constant,heterogeneous,4,present,0.856242895126343,1,horizontal,horizontal,1,5,red,3,4,NaN,NaN,NaN,NaN,NaN,NaN,NaN,NaN,NaN,NaN,NaN,NaN,3,0,4,6,vertical,horizontal,horizontal,horizontal
2b,8,100273,2,6,38,18,F,NA,constant,heterogeneous,4,present,1.02143597602844,1,vertical,vertical,1,2,red,2,3,NaN,NaN,NaN,NaN,NaN,NaN,NaN,NaN,NaN,NaN,NaN,NaN,6,4,5,3,horizontal,vertical,vertical,horizontal
2b,8,100273,2,7,39,18,F,NA,constant,heterogeneous,4,present,0.718036890029907,1,vertical,vertical,1,2,red,3,2,NaN,NaN,NaN,NaN,NaN,NaN,NaN,NaN,NaN,NaN,NaN,NaN,5,3,4,6,vertical,vertical,vertical,horizontal
2b,8,100273,2,8,40,18,F,NA,constant,heterogeneous,4,present,0.836565017700195,1,horizontal,horizontal,1,2,red,1,2,NaN,NaN,NaN,NaN,NaN,NaN,NaN,NaN,NaN,NaN,NaN,NaN,4,0,3,5,horizontal,vertical,vertical,horizontal
2b,8,100273,2,9,41,18,F,NA,constant,heterogeneous,4,present,0.965698003768921,0,vertical,horizontal,1,5,red,2,4,NaN,NaN,NaN,NaN,NaN,NaN,NaN,NaN,NaN,NaN,NaN,NaN,6,4,0,3,vertical,vertical,vertical,horizontal
2b,8,100273,2,10,42,18,F,NA,constant,heterogeneous,4,present,0.933254957199097,1,horizontal,horizontal,1,2,red,1,3,NaN,NaN,NaN,NaN,NaN,NaN,NaN,NaN,NaN,NaN,NaN,NaN,4,0,5,3,horizontal,horizontal,vertical,vertical
2b,8,100273,2,11,43,18,F,NA,constant,heterogeneous,4,absent,0.624208927154541,1,vertical,vertical,1,5,red,1,NaN,NaN,NaN,NaN,NaN,NaN,NaN,NaN,NaN,NaN,NaN,NaN,NaN,4,0,5,6,vertical,horizontal,vertical,horizontal
2b,8,100273,2,12,44,18,F,NA,constant,heterogeneous,4,present,0.789031982421875,1,horizontal,horizontal,1,8,red,4,1,NaN,NaN,NaN,NaN,NaN,NaN,NaN,NaN,NaN,NaN,NaN,NaN,5,0,3,4,horizontal,horizontal,vertical,horizontal
2b,8,100273,2,13,45,18,F,NA,constant,heterogeneous,4,absent,0.893274068832397,1,horizontal,horizontal,1,5,red,2,NaN,NaN,NaN,NaN,NaN,NaN,NaN,NaN,NaN,NaN,NaN,NaN,NaN,0,4,3,5,horizontal,horizontal,horizontal,horizontal
2b,8,100273,2,14,46,18,F,NA,constant,heterogeneous,4,present,0.739526987075806,0,vertical,horizontal,1,8,red,4,2,NaN,NaN,NaN,NaN,NaN,NaN,NaN,NaN,NaN,NaN,NaN,NaN,5,0,3,4,horizontal,horizontal,horizontal,vertical
2b,8,100273,2,15,47,18,F,NA,constant,heterogeneous,4,absent,1.35819888114929,1,vertical,vertical,1,2,red,4,NaN,NaN,NaN,NaN,NaN,NaN,NaN,NaN,NaN,NaN,NaN,NaN,NaN,0,5,3,4,horizontal,vertical,vertical,vertical
2b,8,100273,2,16,48,18,F,NA,constant,heterogeneous,4,absent,1.0096230506897,1,horizontal,horizontal,1,3,red,2,NaN,NaN,NaN,NaN,NaN,NaN,NaN,NaN,NaN,NaN,NaN,NaN,NaN,3,4,5,0,vertical,horizontal,vertical,vertical
2b,8,100273,2,17,49,18,F,NA,constant,heterogeneous,4,absent,0.854022979736328,1,vertical,vertical,1,8,red,2,NaN,NaN,NaN,NaN,NaN,NaN,NaN,NaN,NaN,NaN,NaN,NaN,NaN,5,4,3,6,vertical,vertical,vertical,vertical
2b,8,100273,2,18,50,18,F,NA,constant,heterogeneous,4,absent,1.03513193130493,1,horizontal,horizontal,1,2,red,1,NaN,NaN,NaN,NaN,NaN,NaN,NaN,NaN,NaN,NaN,NaN,NaN,NaN,4,3,5,6,horizontal,horizontal,horizontal,vertical
2b,8,100273,2,19,51,18,F,NA,constant,heterogeneous,4,present,0.844570159912109,1,vertical,vertical,1,5,red,4,2,NaN,NaN,NaN,NaN,NaN,NaN,NaN,NaN,NaN,NaN,NaN,NaN,0,5,6,4,vertical,vertical,horizontal,vertical
2b,8,100273,2,20,52,18,F,NA,constant,heterogeneous,4,present,1.02165818214417,1,vertical,vertical,1,3,red,1,2,NaN,NaN,NaN,NaN,NaN,NaN,NaN,NaN,NaN,NaN,NaN,NaN,4,5,6,3,vertical,vertical,vertical,horizontal
2b,8,100273,2,21,53,18,F,NA,constant,heterogeneous,4,present,0.829903125762939,1,horizontal,horizontal,1,2,red,1,3,NaN,NaN,NaN,NaN,NaN,NaN,NaN,NaN,NaN,NaN,NaN,NaN,4,5,0,6,horizontal,horizontal,horizontal,vertical
2b,8,100273,2,22,54,18,F,NA,constant,heterogeneous,4,present,1.09059381484985,1,horizontal,horizontal,1,5,red,2,3,NaN,NaN,NaN,NaN,NaN,NaN,NaN,NaN,NaN,NaN,NaN,NaN,5,4,3,6,vertical,horizontal,vertical,vertical
2b,8,100273,2,23,55,18,F,NA,constant,heterogeneous,4,absent,1.48489809036255,0,horizontal,vertical,1,3,red,2,NaN,NaN,NaN,NaN,NaN,NaN,NaN,NaN,NaN,NaN,NaN,NaN,NaN,6,4,0,5,vertical,horizontal,horizontal,horizontal
2b,8,100273,2,24,56,18,F,NA,constant,heterogeneous,4,present,1.27061295509338,1,horizontal,horizontal,1,3,red,2,3,NaN,NaN,NaN,NaN,NaN,NaN,NaN,NaN,NaN,NaN,NaN,NaN,5,4,3,6,horizontal,horizontal,horizontal,vertical
2b,8,100273,2,25,57,18,F,NA,constant,heterogeneous,4,absent,1.95639514923096,0,horizontal,vertical,1,5,red,4,NaN,NaN,NaN,NaN,NaN,NaN,NaN,NaN,NaN,NaN,NaN,NaN,NaN,6,0,3,4,horizontal,vertical,vertical,horizontal
2b,8,100273,2,26,58,18,F,NA,constant,heterogeneous,4,absent,1.68774700164795,1,horizontal,horizontal,1,2,red,3,NaN,NaN,NaN,NaN,NaN,NaN,NaN,NaN,NaN,NaN,NaN,NaN,NaN,3,6,4,5,vertical,vertical,horizontal,vertical
2b,8,100273,2,27,59,18,F,NA,constant,heterogeneous,4,present,1.29771304130554,1,horizontal,horizontal,1,3,red,1,3,NaN,NaN,NaN,NaN,NaN,NaN,NaN,NaN,NaN,NaN,NaN,NaN,4,3,5,0,horizontal,horizontal,vertical,vertical
2b,8,100273,2,28,60,18,F,NA,constant,heterogeneous,4,present,1.31982493400574,0,vertical,horizontal,1,2,red,1,4,NaN,NaN,NaN,NaN,NaN,NaN,NaN,NaN,NaN,NaN,NaN,NaN,4,3,5,0,vertical,horizontal,vertical,horizontal
2b,8,100273,2,29,61,18,F,NA,constant,heterogeneous,4,absent,1.11869621276855,0,vertical,horizontal,1,3,red,3,NaN,NaN,NaN,NaN,NaN,NaN,NaN,NaN,NaN,NaN,NaN,NaN,NaN,0,5,4,3,vertical,horizontal,vertical,vertical
2b,8,100273,2,30,62,18,F,NA,constant,heterogeneous,4,absent,1.03712201118469,1,vertical,vertical,1,2,red,4,NaN,NaN,NaN,NaN,NaN,NaN,NaN,NaN,NaN,NaN,NaN,NaN,NaN,6,0,5,4,horizontal,horizontal,vertical,vertical
2b,8,100273,2,31,63,18,F,NA,constant,heterogeneous,4,absent,1.26221084594727,1,vertical,vertical,1,2,red,4,NaN,NaN,NaN,NaN,NaN,NaN,NaN,NaN,NaN,NaN,NaN,NaN,NaN,3,6,0,4,horizontal,vertical,horizontal,vertical
2b,8,100273,2,32,64,18,F,NA,constant,heterogeneous,4,absent,0.847706079483032,1,horizontal,horizontal,1,8,red,3,NaN,NaN,NaN,NaN,NaN,NaN,NaN,NaN,NaN,NaN,NaN,NaN,NaN,6,3,4,0,horizontal,horizontal,horizontal,vertical
2b,8,100273,3,1,65,18,F,NA,constant,heterogeneous,4,absent,0.893633127212524,1,horizontal,horizontal,1,2,red,1,NaN,NaN,NaN,NaN,NaN,NaN,NaN,NaN,NaN,NaN,NaN,NaN,NaN,4,6,3,5,horizontal,vertical,vertical,vertical
2b,8,100273,3,2,66,18,F,NA,constant,heterogeneous,4,present,0.787528991699219,0,horizontal,vertical,1,2,red,4,3,NaN,NaN,NaN,NaN,NaN,NaN,NaN,NaN,NaN,NaN,NaN,NaN,0,5,6,4,vertical,vertical,horizontal,horizontal
2b,8,100273,3,3,67,18,F,NA,constant,heterogeneous,4,present,0.875769138336182,1,vertical,vertical,1,2,red,4,2,NaN,NaN,NaN,NaN,NaN,NaN,NaN,NaN,NaN,NaN,NaN,NaN,6,5,3,4,vertical,vertical,vertical,vertical
2b,8,100273,3,4,68,18,F,NA,constant,heterogeneous,4,present,0.873549938201904,1,horizontal,horizontal,1,5,red,1,3,NaN,NaN,NaN,NaN,NaN,NaN,NaN,NaN,NaN,NaN,NaN,NaN,4,6,3,5,horizontal,horizontal,vertical,horizontal
2b,8,100273,3,5,69,18,F,NA,constant,heterogeneous,4,absent,0.84732985496521,1,vertical,vertical,1,2,red,1,NaN,NaN,NaN,NaN,NaN,NaN,NaN,NaN,NaN,NaN,NaN,NaN,NaN,4,6,3,5,vertical,horizontal,vertical,horizontal
2b,8,100273,3,6,70,18,F,NA,constant,heterogeneous,4,present,1.44440793991089,1,vertical,vertical,1,2,red,3,1,NaN,NaN,NaN,NaN,NaN,NaN,NaN,NaN,NaN,NaN,NaN,NaN,6,3,4,5,horizontal,vertical,vertical,vertical
2b,8,100273,3,7,71,18,F,NA,constant,heterogeneous,4,present,0.701454162597656,1,vertical,vertical,1,5,red,4,1,NaN,NaN,NaN,NaN,NaN,NaN,NaN,NaN,NaN,NaN,NaN,NaN,5,0,6,4,vertical,vertical,vertical,vertical
2b,8,100273,3,8,72,18,F,NA,constant,heterogeneous,4,absent,0.651942014694214,0,horizontal,vertical,1,8,red,4,NaN,NaN,NaN,NaN,NaN,NaN,NaN,NaN,NaN,NaN,NaN,NaN,NaN,3,0,5,4,horizontal,vertical,horizontal,horizontal
2b,8,100273,3,9,73,18,F,NA,constant,heterogeneous,4,present,0.864874839782715,1,vertical,vertical,1,3,red,1,2,NaN,NaN,NaN,NaN,NaN,NaN,NaN,NaN,NaN,NaN,NaN,NaN,4,3,5,6,vertical,vertical,vertical,vertical
2b,8,100273,3,10,74,18,F,NA,constant,heterogeneous,4,absent,1.16262698173523,1,horizontal,horizontal,1,5,red,3,NaN,NaN,NaN,NaN,NaN,NaN,NaN,NaN,NaN,NaN,NaN,NaN,NaN,0,3,4,6,horizontal,vertical,horizontal,horizontal
2b,8,100273,3,11,75,18,F,NA,constant,heterogeneous,4,absent,0.74170708656311,1,vertical,vertical,1,2,red,1,NaN,NaN,NaN,NaN,NaN,NaN,NaN,NaN,NaN,NaN,NaN,NaN,NaN,4,5,6,0,vertical,vertical,horizontal,horizontal
2b,8,100273,3,12,76,18,F,NA,constant,heterogeneous,4,present,0.932922124862671,1,horizontal,horizontal,1,3,red,3,4,NaN,NaN,NaN,NaN,NaN,NaN,NaN,NaN,NaN,NaN,NaN,NaN,5,6,4,0,vertical,horizontal,horizontal,horizontal
2b,8,100273,3,13,77,18,F,NA,constant,heterogeneous,4,present,0.71967601776123,1,horizontal,horizontal,1,3,red,2,3,NaN,NaN,NaN,NaN,NaN,NaN,NaN,NaN,NaN,NaN,NaN,NaN,6,4,3,5,horizontal,horizontal,vertical,horizontal
2b,8,100273,3,14,78,18,F,NA,constant,heterogeneous,4,absent,0.798340797424316,0,vertical,horizontal,1,3,red,1,NaN,NaN,NaN,NaN,NaN,NaN,NaN,NaN,NaN,NaN,NaN,NaN,NaN,4,5,6,3,vertical,vertical,horizontal,horizontal
2b,8,100273,3,15,79,18,F,NA,constant,heterogeneous,4,present,0.862459897994995,0,vertical,horizontal,1,2,red,3,4,NaN,NaN,NaN,NaN,NaN,NaN,NaN,NaN,NaN,NaN,NaN,NaN,5,0,4,3,vertical,vertical,vertical,vertical
2b,8,100273,3,16,80,18,F,NA,constant,heterogeneous,4,absent,1.29592609405518,1,horizontal,horizontal,1,2,red,2,NaN,NaN,NaN,NaN,NaN,NaN,NaN,NaN,NaN,NaN,NaN,NaN,NaN,3,4,5,6,vertical,horizontal,vertical,horizontal
2b,8,100273,3,17,81,18,F,NA,constant,heterogeneous,4,present,0.774183034896851,1,horizontal,horizontal,1,2,red,4,3,NaN,NaN,NaN,NaN,NaN,NaN,NaN,NaN,NaN,NaN,NaN,NaN,0,3,5,4,horizontal,horizontal,vertical,horizontal
2b,8,100273,3,18,82,18,F,NA,constant,heterogeneous,4,present,0.749827861785889,1,vertical,vertical,1,3,red,3,2,NaN,NaN,NaN,NaN,NaN,NaN,NaN,NaN,NaN,NaN,NaN,NaN,3,0,4,5,vertical,vertical,vertical,horizontal
2b,8,100273,3,19,83,18,F,NA,constant,heterogeneous,4,present,1.18885898590088,1,vertical,vertical,1,5,red,2,3,NaN,NaN,NaN,NaN,NaN,NaN,NaN,NaN,NaN,NaN,NaN,NaN,3,4,6,0,vertical,vertical,horizontal,horizontal
2b,8,100273,3,20,84,18,F,NA,constant,heterogeneous,4,absent,0.877011060714722,1,vertical,vertical,1,3,red,4,NaN,NaN,NaN,NaN,NaN,NaN,NaN,NaN,NaN,NaN,NaN,NaN,NaN,0,6,5,4,horizontal,vertical,vertical,vertical
2b,8,100273,3,21,85,18,F,NA,constant,heterogeneous,4,absent,0.658882856369019,1,vertical,vertical,1,2,red,4,NaN,NaN,NaN,NaN,NaN,NaN,NaN,NaN,NaN,NaN,NaN,NaN,NaN,5,6,0,4,horizontal,horizontal,horizontal,vertical
2b,8,100273,3,22,86,18,F,NA,constant,heterogeneous,4,present,0.892142057418823,1,horizontal,horizontal,1,8,red,3,1,NaN,NaN,NaN,NaN,NaN,NaN,NaN,NaN,NaN,NaN,NaN,NaN,0,5,4,6,vertical,horizontal,horizontal,horizontal
2b,8,100273,3,23,87,18,F,NA,constant,heterogeneous,4,absent,1.00621700286865,1,vertical,vertical,1,5,red,1,NaN,NaN,NaN,NaN,NaN,NaN,NaN,NaN,NaN,NaN,NaN,NaN,NaN,4,3,6,0,vertical,vertical,horizontal,vertical
2b,8,100273,3,24,88,18,F,NA,constant,heterogeneous,4,present,1.23457503318787,1,horizontal,horizontal,1,2,red,2,1,NaN,NaN,NaN,NaN,NaN,NaN,NaN,NaN,NaN,NaN,NaN,NaN,5,4,0,3,horizontal,horizontal,vertical,horizontal
2b,8,100273,3,25,89,18,F,NA,constant,heterogeneous,4,absent,1.18746209144592,0,horizontal,vertical,1,2,red,3,NaN,NaN,NaN,NaN,NaN,NaN,NaN,NaN,NaN,NaN,NaN,NaN,NaN,3,0,4,6,vertical,vertical,horizontal,horizontal
2b,8,100273,3,26,90,18,F,NA,constant,heterogeneous,4,absent,1.14766192436218,1,vertical,vertical,1,5,red,4,NaN,NaN,NaN,NaN,NaN,NaN,NaN,NaN,NaN,NaN,NaN,NaN,NaN,3,6,5,4,horizontal,horizontal,vertical,vertical
2b,8,100273,3,27,91,18,F,NA,constant,heterogeneous,4,present,0.874876976013184,1,vertical,vertical,1,8,red,4,2,NaN,NaN,NaN,NaN,NaN,NaN,NaN,NaN,NaN,NaN,NaN,NaN,5,3,6,4,vertical,horizontal,horizontal,vertical
2b,8,100273,3,28,92,18,F,NA,constant,heterogeneous,4,absent,1.16858386993408,1,horizontal,horizontal,1,3,red,1,NaN,NaN,NaN,NaN,NaN,NaN,NaN,NaN,NaN,NaN,NaN,NaN,NaN,4,3,0,6,horizontal,vertical,horizontal,vertical
2b,8,100273,3,29,93,18,F,NA,constant,heterogeneous,4,absent,1.26428484916687,1,vertical,vertical,1,8,red,4,NaN,NaN,NaN,NaN,NaN,NaN,NaN,NaN,NaN,NaN,NaN,NaN,NaN,6,0,3,4,vertical,vertical,horizontal,vertical
2b,8,100273,3,30,94,18,F,NA,constant,heterogeneous,4,present,1.04170989990234,1,horizontal,horizontal,1,5,red,3,4,NaN,NaN,NaN,NaN,NaN,NaN,NaN,NaN,NaN,NaN,NaN,NaN,3,0,4,6,horizontal,vertical,horizontal,horizontal
2b,8,100273,3,31,95,18,F,NA,constant,heterogeneous,4,absent,1.35483908653259,1,horizontal,horizontal,1,3,red,1,NaN,NaN,NaN,NaN,NaN,NaN,NaN,NaN,NaN,NaN,NaN,NaN,NaN,4,3,0,5,horizontal,horizontal,horizontal,horizontal
2b,8,100273,3,32,96,18,F,NA,constant,heterogeneous,4,absent,0.982102870941162,1,horizontal,horizontal,1,5,red,4,NaN,NaN,NaN,NaN,NaN,NaN,NaN,NaN,NaN,NaN,NaN,NaN,NaN,6,5,0,4,horizontal,horizontal,horizontal,horizontal
2b,8,100273,4,1,97,18,F,NA,constant,heterogeneous,4,absent,0.820648193359375,1,horizontal,horizontal,1,5,red,2,NaN,NaN,NaN,NaN,NaN,NaN,NaN,NaN,NaN,NaN,NaN,NaN,NaN,3,4,0,6,horizontal,horizontal,horizontal,horizontal
2b,8,100273,4,2,98,18,F,NA,constant,heterogeneous,4,absent,1.16482305526733,1,horizontal,horizontal,1,2,red,4,NaN,NaN,NaN,NaN,NaN,NaN,NaN,NaN,NaN,NaN,NaN,NaN,NaN,5,6,0,4,vertical,vertical,vertical,horizontal
2b,8,100273,4,3,99,18,F,NA,constant,heterogeneous,4,present,0.852551937103271,1,horizontal,horizontal,1,3,red,1,2,NaN,NaN,NaN,NaN,NaN,NaN,NaN,NaN,NaN,NaN,NaN,NaN,4,0,3,6,horizontal,horizontal,vertical,vertical
2b,8,100273,4,4,100,18,F,NA,constant,heterogeneous,4,absent,1.18573403358459,1,horizontal,horizontal,1,2,red,3,NaN,NaN,NaN,NaN,NaN,NaN,NaN,NaN,NaN,NaN,NaN,NaN,NaN,5,3,4,6,horizontal,vertical,horizontal,horizontal
2b,8,100273,4,5,101,18,F,NA,constant,heterogeneous,4,present,0.717406034469604,1,horizontal,horizontal,1,2,red,1,2,NaN,NaN,NaN,NaN,NaN,NaN,NaN,NaN,NaN,NaN,NaN,NaN,4,0,6,3,horizontal,vertical,horizontal,vertical
2b,8,100273,4,6,102,18,F,NA,constant,heterogeneous,4,absent,0.988270044326782,1,vertical,vertical,1,3,red,3,NaN,NaN,NaN,NaN,NaN,NaN,NaN,NaN,NaN,NaN,NaN,NaN,NaN,6,3,4,0,horizontal,horizontal,vertical,horizontal
2b,8,100273,4,7,103,18,F,NA,constant,heterogeneous,4,absent,0.780083179473877,1,vertical,vertical,1,5,red,1,NaN,NaN,NaN,NaN,NaN,NaN,NaN,NaN,NaN,NaN,NaN,NaN,NaN,4,0,3,6,vertical,vertical,horizontal,vertical
2b,8,100273,4,8,104,18,F,NA,constant,heterogeneous,4,absent,0.976094007492065,1,vertical,vertical,1,5,red,2,NaN,NaN,NaN,NaN,NaN,NaN,NaN,NaN,NaN,NaN,NaN,NaN,NaN,6,4,5,0,vertical,vertical,vertical,vertical
2b,8,100273,4,9,105,18,F,NA,constant,heterogeneous,4,absent,1.5638689994812,1,horizontal,horizontal,1,3,red,4,NaN,NaN,NaN,NaN,NaN,NaN,NaN,NaN,NaN,NaN,NaN,NaN,NaN,0,3,5,4,horizontal,vertical,vertical,horizontal
2b,8,100273,4,10,106,18,F,NA,constant,heterogeneous,4,absent,0.987431049346924,1,vertical,vertical,1,2,red,3,NaN,NaN,NaN,NaN,NaN,NaN,NaN,NaN,NaN,NaN,NaN,NaN,NaN,6,3,4,0,vertical,horizontal,vertical,horizontal
2b,8,100273,4,11,107,18,F,NA,constant,heterogeneous,4,present,0.747712850570679,1,horizontal,horizontal,1,3,red,1,2,NaN,NaN,NaN,NaN,NaN,NaN,NaN,NaN,NaN,NaN,NaN,NaN,4,0,6,3,horizontal,horizontal,horizontal,vertical
2b,8,100273,4,12,108,18,F,NA,constant,heterogeneous,4,present,1.21888589859009,1,horizontal,horizontal,1,2,red,3,1,NaN,NaN,NaN,NaN,NaN,NaN,NaN,NaN,NaN,NaN,NaN,NaN,0,5,4,3,vertical,horizontal,horizontal,vertical
2b,8,100273,4,13,109,18,F,NA,constant,heterogeneous,4,present,0.819146871566772,1,horizontal,horizontal,1,2,red,2,4,NaN,NaN,NaN,NaN,NaN,NaN,NaN,NaN,NaN,NaN,NaN,NaN,0,4,5,6,vertical,horizontal,horizontal,vertical
2b,8,100273,4,14,110,18,F,NA,constant,heterogeneous,4,present,0.731693983078003,1,vertical,vertical,1,5,red,2,1,NaN,NaN,NaN,NaN,NaN,NaN,NaN,NaN,NaN,NaN,NaN,NaN,0,4,5,3,horizontal,vertical,vertical,vertical
2b,8,100273,4,15,111,18,F,NA,constant,heterogeneous,4,absent,1.12667298316956,1,vertical,vertical,1,3,red,4,NaN,NaN,NaN,NaN,NaN,NaN,NaN,NaN,NaN,NaN,NaN,NaN,NaN,6,0,5,4,horizontal,horizontal,vertical,vertical
2b,8,100273,4,16,112,18,F,NA,constant,heterogeneous,4,present,NaN,0,vertical,none,0,8,red,1,3,NaN,NaN,NaN,NaN,NaN,NaN,NaN,NaN,NaN,NaN,NaN,NaN,4,0,6,5,vertical,horizontal,horizontal,vertical
2b,8,100273,4,17,113,18,F,NA,constant,heterogeneous,4,absent,0.97797703742981,1,vertical,vertical,1,2,red,4,NaN,NaN,NaN,NaN,NaN,NaN,NaN,NaN,NaN,NaN,NaN,NaN,NaN,0,3,6,4,horizontal,vertical,horizontal,vertical
2b,8,100273,4,18,114,18,F,NA,constant,heterogeneous,4,present,0.781610012054443,1,horizontal,horizontal,1,5,red,1,2,NaN,NaN,NaN,NaN,NaN,NaN,NaN,NaN,NaN,NaN,NaN,NaN,4,0,3,5,horizontal,vertical,horizontal,vertical
2b,8,100273,4,19,115,18,F,NA,constant,heterogeneous,4,absent,1.6976261138916,1,horizontal,horizontal,1,2,red,3,NaN,NaN,NaN,NaN,NaN,NaN,NaN,NaN,NaN,NaN,NaN,NaN,NaN,6,0,4,5,vertical,vertical,horizontal,horizontal
2b,8,100273,4,20,116,18,F,NA,constant,heterogeneous,4,present,1.43155288696289,1,vertical,vertical,1,3,red,4,1,NaN,NaN,NaN,NaN,NaN,NaN,NaN,NaN,NaN,NaN,NaN,NaN,0,5,3,4,horizontal,vertical,horizontal,vertical
2b,8,100273,4,21,117,18,F,NA,constant,heterogeneous,4,absent,1.00458598136902,1,vertical,vertical,1,8,red,3,NaN,NaN,NaN,NaN,NaN,NaN,NaN,NaN,NaN,NaN,NaN,NaN,NaN,5,0,4,6,horizontal,vertical,vertical,horizontal
2b,8,100273,4,22,118,18,F,NA,constant,heterogeneous,4,present,0.952739000320435,1,vertical,vertical,1,3,red,3,1,NaN,NaN,NaN,NaN,NaN,NaN,NaN,NaN,NaN,NaN,NaN,NaN,0,5,4,6,vertical,horizontal,vertical,vertical
2b,8,100273,4,23,119,18,F,NA,constant,heterogeneous,4,present,0.700273990631104,1,vertical,vertical,1,2,red,2,3,NaN,NaN,NaN,NaN,NaN,NaN,NaN,NaN,NaN,NaN,NaN,NaN,6,4,0,5,vertical,vertical,vertical,horizontal
2b,8,100273,4,24,120,18,F,NA,constant,heterogeneous,4,present,0.746507883071899,1,horizontal,horizontal,1,5,red,1,3,NaN,NaN,NaN,NaN,NaN,NaN,NaN,NaN,NaN,NaN,NaN,NaN,4,6,5,3,horizontal,vertical,horizontal,vertical
2b,8,100273,4,25,121,18,F,NA,constant,heterogeneous,4,absent,1.01778697967529,1,horizontal,horizontal,1,5,red,3,NaN,NaN,NaN,NaN,NaN,NaN,NaN,NaN,NaN,NaN,NaN,NaN,NaN,6,5,4,3,horizontal,horizontal,horizontal,horizontal
2b,8,100273,4,26,122,18,F,NA,constant,heterogeneous,4,absent,0.89005184173584,1,horizontal,horizontal,1,3,red,3,NaN,NaN,NaN,NaN,NaN,NaN,NaN,NaN,NaN,NaN,NaN,NaN,NaN,0,5,4,6,vertical,vertical,horizontal,horizontal
2b,8,100273,4,27,123,18,F,NA,constant,heterogeneous,4,absent,1.32405877113342,1,vertical,vertical,1,2,red,4,NaN,NaN,NaN,NaN,NaN,NaN,NaN,NaN,NaN,NaN,NaN,NaN,NaN,0,5,3,4,vertical,horizontal,vertical,vertical
2b,8,100273,4,28,124,18,F,NA,constant,heterogeneous,4,absent,0.978612899780273,1,horizontal,horizontal,1,8,red,3,NaN,NaN,NaN,NaN,NaN,NaN,NaN,NaN,NaN,NaN,NaN,NaN,NaN,3,0,4,6,vertical,vertical,horizontal,vertical
2b,8,100273,4,29,125,18,F,NA,constant,heterogeneous,4,present,0.598579883575439,1,vertical,vertical,1,5,red,1,2,NaN,NaN,NaN,NaN,NaN,NaN,NaN,NaN,NaN,NaN,NaN,NaN,4,0,5,6,vertical,vertical,vertical,vertical
2b,8,100273,4,30,126,18,F,NA,constant,heterogeneous,4,present,0.85917592048645,1,horizontal,horizontal,1,8,red,2,4,NaN,NaN,NaN,NaN,NaN,NaN,NaN,NaN,NaN,NaN,NaN,NaN,3,4,5,6,vertical,horizontal,horizontal,horizontal
2b,8,100273,4,31,127,18,F,NA,constant,heterogeneous,4,present,1.06854295730591,1,vertical,vertical,1,2,red,2,3,NaN,NaN,NaN,NaN,NaN,NaN,NaN,NaN,NaN,NaN,NaN,NaN,6,4,5,0,vertical,vertical,vertical,horizontal
2b,8,100273,4,32,128,18,F,NA,constant,heterogeneous,4,present,0.758013963699341,1,vertical,vertical,1,2,red,2,3,NaN,NaN,NaN,NaN,NaN,NaN,NaN,NaN,NaN,NaN,NaN,NaN,6,4,0,3,horizontal,vertical,vertical,horizontal
2b,8,100273,5,1,129,18,F,NA,constant,heterogeneous,4,present,0.80217719078064,1,horizontal,horizontal,1,2,red,1,2,NaN,NaN,NaN,NaN,NaN,NaN,NaN,NaN,NaN,NaN,NaN,NaN,4,6,3,0,horizontal,horizontal,vertical,horizontal
2b,8,100273,5,2,130,18,F,NA,constant,heterogeneous,4,present,0.542471170425415,1,vertical,vertical,1,3,red,3,1,NaN,NaN,NaN,NaN,NaN,NaN,NaN,NaN,NaN,NaN,NaN,NaN,3,0,4,5,vertical,horizontal,vertical,horizontal
2b,8,100273,5,3,131,18,F,NA,constant,heterogeneous,4,present,0.621692895889282,1,horizontal,horizontal,1,5,red,1,2,NaN,NaN,NaN,NaN,NaN,NaN,NaN,NaN,NaN,NaN,NaN,NaN,4,0,5,6,horizontal,vertical,horizontal,horizontal
2b,8,100273,5,4,132,18,F,NA,constant,heterogeneous,4,absent,0.862190008163452,0,horizontal,vertical,1,3,red,3,NaN,NaN,NaN,NaN,NaN,NaN,NaN,NaN,NaN,NaN,NaN,NaN,NaN,6,0,4,3,vertical,horizontal,horizontal,vertical
2b,8,100273,5,5,133,18,F,NA,constant,heterogeneous,4,absent,0.831768989562988,1,horizontal,horizontal,1,5,red,3,NaN,NaN,NaN,NaN,NaN,NaN,NaN,NaN,NaN,NaN,NaN,NaN,NaN,0,6,4,3,horizontal,vertical,horizontal,vertical
2b,8,100273,5,6,134,18,F,NA,constant,heterogeneous,4,absent,0.588481187820435,1,horizontal,horizontal,1,3,red,2,NaN,NaN,NaN,NaN,NaN,NaN,NaN,NaN,NaN,NaN,NaN,NaN,NaN,0,4,5,6,vertical,horizontal,horizontal,horizontal
2b,8,100273,5,7,135,18,F,NA,constant,heterogeneous,4,present,0.68451189994812,1,vertical,vertical,1,2,red,2,4,NaN,NaN,NaN,NaN,NaN,NaN,NaN,NaN,NaN,NaN,NaN,NaN,0,4,5,3,horizontal,vertical,vertical,vertical
2b,8,100273,5,8,136,18,F,NA,constant,heterogeneous,4,absent,0.934525012969971,1,horizontal,horizontal,1,2,red,4,NaN,NaN,NaN,NaN,NaN,NaN,NaN,NaN,NaN,NaN,NaN,NaN,NaN,5,3,0,4,vertical,vertical,horizontal,horizontal
2b,8,100273,5,9,137,18,F,NA,constant,heterogeneous,4,absent,0.7133469581604,1,horizontal,horizontal,1,2,red,4,NaN,NaN,NaN,NaN,NaN,NaN,NaN,NaN,NaN,NaN,NaN,NaN,NaN,3,6,0,4,horizontal,vertical,horizontal,horizontal
2b,8,100273,5,10,138,18,F,NA,constant,heterogeneous,4,absent,0.667746067047119,1,vertical,vertical,1,2,red,2,NaN,NaN,NaN,NaN,NaN,NaN,NaN,NaN,NaN,NaN,NaN,NaN,NaN,6,4,3,5,vertical,vertical,vertical,vertical
2b,8,100273,5,11,139,18,F,NA,constant,heterogeneous,4,present,0.797371864318848,1,horizontal,horizontal,1,3,red,2,1,NaN,NaN,NaN,NaN,NaN,NaN,NaN,NaN,NaN,NaN,NaN,NaN,5,4,0,3,vertical,horizontal,vertical,vertical
2b,8,100273,5,12,140,18,F,NA,constant,heterogeneous,4,absent,1.86929512023926,1,vertical,vertical,1,2,red,1,NaN,NaN,NaN,NaN,NaN,NaN,NaN,NaN,NaN,NaN,NaN,NaN,NaN,4,0,6,3,vertical,horizontal,horizontal,vertical
2b,8,100273,5,13,141,18,F,NA,constant,heterogeneous,4,present,0.762975931167603,1,horizontal,horizontal,1,2,red,2,4,NaN,NaN,NaN,NaN,NaN,NaN,NaN,NaN,NaN,NaN,NaN,NaN,0,4,5,3,vertical,horizontal,horizontal,horizontal
2b,8,100273,5,14,142,18,F,NA,constant,heterogeneous,4,present,0.582316160202026,1,vertical,vertical,1,2,red,1,2,NaN,NaN,NaN,NaN,NaN,NaN,NaN,NaN,NaN,NaN,NaN,NaN,4,0,3,5,vertical,vertical,horizontal,vertical
2b,8,100273,5,15,143,18,F,NA,constant,heterogeneous,4,absent,0.546382904052734,0,vertical,horizontal,1,8,red,3,NaN,NaN,NaN,NaN,NaN,NaN,NaN,NaN,NaN,NaN,NaN,NaN,NaN,5,3,4,6,vertical,horizontal,vertical,vertical
2b,8,100273,5,16,144,18,F,NA,constant,heterogeneous,4,present,0.633848905563354,1,vertical,vertical,1,8,red,3,4,NaN,NaN,NaN,NaN,NaN,NaN,NaN,NaN,NaN,NaN,NaN,NaN,0,3,4,6,vertical,vertical,vertical,horizontal
2b,8,100273,5,17,145,18,F,NA,constant,heterogeneous,4,absent,0.810627937316895,1,horizontal,horizontal,1,5,red,3,NaN,NaN,NaN,NaN,NaN,NaN,NaN,NaN,NaN,NaN,NaN,NaN,NaN,6,0,4,3,horizontal,horizontal,horizontal,horizontal
2b,8,100273,5,18,146,18,F,NA,constant,heterogeneous,4,present,0.699179172515869,0,horizontal,vertical,1,8,red,4,3,NaN,NaN,NaN,NaN,NaN,NaN,NaN,NaN,NaN,NaN,NaN,NaN,5,0,6,4,vertical,vertical,horizontal,horizontal
2b,8,100273,5,19,147,18,F,NA,constant,heterogeneous,4,present,1.15342903137207,1,vertical,vertical,1,5,red,1,2,NaN,NaN,NaN,NaN,NaN,NaN,NaN,NaN,NaN,NaN,NaN,NaN,4,6,5,0,vertical,vertical,horizontal,vertical
2b,8,100273,5,20,148,18,F,NA,constant,heterogeneous,4,absent,0.948667049407959,1,horizontal,horizontal,1,2,red,1,NaN,NaN,NaN,NaN,NaN,NaN,NaN,NaN,NaN,NaN,NaN,NaN,NaN,4,5,0,3,horizontal,vertical,horizontal,horizontal
2b,8,100273,5,21,149,18,F,NA,constant,heterogeneous,4,present,1.29197812080383,1,horizontal,horizontal,1,5,red,2,3,NaN,NaN,NaN,NaN,NaN,NaN,NaN,NaN,NaN,NaN,NaN,NaN,5,4,3,6,vertical,horizontal,horizontal,vertical
2b,8,100273,5,22,150,18,F,NA,constant,heterogeneous,4,present,0.973956108093262,1,vertical,vertical,1,5,red,1,3,NaN,NaN,NaN,NaN,NaN,NaN,NaN,NaN,NaN,NaN,NaN,NaN,4,3,6,5,vertical,horizontal,horizontal,vertical
2b,8,100273,5,23,151,18,F,NA,constant,heterogeneous,4,absent,1.24552297592163,1,horizontal,horizontal,1,8,red,2,NaN,NaN,NaN,NaN,NaN,NaN,NaN,NaN,NaN,NaN,NaN,NaN,NaN,6,4,3,5,vertical,horizontal,vertical,horizontal
2b,8,100273,5,24,152,18,F,NA,constant,heterogeneous,4,present,0.80281400680542,1,horizontal,horizontal,1,2,red,1,2,NaN,NaN,NaN,NaN,NaN,NaN,NaN,NaN,NaN,NaN,NaN,NaN,4,0,6,5,horizontal,vertical,vertical,horizontal
2b,8,100273,5,25,153,18,F,NA,constant,heterogeneous,4,present,0.574987888336182,1,horizontal,horizontal,1,3,red,2,1,NaN,NaN,NaN,NaN,NaN,NaN,NaN,NaN,NaN,NaN,NaN,NaN,5,4,3,0,horizontal,horizontal,horizontal,vertical
2b,8,100273,5,26,154,18,F,NA,constant,heterogeneous,4,absent,0.618940114974976,1,vertical,vertical,1,3,red,3,NaN,NaN,NaN,NaN,NaN,NaN,NaN,NaN,NaN,NaN,NaN,NaN,NaN,3,0,4,5,vertical,vertical,vertical,vertical
2b,8,100273,5,27,155,18,F,NA,constant,heterogeneous,4,present,0.979554891586304,1,vertical,vertical,1,2,red,1,2,NaN,NaN,NaN,NaN,NaN,NaN,NaN,NaN,NaN,NaN,NaN,NaN,4,3,5,6,vertical,vertical,vertical,horizontal
2b,8,100273,5,28,156,18,F,NA,constant,heterogeneous,4,absent,1.28731894493103,1,vertical,vertical,1,2,red,4,NaN,NaN,NaN,NaN,NaN,NaN,NaN,NaN,NaN,NaN,NaN,NaN,NaN,5,0,3,4,vertical,vertical,horizontal,vertical
2b,8,100273,5,29,157,18,F,NA,constant,heterogeneous,4,present,0.857085943222046,1,vertical,vertical,1,3,red,2,3,NaN,NaN,NaN,NaN,NaN,NaN,NaN,NaN,NaN,NaN,NaN,NaN,6,4,0,3,horizontal,vertical,vertical,vertical
2b,8,100273,5,30,158,18,F,NA,constant,heterogeneous,4,absent,0.798542022705078,1,vertical,vertical,1,3,red,1,NaN,NaN,NaN,NaN,NaN,NaN,NaN,NaN,NaN,NaN,NaN,NaN,NaN,4,5,3,0,vertical,horizontal,horizontal,vertical
2b,8,100273,5,31,159,18,F,NA,constant,heterogeneous,4,absent,0.706739902496338,1,vertical,vertical,1,5,red,3,NaN,NaN,NaN,NaN,NaN,NaN,NaN,NaN,NaN,NaN,NaN,NaN,NaN,5,6,4,0,vertical,vertical,vertical,horizontal
2b,8,100273,5,32,160,18,F,NA,constant,heterogeneous,4,absent,0.925445079803467,1,vertical,vertical,1,5,red,4,NaN,NaN,NaN,NaN,NaN,NaN,NaN,NaN,NaN,NaN,NaN,NaN,NaN,3,0,5,4,vertical,horizontal,vertical,vertical
2b,8,100273,6,1,161,18,F,NA,constant,heterogeneous,4,absent,0.884871006011963,1,horizontal,horizontal,1,8,red,4,NaN,NaN,NaN,NaN,NaN,NaN,NaN,NaN,NaN,NaN,NaN,NaN,NaN,0,5,6,4,horizontal,horizontal,vertical,horizontal
2b,8,100273,6,2,162,18,F,NA,constant,heterogeneous,4,absent,0.782891035079956,1,horizontal,horizontal,1,5,red,2,NaN,NaN,NaN,NaN,NaN,NaN,NaN,NaN,NaN,NaN,NaN,NaN,NaN,0,4,3,6,horizontal,horizontal,horizontal,vertical
2b,8,100273,6,3,163,18,F,NA,constant,heterogeneous,4,absent,0.762850046157837,0,vertical,horizontal,1,3,red,2,NaN,NaN,NaN,NaN,NaN,NaN,NaN,NaN,NaN,NaN,NaN,NaN,NaN,3,4,0,5,vertical,vertical,vertical,vertical
2b,8,100273,6,4,164,18,F,NA,constant,heterogeneous,4,present,0.773944139480591,0,horizontal,vertical,1,2,red,3,1,NaN,NaN,NaN,NaN,NaN,NaN,NaN,NaN,NaN,NaN,NaN,NaN,5,6,4,0,horizontal,horizontal,horizontal,horizontal
2b,8,100273,6,5,165,18,F,NA,constant,heterogeneous,4,present,0.997761011123657,1,horizontal,horizontal,1,3,red,2,1,NaN,NaN,NaN,NaN,NaN,NaN,NaN,NaN,NaN,NaN,NaN,NaN,6,4,0,5,horizontal,horizontal,vertical,horizontal
2b,8,100273,6,6,166,18,F,NA,constant,heterogeneous,4,present,0.653619050979614,1,vertical,vertical,1,5,red,4,1,NaN,NaN,NaN,NaN,NaN,NaN,NaN,NaN,NaN,NaN,NaN,NaN,3,0,5,4,vertical,horizontal,vertical,vertical
2b,8,100273,6,7,167,18,F,NA,constant,heterogeneous,4,absent,1.12287497520447,1,vertical,vertical,1,2,red,3,NaN,NaN,NaN,NaN,NaN,NaN,NaN,NaN,NaN,NaN,NaN,NaN,NaN,5,3,4,6,vertical,horizontal,vertical,horizontal
2b,8,100273,6,8,168,18,F,NA,constant,heterogeneous,4,absent,0.801407098770142,1,vertical,vertical,1,5,red,4,NaN,NaN,NaN,NaN,NaN,NaN,NaN,NaN,NaN,NaN,NaN,NaN,NaN,0,6,5,4,vertical,horizontal,vertical,vertical
2b,8,100273,6,9,169,18,F,NA,constant,heterogeneous,4,present,1.02196311950684,1,horizontal,horizontal,1,5,red,3,4,NaN,NaN,NaN,NaN,NaN,NaN,NaN,NaN,NaN,NaN,NaN,NaN,3,0,4,6,horizontal,horizontal,horizontal,vertical
2b,8,100273,6,10,170,18,F,NA,constant,heterogeneous,4,present,1.14241909980774,1,horizontal,horizontal,1,2,red,1,4,NaN,NaN,NaN,NaN,NaN,NaN,NaN,NaN,NaN,NaN,NaN,NaN,4,5,6,3,horizontal,horizontal,vertical,horizontal
2b,8,100273,6,11,171,18,F,NA,constant,heterogeneous,4,present,0.845473051071167,1,vertical,vertical,1,2,red,2,3,NaN,NaN,NaN,NaN,NaN,NaN,NaN,NaN,NaN,NaN,NaN,NaN,3,4,0,5,horizontal,vertical,horizontal,vertical
2b,8,100273,6,12,172,18,F,NA,constant,heterogeneous,4,absent,1.02253794670105,1,horizontal,horizontal,1,2,red,1,NaN,NaN,NaN,NaN,NaN,NaN,NaN,NaN,NaN,NaN,NaN,NaN,NaN,4,3,0,6,horizontal,vertical,horizontal,vertical
2b,8,100273,6,13,173,18,F,NA,constant,heterogeneous,4,absent,1.38734006881714,1,vertical,vertical,1,8,red,4,NaN,NaN,NaN,NaN,NaN,NaN,NaN,NaN,NaN,NaN,NaN,NaN,NaN,0,5,3,4,horizontal,vertical,horizontal,vertical
2b,8,100273,6,14,174,18,F,NA,constant,heterogeneous,4,absent,0.939453125,1,horizontal,horizontal,1,5,red,3,NaN,NaN,NaN,NaN,NaN,NaN,NaN,NaN,NaN,NaN,NaN,NaN,NaN,6,0,4,5,horizontal,vertical,horizontal,horizontal
2b,8,100273,6,15,175,18,F,NA,constant,heterogeneous,4,absent,1.16643786430359,1,vertical,vertical,1,5,red,4,NaN,NaN,NaN,NaN,NaN,NaN,NaN,NaN,NaN,NaN,NaN,NaN,NaN,0,5,3,4,horizontal,horizontal,vertical,vertical
2b,8,100273,6,16,176,18,F,NA,constant,heterogeneous,4,present,0.718162775039673,1,vertical,vertical,1,2,red,4,3,NaN,NaN,NaN,NaN,NaN,NaN,NaN,NaN,NaN,NaN,NaN,NaN,3,5,6,4,vertical,vertical,horizontal,vertical
2b,8,100273,6,17,177,18,F,NA,constant,heterogeneous,4,present,0.740873098373413,1,horizontal,horizontal,1,8,red,1,2,NaN,NaN,NaN,NaN,NaN,NaN,NaN,NaN,NaN,NaN,NaN,NaN,4,3,0,6,horizontal,vertical,horizontal,horizontal
2b,8,100273,6,18,178,18,F,NA,constant,heterogeneous,4,absent,0.891960859298706,1,vertical,vertical,1,2,red,3,NaN,NaN,NaN,NaN,NaN,NaN,NaN,NaN,NaN,NaN,NaN,NaN,NaN,3,5,4,6,horizontal,horizontal,vertical,horizontal
2b,8,100273,6,19,179,18,F,NA,constant,heterogeneous,4,absent,1.18986988067627,1,horizontal,horizontal,1,3,red,3,NaN,NaN,NaN,NaN,NaN,NaN,NaN,NaN,NaN,NaN,NaN,NaN,NaN,0,6,4,5,vertical,horizontal,horizontal,vertical
2b,8,100273,6,20,180,18,F,NA,constant,heterogeneous,4,present,0.854079008102417,1,vertical,vertical,1,8,red,4,3,NaN,NaN,NaN,NaN,NaN,NaN,NaN,NaN,NaN,NaN,NaN,NaN,0,5,3,4,vertical,vertical,horizontal,vertical
2b,8,100273,6,21,181,18,F,NA,constant,heterogeneous,4,absent,0.939125061035156,1,vertical,vertical,1,2,red,2,NaN,NaN,NaN,NaN,NaN,NaN,NaN,NaN,NaN,NaN,NaN,NaN,NaN,3,4,5,6,horizontal,vertical,vertical,vertical
2b,8,100273,6,22,182,18,F,NA,constant,heterogeneous,4,present,1.29416179656982,1,vertical,vertical,1,3,red,1,4,NaN,NaN,NaN,NaN,NaN,NaN,NaN,NaN,NaN,NaN,NaN,NaN,4,3,0,6,vertical,horizontal,horizontal,horizontal
2b,8,100273,6,23,183,18,F,NA,constant,heterogeneous,4,absent,0.9164719581604,1,horizontal,horizontal,1,2,red,4,NaN,NaN,NaN,NaN,NaN,NaN,NaN,NaN,NaN,NaN,NaN,NaN,NaN,5,3,6,4,vertical,vertical,vertical,horizontal
2b,8,100273,6,24,184,18,F,NA,constant,heterogeneous,4,present,0.738951921463013,1,horizontal,horizontal,1,5,red,3,4,NaN,NaN,NaN,NaN,NaN,NaN,NaN,NaN,NaN,NaN,NaN,NaN,6,5,4,3,vertical,horizontal,horizontal,horizontal
2b,8,100273,6,25,185,18,F,NA,constant,heterogeneous,4,present,0.910151958465576,1,horizontal,horizontal,1,3,red,3,1,NaN,NaN,NaN,NaN,NaN,NaN,NaN,NaN,NaN,NaN,NaN,NaN,6,3,4,0,horizontal,horizontal,horizontal,horizontal
2b,8,100273,6,26,186,18,F,NA,constant,heterogeneous,4,present,0.67232608795166,1,vertical,vertical,1,5,red,3,1,NaN,NaN,NaN,NaN,NaN,NaN,NaN,NaN,NaN,NaN,NaN,NaN,0,6,4,3,horizontal,vertical,vertical,horizontal
2b,8,100273,6,27,187,18,F,NA,constant,heterogeneous,4,present,0.75019097328186,1,horizontal,horizontal,1,2,red,3,1,NaN,NaN,NaN,NaN,NaN,NaN,NaN,NaN,NaN,NaN,NaN,NaN,5,6,4,3,horizontal,vertical,horizontal,vertical
2b,8,100273,6,28,188,18,F,NA,constant,heterogeneous,4,absent,0.885231018066406,1,vertical,vertical,1,3,red,2,NaN,NaN,NaN,NaN,NaN,NaN,NaN,NaN,NaN,NaN,NaN,NaN,NaN,3,4,0,5,vertical,vertical,horizontal,vertical
2b,8,100273,6,29,189,18,F,NA,constant,heterogeneous,4,absent,0.871178865432739,1,horizontal,horizontal,1,3,red,3,NaN,NaN,NaN,NaN,NaN,NaN,NaN,NaN,NaN,NaN,NaN,NaN,NaN,6,3,4,5,horizontal,vertical,horizontal,vertical
2b,8,100273,6,30,190,18,F,NA,constant,heterogeneous,4,present,0.940807819366455,1,vertical,vertical,1,3,red,4,1,NaN,NaN,NaN,NaN,NaN,NaN,NaN,NaN,NaN,NaN,NaN,NaN,0,6,5,4,vertical,horizontal,vertical,vertical
2b,8,100273,6,31,191,18,F,NA,constant,heterogeneous,4,absent,0.79596209526062,1,horizontal,horizontal,1,2,red,4,NaN,NaN,NaN,NaN,NaN,NaN,NaN,NaN,NaN,NaN,NaN,NaN,NaN,3,6,5,4,horizontal,horizontal,horizontal,horizontal
2b,8,100273,6,32,192,18,F,NA,constant,heterogeneous,4,present,0.748060941696167,1,vertical,vertical,1,2,red,4,2,NaN,NaN,NaN,NaN,NaN,NaN,NaN,NaN,NaN,NaN,NaN,NaN,6,3,0,4,vertical,horizontal,vertical,vertical
2b,8,100273,7,1,193,18,F,NA,constant,heterogeneous,4,absent,0.773916959762573,1,vertical,vertical,1,2,red,4,NaN,NaN,NaN,NaN,NaN,NaN,NaN,NaN,NaN,NaN,NaN,NaN,NaN,5,3,6,4,vertical,horizontal,horizontal,vertical
2b,8,100273,7,2,194,18,F,NA,constant,heterogeneous,4,absent,0.877531051635742,1,vertical,vertical,1,3,red,4,NaN,NaN,NaN,NaN,NaN,NaN,NaN,NaN,NaN,NaN,NaN,NaN,NaN,5,6,3,4,horizontal,vertical,vertical,vertical
2b,8,100273,7,3,195,18,F,NA,constant,heterogeneous,4,present,0.899354934692383,1,vertical,vertical,1,3,red,1,4,NaN,NaN,NaN,NaN,NaN,NaN,NaN,NaN,NaN,NaN,NaN,NaN,4,6,0,5,vertical,horizontal,horizontal,horizontal
2b,8,100273,7,4,196,18,F,NA,constant,heterogeneous,4,present,0.569575071334839,1,vertical,vertical,1,2,red,4,3,NaN,NaN,NaN,NaN,NaN,NaN,NaN,NaN,NaN,NaN,NaN,NaN,3,6,0,4,horizontal,horizontal,horizontal,vertical
2b,8,100273,7,5,197,18,F,NA,constant,heterogeneous,4,absent,0.657217979431152,1,horizontal,horizontal,1,8,red,3,NaN,NaN,NaN,NaN,NaN,NaN,NaN,NaN,NaN,NaN,NaN,NaN,NaN,6,5,4,0,vertical,horizontal,horizontal,horizontal
2b,8,100273,7,6,198,18,F,NA,constant,heterogeneous,4,absent,0.662458896636963,1,vertical,vertical,1,2,red,4,NaN,NaN,NaN,NaN,NaN,NaN,NaN,NaN,NaN,NaN,NaN,NaN,NaN,5,6,0,4,horizontal,vertical,horizontal,vertical
2b,8,100273,7,7,199,18,F,NA,constant,heterogeneous,4,absent,0.688039064407349,1,vertical,vertical,1,8,red,3,NaN,NaN,NaN,NaN,NaN,NaN,NaN,NaN,NaN,NaN,NaN,NaN,NaN,0,3,4,6,vertical,vertical,vertical,horizontal
2b,8,100273,7,8,200,18,F,NA,constant,heterogeneous,4,present,0.67399787902832,1,horizontal,horizontal,1,2,red,2,3,NaN,NaN,NaN,NaN,NaN,NaN,NaN,NaN,NaN,NaN,NaN,NaN,3,4,0,6,vertical,horizontal,horizontal,horizontal
2b,8,100273,7,9,201,18,F,NA,constant,heterogeneous,4,present,0.743736982345581,1,vertical,vertical,1,8,red,4,2,NaN,NaN,NaN,NaN,NaN,NaN,NaN,NaN,NaN,NaN,NaN,NaN,3,6,0,4,vertical,horizontal,horizontal,vertical
2b,8,100273,7,10,202,18,F,NA,constant,heterogeneous,4,absent,0.734936952590942,1,vertical,vertical,1,5,red,4,NaN,NaN,NaN,NaN,NaN,NaN,NaN,NaN,NaN,NaN,NaN,NaN,NaN,5,6,0,4,horizontal,horizontal,horizontal,vertical
2b,8,100273,7,11,203,18,F,NA,constant,heterogeneous,4,absent,0.754034996032715,1,vertical,vertical,1,5,red,3,NaN,NaN,NaN,NaN,NaN,NaN,NaN,NaN,NaN,NaN,NaN,NaN,NaN,3,5,4,0,horizontal,vertical,vertical,horizontal
2b,8,100273,7,12,204,18,F,NA,constant,heterogeneous,4,absent,0.789218902587891,1,horizontal,horizontal,1,2,red,3,NaN,NaN,NaN,NaN,NaN,NaN,NaN,NaN,NaN,NaN,NaN,NaN,NaN,6,3,4,0,horizontal,horizontal,horizontal,horizontal
2b,8,100273,7,13,205,18,F,NA,constant,heterogeneous,4,absent,1.23737812042236,1,horizontal,horizontal,1,5,red,4,NaN,NaN,NaN,NaN,NaN,NaN,NaN,NaN,NaN,NaN,NaN,NaN,NaN,3,6,5,4,vertical,vertical,vertical,horizontal
2b,8,100273,7,14,206,18,F,NA,constant,heterogeneous,4,absent,0.782407999038696,1,horizontal,horizontal,1,5,red,2,NaN,NaN,NaN,NaN,NaN,NaN,NaN,NaN,NaN,NaN,NaN,NaN,NaN,6,4,0,5,horizontal,horizontal,horizontal,vertical
2b,8,100273,7,15,207,18,F,NA,constant,heterogeneous,4,present,1.15428400039673,1,vertical,vertical,1,5,red,1,3,NaN,NaN,NaN,NaN,NaN,NaN,NaN,NaN,NaN,NaN,NaN,NaN,4,5,0,3,vertical,horizontal,horizontal,vertical
2b,8,100273,7,16,208,18,F,NA,constant,heterogeneous,4,present,0.797554969787598,1,vertical,vertical,1,2,red,3,4,NaN,NaN,NaN,NaN,NaN,NaN,NaN,NaN,NaN,NaN,NaN,NaN,0,5,4,3,horizontal,vertical,vertical,horizontal
2b,8,100273,7,17,209,18,F,NA,constant,heterogeneous,4,present,0.669641017913818,1,horizontal,horizontal,1,5,red,2,4,NaN,NaN,NaN,NaN,NaN,NaN,NaN,NaN,NaN,NaN,NaN,NaN,6,4,5,3,vertical,horizontal,horizontal,vertical
2b,8,100273,7,18,210,18,F,NA,constant,heterogeneous,4,present,0.595387935638428,1,vertical,vertical,1,3,red,3,2,NaN,NaN,NaN,NaN,NaN,NaN,NaN,NaN,NaN,NaN,NaN,NaN,6,5,4,0,horizontal,horizontal,vertical,vertical
2b,8,100273,7,19,211,18,F,NA,constant,heterogeneous,4,absent,0.931426048278809,0,vertical,horizontal,1,2,red,4,NaN,NaN,NaN,NaN,NaN,NaN,NaN,NaN,NaN,NaN,NaN,NaN,NaN,5,3,6,4,horizontal,vertical,horizontal,vertical
2b,8,100273,7,20,212,18,F,NA,constant,heterogeneous,4,present,0.886217832565308,1,vertical,vertical,1,2,red,1,4,NaN,NaN,NaN,NaN,NaN,NaN,NaN,NaN,NaN,NaN,NaN,NaN,4,6,3,5,vertical,horizontal,horizontal,vertical
2b,8,100273,7,21,213,18,F,NA,constant,heterogeneous,4,present,0.816251993179321,1,horizontal,horizontal,1,3,red,1,4,NaN,NaN,NaN,NaN,NaN,NaN,NaN,NaN,NaN,NaN,NaN,NaN,4,6,3,5,horizontal,horizontal,vertical,horizontal
2b,8,100273,7,22,214,18,F,NA,constant,heterogeneous,4,present,0.544715881347656,1,vertical,vertical,1,5,red,3,1,NaN,NaN,NaN,NaN,NaN,NaN,NaN,NaN,NaN,NaN,NaN,NaN,3,6,4,0,vertical,horizontal,vertical,horizontal
2b,8,100273,7,23,215,18,F,NA,constant,heterogeneous,4,present,0.656085014343262,1,horizontal,horizontal,1,3,red,3,2,NaN,NaN,NaN,NaN,NaN,NaN,NaN,NaN,NaN,NaN,NaN,NaN,5,6,4,0,horizontal,vertical,horizontal,vertical
2b,8,100273,7,24,216,18,F,NA,constant,heterogeneous,4,absent,0.685221195220947,1,horizontal,horizontal,1,3,red,4,NaN,NaN,NaN,NaN,NaN,NaN,NaN,NaN,NaN,NaN,NaN,NaN,NaN,6,5,3,4,vertical,horizontal,horizontal,horizontal
2b,8,100273,7,25,217,18,F,NA,constant,heterogeneous,4,absent,1.27940988540649,0,horizontal,vertical,1,2,red,3,NaN,NaN,NaN,NaN,NaN,NaN,NaN,NaN,NaN,NaN,NaN,NaN,NaN,0,3,4,6,vertical,horizontal,horizontal,horizontal
2b,8,100273,7,26,218,18,F,NA,constant,heterogeneous,4,absent,1.38113117218018,1,horizontal,horizontal,1,3,red,3,NaN,NaN,NaN,NaN,NaN,NaN,NaN,NaN,NaN,NaN,NaN,NaN,NaN,6,5,4,3,vertical,vertical,horizontal,horizontal
2b,8,100273,7,27,219,18,F,NA,constant,heterogeneous,4,present,0.656519889831543,1,horizontal,horizontal,1,2,red,3,1,NaN,NaN,NaN,NaN,NaN,NaN,NaN,NaN,NaN,NaN,NaN,NaN,0,3,4,6,horizontal,horizontal,horizontal,horizontal
2b,8,100273,7,28,220,18,F,NA,constant,heterogeneous,4,present,0.998066902160645,1,horizontal,horizontal,1,5,red,1,4,NaN,NaN,NaN,NaN,NaN,NaN,NaN,NaN,NaN,NaN,NaN,NaN,4,3,6,0,horizontal,vertical,horizontal,vertical
2b,8,100273,7,29,221,18,F,NA,constant,heterogeneous,4,absent,0.846023082733154,1,vertical,vertical,1,3,red,4,NaN,NaN,NaN,NaN,NaN,NaN,NaN,NaN,NaN,NaN,NaN,NaN,NaN,6,0,3,4,vertical,horizontal,vertical,vertical
2b,8,100273,7,30,222,18,F,NA,constant,heterogeneous,4,present,0.779284000396729,1,horizontal,horizontal,1,8,red,3,4,NaN,NaN,NaN,NaN,NaN,NaN,NaN,NaN,NaN,NaN,NaN,NaN,3,6,4,5,vertical,vertical,horizontal,horizontal
2b,8,100273,7,31,223,18,F,NA,constant,heterogeneous,4,present,0.623188018798828,1,horizontal,horizontal,1,2,red,1,3,NaN,NaN,NaN,NaN,NaN,NaN,NaN,NaN,NaN,NaN,NaN,NaN,4,6,3,5,horizontal,horizontal,horizontal,vertical
2b,8,100273,7,32,224,18,F,NA,constant,heterogeneous,4,absent,1.12385201454163,1,horizontal,horizontal,1,2,red,4,NaN,NaN,NaN,NaN,NaN,NaN,NaN,NaN,NaN,NaN,NaN,NaN,NaN,6,5,3,4,vertical,vertical,vertical,horizontal
2b,8,100273,8,1,225,18,F,NA,constant,heterogeneous,4,present,1.09323501586914,1,vertical,vertical,1,8,red,2,3,NaN,NaN,NaN,NaN,NaN,NaN,NaN,NaN,NaN,NaN,NaN,NaN,6,4,5,0,vertical,vertical,horizontal,vertical
2b,8,100273,8,2,226,18,F,NA,constant,heterogeneous,4,absent,0.651466846466064,1,vertical,vertical,1,5,red,3,NaN,NaN,NaN,NaN,NaN,NaN,NaN,NaN,NaN,NaN,NaN,NaN,NaN,6,0,4,5,horizontal,horizontal,vertical,horizontal
2b,8,100273,8,3,227,18,F,NA,constant,heterogeneous,4,absent,0.648741960525513,1,vertical,vertical,1,3,red,1,NaN,NaN,NaN,NaN,NaN,NaN,NaN,NaN,NaN,NaN,NaN,NaN,NaN,4,5,3,0,vertical,horizontal,vertical,vertical
2b,8,100273,8,4,228,18,F,NA,constant,heterogeneous,4,absent,1.11784815788269,1,horizontal,horizontal,1,3,red,1,NaN,NaN,NaN,NaN,NaN,NaN,NaN,NaN,NaN,NaN,NaN,NaN,NaN,4,6,3,5,horizontal,vertical,horizontal,vertical
2b,8,100273,8,5,229,18,F,NA,constant,heterogeneous,4,present,0.676492929458618,1,horizontal,horizontal,1,3,red,1,4,NaN,NaN,NaN,NaN,NaN,NaN,NaN,NaN,NaN,NaN,NaN,NaN,4,6,3,5,horizontal,vertical,vertical,vertical
2b,8,100273,8,6,230,18,F,NA,constant,heterogeneous,4,present,0.586419105529785,0,vertical,horizontal,1,5,red,1,3,NaN,NaN,NaN,NaN,NaN,NaN,NaN,NaN,NaN,NaN,NaN,NaN,4,3,6,5,vertical,horizontal,horizontal,vertical
2b,8,100273,8,7,231,18,F,NA,constant,heterogeneous,4,present,0.72602105140686,1,horizontal,horizontal,1,2,red,1,2,NaN,NaN,NaN,NaN,NaN,NaN,NaN,NaN,NaN,NaN,NaN,NaN,4,6,0,5,horizontal,horizontal,horizontal,horizontal
2b,8,100273,8,8,232,18,F,NA,constant,heterogeneous,4,absent,0.548910140991211,1,vertical,vertical,1,3,red,3,NaN,NaN,NaN,NaN,NaN,NaN,NaN,NaN,NaN,NaN,NaN,NaN,NaN,5,0,4,6,vertical,vertical,vertical,horizontal
2b,8,100273,8,9,233,18,F,NA,constant,heterogeneous,4,present,0.667947053909302,1,horizontal,horizontal,1,5,red,2,1,NaN,NaN,NaN,NaN,NaN,NaN,NaN,NaN,NaN,NaN,NaN,NaN,0,4,3,6,vertical,horizontal,vertical,horizontal
2b,8,100273,8,10,234,18,F,NA,constant,heterogeneous,4,present,0.949488162994385,1,horizontal,horizontal,1,3,red,2,3,NaN,NaN,NaN,NaN,NaN,NaN,NaN,NaN,NaN,NaN,NaN,NaN,5,4,6,3,vertical,horizontal,vertical,horizontal
2b,8,100273,8,11,235,18,F,NA,constant,heterogeneous,4,absent,0.676599025726318,1,horizontal,horizontal,1,5,red,3,NaN,NaN,NaN,NaN,NaN,NaN,NaN,NaN,NaN,NaN,NaN,NaN,NaN,6,3,4,0,horizontal,horizontal,horizontal,horizontal
2b,8,100273,8,12,236,18,F,NA,constant,heterogeneous,4,present,0.76238489151001,1,vertical,vertical,1,5,red,1,4,NaN,NaN,NaN,NaN,NaN,NaN,NaN,NaN,NaN,NaN,NaN,NaN,4,0,3,5,vertical,vertical,horizontal,horizontal
2b,8,100273,8,13,237,18,F,NA,constant,heterogeneous,4,absent,1.14160299301147,1,vertical,vertical,1,2,red,4,NaN,NaN,NaN,NaN,NaN,NaN,NaN,NaN,NaN,NaN,NaN,NaN,NaN,6,5,3,4,vertical,horizontal,vertical,vertical
2b,8,100273,8,14,238,18,F,NA,constant,heterogeneous,4,absent,0.588912963867188,1,vertical,vertical,1,5,red,4,NaN,NaN,NaN,NaN,NaN,NaN,NaN,NaN,NaN,NaN,NaN,NaN,NaN,5,0,6,4,vertical,horizontal,horizontal,vertical
2b,8,100273,8,15,239,18,F,NA,constant,heterogeneous,4,present,0.756852865219116,1,horizontal,horizontal,1,2,red,2,1,NaN,NaN,NaN,NaN,NaN,NaN,NaN,NaN,NaN,NaN,NaN,NaN,0,4,5,6,horizontal,horizontal,vertical,vertical
2b,8,100273,8,16,240,18,F,NA,constant,heterogeneous,4,absent,1.07246208190918,1,vertical,vertical,1,8,red,2,NaN,NaN,NaN,NaN,NaN,NaN,NaN,NaN,NaN,NaN,NaN,NaN,NaN,5,4,6,0,horizontal,vertical,horizontal,vertical
2b,8,100273,8,17,241,18,F,NA,constant,heterogeneous,4,absent,0.870191097259521,1,horizontal,horizontal,1,2,red,2,NaN,NaN,NaN,NaN,NaN,NaN,NaN,NaN,NaN,NaN,NaN,NaN,NaN,5,4,0,6,horizontal,horizontal,vertical,horizontal
2b,8,100273,8,18,242,18,F,NA,constant,heterogeneous,4,present,0.843784093856812,1,vertical,vertical,1,3,red,2,3,NaN,NaN,NaN,NaN,NaN,NaN,NaN,NaN,NaN,NaN,NaN,NaN,6,4,0,3,vertical,vertical,vertical,horizontal
2b,8,100273,8,19,243,18,F,NA,constant,heterogeneous,4,absent,0.973028182983398,1,horizontal,horizontal,1,8,red,2,NaN,NaN,NaN,NaN,NaN,NaN,NaN,NaN,NaN,NaN,NaN,NaN,NaN,5,4,0,6,vertical,horizontal,horizontal,vertical
2b,8,100273,8,20,244,18,F,NA,constant,heterogeneous,4,present,0.732436895370483,1,vertical,vertical,1,3,red,3,2,NaN,NaN,NaN,NaN,NaN,NaN,NaN,NaN,NaN,NaN,NaN,NaN,5,3,4,0,vertical,vertical,vertical,horizontal
2b,8,100273,8,21,245,18,F,NA,constant,heterogeneous,4,absent,0.727389097213745,1,vertical,vertical,1,2,red,1,NaN,NaN,NaN,NaN,NaN,NaN,NaN,NaN,NaN,NaN,NaN,NaN,NaN,4,6,0,5,vertical,vertical,horizontal,vertical
2b,8,100273,8,22,246,18,F,NA,constant,heterogeneous,4,present,0.63025689125061,1,vertical,vertical,1,2,red,3,4,NaN,NaN,NaN,NaN,NaN,NaN,NaN,NaN,NaN,NaN,NaN,NaN,6,0,4,5,vertical,horizontal,vertical,vertical
2b,8,100273,8,23,247,18,F,NA,constant,heterogeneous,4,absent,0.86677098274231,1,horizontal,horizontal,1,3,red,3,NaN,NaN,NaN,NaN,NaN,NaN,NaN,NaN,NaN,NaN,NaN,NaN,NaN,3,5,4,6,vertical,vertical,horizontal,vertical
2b,8,100273,8,24,248,18,F,NA,constant,heterogeneous,4,present,0.972184181213379,1,vertical,vertical,1,2,red,3,2,NaN,NaN,NaN,NaN,NaN,NaN,NaN,NaN,NaN,NaN,NaN,NaN,3,5,4,0,horizontal,horizontal,vertical,vertical
2b,8,100273,8,25,249,18,F,NA,constant,heterogeneous,4,absent,0.979753017425537,1,vertical,vertical,1,2,red,1,NaN,NaN,NaN,NaN,NaN,NaN,NaN,NaN,NaN,NaN,NaN,NaN,NaN,4,6,3,0,vertical,horizontal,horizontal,horizontal
2b,8,100273,8,26,250,18,F,NA,constant,heterogeneous,4,absent,1.27970314025879,1,horizontal,horizontal,1,5,red,4,NaN,NaN,NaN,NaN,NaN,NaN,NaN,NaN,NaN,NaN,NaN,NaN,NaN,3,6,5,4,horizontal,vertical,vertical,horizontal
2b,8,100273,8,27,251,18,F,NA,constant,heterogeneous,4,present,0.701418876647949,1,horizontal,horizontal,1,5,red,4,2,NaN,NaN,NaN,NaN,NaN,NaN,NaN,NaN,NaN,NaN,NaN,NaN,5,0,6,4,vertical,horizontal,horizontal,horizontal
2b,8,100273,8,28,252,18,F,NA,constant,heterogeneous,4,absent,0.891685009002686,1,horizontal,horizontal,1,2,red,2,NaN,NaN,NaN,NaN,NaN,NaN,NaN,NaN,NaN,NaN,NaN,NaN,NaN,0,4,6,5,vertical,horizontal,horizontal,vertical
2b,8,100273,8,29,253,18,F,NA,constant,heterogeneous,4,absent,1.11755514144897,1,horizontal,horizontal,1,2,red,2,NaN,NaN,NaN,NaN,NaN,NaN,NaN,NaN,NaN,NaN,NaN,NaN,NaN,3,4,5,6,vertical,horizontal,horizontal,horizontal
2b,8,100273,8,30,254,18,F,NA,constant,heterogeneous,4,present,0.764214992523193,1,horizontal,horizontal,1,2,red,2,3,NaN,NaN,NaN,NaN,NaN,NaN,NaN,NaN,NaN,NaN,NaN,NaN,5,4,6,0,horizontal,horizontal,horizontal,horizontal
2b,8,100273,8,31,255,18,F,NA,constant,heterogeneous,4,present,0.771760940551758,1,vertical,vertical,1,2,red,2,3,NaN,NaN,NaN,NaN,NaN,NaN,NaN,NaN,NaN,NaN,NaN,NaN,0,4,3,6,vertical,vertical,vertical,vertical
2b,8,100273,8,32,256,18,F,NA,constant,heterogeneous,4,present,1.12353086471558,1,horizontal,horizontal,1,8,red,1,4,NaN,NaN,NaN,NaN,NaN,NaN,NaN,NaN,NaN,NaN,NaN,NaN,4,0,5,6,horizontal,horizontal,vertical,horizontal
2b,8,100273,9,1,257,18,F,NA,constant,heterogeneous,4,absent,0.677912950515747,1,vertical,vertical,1,8,red,1,NaN,NaN,NaN,NaN,NaN,NaN,NaN,NaN,NaN,NaN,NaN,NaN,NaN,4,5,3,6,vertical,vertical,horizontal,horizontal
2b,8,100273,9,2,258,18,F,NA,constant,heterogeneous,4,absent,0.579414844512939,1,vertical,vertical,1,2,red,1,NaN,NaN,NaN,NaN,NaN,NaN,NaN,NaN,NaN,NaN,NaN,NaN,NaN,4,3,6,0,vertical,vertical,horizontal,horizontal
2b,8,100273,9,3,259,18,F,NA,constant,heterogeneous,4,absent,0.703332185745239,1,horizontal,horizontal,1,2,red,1,NaN,NaN,NaN,NaN,NaN,NaN,NaN,NaN,NaN,NaN,NaN,NaN,NaN,4,0,3,6,horizontal,vertical,vertical,horizontal
2b,8,100273,9,4,260,18,F,NA,constant,heterogeneous,4,absent,0.717302083969116,1,horizontal,horizontal,1,5,red,4,NaN,NaN,NaN,NaN,NaN,NaN,NaN,NaN,NaN,NaN,NaN,NaN,NaN,6,3,5,4,vertical,horizontal,horizontal,horizontal
2b,8,100273,9,5,261,18,F,NA,constant,heterogeneous,4,absent,1.18819093704224,1,horizontal,horizontal,1,2,red,3,NaN,NaN,NaN,NaN,NaN,NaN,NaN,NaN,NaN,NaN,NaN,NaN,NaN,0,5,4,3,vertical,horizontal,horizontal,vertical
2b,8,100273,9,6,262,18,F,NA,constant,heterogeneous,4,absent,0.676208019256592,1,horizontal,horizontal,1,5,red,1,NaN,NaN,NaN,NaN,NaN,NaN,NaN,NaN,NaN,NaN,NaN,NaN,NaN,4,0,3,6,horizontal,vertical,vertical,vertical
2b,8,100273,9,7,263,18,F,NA,constant,heterogeneous,4,absent,0.681903123855591,1,vertical,vertical,1,3,red,2,NaN,NaN,NaN,NaN,NaN,NaN,NaN,NaN,NaN,NaN,NaN,NaN,NaN,0,4,3,5,vertical,vertical,horizontal,vertical
2b,8,100273,9,8,264,18,F,NA,constant,heterogeneous,4,absent,0.619892835617065,1,vertical,vertical,1,5,red,1,NaN,NaN,NaN,NaN,NaN,NaN,NaN,NaN,NaN,NaN,NaN,NaN,NaN,4,5,0,6,vertical,horizontal,vertical,vertical
2b,8,100273,9,9,265,18,F,NA,constant,heterogeneous,4,present,0.812527894973755,1,horizontal,horizontal,1,8,red,4,1,NaN,NaN,NaN,NaN,NaN,NaN,NaN,NaN,NaN,NaN,NaN,NaN,3,6,5,4,horizontal,horizontal,horizontal,horizontal
2b,8,100273,9,10,266,18,F,NA,constant,heterogeneous,4,present,0.733067989349365,1,vertical,vertical,1,2,red,1,2,NaN,NaN,NaN,NaN,NaN,NaN,NaN,NaN,NaN,NaN,NaN,NaN,4,5,0,6,vertical,horizontal,vertical,vertical
2b,8,100273,9,11,267,18,F,NA,constant,heterogeneous,4,absent,0.727910995483398,1,horizontal,horizontal,1,3,red,3,NaN,NaN,NaN,NaN,NaN,NaN,NaN,NaN,NaN,NaN,NaN,NaN,NaN,6,0,4,5,horizontal,vertical,horizontal,vertical
2b,8,100273,9,12,268,18,F,NA,constant,heterogeneous,4,present,0.734775066375732,1,horizontal,horizontal,1,5,red,1,4,NaN,NaN,NaN,NaN,NaN,NaN,NaN,NaN,NaN,NaN,NaN,NaN,4,3,0,5,horizontal,horizontal,horizontal,vertical
2b,8,100273,9,13,269,18,F,NA,constant,heterogeneous,4,present,0.761581182479858,1,vertical,vertical,1,5,red,3,2,NaN,NaN,NaN,NaN,NaN,NaN,NaN,NaN,NaN,NaN,NaN,NaN,6,0,4,3,horizontal,vertical,vertical,horizontal
2b,8,100273,9,14,270,18,F,NA,constant,heterogeneous,4,absent,0.925047874450684,1,horizontal,horizontal,1,8,red,3,NaN,NaN,NaN,NaN,NaN,NaN,NaN,NaN,NaN,NaN,NaN,NaN,NaN,0,3,4,6,vertical,vertical,horizontal,vertical
2b,8,100273,9,15,271,18,F,NA,constant,heterogeneous,4,present,0.955511093139648,1,horizontal,horizontal,1,3,red,3,1,NaN,NaN,NaN,NaN,NaN,NaN,NaN,NaN,NaN,NaN,NaN,NaN,6,5,4,0,horizontal,horizontal,horizontal,vertical
2b,8,100273,9,16,272,18,F,NA,constant,heterogeneous,4,absent,1.30311012268066,1,vertical,vertical,1,5,red,4,NaN,NaN,NaN,NaN,NaN,NaN,NaN,NaN,NaN,NaN,NaN,NaN,NaN,0,5,3,4,horizontal,horizontal,vertical,vertical
2b,8,100273,9,17,273,18,F,NA,constant,heterogeneous,4,present,0.861296892166138,1,horizontal,horizontal,1,2,red,1,3,NaN,NaN,NaN,NaN,NaN,NaN,NaN,NaN,NaN,NaN,NaN,NaN,4,0,3,5,horizontal,horizontal,horizontal,horizontal
2b,8,100273,9,18,274,18,F,NA,constant,heterogeneous,4,present,0.734753131866455,1,vertical,vertical,1,2,red,2,4,NaN,NaN,NaN,NaN,NaN,NaN,NaN,NaN,NaN,NaN,NaN,NaN,5,4,3,6,vertical,vertical,vertical,horizontal
2b,8,100273,9,19,275,18,F,NA,constant,heterogeneous,4,present,0.665436983108521,1,horizontal,horizontal,1,2,red,2,4,NaN,NaN,NaN,NaN,NaN,NaN,NaN,NaN,NaN,NaN,NaN,NaN,5,4,3,0,vertical,horizontal,horizontal,vertical
2b,8,100273,9,20,276,18,F,NA,constant,heterogeneous,4,absent,0.683035850524902,1,horizontal,horizontal,1,2,red,2,NaN,NaN,NaN,NaN,NaN,NaN,NaN,NaN,NaN,NaN,NaN,NaN,NaN,6,4,5,0,horizontal,horizontal,vertical,horizontal
2b,8,100273,9,21,277,18,F,NA,constant,heterogeneous,4,present,0.716954946517944,1,vertical,vertical,1,5,red,2,1,NaN,NaN,NaN,NaN,NaN,NaN,NaN,NaN,NaN,NaN,NaN,NaN,0,4,5,6,horizontal,vertical,horizontal,horizontal
2b,8,100273,9,22,278,18,F,NA,constant,heterogeneous,4,present,0.627696990966797,1,vertical,vertical,1,2,red,3,4,NaN,NaN,NaN,NaN,NaN,NaN,NaN,NaN,NaN,NaN,NaN,NaN,6,0,4,5,vertical,vertical,vertical,vertical
2b,8,100273,9,23,279,18,F,NA,constant,heterogeneous,4,present,0.752502918243408,1,vertical,vertical,1,8,red,4,2,NaN,NaN,NaN,NaN,NaN,NaN,NaN,NaN,NaN,NaN,NaN,NaN,5,0,6,4,vertical,vertical,horizontal,vertical
2b,8,100273,9,24,280,18,F,NA,constant,heterogeneous,4,present,0.724236965179443,1,horizontal,horizontal,1,5,red,1,4,NaN,NaN,NaN,NaN,NaN,NaN,NaN,NaN,NaN,NaN,NaN,NaN,4,3,6,0,horizontal,vertical,horizontal,vertical
2b,8,100273,9,25,281,18,F,NA,constant,heterogeneous,4,absent,0.626619100570679,1,vertical,vertical,1,2,red,3,NaN,NaN,NaN,NaN,NaN,NaN,NaN,NaN,NaN,NaN,NaN,NaN,NaN,3,6,4,0,vertical,horizontal,vertical,horizontal
2b,8,100273,9,26,282,18,F,NA,constant,heterogeneous,4,absent,0.719681024551392,1,vertical,vertical,1,3,red,4,NaN,NaN,NaN,NaN,NaN,NaN,NaN,NaN,NaN,NaN,NaN,NaN,NaN,3,0,5,4,horizontal,horizontal,horizontal,vertical
2b,8,100273,9,27,283,18,F,NA,constant,heterogeneous,4,present,0.97383189201355,1,horizontal,horizontal,1,3,red,3,1,NaN,NaN,NaN,NaN,NaN,NaN,NaN,NaN,NaN,NaN,NaN,NaN,5,0,4,3,horizontal,vertical,horizontal,vertical
2b,8,100273,9,28,284,18,F,NA,constant,heterogeneous,4,present,0.773470163345337,1,vertical,vertical,1,3,red,3,1,NaN,NaN,NaN,NaN,NaN,NaN,NaN,NaN,NaN,NaN,NaN,NaN,3,0,4,5,horizontal,vertical,vertical,horizontal
2b,8,100273,9,29,285,18,F,NA,constant,heterogeneous,4,present,0.789269924163818,1,vertical,vertical,1,3,red,4,1,NaN,NaN,NaN,NaN,NaN,NaN,NaN,NaN,NaN,NaN,NaN,NaN,3,6,0,4,horizontal,horizontal,vertical,vertical
2b,8,100273,9,30,286,18,F,NA,constant,heterogeneous,4,absent,0.789281129837036,1,vertical,vertical,1,2,red,4,NaN,NaN,NaN,NaN,NaN,NaN,NaN,NaN,NaN,NaN,NaN,NaN,NaN,5,0,6,4,vertical,horizontal,vertical,vertical
2b,8,100273,9,31,287,18,F,NA,constant,heterogeneous,4,present,0.813275098800659,1,horizontal,horizontal,1,2,red,4,3,NaN,NaN,NaN,NaN,NaN,NaN,NaN,NaN,NaN,NaN,NaN,NaN,0,5,6,4,vertical,horizontal,horizontal,horizontal
2b,8,100273,9,32,288,18,F,NA,constant,heterogeneous,4,absent,0.838054180145264,1,horizontal,horizontal,1,3,red,1,NaN,NaN,NaN,NaN,NaN,NaN,NaN,NaN,NaN,NaN,NaN,NaN,NaN,4,3,5,6,horizontal,horizontal,vertical,vertical
2b,8,100273,10,1,289,18,F,NA,constant,heterogeneous,4,present,0.634414911270142,1,vertical,vertical,1,2,red,1,4,NaN,NaN,NaN,NaN,NaN,NaN,NaN,NaN,NaN,NaN,NaN,NaN,4,3,5,0,vertical,horizontal,horizontal,horizontal
2b,8,100273,10,2,290,18,F,NA,constant,heterogeneous,4,absent,0.899718999862671,1,horizontal,horizontal,1,8,red,4,NaN,NaN,NaN,NaN,NaN,NaN,NaN,NaN,NaN,NaN,NaN,NaN,NaN,5,0,3,4,horizontal,horizontal,horizontal,horizontal
2b,8,100273,10,3,291,18,F,NA,constant,heterogeneous,4,absent,0.985619068145752,1,horizontal,horizontal,1,2,red,2,NaN,NaN,NaN,NaN,NaN,NaN,NaN,NaN,NaN,NaN,NaN,NaN,NaN,6,4,0,5,horizontal,horizontal,horizontal,vertical
2b,8,100273,10,4,292,18,F,NA,constant,heterogeneous,4,absent,0.677451848983765,1,vertical,vertical,1,2,red,4,NaN,NaN,NaN,NaN,NaN,NaN,NaN,NaN,NaN,NaN,NaN,NaN,NaN,3,5,6,4,vertical,horizontal,horizontal,vertical
2b,8,100273,10,5,293,18,F,NA,constant,heterogeneous,4,present,0.627074003219604,1,vertical,vertical,1,2,red,1,4,NaN,NaN,NaN,NaN,NaN,NaN,NaN,NaN,NaN,NaN,NaN,NaN,4,5,0,3,vertical,vertical,vertical,horizontal
2b,8,100273,10,6,294,18,F,NA,constant,heterogeneous,4,present,0.743849992752075,1,horizontal,horizontal,1,5,red,4,2,NaN,NaN,NaN,NaN,NaN,NaN,NaN,NaN,NaN,NaN,NaN,NaN,3,6,5,4,horizontal,vertical,horizontal,horizontal
2b,8,100273,10,7,295,18,F,NA,constant,heterogeneous,4,absent,0.631302118301392,1,vertical,vertical,1,8,red,2,NaN,NaN,NaN,NaN,NaN,NaN,NaN,NaN,NaN,NaN,NaN,NaN,NaN,0,4,3,6,horizontal,vertical,horizontal,vertical
2b,8,100273,10,8,296,18,F,NA,constant,heterogeneous,4,absent,1.11597204208374,1,horizontal,horizontal,1,2,red,4,NaN,NaN,NaN,NaN,NaN,NaN,NaN,NaN,NaN,NaN,NaN,NaN,NaN,0,6,5,4,vertical,horizontal,vertical,horizontal
2b,8,100273,10,9,297,18,F,NA,constant,heterogeneous,4,present,0.958294868469238,1,horizontal,horizontal,1,3,red,3,2,NaN,NaN,NaN,NaN,NaN,NaN,NaN,NaN,NaN,NaN,NaN,NaN,6,0,4,3,horizontal,horizontal,horizontal,horizontal
2b,8,100273,10,10,298,18,F,NA,constant,heterogeneous,4,present,0.545984983444214,0,horizontal,vertical,1,8,red,1,3,NaN,NaN,NaN,NaN,NaN,NaN,NaN,NaN,NaN,NaN,NaN,NaN,4,6,3,0,horizontal,horizontal,horizontal,vertical
2b,8,100273,10,11,299,18,F,NA,constant,heterogeneous,4,present,0.640892028808594,1,vertical,vertical,1,3,red,1,2,NaN,NaN,NaN,NaN,NaN,NaN,NaN,NaN,NaN,NaN,NaN,NaN,4,6,3,0,vertical,horizontal,vertical,vertical
2b,8,100273,10,12,300,18,F,NA,constant,heterogeneous,4,present,0.881941080093384,1,vertical,vertical,1,5,red,4,2,NaN,NaN,NaN,NaN,NaN,NaN,NaN,NaN,NaN,NaN,NaN,NaN,6,0,3,4,horizontal,horizontal,vertical,vertical
2b,8,100273,10,13,301,18,F,NA,constant,heterogeneous,4,absent,0.820061922073364,1,horizontal,horizontal,1,5,red,4,NaN,NaN,NaN,NaN,NaN,NaN,NaN,NaN,NaN,NaN,NaN,NaN,NaN,0,3,6,4,horizontal,vertical,horizontal,horizontal
2b,8,100273,10,14,302,18,F,NA,constant,heterogeneous,4,present,0.74838399887085,1,vertical,vertical,1,3,red,4,3,NaN,NaN,NaN,NaN,NaN,NaN,NaN,NaN,NaN,NaN,NaN,NaN,6,5,3,4,vertical,horizontal,horizontal,vertical
2b,8,100273,10,15,303,18,F,NA,constant,heterogeneous,4,absent,0.963666915893555,1,horizontal,horizontal,1,5,red,3,NaN,NaN,NaN,NaN,NaN,NaN,NaN,NaN,NaN,NaN,NaN,NaN,NaN,3,5,4,0,horizontal,horizontal,horizontal,horizontal
2b,8,100273,10,16,304,18,F,NA,constant,heterogeneous,4,absent,0.747359037399292,1,vertical,vertical,1,2,red,3,NaN,NaN,NaN,NaN,NaN,NaN,NaN,NaN,NaN,NaN,NaN,NaN,NaN,0,3,4,6,vertical,horizontal,vertical,vertical
2b,8,100273,10,17,305,18,F,NA,constant,heterogeneous,4,present,1.00226402282715,1,horizontal,horizontal,1,2,red,2,4,NaN,NaN,NaN,NaN,NaN,NaN,NaN,NaN,NaN,NaN,NaN,NaN,6,4,0,5,vertical,horizontal,horizontal,horizontal
2b,8,100273,10,18,306,18,F,NA,constant,heterogeneous,4,present,1.02263998985291,1,horizontal,horizontal,1,3,red,3,2,NaN,NaN,NaN,NaN,NaN,NaN,NaN,NaN,NaN,NaN,NaN,NaN,6,5,4,3,horizontal,vertical,horizontal,horizontal
2b,8,100273,10,19,307,18,F,NA,constant,heterogeneous,4,absent,1.40332818031311,1,horizontal,horizontal,1,2,red,4,NaN,NaN,NaN,NaN,NaN,NaN,NaN,NaN,NaN,NaN,NaN,NaN,NaN,6,5,0,4,horizontal,vertical,horizontal,horizontal
2b,8,100273,10,20,308,18,F,NA,constant,heterogeneous,4,absent,0.96756386756897,1,horizontal,horizontal,1,3,red,3,NaN,NaN,NaN,NaN,NaN,NaN,NaN,NaN,NaN,NaN,NaN,NaN,NaN,3,0,4,5,vertical,horizontal,horizontal,horizontal
2b,8,100273,10,21,309,18,F,NA,constant,heterogeneous,4,present,1.0394811630249,1,horizontal,horizontal,1,2,red,4,1,NaN,NaN,NaN,NaN,NaN,NaN,NaN,NaN,NaN,NaN,NaN,NaN,6,0,3,4,horizontal,vertical,vertical,horizontal
2b,8,100273,10,22,310,18,F,NA,constant,heterogeneous,4,absent,0.792297840118408,1,vertical,vertical,1,2,red,4,NaN,NaN,NaN,NaN,NaN,NaN,NaN,NaN,NaN,NaN,NaN,NaN,NaN,6,3,0,4,horizontal,vertical,horizontal,vertical
2b,8,100273,10,23,311,18,F,NA,constant,heterogeneous,4,present,0.752470970153809,1,vertical,vertical,1,8,red,4,3,NaN,NaN,NaN,NaN,NaN,NaN,NaN,NaN,NaN,NaN,NaN,NaN,6,3,5,4,horizontal,vertical,horizontal,vertical
2b,8,100273,10,24,312,18,F,NA,constant,heterogeneous,4,present,1.17975091934204,1,horizontal,horizontal,1,5,red,3,2,NaN,NaN,NaN,NaN,NaN,NaN,NaN,NaN,NaN,NaN,NaN,NaN,3,6,4,0,horizontal,horizontal,horizontal,horizontal
2b,8,100273,10,25,313,18,F,NA,constant,heterogeneous,4,absent,1.11169409751892,1,vertical,vertical,1,5,red,2,NaN,NaN,NaN,NaN,NaN,NaN,NaN,NaN,NaN,NaN,NaN,NaN,NaN,6,4,0,3,horizontal,vertical,vertical,vertical
2b,8,100273,10,26,314,18,F,NA,constant,heterogeneous,4,absent,0.738156080245972,1,vertical,vertical,1,5,red,2,NaN,NaN,NaN,NaN,NaN,NaN,NaN,NaN,NaN,NaN,NaN,NaN,NaN,0,4,3,6,vertical,vertical,horizontal,vertical
2b,8,100273,10,27,315,18,F,NA,constant,heterogeneous,4,present,0.604985952377319,1,vertical,vertical,1,5,red,2,1,NaN,NaN,NaN,NaN,NaN,NaN,NaN,NaN,NaN,NaN,NaN,NaN,3,4,5,0,vertical,vertical,vertical,vertical
2b,8,100273,10,28,316,18,F,NA,constant,heterogeneous,4,absent,0.713539838790894,1,vertical,vertical,1,3,red,3,NaN,NaN,NaN,NaN,NaN,NaN,NaN,NaN,NaN,NaN,NaN,NaN,NaN,6,3,4,5,horizontal,vertical,vertical,vertical
2b,8,100273,10,29,317,18,F,NA,constant,heterogeneous,4,present,0.547831773757935,1,vertical,vertical,1,2,red,2,4,NaN,NaN,NaN,NaN,NaN,NaN,NaN,NaN,NaN,NaN,NaN,NaN,0,4,5,3,horizontal,vertical,vertical,vertical
2b,8,100273,10,30,318,18,F,NA,constant,heterogeneous,4,absent,0.730830907821655,1,horizontal,horizontal,1,3,red,3,NaN,NaN,NaN,NaN,NaN,NaN,NaN,NaN,NaN,NaN,NaN,NaN,NaN,3,5,4,0,vertical,vertical,horizontal,vertical
2b,8,100273,10,31,319,18,F,NA,constant,heterogeneous,4,absent,0.965649127960205,1,vertical,vertical,1,3,red,3,NaN,NaN,NaN,NaN,NaN,NaN,NaN,NaN,NaN,NaN,NaN,NaN,NaN,0,3,4,5,vertical,vertical,vertical,horizontal
2b,8,100273,10,32,320,18,F,NA,constant,heterogeneous,4,present,0.717587947845459,0,horizontal,vertical,1,2,red,3,1,NaN,NaN,NaN,NaN,NaN,NaN,NaN,NaN,NaN,NaN,NaN,NaN,6,5,4,3,horizontal,vertical,horizontal,vertical
2b,8,100273,11,1,321,18,F,NA,constant,homogeneous,4,absent,0.732510089874268,1,horizontal,horizontal,1,3,red,3,NaN,619.68777079743,419.68777079743,NaN,NaN,980.31222920257,780.31222920257,980.31222920257,419.68777079743,619.68777079743,419.68777079743,619.68777079743,780.31222920257,0,0,4,0,horizontal,vertical,horizontal,horizontal
2b,8,100273,11,2,322,18,F,NA,constant,homogeneous,4,absent,0.703136205673218,1,vertical,vertical,1,5,red,1,NaN,980.31222920257,780.31222920257,NaN,NaN,980.31222920257,780.31222920257,980.31222920257,419.68777079743,619.68777079743,419.68777079743,619.68777079743,780.31222920257,4,0,0,0,vertical,horizontal,horizontal,horizontal
2b,8,100273,11,3,323,18,F,NA,constant,homogeneous,4,present,0.997326850891113,1,horizontal,horizontal,1,2,red,2,3,980.31222920257,419.68777079743,619.68777079743,419.68777079743,980.31222920257,780.31222920257,980.31222920257,419.68777079743,619.68777079743,419.68777079743,619.68777079743,780.31222920257,0,4,0,0,vertical,horizontal,horizontal,horizontal
2b,8,100273,11,4,324,18,F,NA,constant,homogeneous,4,present,0.589282035827637,1,vertical,vertical,1,2,red,3,1,619.68777079743,419.68777079743,980.31222920257,780.31222920257,980.31222920257,780.31222920257,980.31222920257,419.68777079743,619.68777079743,419.68777079743,619.68777079743,780.31222920257,0,0,4,0,vertical,horizontal,vertical,vertical
2b,8,100273,11,5,325,18,F,NA,constant,homogeneous,4,absent,0.693340063095093,1,horizontal,horizontal,1,5,red,1,NaN,980.31222920257,780.31222920257,NaN,NaN,980.31222920257,780.31222920257,980.31222920257,419.68777079743,619.68777079743,419.68777079743,619.68777079743,780.31222920257,4,0,0,0,horizontal,vertical,horizontal,vertical
2b,8,100273,11,6,326,18,F,NA,constant,homogeneous,4,present,0.627455949783325,1,vertical,vertical,1,2,red,2,1,980.31222920257,419.68777079743,980.31222920257,780.31222920257,980.31222920257,780.31222920257,980.31222920257,419.68777079743,619.68777079743,419.68777079743,619.68777079743,780.31222920257,0,4,0,0,vertical,vertical,horizontal,vertical
2b,8,100273,11,7,327,18,F,NA,constant,homogeneous,4,absent,0.848299980163574,1,horizontal,horizontal,1,5,red,4,NaN,619.68777079743,780.31222920257,NaN,NaN,980.31222920257,780.31222920257,980.31222920257,419.68777079743,619.68777079743,419.68777079743,619.68777079743,780.31222920257,0,0,0,4,vertical,horizontal,vertical,horizontal
2b,8,100273,11,8,328,18,F,NA,constant,homogeneous,4,present,0.79775595664978,1,horizontal,horizontal,1,3,red,2,1,980.31222920257,419.68777079743,980.31222920257,780.31222920257,980.31222920257,780.31222920257,980.31222920257,419.68777079743,619.68777079743,419.68777079743,619.68777079743,780.31222920257,0,4,0,0,vertical,horizontal,vertical,horizontal
2b,8,100273,11,9,329,18,F,NA,constant,homogeneous,4,absent,0.893630981445312,1,vertical,vertical,1,3,red,1,NaN,980.31222920257,780.31222920257,NaN,NaN,980.31222920257,780.31222920257,980.31222920257,419.68777079743,619.68777079743,419.68777079743,619.68777079743,780.31222920257,4,0,0,0,vertical,vertical,vertical,horizontal
2b,8,100273,11,10,330,18,F,NA,constant,homogeneous,4,present,0.859750032424927,1,vertical,vertical,1,5,red,2,4,980.31222920257,419.68777079743,619.68777079743,780.31222920257,980.31222920257,780.31222920257,980.31222920257,419.68777079743,619.68777079743,419.68777079743,619.68777079743,780.31222920257,0,4,0,0,horizontal,vertical,horizontal,horizontal
2b,8,100273,11,11,331,18,F,NA,constant,homogeneous,4,present,0.837317943572998,1,vertical,vertical,1,2,red,1,2,980.31222920257,780.31222920257,980.31222920257,419.68777079743,980.31222920257,780.31222920257,980.31222920257,419.68777079743,619.68777079743,419.68777079743,619.68777079743,780.31222920257,4,0,0,0,vertical,horizontal,horizontal,horizontal
2b,8,100273,11,12,332,18,F,NA,constant,homogeneous,4,present,0.710346937179565,1,horizontal,horizontal,1,8,red,1,2,980.31222920257,780.31222920257,980.31222920257,419.68777079743,980.31222920257,780.31222920257,980.31222920257,419.68777079743,619.68777079743,419.68777079743,619.68777079743,780.31222920257,4,0,0,0,horizontal,vertical,horizontal,horizontal
2b,8,100273,11,13,333,18,F,NA,constant,homogeneous,4,absent,0.752739906311035,1,horizontal,horizontal,1,2,red,3,NaN,619.68777079743,419.68777079743,NaN,NaN,980.31222920257,780.31222920257,980.31222920257,419.68777079743,619.68777079743,419.68777079743,619.68777079743,780.31222920257,0,0,4,0,vertical,vertical,horizontal,vertical
2b,8,100273,11,14,334,18,F,NA,constant,homogeneous,4,present,0.700425148010254,1,horizontal,horizontal,1,3,red,1,4,980.31222920257,780.31222920257,619.68777079743,780.31222920257,980.31222920257,780.31222920257,980.31222920257,419.68777079743,619.68777079743,419.68777079743,619.68777079743,780.31222920257,4,0,0,0,horizontal,horizontal,vertical,horizontal
2b,8,100273,11,15,335,18,F,NA,constant,homogeneous,4,absent,0.722477912902832,1,horizontal,horizontal,1,3,red,4,NaN,619.68777079743,780.31222920257,NaN,NaN,980.31222920257,780.31222920257,980.31222920257,419.68777079743,619.68777079743,419.68777079743,619.68777079743,780.31222920257,0,0,0,4,vertical,horizontal,horizontal,horizontal
2b,8,100273,11,16,336,18,F,NA,constant,homogeneous,4,absent,0.681049108505249,1,vertical,vertical,1,5,red,4,NaN,619.68777079743,780.31222920257,NaN,NaN,980.31222920257,780.31222920257,980.31222920257,419.68777079743,619.68777079743,419.68777079743,619.68777079743,780.31222920257,0,0,0,4,vertical,horizontal,vertical,vertical
2b,8,100273,11,17,337,18,F,NA,constant,homogeneous,4,absent,0.642940044403076,1,vertical,vertical,1,8,red,1,NaN,980.31222920257,780.31222920257,NaN,NaN,980.31222920257,780.31222920257,980.31222920257,419.68777079743,619.68777079743,419.68777079743,619.68777079743,780.31222920257,4,0,0,0,vertical,vertical,vertical,vertical
2b,8,100273,11,18,338,18,F,NA,constant,homogeneous,4,absent,0.700063943862915,1,vertical,vertical,1,2,red,4,NaN,619.68777079743,780.31222920257,NaN,NaN,980.31222920257,780.31222920257,980.31222920257,419.68777079743,619.68777079743,419.68777079743,619.68777079743,780.31222920257,0,0,0,4,vertical,horizontal,horizontal,vertical
2b,8,100273,11,19,339,18,F,NA,constant,homogeneous,4,absent,0.786539793014526,1,horizontal,horizontal,1,8,red,2,NaN,980.31222920257,419.68777079743,NaN,NaN,980.31222920257,780.31222920257,980.31222920257,419.68777079743,619.68777079743,419.68777079743,619.68777079743,780.31222920257,0,4,0,0,vertical,horizontal,horizontal,vertical
2b,8,100273,11,20,340,18,F,NA,constant,homogeneous,4,present,0.750481128692627,1,horizontal,horizontal,1,2,red,2,4,980.31222920257,419.68777079743,619.68777079743,780.31222920257,980.31222920257,780.31222920257,980.31222920257,419.68777079743,619.68777079743,419.68777079743,619.68777079743,780.31222920257,0,4,0,0,vertical,horizontal,horizontal,horizontal
2b,8,100273,11,21,341,18,F,NA,constant,homogeneous,4,present,0.701568126678467,1,horizontal,horizontal,1,5,red,1,3,980.31222920257,780.31222920257,619.68777079743,419.68777079743,980.31222920257,780.31222920257,980.31222920257,419.68777079743,619.68777079743,419.68777079743,619.68777079743,780.31222920257,4,0,0,0,horizontal,horizontal,horizontal,horizontal
2b,8,100273,11,22,342,18,F,NA,constant,homogeneous,4,present,0.619522094726562,1,vertical,vertical,1,3,red,3,4,619.68777079743,419.68777079743,619.68777079743,780.31222920257,980.31222920257,780.31222920257,980.31222920257,419.68777079743,619.68777079743,419.68777079743,619.68777079743,780.31222920257,0,0,4,0,horizontal,horizontal,vertical,vertical
2b,8,100273,11,23,343,18,F,NA,constant,homogeneous,4,present,0.548028945922852,1,vertical,vertical,1,3,red,3,1,619.68777079743,419.68777079743,980.31222920257,780.31222920257,980.31222920257,780.31222920257,980.31222920257,419.68777079743,619.68777079743,419.68777079743,619.68777079743,780.31222920257,0,0,4,0,horizontal,vertical,vertical,vertical
2b,8,100273,11,24,344,18,F,NA,constant,homogeneous,4,absent,0.595417976379395,1,vertical,vertical,1,3,red,2,NaN,980.31222920257,419.68777079743,NaN,NaN,980.31222920257,780.31222920257,980.31222920257,419.68777079743,619.68777079743,419.68777079743,619.68777079743,780.31222920257,0,4,0,0,vertical,vertical,horizontal,vertical
2b,8,100273,11,25,345,18,F,NA,constant,homogeneous,4,absent,0.8352370262146,1,horizontal,horizontal,1,2,red,1,NaN,980.31222920257,780.31222920257,NaN,NaN,980.31222920257,780.31222920257,980.31222920257,419.68777079743,619.68777079743,419.68777079743,619.68777079743,780.31222920257,4,0,0,0,horizontal,vertical,horizontal,horizontal
2b,8,100273,11,26,346,18,F,NA,constant,homogeneous,4,present,0.636332035064697,1,vertical,vertical,1,8,red,3,4,619.68777079743,419.68777079743,619.68777079743,780.31222920257,980.31222920257,780.31222920257,980.31222920257,419.68777079743,619.68777079743,419.68777079743,619.68777079743,780.31222920257,0,0,4,0,horizontal,horizontal,vertical,vertical
2b,8,100273,11,27,347,18,F,NA,constant,homogeneous,4,absent,0.629374027252197,1,horizontal,horizontal,1,2,red,2,NaN,980.31222920257,419.68777079743,NaN,NaN,980.31222920257,780.31222920257,980.31222920257,419.68777079743,619.68777079743,419.68777079743,619.68777079743,780.31222920257,0,4,0,0,vertical,horizontal,vertical,horizontal
2b,8,100273,11,28,348,18,F,NA,constant,homogeneous,4,present,0.730159997940063,1,horizontal,horizontal,1,5,red,2,1,980.31222920257,419.68777079743,980.31222920257,780.31222920257,980.31222920257,780.31222920257,980.31222920257,419.68777079743,619.68777079743,419.68777079743,619.68777079743,780.31222920257,0,4,0,0,vertical,horizontal,horizontal,horizontal
2b,8,100273,11,29,349,18,F,NA,constant,homogeneous,4,absent,0.828918933868408,1,vertical,vertical,1,2,red,2,NaN,980.31222920257,419.68777079743,NaN,NaN,980.31222920257,780.31222920257,980.31222920257,419.68777079743,619.68777079743,419.68777079743,619.68777079743,780.31222920257,0,4,0,0,vertical,vertical,horizontal,horizontal
2b,8,100273,11,30,350,18,F,NA,constant,homogeneous,4,absent,0.697768211364746,1,vertical,vertical,1,2,red,4,NaN,619.68777079743,780.31222920257,NaN,NaN,980.31222920257,780.31222920257,980.31222920257,419.68777079743,619.68777079743,419.68777079743,619.68777079743,780.31222920257,0,0,0,4,horizontal,horizontal,horizontal,vertical
2b,8,100273,11,31,351,18,F,NA,constant,homogeneous,4,present,0.695888996124268,1,vertical,vertical,1,5,red,1,3,980.31222920257,780.31222920257,619.68777079743,419.68777079743,980.31222920257,780.31222920257,980.31222920257,419.68777079743,619.68777079743,419.68777079743,619.68777079743,780.31222920257,4,0,0,0,vertical,vertical,vertical,vertical
2b,8,100273,11,32,352,18,F,NA,constant,homogeneous,4,present,0.758187055587769,1,horizontal,horizontal,1,2,red,4,1,619.68777079743,780.31222920257,980.31222920257,780.31222920257,980.31222920257,780.31222920257,980.31222920257,419.68777079743,619.68777079743,419.68777079743,619.68777079743,780.31222920257,0,0,0,4,horizontal,vertical,vertical,horizontal
2b,8,100273,12,1,353,18,F,NA,constant,homogeneous,4,present,0.849448919296265,1,vertical,vertical,1,3,red,1,2,980.31222920257,780.31222920257,980.31222920257,419.68777079743,980.31222920257,780.31222920257,980.31222920257,419.68777079743,619.68777079743,419.68777079743,619.68777079743,780.31222920257,4,0,0,0,vertical,vertical,vertical,horizontal
2b,8,100273,12,2,354,18,F,NA,constant,homogeneous,4,present,0.686662912368774,1,horizontal,horizontal,1,2,red,4,3,619.68777079743,780.31222920257,619.68777079743,419.68777079743,980.31222920257,780.31222920257,980.31222920257,419.68777079743,619.68777079743,419.68777079743,619.68777079743,780.31222920257,0,0,0,4,vertical,horizontal,vertical,horizontal
2b,8,100273,12,3,355,18,F,NA,constant,homogeneous,4,present,0.984559059143066,1,vertical,vertical,1,2,red,1,2,980.31222920257,780.31222920257,980.31222920257,419.68777079743,980.31222920257,780.31222920257,980.31222920257,419.68777079743,619.68777079743,419.68777079743,619.68777079743,780.31222920257,4,0,0,0,vertical,horizontal,vertical,horizontal
2b,8,100273,12,4,356,18,F,NA,constant,homogeneous,4,present,0.620419025421143,1,vertical,vertical,1,5,red,1,2,980.31222920257,780.31222920257,980.31222920257,419.68777079743,980.31222920257,780.31222920257,980.31222920257,419.68777079743,619.68777079743,419.68777079743,619.68777079743,780.31222920257,4,0,0,0,vertical,vertical,horizontal,horizontal
2b,8,100273,12,5,357,18,F,NA,constant,homogeneous,4,absent,0.78117299079895,1,horizontal,horizontal,1,2,red,3,NaN,619.68777079743,419.68777079743,NaN,NaN,980.31222920257,780.31222920257,980.31222920257,419.68777079743,619.68777079743,419.68777079743,619.68777079743,780.31222920257,0,0,4,0,vertical,horizontal,horizontal,horizontal
2b,8,100273,12,6,358,18,F,NA,constant,homogeneous,4,absent,0.600636005401611,1,horizontal,horizontal,1,2,red,3,NaN,619.68777079743,419.68777079743,NaN,NaN,980.31222920257,780.31222920257,980.31222920257,419.68777079743,619.68777079743,419.68777079743,619.68777079743,780.31222920257,0,0,4,0,vertical,horizontal,horizontal,vertical
2b,8,100273,12,7,359,18,F,NA,constant,homogeneous,4,absent,0.533080816268921,1,vertical,vertical,1,5,red,1,NaN,980.31222920257,780.31222920257,NaN,NaN,980.31222920257,780.31222920257,980.31222920257,419.68777079743,619.68777079743,419.68777079743,619.68777079743,780.31222920257,4,0,0,0,vertical,vertical,horizontal,vertical
2b,8,100273,12,8,360,18,F,NA,constant,homogeneous,4,present,0.711981058120728,1,horizontal,horizontal,1,5,red,1,2,980.31222920257,780.31222920257,980.31222920257,419.68777079743,980.31222920257,780.31222920257,980.31222920257,419.68777079743,619.68777079743,419.68777079743,619.68777079743,780.31222920257,4,0,0,0,horizontal,horizontal,vertical,horizontal
2b,8,100273,12,9,361,18,F,NA,constant,homogeneous,4,absent,0.666847944259644,1,horizontal,horizontal,1,8,red,3,NaN,619.68777079743,419.68777079743,NaN,NaN,980.31222920257,780.31222920257,980.31222920257,419.68777079743,619.68777079743,419.68777079743,619.68777079743,780.31222920257,0,0,4,0,horizontal,horizontal,horizontal,vertical
2b,8,100273,12,10,362,18,F,NA,constant,homogeneous,4,present,0.540247917175293,1,vertical,vertical,1,5,red,4,3,619.68777079743,780.31222920257,619.68777079743,419.68777079743,980.31222920257,780.31222920257,980.31222920257,419.68777079743,619.68777079743,419.68777079743,619.68777079743,780.31222920257,0,0,0,4,horizontal,horizontal,horizontal,vertical
2b,8,100273,12,11,363,18,F,NA,constant,homogeneous,4,present,0.771301031112671,1,vertical,vertical,1,3,red,1,3,980.31222920257,780.31222920257,619.68777079743,419.68777079743,980.31222920257,780.31222920257,980.31222920257,419.68777079743,619.68777079743,419.68777079743,619.68777079743,780.31222920257,4,0,0,0,vertical,horizontal,horizontal,horizontal
2b,8,100273,12,12,364,18,F,NA,constant,homogeneous,4,absent,0.610867977142334,1,vertical,vertical,1,8,red,4,NaN,619.68777079743,780.31222920257,NaN,NaN,980.31222920257,780.31222920257,980.31222920257,419.68777079743,619.68777079743,419.68777079743,619.68777079743,780.31222920257,0,0,0,4,vertical,horizontal,horizontal,vertical
2b,8,100273,12,13,365,18,F,NA,constant,homogeneous,4,present,0.795529842376709,1,horizontal,horizontal,1,2,red,4,1,619.68777079743,780.31222920257,980.31222920257,780.31222920257,980.31222920257,780.31222920257,980.31222920257,419.68777079743,619.68777079743,419.68777079743,619.68777079743,780.31222920257,0,0,0,4,vertical,vertical,vertical,horizontal
2b,8,100273,12,14,366,18,F,NA,constant,homogeneous,4,present,0.547747850418091,1,vertical,vertical,1,8,red,1,2,980.31222920257,780.31222920257,980.31222920257,419.68777079743,980.31222920257,780.31222920257,980.31222920257,419.68777079743,619.68777079743,419.68777079743,619.68777079743,780.31222920257,4,0,0,0,vertical,horizontal,horizontal,vertical
2b,8,100273,12,15,367,18,F,NA,constant,homogeneous,4,absent,0.706724882125854,1,vertical,vertical,1,3,red,1,NaN,980.31222920257,780.31222920257,NaN,NaN,980.31222920257,780.31222920257,980.31222920257,419.68777079743,619.68777079743,419.68777079743,619.68777079743,780.31222920257,4,0,0,0,vertical,vertical,horizontal,horizontal
2b,8,100273,12,16,368,18,F,NA,constant,homogeneous,4,absent,0.693150043487549,1,vertical,vertical,1,5,red,2,NaN,980.31222920257,419.68777079743,NaN,NaN,980.31222920257,780.31222920257,980.31222920257,419.68777079743,619.68777079743,419.68777079743,619.68777079743,780.31222920257,0,4,0,0,vertical,vertical,vertical,horizontal
2b,8,100273,12,17,369,18,F,NA,constant,homogeneous,4,absent,0.651297807693481,1,vertical,vertical,1,2,red,2,NaN,980.31222920257,419.68777079743,NaN,NaN,980.31222920257,780.31222920257,980.31222920257,419.68777079743,619.68777079743,419.68777079743,619.68777079743,780.31222920257,0,4,0,0,horizontal,vertical,horizontal,vertical
2b,8,100273,12,18,370,18,F,NA,constant,homogeneous,4,absent,0.688559055328369,1,vertical,vertical,1,2,red,3,NaN,619.68777079743,419.68777079743,NaN,NaN,980.31222920257,780.31222920257,980.31222920257,419.68777079743,619.68777079743,419.68777079743,619.68777079743,780.31222920257,0,0,4,0,horizontal,horizontal,vertical,vertical
2b,8,100273,12,19,371,18,F,NA,constant,homogeneous,4,absent,0.674452066421509,1,horizontal,horizontal,1,3,red,3,NaN,619.68777079743,419.68777079743,NaN,NaN,980.31222920257,780.31222920257,980.31222920257,419.68777079743,619.68777079743,419.68777079743,619.68777079743,780.31222920257,0,0,4,0,horizontal,vertical,horizontal,vertical
2b,8,100273,12,20,372,18,F,NA,constant,homogeneous,4,present,0.856352090835571,1,horizontal,horizontal,1,3,red,4,1,619.68777079743,780.31222920257,980.31222920257,780.31222920257,980.31222920257,780.31222920257,980.31222920257,419.68777079743,619.68777079743,419.68777079743,619.68777079743,780.31222920257,0,0,0,4,vertical,horizontal,vertical,horizontal
2b,8,100273,12,21,373,18,F,NA,constant,homogeneous,4,present,0.693520069122314,1,horizontal,horizontal,1,5,red,4,2,619.68777079743,780.31222920257,980.31222920257,419.68777079743,980.31222920257,780.31222920257,980.31222920257,419.68777079743,619.68777079743,419.68777079743,619.68777079743,780.31222920257,0,0,0,4,vertical,vertical,horizontal,horizontal
2b,8,100273,12,22,374,18,F,NA,constant,homogeneous,4,absent,0.851563930511475,1,horizontal,horizontal,1,2,red,3,NaN,619.68777079743,419.68777079743,NaN,NaN,980.31222920257,780.31222920257,980.31222920257,419.68777079743,619.68777079743,419.68777079743,619.68777079743,780.31222920257,0,0,4,0,horizontal,vertical,horizontal,horizontal
2b,8,100273,12,23,375,18,F,NA,constant,homogeneous,4,absent,0.593114852905273,1,vertical,vertical,1,3,red,3,NaN,619.68777079743,419.68777079743,NaN,NaN,980.31222920257,780.31222920257,980.31222920257,419.68777079743,619.68777079743,419.68777079743,619.68777079743,780.31222920257,0,0,4,0,vertical,vertical,vertical,vertical
2b,8,100273,12,24,376,18,F,NA,constant,homogeneous,4,present,0.872822046279907,1,vertical,vertical,1,2,red,4,2,619.68777079743,780.31222920257,980.31222920257,419.68777079743,980.31222920257,780.31222920257,980.31222920257,419.68777079743,619.68777079743,419.68777079743,619.68777079743,780.31222920257,0,0,0,4,vertical,horizontal,vertical,vertical
2b,8,100273,12,25,377,18,F,NA,constant,homogeneous,4,absent,0.878536939620972,1,vertical,vertical,1,2,red,4,NaN,619.68777079743,780.31222920257,NaN,NaN,980.31222920257,780.31222920257,980.31222920257,419.68777079743,619.68777079743,419.68777079743,619.68777079743,780.31222920257,0,0,0,4,horizontal,vertical,horizontal,vertical
2b,8,100273,12,26,378,18,F,NA,constant,homogeneous,4,present,0.788363933563232,1,vertical,vertical,1,2,red,1,3,980.31222920257,780.31222920257,619.68777079743,419.68777079743,980.31222920257,780.31222920257,980.31222920257,419.68777079743,619.68777079743,419.68777079743,619.68777079743,780.31222920257,4,0,0,0,vertical,vertical,horizontal,vertical
2b,8,100273,12,27,379,18,F,NA,constant,homogeneous,4,absent,0.644299983978271,1,horizontal,horizontal,1,5,red,1,NaN,980.31222920257,780.31222920257,NaN,NaN,980.31222920257,780.31222920257,980.31222920257,419.68777079743,619.68777079743,419.68777079743,619.68777079743,780.31222920257,4,0,0,0,horizontal,horizontal,horizontal,horizontal
2b,8,100273,12,28,380,18,F,NA,constant,homogeneous,4,absent,0.597414970397949,1,horizontal,horizontal,1,3,red,1,NaN,980.31222920257,780.31222920257,NaN,NaN,980.31222920257,780.31222920257,980.31222920257,419.68777079743,619.68777079743,419.68777079743,619.68777079743,780.31222920257,4,0,0,0,horizontal,horizontal,vertical,vertical
2b,8,100273,12,29,381,18,F,NA,constant,homogeneous,4,present,1.02163696289062,1,horizontal,horizontal,1,8,red,2,4,980.31222920257,419.68777079743,619.68777079743,780.31222920257,980.31222920257,780.31222920257,980.31222920257,419.68777079743,619.68777079743,419.68777079743,619.68777079743,780.31222920257,0,4,0,0,vertical,horizontal,horizontal,vertical
2b,8,100273,12,30,382,18,F,NA,constant,homogeneous,4,absent,0.790056943893433,1,horizontal,horizontal,1,5,red,1,NaN,980.31222920257,780.31222920257,NaN,NaN,980.31222920257,780.31222920257,980.31222920257,419.68777079743,619.68777079743,419.68777079743,619.68777079743,780.31222920257,4,0,0,0,horizontal,horizontal,vertical,horizontal
2b,8,100273,12,31,383,18,F,NA,constant,homogeneous,4,present,0.926389932632446,1,horizontal,horizontal,1,3,red,1,3,980.31222920257,780.31222920257,619.68777079743,419.68777079743,980.31222920257,780.31222920257,980.31222920257,419.68777079743,619.68777079743,419.68777079743,619.68777079743,780.31222920257,4,0,0,0,horizontal,horizontal,horizontal,vertical
2b,8,100273,12,32,384,18,F,NA,constant,homogeneous,4,present,0.796870946884155,1,horizontal,horizontal,1,2,red,1,2,980.31222920257,780.31222920257,980.31222920257,419.68777079743,980.31222920257,780.31222920257,980.31222920257,419.68777079743,619.68777079743,419.68777079743,619.68777079743,780.31222920257,4,0,0,0,horizontal,vertical,vertical,horizontal
2b,8,100273,13,1,385,18,F,NA,constant,homogeneous,4,absent,0.70936918258667,1,vertical,vertical,1,2,red,4,NaN,619.68777079743,780.31222920257,NaN,NaN,980.31222920257,780.31222920257,980.31222920257,419.68777079743,619.68777079743,419.68777079743,619.68777079743,780.31222920257,0,0,0,4,horizontal,horizontal,horizontal,vertical
2b,8,100273,13,2,386,18,F,NA,constant,homogeneous,4,absent,0.631764888763428,1,vertical,vertical,1,2,red,2,NaN,980.31222920257,419.68777079743,NaN,NaN,980.31222920257,780.31222920257,980.31222920257,419.68777079743,619.68777079743,419.68777079743,619.68777079743,780.31222920257,0,4,0,0,horizontal,vertical,vertical,horizontal
2b,8,100273,13,3,387,18,F,NA,constant,homogeneous,4,present,0.620581865310669,1,horizontal,horizontal,1,2,red,3,4,619.68777079743,419.68777079743,619.68777079743,780.31222920257,980.31222920257,780.31222920257,980.31222920257,419.68777079743,619.68777079743,419.68777079743,619.68777079743,780.31222920257,0,0,4,0,vertical,vertical,horizontal,horizontal
2b,8,100273,13,4,388,18,F,NA,constant,homogeneous,4,absent,0.501075983047485,0,horizontal,vertical,1,2,red,2,NaN,980.31222920257,419.68777079743,NaN,NaN,980.31222920257,780.31222920257,980.31222920257,419.68777079743,619.68777079743,419.68777079743,619.68777079743,780.31222920257,0,4,0,0,vertical,horizontal,vertical,vertical
2b,8,100273,13,5,389,18,F,NA,constant,homogeneous,4,present,0.667058944702148,1,horizontal,horizontal,1,2,red,3,4,619.68777079743,419.68777079743,619.68777079743,780.31222920257,980.31222920257,780.31222920257,980.31222920257,419.68777079743,619.68777079743,419.68777079743,619.68777079743,780.31222920257,0,0,4,0,horizontal,horizontal,horizontal,horizontal
2b,8,100273,13,6,390,18,F,NA,constant,homogeneous,4,absent,0.588717937469482,1,vertical,vertical,1,5,red,1,NaN,980.31222920257,780.31222920257,NaN,NaN,980.31222920257,780.31222920257,980.31222920257,419.68777079743,619.68777079743,419.68777079743,619.68777079743,780.31222920257,4,0,0,0,vertical,horizontal,vertical,vertical
2b,8,100273,13,7,391,18,F,NA,constant,homogeneous,4,absent,0.612903833389282,1,horizontal,horizontal,1,2,red,1,NaN,980.31222920257,780.31222920257,NaN,NaN,980.31222920257,780.31222920257,980.31222920257,419.68777079743,619.68777079743,419.68777079743,619.68777079743,780.31222920257,4,0,0,0,horizontal,vertical,vertical,horizontal
2b,8,100273,13,8,392,18,F,NA,constant,homogeneous,4,absent,0.717362880706787,1,vertical,vertical,1,3,red,2,NaN,980.31222920257,419.68777079743,NaN,NaN,980.31222920257,780.31222920257,980.31222920257,419.68777079743,619.68777079743,419.68777079743,619.68777079743,780.31222920257,0,4,0,0,vertical,vertical,horizontal,horizontal
2b,8,100273,13,9,393,18,F,NA,constant,homogeneous,4,present,0.819996118545532,1,vertical,vertical,1,2,red,4,1,619.68777079743,780.31222920257,980.31222920257,780.31222920257,980.31222920257,780.31222920257,980.31222920257,419.68777079743,619.68777079743,419.68777079743,619.68777079743,780.31222920257,0,0,0,4,horizontal,horizontal,vertical,vertical
2b,8,100273,13,10,394,18,F,NA,constant,homogeneous,4,present,0.508370161056519,1,vertical,vertical,1,2,red,4,2,619.68777079743,780.31222920257,980.31222920257,419.68777079743,980.31222920257,780.31222920257,980.31222920257,419.68777079743,619.68777079743,419.68777079743,619.68777079743,780.31222920257,0,0,0,4,horizontal,horizontal,vertical,vertical
2b,8,100273,13,11,395,18,F,NA,constant,homogeneous,4,present,0.758976936340332,1,vertical,vertical,1,3,red,2,1,980.31222920257,419.68777079743,980.31222920257,780.31222920257,980.31222920257,780.31222920257,980.31222920257,419.68777079743,619.68777079743,419.68777079743,619.68777079743,780.31222920257,0,4,0,0,horizontal,vertical,horizontal,horizontal
2b,8,100273,13,12,396,18,F,NA,constant,homogeneous,4,absent,0.682241201400757,1,horizontal,horizontal,1,3,red,3,NaN,619.68777079743,419.68777079743,NaN,NaN,980.31222920257,780.31222920257,980.31222920257,419.68777079743,619.68777079743,419.68777079743,619.68777079743,780.31222920257,0,0,4,0,vertical,horizontal,horizontal,horizontal
2b,8,100273,13,13,397,18,F,NA,constant,homogeneous,4,absent,0.604134082794189,1,horizontal,horizontal,1,5,red,2,NaN,980.31222920257,419.68777079743,NaN,NaN,980.31222920257,780.31222920257,980.31222920257,419.68777079743,619.68777079743,419.68777079743,619.68777079743,780.31222920257,0,4,0,0,vertical,horizontal,vertical,vertical
2b,8,100273,13,14,398,18,F,NA,constant,homogeneous,4,present,0.736408948898315,1,horizontal,horizontal,1,2,red,4,1,619.68777079743,780.31222920257,980.31222920257,780.31222920257,980.31222920257,780.31222920257,980.31222920257,419.68777079743,619.68777079743,419.68777079743,619.68777079743,780.31222920257,0,0,0,4,vertical,vertical,vertical,horizontal
2b,8,100273,13,15,399,18,F,NA,constant,homogeneous,4,present,0.779654979705811,1,vertical,vertical,1,8,red,2,4,980.31222920257,419.68777079743,619.68777079743,780.31222920257,980.31222920257,780.31222920257,980.31222920257,419.68777079743,619.68777079743,419.68777079743,619.68777079743,780.31222920257,0,4,0,0,horizontal,vertical,horizontal,horizontal
2b,8,100273,13,16,400,18,F,NA,constant,homogeneous,4,present,1.0073561668396,0,horizontal,vertical,1,3,red,3,1,619.68777079743,419.68777079743,980.31222920257,780.31222920257,980.31222920257,780.31222920257,980.31222920257,419.68777079743,619.68777079743,419.68777079743,619.68777079743,780.31222920257,0,0,4,0,horizontal,vertical,horizontal,horizontal
2b,8,100273,13,17,401,18,F,NA,constant,homogeneous,4,present,0.715584993362427,1,vertical,vertical,1,5,red,4,3,619.68777079743,780.31222920257,619.68777079743,419.68777079743,980.31222920257,780.31222920257,980.31222920257,419.68777079743,619.68777079743,419.68777079743,619.68777079743,780.31222920257,0,0,0,4,horizontal,horizontal,horizontal,vertical
2b,8,100273,13,18,402,18,F,NA,constant,homogeneous,4,present,0.734056949615479,1,vertical,vertical,1,2,red,4,1,619.68777079743,780.31222920257,980.31222920257,780.31222920257,980.31222920257,780.31222920257,980.31222920257,419.68777079743,619.68777079743,419.68777079743,619.68777079743,780.31222920257,0,0,0,4,horizontal,horizontal,vertical,vertical
2b,8,100273,13,19,403,18,F,NA,constant,homogeneous,4,absent,0.63310718536377,1,vertical,vertical,1,2,red,3,NaN,619.68777079743,419.68777079743,NaN,NaN,980.31222920257,780.31222920257,980.31222920257,419.68777079743,619.68777079743,419.68777079743,619.68777079743,780.31222920257,0,0,4,0,vertical,vertical,vertical,vertical
2b,8,100273,13,20,404,18,F,NA,constant,homogeneous,4,present,1.06175899505615,1,horizontal,horizontal,1,3,red,4,2,619.68777079743,780.31222920257,980.31222920257,419.68777079743,980.31222920257,780.31222920257,980.31222920257,419.68777079743,619.68777079743,419.68777079743,619.68777079743,780.31222920257,0,0,0,4,horizontal,vertical,horizontal,horizontal
2b,8,100273,13,21,405,18,F,NA,constant,homogeneous,4,absent,0.895235061645508,1,vertical,vertical,1,5,red,1,NaN,980.31222920257,780.31222920257,NaN,NaN,980.31222920257,780.31222920257,980.31222920257,419.68777079743,619.68777079743,419.68777079743,619.68777079743,780.31222920257,4,0,0,0,vertical,vertical,vertical,horizontal
2b,8,100273,13,22,406,18,F,NA,constant,homogeneous,4,present,0.869625806808472,1,horizontal,horizontal,1,8,red,1,2,980.31222920257,780.31222920257,980.31222920257,419.68777079743,980.31222920257,780.31222920257,980.31222920257,419.68777079743,619.68777079743,419.68777079743,619.68777079743,780.31222920257,4,0,0,0,horizontal,vertical,horizontal,horizontal
2b,8,100273,13,23,407,18,F,NA,constant,homogeneous,4,absent,1.16334700584412,1,horizontal,horizontal,1,8,red,1,NaN,980.31222920257,780.31222920257,NaN,NaN,980.31222920257,780.31222920257,980.31222920257,419.68777079743,619.68777079743,419.68777079743,619.68777079743,780.31222920257,4,0,0,0,horizontal,horizontal,vertical,horizontal
2b,8,100273,13,24,408,18,F,NA,constant,homogeneous,4,present,0.586913108825684,1,vertical,vertical,1,3,red,3,4,619.68777079743,419.68777079743,619.68777079743,780.31222920257,980.31222920257,780.31222920257,980.31222920257,419.68777079743,619.68777079743,419.68777079743,619.68777079743,780.31222920257,0,0,4,0,horizontal,horizontal,vertical,horizontal
2b,8,100273,13,25,409,18,F,NA,constant,homogeneous,4,present,0.971051931381226,1,horizontal,horizontal,1,5,red,3,2,619.68777079743,419.68777079743,980.31222920257,419.68777079743,980.31222920257,780.31222920257,980.31222920257,419.68777079743,619.68777079743,419.68777079743,619.68777079743,780.31222920257,0,0,4,0,horizontal,horizontal,horizontal,horizontal
2b,8,100273,13,26,410,18,F,NA,constant,homogeneous,4,absent,0.618597030639648,1,vertical,vertical,1,3,red,2,NaN,980.31222920257,419.68777079743,NaN,NaN,980.31222920257,780.31222920257,980.31222920257,419.68777079743,619.68777079743,419.68777079743,619.68777079743,780.31222920257,0,4,0,0,vertical,vertical,horizontal,horizontal
2b,8,100273,13,27,411,18,F,NA,constant,homogeneous,4,present,0.563222169876099,1,vertical,vertical,1,5,red,2,3,980.31222920257,419.68777079743,619.68777079743,419.68777079743,980.31222920257,780.31222920257,980.31222920257,419.68777079743,619.68777079743,419.68777079743,619.68777079743,780.31222920257,0,4,0,0,horizontal,vertical,vertical,vertical
2b,8,100273,13,28,412,18,F,NA,constant,homogeneous,4,absent,0.666708946228027,1,horizontal,horizontal,1,2,red,1,NaN,980.31222920257,780.31222920257,NaN,NaN,980.31222920257,780.31222920257,980.31222920257,419.68777079743,619.68777079743,419.68777079743,619.68777079743,780.31222920257,4,0,0,0,horizontal,vertical,vertical,horizontal
2b,8,100273,13,29,413,18,F,NA,constant,homogeneous,4,absent,0.716136932373047,1,horizontal,horizontal,1,5,red,2,NaN,980.31222920257,419.68777079743,NaN,NaN,980.31222920257,780.31222920257,980.31222920257,419.68777079743,619.68777079743,419.68777079743,619.68777079743,780.31222920257,0,4,0,0,horizontal,horizontal,horizontal,horizontal
2b,8,100273,13,30,414,18,F,NA,constant,homogeneous,4,absent,0.570875883102417,0,horizontal,vertical,1,3,red,4,NaN,619.68777079743,780.31222920257,NaN,NaN,980.31222920257,780.31222920257,980.31222920257,419.68777079743,619.68777079743,419.68777079743,619.68777079743,780.31222920257,0,0,0,4,vertical,horizontal,horizontal,horizontal
2b,8,100273,13,31,415,18,F,NA,constant,homogeneous,4,present,0.610476970672607,1,horizontal,horizontal,1,5,red,1,3,980.31222920257,780.31222920257,619.68777079743,419.68777079743,980.31222920257,780.31222920257,980.31222920257,419.68777079743,619.68777079743,419.68777079743,619.68777079743,780.31222920257,4,0,0,0,horizontal,vertical,horizontal,vertical
