experiment,subject,uniqueID,block,trial,trial_cumulative,age,gender,color_cond_blocking,color_history,shape_type,set_size,distractor,rt,acc,target_orient,response_key,response_made,iti,target_color,target_item,distractor_item,target_X,target_Y,distractor_X,distractor_Y,item1_X,item1_Y,item2_X,item2_Y,item3_X,item3_Y,item4_X,item4_Y,item5_X,item5_Y,item6_X,item6_Y,item1_shape,item2_shape,item3_shape,item4_shape,item5_shape,item6_shape,item1_line,item2_line,item3_line,item4_line,item5_line,item6_line
1d,10,100228,1,1,1,18,F,NA,constant,homogeneous,4,absent,1.01784086227417,1,horizontal,horizontal,1,0.952934108060949,red,4,NaN,549.685068220846,648.656293821019,NaN,NaN,848.656293821019,850.314931779154,1050.31493177915,551.343706178981,751.343706178981,349.685068220846,549.685068220846,648.656293821019,NaN,NaN,NaN,NaN,0,0,0,4,NaN,NaN,vertical,horizontal,horizontal,horizontal,none,none
1d,10,100228,1,2,2,18,F,NA,constant,homogeneous,6,absent,1.36485886573792,1,vertical,vertical,1,0.941169637792251,red,5,NaN,607.549057043193,432.704947607421,NaN,NaN,751.343706178981,850.314931779154,992.450942956807,767.295052392579,1041.10723677783,516.980120613425,848.656293821019,349.685068220846,607.549057043193,432.704947607421,558.892763222174,683.019879386575,0,0,0,0,4,0,horizontal,horizontal,horizontal,vertical,vertical,vertical
1d,10,100228,1,3,3,18,F,NA,constant,homogeneous,5,present,1.48773503303528,1,vertical,vertical,1,0.964698578329647,red,1,2,938.882953928832,813.860994826083,1046.31108570371,534.001143498857,938.882953928832,813.860994826083,1046.31108570371,534.001143498857,813.345668841951,345.349468637584,561.936991243214,508.616172865948,639.523300282292,798.172220171528,NaN,NaN,4,0,0,0,0,NaN,vertical,vertical,horizontal,vertical,horizontal,none
1d,10,100228,1,4,4,18,F,NA,constant,homogeneous,3,absent,0.856040000915527,1,vertical,vertical,1,0.729409172955681,red,1,NaN,942.594190385041,811.404581001536,NaN,NaN,942.594190385041,811.404581001536,911.784642431215,370.807518193712,545.621167183745,617.787900804752,NaN,NaN,NaN,NaN,NaN,NaN,4,0,0,NaN,NaN,NaN,vertical,vertical,vertical,none,none,none
1d,10,100228,1,5,5,18,F,NA,constant,homogeneous,3,present,0.863102197647095,0,horizontal,vertical,1,1.09410775128533,red,1,3,853.017481158529,849.42763818712,557.480588344736,521.200666434388,853.017481158529,849.42763818712,989.501930496736,429.371695378491,557.480588344736,521.200666434388,NaN,NaN,NaN,NaN,NaN,NaN,4,0,0,NaN,NaN,NaN,horizontal,vertical,horizontal,none,none,none
1d,10,100228,1,6,6,18,F,NA,constant,homogeneous,5,absent,1.18202090263367,1,horizontal,horizontal,1,0.658822351343491,red,3,NaN,1000.94274216971,443.006323791957,NaN,NaN,729.712474266665,845.121732464271,1011.40458100154,742.594190385041,1000.94274216971,443.006323791957,712.784863451954,360.378381699593,545.155339110131,608.899371659138,NaN,NaN,0,0,4,0,0,NaN,vertical,horizontal,horizontal,horizontal,vertical,none
1d,10,100228,1,7,7,18,F,NA,constant,homogeneous,5,absent,1.83733201026917,1,vertical,vertical,1,0.788231524299173,red,1,NaN,835.489140744817,852.518357529101,NaN,NaN,835.489140744817,852.518357529101,1051.12597701811,644.280285305067,919.715248510402,374.848363820974,622.862115532956,416.568350913644,570.807518193712,711.784642431215,NaN,NaN,4,0,0,0,0,NaN,vertical,horizontal,vertical,horizontal,vertical,none
1d,10,100228,1,8,8,18,F,NA,constant,homogeneous,4,absent,0.884296178817749,1,vertical,vertical,1,0.905876226986156,red,3,NaN,646.537169096228,396.34794493794,NaN,NaN,953.462830903772,803.65205506206,1003.65205506206,446.537169096228,646.537169096228,396.34794493794,596.34794493794,753.462830903772,NaN,NaN,NaN,NaN,0,0,4,0,NaN,NaN,horizontal,horizontal,vertical,horizontal,none,none
1d,10,100228,1,9,9,18,F,NA,constant,homogeneous,5,present,0.852164030075073,1,vertical,vertical,1,0.882347286448759,red,1,4,725.445215295702,843.857712770574,716.980120613425,358.892763222174,725.445215295702,843.857712770574,1008.88377129369,746.261991269517,1003.65205506206,446.537169096228,716.980120613425,358.892763222174,545.03883773512,604.450363641507,NaN,NaN,4,0,0,0,0,NaN,vertical,vertical,horizontal,horizontal,horizontal,none
1d,10,100228,1,10,10,18,F,NA,constant,homogeneous,5,absent,0.832031011581421,1,horizontal,horizontal,1,0.729409172955681,red,1,NaN,653.738008730483,808.883771293693,NaN,NaN,653.738008730483,808.883771293693,953.462830903772,803.65205506206,1041.10723677783,516.980120613425,795.549636358493,345.03883773512,556.142287229426,525.445215295702,NaN,NaN,4,0,0,0,0,NaN,horizontal,horizontal,vertical,horizontal,vertical,none
1d,10,100228,1,11,11,18,F,NA,constant,homogeneous,3,absent,0.990025997161865,1,vertical,vertical,1,1.07057881074793,red,2,NaN,870.287525733335,354.878267535729,NaN,NaN,977.137884467044,783.431649086356,870.287525733335,354.878267535729,552.574589799621,661.690083377915,NaN,NaN,NaN,NaN,NaN,NaN,0,4,0,NaN,NaN,NaN,vertical,vertical,vertical,none,none,none
1d,10,100228,1,12,12,18,F,NA,constant,homogeneous,6,present,1.68329501152039,1,vertical,vertical,1,0.658822351343491,red,2,5,1046.31108570371,665.998856501143,553.688914296288,534.001143498857,865.998856501143,846.311085703712,1046.31108570371,665.998856501143,980.31222920257,419.68777079743,734.001143498857,353.688914296288,553.688914296288,534.001143498857,619.68777079743,780.31222920257,0,4,0,0,0,0,horizontal,vertical,horizontal,vertical,horizontal,vertical
1d,10,100228,1,13,13,18,F,NA,constant,homogeneous,3,absent,0.770793914794922,1,horizontal,horizontal,1,1.08234328101663,red,2,NaN,942.594190385041,388.595418998464,NaN,NaN,911.784642431215,829.192481806288,942.594190385041,388.595418998464,545.621167183745,582.212099195248,NaN,NaN,NaN,NaN,NaN,NaN,0,4,0,NaN,NaN,NaN,horizontal,horizontal,horizontal,none,none,none
1d,10,100228,1,14,14,18,F,NA,constant,homogeneous,6,present,0.953458070755005,1,vertical,vertical,1,0.952934108060949,red,6,5,548.13947314824,639.890788585259,639.523300282292,401.827779828472,708.616172865948,838.063008756786,960.476699717708,798.172220171528,1051.86052685176,560.109211414741,891.383827134052,361.936991243214,639.523300282292,401.827779828472,548.13947314824,639.890788585259,0,0,0,0,0,4,vertical,horizontal,vertical,horizontal,horizontal,vertical
1d,10,100228,1,15,15,18,F,NA,constant,homogeneous,4,present,0.897886991500854,1,horizontal,horizontal,1,0.658822351343491,red,4,1,546.39691668109,626.654758133252,826.654758133252,853.60308331891,826.654758133252,853.60308331891,1053.60308331891,573.345241866748,773.345241866748,346.39691668109,546.39691668109,626.654758133252,NaN,NaN,NaN,NaN,0,0,0,4,NaN,NaN,vertical,vertical,vertical,horizontal,none,none
1d,10,100228,1,16,16,18,F,NA,constant,homogeneous,6,absent,1.01146292686462,1,horizontal,horizontal,1,0.964698578329647,red,1,NaN,813.345668841951,854.650531362416,NaN,NaN,813.345668841951,854.650531362416,1027.20666366803,715.767577433584,1013.86099482608,461.117046071168,786.654331158049,345.349468637584,572.793336331966,484.232422566416,586.139005173917,738.882953928832,4,0,0,0,0,0,horizontal,vertical,vertical,vertical,horizontal,horizontal
1d,10,100228,1,17,17,18,F,NA,constant,homogeneous,3,absent,0.55302095413208,1,horizontal,horizontal,1,0.858818345911363,red,1,NaN,919.715248510402,825.151636179026,NaN,NaN,919.715248510402,825.151636179026,935.129412379467,383.747735480111,545.155339110131,591.100628340862,NaN,NaN,NaN,NaN,NaN,NaN,4,0,0,NaN,NaN,NaN,horizontal,horizontal,horizontal,none,none,none
1d,10,100228,1,18,18,18,F,NA,constant,homogeneous,5,absent,0.80302095413208,1,horizontal,horizontal,1,0.929405167523552,red,4,NaN,626.090418184063,413.504806087112,NaN,NaN,831.076682568313,853.099268668537,1050.31493177915,648.656293821019,923.626453162816,376.971974679454,626.090418184063,413.504806087112,568.891514305654,707.767656743878,NaN,NaN,0,0,0,4,0,NaN,horizontal,vertical,horizontal,horizontal,vertical,none
1d,10,100228,1,19,19,18,F,NA,constant,homogeneous,5,present,0.856273174285889,1,horizontal,horizontal,1,0.647057881074793,red,3,2,1008.88377129369,453.738008730483,1003.65205506206,753.462830903772,716.980120613425,841.107236777826,1003.65205506206,753.462830903772,1008.88377129369,453.738008730483,725.445215295702,356.142287229426,545.03883773512,595.549636358493,NaN,NaN,0,0,4,0,0,NaN,vertical,horizontal,horizontal,vertical,vertical,none
1d,10,100228,1,20,20,18,F,NA,constant,homogeneous,3,present,0.76964807510376,1,vertical,vertical,1,0.611764470268698,red,2,1,953.462830903772,396.34794493794,899.636437764765,834.728737630372,899.636437764765,834.728737630372,953.462830903772,396.34794493794,546.900731331463,568.923317431687,NaN,NaN,NaN,NaN,NaN,NaN,0,4,0,NaN,NaN,NaN,horizontal,vertical,vertical,none,none,none
1d,10,100228,1,21,21,18,F,NA,constant,homogeneous,4,present,0.916486024856567,1,vertical,vertical,1,0.764702583761776,red,1,2,865.998856501143,846.311085703712,1046.31108570371,534.001143498857,865.998856501143,846.311085703712,1046.31108570371,534.001143498857,734.001143498857,353.688914296288,553.688914296288,665.998856501143,NaN,NaN,NaN,NaN,4,0,0,0,NaN,NaN,vertical,vertical,horizontal,horizontal,none,none
1d,10,100228,1,22,22,18,F,NA,constant,homogeneous,5,absent,0.861872911453247,1,vertical,vertical,1,0.74117364322438,red,5,NaN,551.535633479765,657.362518857686,NaN,NaN,777.775285599347,854.029648013395,1034.72873763037,699.636437764765,967.295052392579,407.549057043193,668.665290897936,381.422338320961,551.535633479765,657.362518857686,NaN,NaN,0,0,0,0,4,NaN,horizontal,horizontal,vertical,vertical,vertical,none
1d,10,100228,1,23,23,18,F,NA,constant,homogeneous,5,absent,0.605216026306152,1,vertical,vertical,1,0.905876226986156,red,5,NaN,629.371695378491,789.501930496736,NaN,NaN,927.5,820.836477965032,1049.42763818712,546.982518841471,826.654758133252,346.39691668109,567.045908301137,496.282156015671,629.371695378491,789.501930496736,NaN,NaN,0,0,0,0,4,NaN,horizontal,horizontal,horizontal,horizontal,vertical,none
1d,10,100228,1,24,24,18,F,NA,constant,homogeneous,6,absent,0.742893934249878,1,vertical,vertical,1,1.05881434047923,red,4,NaN,795.549636358493,345.03883773512,NaN,NaN,804.450363641507,854.96116226488,1023.02802532055,723.626453162816,1018.57766167904,468.665290897936,795.549636358493,345.03883773512,576.971974679454,476.373546837184,581.422338320961,731.334709102064,0,0,0,4,0,0,horizontal,vertical,horizontal,vertical,horizontal,horizontal
1d,10,100228,1,25,25,18,F,NA,constant,homogeneous,6,present,0.806051969528198,1,horizontal,horizontal,1,0.999991989135742,red,6,2,545.03883773512,604.450363641507,931.334709102064,818.577661679039,676.373546837184,823.028025320546,931.334709102064,818.577661679039,1054.96116226488,595.549636358493,923.626453162816,376.971974679454,668.665290897936,381.422338320961,545.03883773512,604.450363641507,0,0,0,0,0,4,vertical,horizontal,horizontal,vertical,horizontal,horizontal
1d,10,100228,1,26,26,18,F,NA,constant,homogeneous,4,present,0.621376991271973,1,horizontal,horizontal,1,0.964698578329647,red,4,1,553.688914296288,534.001143498857,734.001143498857,846.311085703712,734.001143498857,846.311085703712,1046.31108570371,665.998856501143,865.998856501143,353.688914296288,553.688914296288,534.001143498857,NaN,NaN,NaN,NaN,0,0,0,4,NaN,NaN,horizontal,horizontal,vertical,horizontal,none,none
1d,10,100228,1,27,27,18,F,NA,constant,homogeneous,3,absent,0.637969017028809,1,vertical,vertical,1,0.799995994567871,red,1,NaN,626.090418184063,786.495193912888,NaN,NaN,626.090418184063,786.495193912888,1048.46436652023,657.362518857686,725.445215295702,356.142287229426,NaN,NaN,NaN,NaN,NaN,NaN,4,0,0,NaN,NaN,NaN,vertical,horizontal,vertical,none,none,none
1d,10,100228,1,28,28,18,F,NA,constant,homogeneous,6,absent,0.975509881973267,1,vertical,vertical,1,1.02352092967314,red,3,NaN,983.431649086356,422.862115532956,NaN,NaN,861.690083377915,847.425410200379,1045.12173246427,670.287525733335,983.431649086356,422.862115532956,738.309916622085,352.574589799621,554.878267535729,529.712474266665,616.568350913644,777.137884467044,0,0,4,0,0,0,horizontal,horizontal,vertical,horizontal,horizontal,horizontal
1d,10,100228,1,29,29,18,F,NA,constant,homogeneous,6,absent,0.757601022720337,0,horizontal,vertical,1,0.917640697254854,red,2,NaN,1023.02802532055,723.626453162816,NaN,NaN,804.450363641507,854.96116226488,1023.02802532055,723.626453162816,1018.57766167904,468.665290897936,795.549636358493,345.03883773512,576.971974679454,476.373546837184,581.422338320961,731.334709102064,0,4,0,0,0,0,vertical,horizontal,vertical,vertical,horizontal,vertical
1d,10,100228,1,30,30,18,F,NA,constant,homogeneous,3,present,0.763274908065796,1,horizontal,horizontal,1,0.917640697254854,red,2,1,1047.42541020038,538.309916622085,729.712474266665,845.121732464271,729.712474266665,845.121732464271,1047.42541020038,538.309916622085,622.862115532956,416.568350913644,NaN,NaN,NaN,NaN,NaN,NaN,0,4,0,NaN,NaN,NaN,horizontal,horizontal,horizontal,none,none,none
1d,10,100228,1,31,31,18,F,NA,constant,homogeneous,6,present,1.217453956604,1,vertical,vertical,1,0.729409172955681,red,3,1,1046.31108570371,534.001143498857,734.001143498857,846.311085703712,734.001143498857,846.311085703712,980.31222920257,780.31222920257,1046.31108570371,534.001143498857,865.998856501143,353.688914296288,619.68777079743,419.68777079743,553.688914296288,665.998856501143,0,0,4,0,0,0,horizontal,vertical,vertical,vertical,vertical,vertical
1d,10,100228,1,32,32,18,F,NA,constant,homogeneous,6,present,1.00662088394165,1,vertical,vertical,1,1.03528539994184,red,6,3,601.827779828472,760.476699717708,998.172220171528,439.523300282291,839.890788585259,851.86052685176,1038.06300875679,691.383827134052,998.172220171528,439.523300282291,760.109211414741,348.13947314824,561.936991243214,508.616172865948,601.827779828472,760.476699717708,0,0,0,0,0,4,vertical,horizontal,horizontal,vertical,vertical,vertical
1d,10,100228,1,33,33,18,F,NA,constant,homogeneous,3,present,0.960026025772095,1,horizontal,horizontal,1,0.658822351343491,red,3,2,545.349468637584,613.345668841951,915.767577433584,372.793336331966,938.882953928832,813.860994826083,915.767577433584,372.793336331966,545.349468637584,613.345668841951,NaN,NaN,NaN,NaN,NaN,NaN,0,0,4,NaN,NaN,NaN,vertical,horizontal,horizontal,none,none,none
1d,10,100228,1,34,34,18,F,NA,constant,homogeneous,4,absent,0.680675029754639,1,horizontal,horizontal,1,1.05881434047923,red,2,NaN,1047.42541020038,538.309916622085,NaN,NaN,861.690083377915,847.425410200379,1047.42541020038,538.309916622085,738.309916622085,352.574589799621,552.574589799621,661.690083377915,NaN,NaN,NaN,NaN,0,4,0,0,NaN,NaN,horizontal,horizontal,vertical,vertical,none,none
1d,10,100228,1,35,35,18,F,NA,constant,homogeneous,3,present,0.920102119445801,1,vertical,vertical,1,1.09410775128533,red,3,2,568.891514305654,707.767656743878,822.224714400653,345.970351986605,1008.88377129369,746.261991269517,822.224714400653,345.970351986605,568.891514305654,707.767656743878,NaN,NaN,NaN,NaN,NaN,NaN,0,0,4,NaN,NaN,NaN,horizontal,vertical,vertical,none,none,none
1d,10,100228,1,36,36,18,F,NA,constant,homogeneous,5,present,1.27020621299744,1,horizontal,horizontal,1,0.976463048598346,red,2,5,1025.15163617903,719.715248510402,547.481642470899,635.489140744817,755.719714694933,851.125977018113,1025.15163617903,719.715248510402,983.431649086356,422.862115532956,688.215357568785,370.807518193712,547.481642470899,635.489140744817,NaN,NaN,0,4,0,0,0,NaN,vertical,horizontal,vertical,horizontal,vertical,none
1d,10,100228,1,37,37,18,F,NA,constant,homogeneous,6,absent,0.866625070571899,1,horizontal,horizontal,1,0.929405167523552,red,2,NaN,1055,600,NaN,NaN,927.5,820.836477965032,1055,600,927.5,379.163522034968,672.5,379.163522034968,545,600,672.5,820.836477965032,0,4,0,0,0,0,horizontal,horizontal,horizontal,horizontal,vertical,horizontal
1d,10,100228,1,38,38,18,F,NA,constant,homogeneous,3,present,0.920222997665405,1,vertical,vertical,1,0.611764470268698,red,3,1,567.045908301137,496.282156015671,826.654758133252,853.60308331891,826.654758133252,853.60308331891,1006.29933356561,450.114760665419,567.045908301137,496.282156015671,NaN,NaN,NaN,NaN,NaN,NaN,0,0,4,NaN,NaN,NaN,horizontal,vertical,vertical,none,none,none
1d,10,100228,1,39,39,18,F,NA,constant,homogeneous,3,absent,1.31992316246033,1,horizontal,horizontal,1,0.847053875642664,red,2,NaN,853.017481158529,350.57236181288,NaN,NaN,989.501930496736,770.628304621509,853.017481158529,350.57236181288,557.480588344736,678.799333565612,NaN,NaN,NaN,NaN,NaN,NaN,0,4,0,NaN,NaN,NaN,vertical,horizontal,horizontal,none,none,none
1d,10,100228,1,40,40,18,F,NA,constant,homogeneous,4,absent,0.763108015060425,1,vertical,vertical,1,0.635293410806095,red,4,NaN,560.378381699593,512.784863451954,NaN,NaN,712.784863451954,839.621618300407,1039.62161830041,687.215136548046,887.215136548046,360.378381699593,560.378381699593,512.784863451954,NaN,NaN,NaN,NaN,0,0,0,4,NaN,NaN,vertical,horizontal,horizontal,vertical,none,none
1d,10,100228,1,41,41,18,F,NA,constant,homogeneous,5,present,0.926358938217163,1,horizontal,horizontal,1,0.6,red,1,4,696.282156015671,832.954091698863,746.982518841471,350.57236181288,696.282156015671,832.954091698863,989.501930496736,770.628304621509,1020.83647796503,472.5,746.982518841471,350.57236181288,546.39691668109,573.345241866748,NaN,NaN,4,0,0,0,0,NaN,horizontal,horizontal,horizontal,vertical,vertical,none
1d,10,100228,1,42,42,18,F,NA,constant,homogeneous,5,present,1.01219391822815,1,vertical,vertical,1,0.952934108060949,red,3,2,967.295052392579,407.549057043193,1034.72873763037,699.636437764765,777.775285599347,854.029648013395,1034.72873763037,699.636437764765,967.295052392579,407.549057043193,668.665290897936,381.422338320961,551.535633479765,657.362518857686,NaN,NaN,0,0,4,0,0,NaN,vertical,horizontal,vertical,horizontal,vertical,none
1d,10,100228,1,43,43,18,F,NA,constant,homogeneous,4,present,0.821264982223511,1,horizontal,horizontal,1,0.623528940537397,red,3,1,813.345668841951,345.349468637584,786.654331158049,854.650531362416,786.654331158049,854.650531362416,1054.65053136242,613.345668841951,813.345668841951,345.349468637584,545.349468637584,586.654331158049,NaN,NaN,NaN,NaN,0,0,4,0,NaN,NaN,horizontal,horizontal,horizontal,vertical,none,none
1d,10,100228,1,44,44,18,F,NA,constant,homogeneous,3,absent,1.03108596801758,1,vertical,vertical,1,0.67058682161219,red,1,NaN,1011.40458100154,742.594190385041,NaN,NaN,1011.40458100154,742.594190385041,817.787900804752,345.621167183745,570.807518193712,711.784642431215,NaN,NaN,NaN,NaN,NaN,NaN,4,0,0,NaN,NaN,NaN,vertical,vertical,vertical,none,none,none
1d,10,100228,1,45,45,18,F,NA,constant,homogeneous,3,absent,0.89037299156189,1,horizontal,horizontal,1,0.729409172955681,red,3,NaN,712.784863451954,360.378381699593,NaN,NaN,636.089159529932,795.341332995339,1051.12597701811,644.280285305067,712.784863451954,360.378381699593,NaN,NaN,NaN,NaN,NaN,NaN,0,0,4,NaN,NaN,NaN,vertical,vertical,horizontal,none,none,none
1d,10,100228,1,46,46,18,F,NA,constant,homogeneous,4,present,0.709040880203247,1,vertical,vertical,1,1.02352092967314,red,4,2,599.057257830286,443.006323791957,1000.94274216971,756.993676208043,643.006323791957,800.942742169714,1000.94274216971,756.993676208043,956.993676208043,399.057257830286,599.057257830286,443.006323791957,NaN,NaN,NaN,NaN,0,0,0,4,NaN,NaN,vertical,horizontal,horizontal,vertical,none,none
1d,10,100228,1,47,47,18,F,NA,constant,homogeneous,5,present,1.01798701286316,1,vertical,vertical,1,0.74117364322438,red,4,1,725.445215295702,356.142287229426,716.980120613425,841.107236777826,716.980120613425,841.107236777826,1003.65205506206,753.462830903772,1008.88377129369,453.738008730483,725.445215295702,356.142287229426,545.03883773512,595.549636358493,NaN,NaN,0,0,0,4,0,NaN,vertical,horizontal,vertical,vertical,vertical,none
1d,10,100228,1,48,48,18,F,NA,constant,homogeneous,3,present,0.578872203826904,0,vertical,horizontal,1,1.02352092967314,red,2,1,1041.10723677783,516.980120613425,751.343706178981,850.314931779154,751.343706178981,850.314931779154,1041.10723677783,516.980120613425,607.549057043193,432.704947607421,NaN,NaN,NaN,NaN,NaN,NaN,0,4,0,NaN,NaN,NaN,vertical,vertical,horizontal,none,none,none
1d,10,100228,1,49,49,18,F,NA,constant,homogeneous,3,present,0.928114891052246,1,horizontal,horizontal,1,0.870582816180061,red,2,1,1052.5183575291,635.489140744817,643.006323791957,800.942742169714,643.006323791957,800.942742169714,1052.5183575291,635.489140744817,704.475318678942,363.568117085469,NaN,NaN,NaN,NaN,NaN,NaN,0,4,0,NaN,NaN,NaN,vertical,horizontal,horizontal,none,none,none
1d,10,100228,1,50,50,18,F,NA,constant,homogeneous,6,present,1.54842495918274,1,horizontal,horizontal,1,0.870582816180061,red,5,4,639.523300282292,401.827779828472,891.383827134052,361.936991243214,708.616172865948,838.063008756786,960.476699717708,798.172220171528,1051.86052685176,560.109211414741,891.383827134052,361.936991243214,639.523300282292,401.827779828472,548.13947314824,639.890788585259,0,0,0,0,4,0,horizontal,horizontal,horizontal,horizontal,horizontal,vertical
1d,10,100228,1,51,51,18,F,NA,constant,homogeneous,6,absent,0.975225925445557,1,vertical,vertical,1,0.988227518867044,red,2,NaN,1048.46436652023,657.362518857686,NaN,NaN,874.554784704298,843.857712770574,1048.46436652023,657.362518857686,973.909581815937,413.504806087112,725.445215295702,356.142287229426,551.535633479765,542.637481142314,626.090418184063,786.495193912888,0,4,0,0,0,0,vertical,vertical,horizontal,vertical,vertical,vertical
1d,10,100228,1,52,52,18,F,NA,constant,homogeneous,6,present,0.896769046783447,1,horizontal,horizontal,1,0.882347286448759,red,6,5,574.848363820974,719.715248510402,583.747735480111,464.870587620533,791.100628340862,854.844660889869,1016.25226451989,735.129412379467,1025.15163617903,480.284751489598,808.899371659138,345.155339110131,583.747735480111,464.870587620533,574.848363820974,719.715248510402,0,0,0,0,0,4,horizontal,vertical,horizontal,horizontal,vertical,horizontal
1d,10,100228,1,53,53,18,F,NA,constant,homogeneous,4,absent,0.803488969802856,1,vertical,vertical,1,0.635293410806095,red,2,NaN,995.341332995339,436.089159529932,NaN,NaN,963.910840470068,795.341332995339,995.341332995339,436.089159529932,636.089159529932,404.658667004661,604.658667004661,763.910840470068,NaN,NaN,NaN,NaN,0,4,0,0,NaN,NaN,horizontal,vertical,vertical,vertical,none,none
1d,10,100228,1,54,54,18,F,NA,constant,homogeneous,4,absent,1.12878608703613,1,horizontal,horizontal,1,0.647057881074793,red,4,NaN,616.568350913644,777.137884467044,NaN,NaN,977.137884467044,783.431649086356,983.431649086356,422.862115532956,622.862115532956,416.568350913644,616.568350913644,777.137884467044,NaN,NaN,NaN,NaN,0,0,0,4,NaN,NaN,horizontal,vertical,vertical,horizontal,none,none
1d,10,100228,1,55,55,18,F,NA,constant,homogeneous,6,absent,1.09348702430725,1,horizontal,horizontal,1,1.09410775128533,red,6,NaN,586.139005173917,738.882953928832,NaN,NaN,813.345668841951,854.650531362416,1027.20666366803,715.767577433584,1013.86099482608,461.117046071168,786.654331158049,345.349468637584,572.793336331966,484.232422566416,586.139005173917,738.882953928832,0,0,0,0,0,4,vertical,vertical,horizontal,horizontal,horizontal,horizontal
1d,10,100228,1,56,56,18,F,NA,constant,homogeneous,5,present,0.747590065002441,1,horizontal,horizontal,1,0.999991989135742,red,5,3,561.936991243214,691.383827134052,938.882953928832,386.139005173917,813.345668841951,854.650531362416,1046.31108570371,665.998856501143,938.882953928832,386.139005173917,639.523300282292,401.827779828472,561.936991243214,691.383827134052,NaN,NaN,0,0,0,0,4,NaN,vertical,vertical,vertical,vertical,horizontal,none
1d,10,100228,1,57,57,18,F,NA,constant,homogeneous,5,absent,0.796054124832153,1,vertical,vertical,1,1.07057881074793,red,3,NaN,1031.10848569435,492.232343256122,NaN,NaN,676.373546837184,823.028025320546,973.909581815937,786.495193912888,1031.10848569435,492.232343256122,768.923317431687,346.900731331463,549.685068220846,551.343706178981,NaN,NaN,0,0,4,0,0,NaN,vertical,horizontal,vertical,vertical,vertical,none
1d,10,100228,1,58,58,18,F,NA,constant,homogeneous,4,absent,NaN,0,vertical,none,0,0.870582816180061,red,2,NaN,1039.62161830041,512.784863451954,NaN,NaN,887.215136548046,839.621618300407,1039.62161830041,512.784863451954,712.784863451954,360.378381699593,560.378381699593,687.215136548046,NaN,NaN,NaN,NaN,0,4,0,0,NaN,NaN,vertical,vertical,horizontal,horizontal,none,none
1d,10,100228,1,59,59,18,F,NA,constant,homogeneous,4,present,0.831460952758789,1,horizontal,horizontal,1,0.882347286448759,red,4,3,563.568117085469,695.524681321058,704.475318678942,363.568117085469,895.524681321058,836.431882914531,1036.43188291453,504.475318678942,704.475318678942,363.568117085469,563.568117085469,695.524681321058,NaN,NaN,NaN,NaN,0,0,0,4,NaN,NaN,horizontal,vertical,horizontal,horizontal,none,none
1d,10,100228,1,60,60,18,F,NA,constant,homogeneous,4,absent,0.69977593421936,1,horizontal,horizontal,1,0.776467054030474,red,3,NaN,931.334709102064,381.422338320961,NaN,NaN,668.665290897936,818.577661679039,1018.57766167904,731.334709102064,931.334709102064,381.422338320961,581.422338320961,468.665290897936,NaN,NaN,NaN,NaN,0,0,4,0,NaN,NaN,horizontal,vertical,horizontal,horizontal,none,none
1d,10,100228,1,61,61,18,F,NA,constant,homogeneous,5,absent,0.741984128952026,1,horizontal,horizontal,1,0.811760464836569,red,2,NaN,986.495193912888,773.909581815937,NaN,NaN,692.232343256122,831.108485694346,986.495193912888,773.909581815937,1023.02802532055,476.373546837184,751.343706178981,349.685068220846,546.900731331463,568.923317431687,NaN,NaN,0,4,0,0,0,NaN,horizontal,horizontal,vertical,horizontal,vertical,none
1d,10,100228,1,62,62,18,F,NA,constant,homogeneous,4,present,0.783199071884155,1,vertical,vertical,1,0.894111756717457,red,1,3,915.767577433584,827.206663668034,684.232422566416,372.793336331966,915.767577433584,827.206663668034,1027.20666366803,484.232422566416,684.232422566416,372.793336331966,572.793336331966,715.767577433584,NaN,NaN,NaN,NaN,4,0,0,0,NaN,NaN,vertical,vertical,horizontal,horizontal,none,none
1d,10,100228,1,63,63,18,F,NA,constant,homogeneous,6,present,1.08752393722534,1,horizontal,horizontal,1,0.835289405373966,red,5,4,570.807518193712,488.215357568785,782.212099195248,345.621167183745,817.787900804752,854.378832816255,1029.19248180629,711.784642431215,1011.40458100154,457.40580961496,782.212099195248,345.621167183745,570.807518193712,488.215357568785,588.595418998464,742.594190385041,0,0,0,0,4,0,horizontal,horizontal,horizontal,vertical,horizontal,horizontal
1d,10,100228,1,64,64,18,F,NA,constant,homogeneous,4,present,0.779470920562744,1,vertical,vertical,1,0.694115762149586,red,4,2,553.688914296288,665.998856501143,1046.31108570371,534.001143498857,865.998856501143,846.311085703712,1046.31108570371,534.001143498857,734.001143498857,353.688914296288,553.688914296288,665.998856501143,NaN,NaN,NaN,NaN,0,0,0,4,NaN,NaN,horizontal,vertical,horizontal,vertical,none,none
1d,10,100228,2,1,65,18,F,NA,constant,homogeneous,3,absent,0.699553966522217,1,horizontal,horizontal,1,0.6,red,3,NaN,626.090418184063,413.504806087112,NaN,NaN,725.445215295702,843.857712770574,1048.46436652023,542.637481142314,626.090418184063,413.504806087112,NaN,NaN,NaN,NaN,NaN,NaN,0,0,4,NaN,NaN,NaN,vertical,horizontal,horizontal,none,none,none
1d,10,100228,2,2,66,18,F,NA,constant,homogeneous,5,absent,0.531560182571411,1,horizontal,horizontal,1,0.694115762149586,red,5,NaN,547.481642470899,564.510859255183,NaN,NaN,688.215357568785,829.192481806288,983.431649086356,777.137884467044,1025.15163617903,480.284751489598,755.719714694933,348.874022981887,547.481642470899,564.510859255183,NaN,NaN,0,0,0,0,4,NaN,horizontal,horizontal,vertical,vertical,horizontal,none
1d,10,100228,2,3,67,18,F,NA,constant,homogeneous,6,present,1.16267085075378,1,vertical,vertical,1,0.811760464836569,red,1,3,831.076682568313,853.099268668537,1003.65205506206,446.537169096228,831.076682568313,853.099268668537,1034.72873763037,699.636437764765,1003.65205506206,446.537169096228,768.923317431687,346.900731331463,565.271262369628,500.363562235235,596.34794493794,753.462830903772,4,0,0,0,0,0,vertical,vertical,horizontal,horizontal,vertical,vertical
1d,10,100228,2,4,68,18,F,NA,constant,homogeneous,6,absent,0.853430986404419,1,horizontal,horizontal,1,0.976463048598346,red,1,NaN,708.616172865948,838.063008756786,NaN,NaN,708.616172865948,838.063008756786,960.476699717708,798.172220171528,1051.86052685176,560.109211414741,891.383827134052,361.936991243214,639.523300282292,401.827779828472,548.13947314824,639.890788585259,4,0,0,0,0,0,horizontal,horizontal,vertical,vertical,vertical,horizontal
1d,10,100228,2,5,69,18,F,NA,constant,homogeneous,3,absent,0.783473014831543,1,vertical,vertical,1,1.03528539994184,red,3,NaN,557.480588344736,678.799333565612,NaN,NaN,989.501930496736,770.628304621509,853.017481158529,350.57236181288,557.480588344736,678.799333565612,NaN,NaN,NaN,NaN,NaN,NaN,0,0,4,NaN,NaN,NaN,vertical,vertical,vertical,none,none,none
1d,10,100228,2,6,70,18,F,NA,constant,homogeneous,3,absent,0.659267902374268,1,horizontal,horizontal,1,0.6,red,2,NaN,1047.42541020038,661.690083377915,NaN,NaN,622.862115532956,783.431649086356,1047.42541020038,661.690083377915,729.712474266665,354.878267535729,NaN,NaN,NaN,NaN,NaN,NaN,0,4,0,NaN,NaN,NaN,horizontal,horizontal,vertical,none,none,none
1d,10,100228,2,7,71,18,F,NA,constant,homogeneous,5,present,0.57548713684082,1,vertical,vertical,1,0.941169637792251,red,2,1,949.885239334581,806.299333565612,650.114760665419,806.299333565612,650.114760665419,806.299333565612,949.885239334581,806.299333565612,1042.51941165526,521.200666434388,800,345,557.480588344736,521.200666434388,NaN,NaN,0,4,0,0,0,NaN,horizontal,vertical,vertical,horizontal,vertical,none
1d,10,100228,2,8,72,18,F,NA,constant,homogeneous,3,present,0.900686979293823,1,vertical,vertical,1,1.07057881074793,red,2,3,1032.95409169886,496.282156015671,593.700666434388,450.114760665419,773.345241866748,853.60308331891,1032.95409169886,496.282156015671,593.700666434388,450.114760665419,NaN,NaN,NaN,NaN,NaN,NaN,0,4,0,NaN,NaN,NaN,horizontal,vertical,horizontal,none,none,none
1d,10,100228,2,9,73,18,F,NA,constant,homogeneous,6,absent,0.719588041305542,1,horizontal,horizontal,1,1.03528539994184,red,3,NaN,983.431649086356,422.862115532956,NaN,NaN,861.690083377915,847.425410200379,1045.12173246427,670.287525733335,983.431649086356,422.862115532956,738.309916622085,352.574589799621,554.878267535729,529.712474266665,616.568350913644,777.137884467044,0,0,4,0,0,0,horizontal,horizontal,horizontal,horizontal,vertical,horizontal
1d,10,100228,2,10,74,18,F,NA,constant,homogeneous,4,absent,0.96057391166687,1,horizontal,horizontal,1,0.917640697254854,red,4,NaN,599.057257830286,443.006323791957,NaN,NaN,643.006323791957,800.942742169714,1000.94274216971,756.993676208043,956.993676208043,399.057257830286,599.057257830286,443.006323791957,NaN,NaN,NaN,NaN,0,0,0,4,NaN,NaN,vertical,vertical,horizontal,horizontal,none,none
1d,10,100228,2,11,75,18,F,NA,constant,homogeneous,3,present,0.629076957702637,1,vertical,vertical,1,0.870582816180061,red,2,1,804.450363641507,345.03883773512,1018.57766167904,731.334709102064,1018.57766167904,731.334709102064,804.450363641507,345.03883773512,576.971974679454,723.626453162816,NaN,NaN,NaN,NaN,NaN,NaN,0,4,0,NaN,NaN,NaN,vertical,vertical,horizontal,none,none,none
1d,10,100228,2,12,76,18,F,NA,constant,homogeneous,3,present,0.570986986160278,1,horizontal,horizontal,1,0.647057881074793,red,2,3,1049.42763818712,546.982518841471,629.371695378491,410.498069503264,721.200666434388,842.519411655264,1049.42763818712,546.982518841471,629.371695378491,410.498069503264,NaN,NaN,NaN,NaN,NaN,NaN,0,4,0,NaN,NaN,NaN,horizontal,horizontal,horizontal,none,none,none
1d,10,100228,2,13,77,18,F,NA,constant,homogeneous,4,present,1.04738187789917,1,horizontal,horizontal,1,0.635293410806095,red,2,1,1054.37883281626,617.787900804752,782.212099195248,854.378832816255,782.212099195248,854.378832816255,1054.37883281626,617.787900804752,817.787900804752,345.621167183745,545.621167183745,582.212099195248,NaN,NaN,NaN,NaN,0,4,0,0,NaN,NaN,horizontal,horizontal,vertical,vertical,none,none
1d,10,100228,2,14,78,18,F,NA,constant,homogeneous,3,present,0.816155910491943,1,vertical,vertical,1,0.788231524299173,red,3,1,676.373546837184,376.971974679454,668.665290897936,818.577661679039,668.665290897936,818.577661679039,1054.96116226488,604.450363641507,676.373546837184,376.971974679454,NaN,NaN,NaN,NaN,NaN,NaN,0,0,4,NaN,NaN,NaN,horizontal,horizontal,vertical,none,none,none
1d,10,100228,2,15,79,18,F,NA,constant,homogeneous,5,absent,1.11481380462646,0,vertical,horizontal,1,0.717644702686983,red,3,NaN,911.784642431215,370.807518193712,NaN,NaN,844.280285305067,851.125977018113,1052.5183575291,635.489140744817,911.784642431215,370.807518193712,616.568350913644,422.862115532956,574.848363820974,719.715248510402,NaN,NaN,0,0,4,0,0,NaN,vertical,vertical,vertical,vertical,horizontal,none
1d,10,100228,2,16,80,18,F,NA,constant,homogeneous,6,present,1.26374411582947,1,horizontal,horizontal,1,0.917640697254854,red,6,2,610.498069503264,770.628304621509,1042.51941165526,678.799333565612,853.017481158529,849.42763818712,1042.51941165526,678.799333565612,989.501930496736,429.371695378491,746.982518841471,350.57236181288,557.480588344736,521.200666434388,610.498069503264,770.628304621509,0,0,0,0,0,4,horizontal,horizontal,vertical,vertical,vertical,horizontal
1d,10,100228,2,17,81,18,F,NA,constant,homogeneous,5,absent,0.657027006149292,1,horizontal,horizontal,1,0.799995994567871,red,3,NaN,1011.40458100154,457.40580961496,NaN,NaN,712.784863451954,839.621618300407,1000.94274216971,756.993676208043,1011.40458100154,457.40580961496,729.712474266665,354.878267535729,545.155339110131,591.100628340862,NaN,NaN,0,0,4,0,0,NaN,horizontal,vertical,horizontal,horizontal,vertical,none
1d,10,100228,2,18,82,18,F,NA,constant,homogeneous,6,present,0.880758047103882,1,vertical,vertical,1,0.717644702686983,red,1,5,721.200666434388,842.519411655264,629.371695378491,410.498069503264,721.200666434388,842.519411655264,970.628304621509,789.501930496736,1049.42763818712,546.982518841471,878.799333565612,357.480588344736,629.371695378491,410.498069503264,550.57236181288,653.017481158529,4,0,0,0,0,0,vertical,vertical,vertical,horizontal,horizontal,horizontal
1d,10,100228,2,19,83,18,F,NA,constant,homogeneous,6,present,0.842648983001709,1,horizontal,horizontal,1,0.811760464836569,red,1,4,826.654758133252,853.60308331891,773.345241866748,346.39691668109,826.654758133252,853.60308331891,1032.95409169886,703.717843984329,1006.29933356561,450.114760665419,773.345241866748,346.39691668109,567.045908301137,496.282156015671,593.700666434388,749.885239334581,4,0,0,0,0,0,horizontal,vertical,horizontal,vertical,vertical,vertical
1d,10,100228,2,20,84,18,F,NA,constant,homogeneous,6,absent,0.8194260597229,1,horizontal,horizontal,1,0.999991989135742,red,3,NaN,963.910840470068,404.658667004661,NaN,NaN,887.215136548046,839.621618300407,1051.12597701811,644.280285305067,963.910840470068,404.658667004661,712.784863451954,360.378381699593,548.874022981887,555.719714694933,636.089159529932,795.341332995339,0,0,4,0,0,0,horizontal,horizontal,horizontal,horizontal,vertical,vertical
1d,10,100228,2,21,85,18,F,NA,constant,homogeneous,5,present,1.09733605384827,1,horizontal,horizontal,1,0.858818345911363,red,5,2,619.68777079743,780.31222920257,1051.86052685176,560.109211414741,915.767577433584,827.206663668034,1051.86052685176,560.109211414741,839.890788585259,348.13947314824,572.793336331966,484.232422566416,619.68777079743,780.31222920257,NaN,NaN,0,0,0,0,4,NaN,horizontal,horizontal,vertical,vertical,horizontal,none
1d,10,100228,2,22,86,18,F,NA,constant,homogeneous,5,present,1.1116030216217,1,vertical,vertical,1,1.02352092967314,red,4,1,613.504806087112,426.090418184063,848.656293821019,850.314931779154,848.656293821019,850.314931779154,1053.09926866854,631.076682568313,907.767656743878,368.891514305654,613.504806087112,426.090418184063,576.971974679454,723.626453162816,NaN,NaN,0,0,0,4,0,NaN,vertical,vertical,vertical,vertical,horizontal,none
1d,10,100228,2,23,87,18,F,NA,constant,homogeneous,5,absent,0.906328201293945,1,vertical,vertical,1,0.799995994567871,red,5,NaN,622.862115532956,783.431649086356,NaN,NaN,919.715248510402,825.151636179026,1051.12597701811,555.719714694933,835.489140744817,347.4816424709,570.807518193712,488.215357568785,622.862115532956,783.431649086356,NaN,NaN,0,0,0,0,4,NaN,horizontal,horizontal,horizontal,horizontal,vertical,none
1d,10,100228,2,24,88,18,F,NA,constant,homogeneous,3,absent,0.761438131332397,0,vertical,horizontal,1,0.635293410806095,red,3,NaN,548.13947314824,560.109211414741,NaN,NaN,891.383827134052,838.063008756786,960.476699717708,401.827779828472,548.13947314824,560.109211414741,NaN,NaN,NaN,NaN,NaN,NaN,0,0,4,NaN,NaN,NaN,horizontal,vertical,vertical,none,none,none
1d,10,100228,2,25,89,18,F,NA,constant,homogeneous,5,absent,1.58959698677063,1,horizontal,horizontal,1,0.847053875642664,red,1,NaN,919.715248510402,825.151636179026,NaN,NaN,919.715248510402,825.151636179026,1051.12597701811,555.719714694933,835.489140744817,347.4816424709,570.807518193712,488.215357568785,622.862115532956,783.431649086356,NaN,NaN,4,0,0,0,0,NaN,horizontal,vertical,horizontal,horizontal,vertical,none
1d,10,100228,2,26,90,18,F,NA,constant,homogeneous,5,present,0.930862188339233,1,vertical,vertical,1,0.658822351343491,red,1,2,844.280285305067,851.125977018113,1052.5183575291,635.489140744817,844.280285305067,851.125977018113,1052.5183575291,635.489140744817,911.784642431215,370.807518193712,616.568350913644,422.862115532956,574.848363820974,719.715248510402,NaN,NaN,4,0,0,0,0,NaN,vertical,vertical,vertical,vertical,horizontal,none
1d,10,100228,2,27,91,18,F,NA,constant,homogeneous,6,absent,1.14553809165955,1,vertical,vertical,1,0.988227518867044,red,6,NaN,610.498069503264,770.628304621509,NaN,NaN,853.017481158529,849.42763818712,1042.51941165526,678.799333565612,989.501930496736,429.371695378491,746.982518841471,350.57236181288,557.480588344736,521.200666434388,610.498069503264,770.628304621509,0,0,0,0,0,4,horizontal,horizontal,vertical,vertical,horizontal,vertical
1d,10,100228,2,28,92,18,F,NA,constant,homogeneous,4,present,0.833892822265625,1,vertical,vertical,1,0.67058682161219,red,1,3,751.343706178981,850.314931779154,848.656293821019,349.685068220846,751.343706178981,850.314931779154,1050.31493177915,648.656293821019,848.656293821019,349.685068220846,549.685068220846,551.343706178981,NaN,NaN,NaN,NaN,4,0,0,0,NaN,NaN,vertical,vertical,vertical,horizontal,none,none
1d,10,100228,2,29,93,18,F,NA,constant,homogeneous,4,absent,0.8610680103302,1,vertical,vertical,1,0.894111756717457,red,1,NaN,949.885239334581,806.299333565612,NaN,NaN,949.885239334581,806.299333565612,1006.29933356561,450.114760665419,650.114760665419,393.700666434388,593.700666434388,749.885239334581,NaN,NaN,NaN,NaN,4,0,0,0,NaN,NaN,vertical,vertical,vertical,horizontal,none,none
1d,10,100228,2,30,94,18,F,NA,constant,homogeneous,6,present,0.963964939117432,1,vertical,vertical,1,0.882347286448759,red,5,2,672.5,379.163522034968,927.5,820.836477965032,672.5,820.836477965032,927.5,820.836477965032,1055,600,927.5,379.163522034968,672.5,379.163522034968,545,600,0,0,0,0,4,0,horizontal,horizontal,horizontal,vertical,vertical,horizontal
1d,10,100228,2,31,95,18,F,NA,constant,homogeneous,4,absent,1.31160020828247,0,horizontal,vertical,1,0.811760464836569,red,2,NaN,1051.86052685176,639.890788585259,NaN,NaN,760.109211414741,851.86052685176,1051.86052685176,639.890788585259,839.890788585259,348.13947314824,548.13947314824,560.109211414741,NaN,NaN,NaN,NaN,0,4,0,0,NaN,NaN,horizontal,horizontal,vertical,vertical,none,none
1d,10,100228,2,32,96,18,F,NA,constant,homogeneous,3,present,0.731602907180786,1,horizontal,horizontal,1,0.870582816180061,red,2,3,1052.5183575291,635.489140744817,704.475318678942,363.568117085469,643.006323791957,800.942742169714,1052.5183575291,635.489140744817,704.475318678942,363.568117085469,NaN,NaN,NaN,NaN,NaN,NaN,0,4,0,NaN,NaN,NaN,horizontal,horizontal,horizontal,none,none,none
1d,10,100228,2,33,97,18,F,NA,constant,homogeneous,3,present,0.606631994247437,1,horizontal,horizontal,1,0.999991989135742,red,2,1,1041.10723677783,683.019879386575,607.549057043193,767.295052392579,607.549057043193,767.295052392579,1041.10723677783,683.019879386575,751.343706178981,349.685068220846,NaN,NaN,NaN,NaN,NaN,NaN,0,4,0,NaN,NaN,NaN,horizontal,horizontal,vertical,none,none,none
1d,10,100228,2,34,98,18,F,NA,constant,homogeneous,4,absent,0.981014966964722,1,horizontal,horizontal,1,0.917640697254854,red,3,NaN,887.215136548046,360.378381699593,NaN,NaN,712.784863451954,839.621618300407,1039.62161830041,687.215136548046,887.215136548046,360.378381699593,560.378381699593,512.784863451954,NaN,NaN,NaN,NaN,0,0,4,0,NaN,NaN,vertical,horizontal,horizontal,horizontal,none,none
1d,10,100228,2,35,99,18,F,NA,constant,homogeneous,6,absent,0.766623020172119,1,horizontal,horizontal,1,1.08234328101663,red,5,NaN,556.142287229426,525.445215295702,NaN,NaN,857.362518857686,848.464366520235,1043.85771277057,674.554784704298,986.495193912888,426.090418184063,742.637481142314,351.535633479765,556.142287229426,525.445215295702,613.504806087112,773.909581815937,0,0,0,0,4,0,horizontal,vertical,vertical,vertical,horizontal,horizontal
1d,10,100228,2,36,100,18,F,NA,constant,homogeneous,6,present,0.86340594291687,1,vertical,vertical,1,0.67058682161219,red,3,6,1036.43188291453,504.475318678942,563.568117085469,695.524681321058,764.510859255183,852.518357529101,1000.94274216971,756.993676208043,1036.43188291453,504.475318678942,835.489140744817,347.4816424709,599.057257830286,443.006323791957,563.568117085469,695.524681321058,0,0,4,0,0,0,vertical,vertical,vertical,vertical,vertical,vertical
1d,10,100228,2,37,101,18,F,NA,constant,homogeneous,6,absent,0.669527053833008,1,vertical,vertical,1,0.835289405373966,red,1,NaN,751.343706178981,850.314931779154,NaN,NaN,751.343706178981,850.314931779154,992.450942956807,767.295052392579,1041.10723677783,516.980120613425,848.656293821019,349.685068220846,607.549057043193,432.704947607421,558.892763222174,683.019879386575,4,0,0,0,0,0,vertical,horizontal,horizontal,horizontal,vertical,vertical
1d,10,100228,2,38,102,18,F,NA,constant,homogeneous,5,absent,0.856890916824341,1,horizontal,horizontal,1,0.682351291880888,red,2,NaN,1048.46436652023,542.637481142314,NaN,NaN,931.334709102064,818.577661679039,1048.46436652023,542.637481142314,822.224714400653,345.970351986605,565.271262369628,500.363562235235,632.704947607421,792.450942956807,NaN,NaN,0,4,0,0,0,NaN,vertical,horizontal,vertical,vertical,horizontal,none
1d,10,100228,2,39,103,18,F,NA,constant,homogeneous,6,present,1.02220988273621,1,horizontal,horizontal,1,0.999991989135742,red,5,6,551.535633479765,542.637481142314,626.090418184063,786.495193912888,874.554784704298,843.857712770574,1048.46436652023,657.362518857686,973.909581815937,413.504806087112,725.445215295702,356.142287229426,551.535633479765,542.637481142314,626.090418184063,786.495193912888,0,0,0,0,4,0,vertical,vertical,vertical,vertical,horizontal,horizontal
1d,10,100228,2,40,104,18,F,NA,constant,homogeneous,4,absent,0.69234299659729,1,horizontal,horizontal,1,1.07057881074793,red,2,NaN,1018.57766167904,468.665290897936,NaN,NaN,931.334709102064,818.577661679039,1018.57766167904,468.665290897936,668.665290897936,381.422338320961,581.422338320961,731.334709102064,NaN,NaN,NaN,NaN,0,4,0,0,NaN,NaN,horizontal,horizontal,horizontal,horizontal,none,none
1d,10,100228,2,41,105,18,F,NA,constant,homogeneous,4,present,0.613255023956299,0,vertical,horizontal,1,0.752938113493078,red,2,4,1053.60308331891,573.345241866748,546.39691668109,626.654758133252,826.654758133252,853.60308331891,1053.60308331891,573.345241866748,773.345241866748,346.39691668109,546.39691668109,626.654758133252,NaN,NaN,NaN,NaN,0,4,0,0,NaN,NaN,vertical,vertical,vertical,horizontal,none,none
1d,10,100228,2,42,106,18,F,NA,constant,homogeneous,3,absent,1.25890493392944,1,horizontal,horizontal,1,1.05881434047923,red,2,NaN,967.295052392579,407.549057043193,NaN,NaN,883.019879386575,841.107236777826,967.295052392579,407.549057043193,549.685068220846,551.343706178981,NaN,NaN,NaN,NaN,NaN,NaN,0,4,0,NaN,NaN,NaN,vertical,horizontal,horizontal,none,none,none
1d,10,100228,2,43,107,18,F,NA,constant,homogeneous,4,present,0.746559143066406,1,horizontal,horizontal,1,0.705880232418285,red,3,2,643.006323791957,399.057257830286,1000.94274216971,443.006323791957,956.993676208043,800.942742169714,1000.94274216971,443.006323791957,643.006323791957,399.057257830286,599.057257830286,756.993676208043,NaN,NaN,NaN,NaN,0,0,4,0,NaN,NaN,horizontal,vertical,horizontal,horizontal,none,none
1d,10,100228,2,44,108,18,F,NA,constant,homogeneous,3,present,0.961424112319946,1,horizontal,horizontal,1,0.799995994567871,red,3,2,568.891514305654,707.767656743878,822.224714400653,345.970351986605,1008.88377129369,746.261991269517,822.224714400653,345.970351986605,568.891514305654,707.767656743878,NaN,NaN,NaN,NaN,NaN,NaN,0,0,4,NaN,NaN,NaN,vertical,horizontal,horizontal,none,none,none
1d,10,100228,2,45,109,18,F,NA,constant,homogeneous,3,absent,0.661113023757935,1,horizontal,horizontal,1,1.02352092967314,red,2,NaN,1050.31493177915,648.656293821019,NaN,NaN,632.704947607421,792.450942956807,1050.31493177915,648.656293821019,716.980120613425,358.892763222174,NaN,NaN,NaN,NaN,NaN,NaN,0,4,0,NaN,NaN,NaN,vertical,horizontal,horizontal,none,none,none
1d,10,100228,2,46,110,18,F,NA,constant,homogeneous,6,absent,1.20071983337402,1,vertical,vertical,1,0.694115762149586,red,4,NaN,680.284751489598,374.848363820974,NaN,NaN,919.715248510402,825.151636179026,1054.84466088987,608.899371659138,935.129412379467,383.747735480111,680.284751489598,374.848363820974,545.155339110131,591.100628340862,664.870587620533,816.252264519889,0,0,0,4,0,0,vertical,horizontal,vertical,vertical,horizontal,horizontal
1d,10,100228,2,47,111,18,F,NA,constant,homogeneous,3,absent,0.586220979690552,1,vertical,vertical,1,0.858818345911363,red,3,NaN,777.775285599347,345.970351986605,NaN,NaN,591.116228706307,746.261991269517,1031.10848569435,707.767656743878,777.775285599347,345.970351986605,NaN,NaN,NaN,NaN,NaN,NaN,0,0,4,NaN,NaN,NaN,vertical,horizontal,vertical,none,none,none
1d,10,100228,2,48,112,18,F,NA,constant,homogeneous,4,absent,0.689783096313477,1,vertical,vertical,1,0.988227518867044,red,4,NaN,613.504806087112,426.090418184063,NaN,NaN,626.090418184063,786.495193912888,986.495193912888,773.909581815937,973.909581815937,413.504806087112,613.504806087112,426.090418184063,NaN,NaN,NaN,NaN,0,0,0,4,NaN,NaN,vertical,horizontal,horizontal,vertical,none,none
1d,10,100228,2,49,113,18,F,NA,constant,homogeneous,4,absent,0.728738069534302,1,vertical,vertical,1,0.858818345911363,red,2,NaN,1050.31493177915,648.656293821019,NaN,NaN,751.343706178981,850.314931779154,1050.31493177915,648.656293821019,848.656293821019,349.685068220846,549.685068220846,551.343706178981,NaN,NaN,NaN,NaN,0,4,0,0,NaN,NaN,horizontal,vertical,horizontal,vertical,none,none
1d,10,100228,2,50,114,18,F,NA,constant,homogeneous,3,present,0.643121957778931,1,vertical,vertical,1,0.976463048598346,red,2,3,986.495193912888,426.090418184063,556.142287229426,525.445215295702,857.362518857686,848.464366520235,986.495193912888,426.090418184063,556.142287229426,525.445215295702,NaN,NaN,NaN,NaN,NaN,NaN,0,4,0,NaN,NaN,NaN,vertical,vertical,horizontal,none,none,none
1d,10,100228,2,51,115,18,F,NA,constant,homogeneous,5,present,0.868138074874878,1,horizontal,horizontal,1,0.6,red,3,1,1000.94274216971,443.006323791957,729.712474266665,845.121732464271,729.712474266665,845.121732464271,1011.40458100154,742.594190385041,1000.94274216971,443.006323791957,712.784863451954,360.378381699593,545.155339110131,608.899371659138,NaN,NaN,0,0,4,0,0,NaN,vertical,horizontal,horizontal,horizontal,horizontal,none
1d,10,100228,2,52,116,18,F,NA,constant,homogeneous,5,present,1.1998770236969,1,vertical,vertical,1,0.917640697254854,red,4,1,661.117046071168,386.139005173917,786.654331158049,854.650531362416,786.654331158049,854.650531362416,1038.06300875679,691.383827134052,960.476699717708,401.827779828472,661.117046071168,386.139005173917,553.688914296288,665.998856501143,NaN,NaN,0,0,0,4,0,NaN,horizontal,horizontal,horizontal,vertical,vertical,none
1d,10,100228,2,53,117,18,F,NA,constant,homogeneous,4,absent,0.814129829406738,1,vertical,vertical,1,1.09410775128533,red,2,NaN,1043.85771277057,674.554784704298,NaN,NaN,725.445215295702,843.857712770574,1043.85771277057,674.554784704298,874.554784704298,356.142287229426,556.142287229426,525.445215295702,NaN,NaN,NaN,NaN,0,4,0,0,NaN,NaN,horizontal,vertical,horizontal,horizontal,none,none
1d,10,100228,2,54,118,18,F,NA,constant,homogeneous,5,present,1.316073179245,1,horizontal,horizontal,1,0.682351291880888,red,4,1,704.475318678942,363.568117085469,738.309916622085,847.425410200379,738.309916622085,847.425410200379,1016.25226451989,735.129412379467,995.341332995339,436.089159529932,704.475318678942,363.568117085469,545.621167183745,617.787900804752,NaN,NaN,0,0,0,4,0,NaN,vertical,vertical,horizontal,horizontal,horizontal,none
1d,10,100228,2,55,119,18,F,NA,constant,homogeneous,4,present,0.73186182975769,1,vertical,vertical,1,1.04704987021054,red,2,4,983.431649086356,422.862115532956,616.568350913644,777.137884467044,977.137884467044,783.431649086356,983.431649086356,422.862115532956,622.862115532956,416.568350913644,616.568350913644,777.137884467044,NaN,NaN,NaN,NaN,0,4,0,0,NaN,NaN,horizontal,vertical,horizontal,vertical,none,none
1d,10,100228,2,56,120,18,F,NA,constant,homogeneous,4,present,0.739297866821289,0,horizontal,vertical,1,0.635293410806095,red,3,2,664.870587620533,383.747735480111,1016.25226451989,464.870587620533,935.129412379467,816.252264519889,1016.25226451989,464.870587620533,664.870587620533,383.747735480111,583.747735480111,735.129412379467,NaN,NaN,NaN,NaN,0,0,4,0,NaN,NaN,horizontal,horizontal,horizontal,horizontal,none,none
1d,10,100228,2,57,121,18,F,NA,constant,homogeneous,4,present,0.960154056549072,1,horizontal,horizontal,1,0.694115762149586,red,3,4,742.637481142314,351.535633479765,551.535633479765,657.362518857686,857.362518857686,848.464366520235,1048.46436652023,542.637481142314,742.637481142314,351.535633479765,551.535633479765,657.362518857686,NaN,NaN,NaN,NaN,0,0,4,0,NaN,NaN,horizontal,horizontal,horizontal,horizontal,none,none
1d,10,100228,2,58,122,18,F,NA,constant,homogeneous,5,present,0.947107076644897,1,horizontal,horizontal,1,0.776467054030474,red,2,1,1036.43188291453,695.524681321058,782.212099195248,854.378832816255,782.212099195248,854.378832816255,1036.43188291453,695.524681321058,963.910840470068,404.658667004661,664.870587620533,383.747735480111,552.574589799621,661.690083377915,NaN,NaN,0,4,0,0,0,NaN,horizontal,horizontal,horizontal,vertical,horizontal,none
1d,10,100228,2,59,123,18,F,NA,constant,homogeneous,4,present,1.00831198692322,1,vertical,vertical,1,0.905876226986156,red,3,2,831.076682568313,346.900731331463,1053.09926866854,631.076682568313,768.923317431687,853.099268668537,1053.09926866854,631.076682568313,831.076682568313,346.900731331463,546.900731331463,568.923317431687,NaN,NaN,NaN,NaN,0,0,4,0,NaN,NaN,horizontal,vertical,vertical,horizontal,none,none
1d,10,100228,2,60,124,18,F,NA,constant,homogeneous,6,present,1.21103596687317,1,horizontal,horizontal,1,0.929405167523552,red,6,3,610.498069503264,770.628304621509,989.501930496736,429.371695378491,853.017481158529,849.42763818712,1042.51941165526,678.799333565612,989.501930496736,429.371695378491,746.982518841471,350.57236181288,557.480588344736,521.200666434388,610.498069503264,770.628304621509,0,0,0,0,0,4,horizontal,vertical,horizontal,vertical,vertical,horizontal
1d,10,100228,2,61,125,18,F,NA,constant,homogeneous,5,absent,1.01133608818054,1,vertical,vertical,1,0.776467054030474,red,5,NaN,650.114760665419,806.299333565612,NaN,NaN,949.885239334581,806.299333565612,1042.51941165526,521.200666434388,800,345,557.480588344736,521.200666434388,650.114760665419,806.299333565612,NaN,NaN,0,0,0,0,4,NaN,horizontal,horizontal,vertical,vertical,vertical,none
1d,10,100228,2,62,126,18,F,NA,constant,homogeneous,3,absent,0.73536491394043,1,vertical,vertical,1,0.788231524299173,red,2,NaN,1048.46436652023,542.637481142314,NaN,NaN,725.445215295702,843.857712770574,1048.46436652023,542.637481142314,626.090418184063,413.504806087112,NaN,NaN,NaN,NaN,NaN,NaN,0,4,0,NaN,NaN,NaN,vertical,vertical,horizontal,none,none,none
1d,10,100228,2,63,127,18,F,NA,constant,homogeneous,5,absent,0.700245141983032,1,vertical,vertical,1,1.09410775128533,red,3,NaN,1023.02802532055,476.373546837184,NaN,NaN,692.232343256122,831.108485694346,986.495193912888,773.909581815937,1023.02802532055,476.373546837184,751.343706178981,349.685068220846,546.900731331463,568.923317431687,NaN,NaN,0,0,4,0,0,NaN,horizontal,horizontal,vertical,horizontal,vertical,none
1d,10,100228,2,64,128,18,F,NA,constant,homogeneous,6,absent,0.599677085876465,1,vertical,vertical,1,0.882347286448759,red,3,NaN,992.450942956807,432.704947607421,NaN,NaN,848.656293821019,850.314931779154,1041.10723677783,683.019879386575,992.450942956807,432.704947607421,751.343706178981,349.685068220846,558.892763222174,516.980120613425,607.549057043193,767.295052392579,0,0,4,0,0,0,vertical,vertical,vertical,vertical,vertical,horizontal
1d,10,100228,3,1,129,18,F,NA,constant,homogeneous,4,present,0.765629053115845,1,horizontal,horizontal,1,0.647057881074793,red,3,2,725.445215295702,356.142287229426,1043.85771277057,525.445215295702,874.554784704298,843.857712770574,1043.85771277057,525.445215295702,725.445215295702,356.142287229426,556.142287229426,674.554784704298,NaN,NaN,NaN,NaN,0,0,4,0,NaN,NaN,vertical,horizontal,horizontal,horizontal,none,none
1d,10,100228,3,2,130,18,F,NA,constant,homogeneous,6,present,0.602642059326172,1,horizontal,horizontal,1,0.682351291880888,red,4,5,883.019879386575,358.892763222174,632.704947607421,407.549057043193,716.980120613425,841.107236777826,967.295052392579,792.450942956807,1050.31493177915,551.343706178981,883.019879386575,358.892763222174,632.704947607421,407.549057043193,549.685068220846,648.656293821019,0,0,0,4,0,0,horizontal,horizontal,horizontal,horizontal,vertical,horizontal
1d,10,100228,3,3,131,18,F,NA,constant,homogeneous,6,absent,0.639019012451172,1,vertical,vertical,1,0.999991989135742,red,1,NaN,760.109211414741,851.86052685176,NaN,NaN,760.109211414741,851.86052685176,998.172220171528,760.476699717708,1038.06300875679,508.616172865948,839.890788585259,348.13947314824,601.827779828472,439.523300282291,561.936991243214,691.383827134052,4,0,0,0,0,0,vertical,horizontal,vertical,vertical,horizontal,vertical
1d,10,100228,3,4,132,18,F,NA,constant,homogeneous,4,present,0.573118925094604,0,vertical,horizontal,1,0.858818345911363,red,4,3,553.688914296288,534.001143498857,865.998856501143,353.688914296288,734.001143498857,846.311085703712,1046.31108570371,665.998856501143,865.998856501143,353.688914296288,553.688914296288,534.001143498857,NaN,NaN,NaN,NaN,0,0,0,4,NaN,NaN,horizontal,vertical,vertical,vertical,none,none
1d,10,100228,3,5,133,18,F,NA,constant,homogeneous,3,absent,0.963385105133057,1,vertical,vertical,1,0.929405167523552,red,2,NaN,1008.88377129369,453.738008730483,NaN,NaN,822.224714400653,854.029648013395,1008.88377129369,453.738008730483,568.891514305654,492.232343256122,NaN,NaN,NaN,NaN,NaN,NaN,0,4,0,NaN,NaN,NaN,vertical,vertical,horizontal,none,none,none
1d,10,100228,3,6,134,18,F,NA,constant,homogeneous,3,present,0.53742504119873,1,horizontal,horizontal,1,0.729409172955681,red,1,2,725.445215295702,843.857712770574,1048.46436652023,542.637481142314,725.445215295702,843.857712770574,1048.46436652023,542.637481142314,626.090418184063,413.504806087112,NaN,NaN,NaN,NaN,NaN,NaN,4,0,0,NaN,NaN,NaN,horizontal,horizontal,horizontal,none,none,none
1d,10,100228,3,7,135,18,F,NA,constant,homogeneous,6,absent,1.24524092674255,1,horizontal,horizontal,1,1.04704987021054,red,6,NaN,607.549057043193,767.295052392579,NaN,NaN,848.656293821019,850.314931779154,1041.10723677783,683.019879386575,992.450942956807,432.704947607421,751.343706178981,349.685068220846,558.892763222174,516.980120613425,607.549057043193,767.295052392579,0,0,0,0,0,4,horizontal,horizontal,vertical,horizontal,vertical,horizontal
1d,10,100228,3,8,136,18,F,NA,constant,homogeneous,5,absent,0.617537021636963,1,horizontal,horizontal,1,0.764702583761776,red,5,NaN,545.03883773512,604.450363641507,NaN,NaN,725.445215295702,843.857712770574,1008.88377129369,746.261991269517,1003.65205506206,446.537169096228,716.980120613425,358.892763222174,545.03883773512,604.450363641507,NaN,NaN,0,0,0,0,4,NaN,horizontal,vertical,vertical,horizontal,horizontal,none
1d,10,100228,3,9,137,18,F,NA,constant,homogeneous,6,present,0.76705002784729,1,horizontal,horizontal,1,0.658822351343491,red,2,6,1051.12597701811,644.280285305067,636.089159529932,795.341332995339,887.215136548046,839.621618300407,1051.12597701811,644.280285305067,963.910840470068,404.658667004661,712.784863451954,360.378381699593,548.874022981887,555.719714694933,636.089159529932,795.341332995339,0,4,0,0,0,0,horizontal,horizontal,vertical,horizontal,horizontal,horizontal
1d,10,100228,3,10,138,18,F,NA,constant,homogeneous,4,present,0.591466188430786,1,vertical,vertical,1,1.02352092967314,red,4,3,604.658667004661,436.089159529932,963.910840470068,404.658667004661,636.089159529932,795.341332995339,995.341332995339,763.910840470068,963.910840470068,404.658667004661,604.658667004661,436.089159529932,NaN,NaN,NaN,NaN,0,0,0,4,NaN,NaN,vertical,horizontal,vertical,vertical,none,none
1d,10,100228,3,11,139,18,F,NA,constant,homogeneous,3,present,0.593240976333618,1,vertical,vertical,1,0.694115762149586,red,3,2,548.874022981887,644.280285305067,887.215136548046,360.378381699593,963.910840470068,795.341332995339,887.215136548046,360.378381699593,548.874022981887,644.280285305067,NaN,NaN,NaN,NaN,NaN,NaN,0,0,4,NaN,NaN,NaN,vertical,vertical,vertical,none,none,none
1d,10,100228,3,12,140,18,F,NA,constant,homogeneous,3,absent,0.528048992156982,1,vertical,vertical,1,0.952934108060949,red,2,NaN,1054.84466088987,608.899371659138,NaN,NaN,664.870587620533,816.252264519889,1054.84466088987,608.899371659138,680.284751489598,374.848363820974,NaN,NaN,NaN,NaN,NaN,NaN,0,4,0,NaN,NaN,NaN,vertical,vertical,vertical,none,none,none
1d,10,100228,3,13,141,18,F,NA,constant,homogeneous,4,absent,0.816615104675293,1,vertical,vertical,1,0.882347286448759,red,1,NaN,653.738008730483,808.883771293693,NaN,NaN,653.738008730483,808.883771293693,1008.88377129369,746.261991269517,946.261991269517,391.116228706307,591.116228706307,453.738008730483,NaN,NaN,NaN,NaN,4,0,0,0,NaN,NaN,vertical,horizontal,horizontal,horizontal,none,none
1d,10,100228,3,14,142,18,F,NA,constant,homogeneous,4,absent,0.893197059631348,1,horizontal,horizontal,1,0.988227518867044,red,4,NaN,546.900731331463,568.923317431687,NaN,NaN,768.923317431687,853.099268668537,1053.09926866854,631.076682568313,831.076682568313,346.900731331463,546.900731331463,568.923317431687,NaN,NaN,NaN,NaN,0,0,0,4,NaN,NaN,horizontal,vertical,horizontal,horizontal,none,none
1d,10,100228,3,15,143,18,F,NA,constant,homogeneous,3,absent,0.958887815475464,1,vertical,vertical,1,0.788231524299173,red,2,NaN,1051.12597701811,644.280285305067,NaN,NaN,636.089159529932,795.341332995339,1051.12597701811,644.280285305067,712.784863451954,360.378381699593,NaN,NaN,NaN,NaN,NaN,NaN,0,4,0,NaN,NaN,NaN,vertical,vertical,horizontal,none,none,none
1d,10,100228,3,16,144,18,F,NA,constant,homogeneous,4,present,0.988697052001953,1,vertical,vertical,1,0.941169637792251,red,1,4,861.690083377915,847.425410200379,552.574589799621,661.690083377915,861.690083377915,847.425410200379,1047.42541020038,538.309916622085,738.309916622085,352.574589799621,552.574589799621,661.690083377915,NaN,NaN,NaN,NaN,4,0,0,0,NaN,NaN,vertical,vertical,horizontal,vertical,none,none
1d,10,100228,3,17,145,18,F,NA,constant,homogeneous,5,absent,0.679451942443848,1,vertical,vertical,1,0.917640697254854,red,5,NaN,568.891514305654,707.767656743878,NaN,NaN,831.076682568313,853.099268668537,1050.31493177915,648.656293821019,923.626453162816,376.971974679454,626.090418184063,413.504806087112,568.891514305654,707.767656743878,NaN,NaN,0,0,0,0,4,NaN,horizontal,horizontal,vertical,horizontal,vertical,none
1d,10,100228,3,18,146,18,F,NA,constant,homogeneous,3,present,0.650628089904785,1,vertical,vertical,1,0.682351291880888,red,2,3,853.017481158529,350.57236181288,557.480588344736,678.799333565612,989.501930496736,770.628304621509,853.017481158529,350.57236181288,557.480588344736,678.799333565612,NaN,NaN,NaN,NaN,NaN,NaN,0,4,0,NaN,NaN,NaN,horizontal,vertical,horizontal,none,none,none
1d,10,100228,3,19,147,18,F,NA,constant,homogeneous,6,present,0.605921983718872,1,vertical,vertical,1,0.905876226986156,red,4,6,883.019879386575,358.892763222174,549.685068220846,648.656293821019,716.980120613425,841.107236777826,967.295052392579,792.450942956807,1050.31493177915,551.343706178981,883.019879386575,358.892763222174,632.704947607421,407.549057043193,549.685068220846,648.656293821019,0,0,0,4,0,0,horizontal,vertical,vertical,vertical,vertical,vertical
1d,10,100228,3,20,148,18,F,NA,constant,homogeneous,4,present,0.831943035125732,1,horizontal,horizontal,1,1.08234328101663,red,2,4,1025.15163617903,719.715248510402,574.848363820974,480.284751489598,680.284751489598,825.151636179026,1025.15163617903,719.715248510402,919.715248510402,374.848363820974,574.848363820974,480.284751489598,NaN,NaN,NaN,NaN,0,4,0,0,NaN,NaN,vertical,horizontal,vertical,vertical,none,none
1d,10,100228,3,21,149,18,F,NA,constant,homogeneous,5,absent,0.649800062179565,1,horizontal,horizontal,1,0.858818345911363,red,2,NaN,1054.84466088987,608.899371659138,NaN,NaN,870.287525733335,845.121732464271,1054.84466088987,608.899371659138,887.215136548046,360.378381699593,599.057257830286,443.006323791957,588.595418998464,742.594190385041,NaN,NaN,0,4,0,0,0,NaN,horizontal,horizontal,horizontal,vertical,horizontal,none
1d,10,100228,3,22,150,18,F,NA,constant,homogeneous,6,present,0.845213174819946,1,vertical,vertical,1,0.905876226986156,red,4,3,817.787900804752,345.621167183745,1029.19248180629,488.215357568785,782.212099195248,854.378832816255,1011.40458100154,742.594190385041,1029.19248180629,488.215357568785,817.787900804752,345.621167183745,588.595418998464,457.40580961496,570.807518193712,711.784642431215,0,0,0,4,0,0,horizontal,vertical,vertical,vertical,vertical,horizontal
1d,10,100228,3,23,151,18,F,NA,constant,homogeneous,3,absent,1.03154683113098,0,horizontal,vertical,1,0.67058682161219,red,1,NaN,949.885239334581,806.299333565612,NaN,NaN,949.885239334581,806.299333565612,903.717843984329,367.045908301137,546.39691668109,626.654758133252,NaN,NaN,NaN,NaN,NaN,NaN,4,0,0,NaN,NaN,NaN,horizontal,vertical,horizontal,none,none,none
1d,10,100228,3,24,152,18,F,NA,constant,homogeneous,6,absent,1.12266516685486,0,horizontal,vertical,1,0.929405167523552,red,4,NaN,883.019879386575,358.892763222174,NaN,NaN,716.980120613425,841.107236777826,967.295052392579,792.450942956807,1050.31493177915,551.343706178981,883.019879386575,358.892763222174,632.704947607421,407.549057043193,549.685068220846,648.656293821019,0,0,0,4,0,0,horizontal,vertical,vertical,horizontal,horizontal,horizontal
1d,10,100228,3,25,153,18,F,NA,constant,homogeneous,5,present,1.45428895950317,1,horizontal,horizontal,1,1.03528539994184,red,1,4,721.200666434388,842.519411655264,721.200666434388,357.480588344736,721.200666434388,842.519411655264,1006.29933356561,749.885239334581,1006.29933356561,450.114760665419,721.200666434388,357.480588344736,545,600,NaN,NaN,4,0,0,0,0,NaN,horizontal,horizontal,horizontal,vertical,vertical,none
1d,10,100228,3,26,154,18,F,NA,constant,homogeneous,5,present,0.873934030532837,1,vertical,vertical,1,0.929405167523552,red,2,1,967.295052392579,792.450942956807,668.665290897936,818.577661679039,668.665290897936,818.577661679039,967.295052392579,792.450942956807,1034.72873763037,500.363562235235,777.775285599347,345.970351986605,551.535633479765,542.637481142314,NaN,NaN,0,4,0,0,0,NaN,horizontal,vertical,vertical,horizontal,vertical,none
1d,10,100228,3,27,155,18,F,NA,constant,homogeneous,3,present,0.748026847839355,1,horizontal,horizontal,1,0.811760464836569,red,1,3,938.882953928832,813.860994826083,545.349468637584,613.345668841951,938.882953928832,813.860994826083,915.767577433584,372.793336331966,545.349468637584,613.345668841951,NaN,NaN,NaN,NaN,NaN,NaN,4,0,0,NaN,NaN,NaN,horizontal,vertical,vertical,none,none,none
1d,10,100228,3,28,156,18,F,NA,constant,homogeneous,5,present,1.19233798980713,1,horizontal,horizontal,1,0.658822351343491,red,3,4,998.172220171528,439.523300282291,708.616172865948,361.936991243214,734.001143498857,846.311085703712,1013.86099482608,738.882953928832,998.172220171528,439.523300282291,708.616172865948,361.936991243214,545.349468637584,613.345668841951,NaN,NaN,0,0,4,0,0,NaN,vertical,vertical,horizontal,horizontal,vertical,none
1d,10,100228,3,29,157,18,F,NA,constant,homogeneous,3,present,0.730020046234131,1,vertical,vertical,1,1.09410775128533,red,3,2,795.549636358493,345.03883773512,1023.02802532055,723.626453162816,581.422338320961,731.334709102064,1023.02802532055,723.626453162816,795.549636358493,345.03883773512,NaN,NaN,NaN,NaN,NaN,NaN,0,0,4,NaN,NaN,NaN,horizontal,vertical,vertical,none,none,none
1d,10,100228,3,30,158,18,F,NA,constant,homogeneous,4,absent,0.908550024032593,1,horizontal,horizontal,1,0.976463048598346,red,1,NaN,782.212099195248,854.378832816255,NaN,NaN,782.212099195248,854.378832816255,1054.37883281626,617.787900804752,817.787900804752,345.621167183745,545.621167183745,582.212099195248,NaN,NaN,NaN,NaN,4,0,0,0,NaN,NaN,horizontal,horizontal,horizontal,horizontal,none,none
1d,10,100228,3,31,159,18,F,NA,constant,homogeneous,5,absent,0.697170972824097,1,vertical,vertical,1,0.717644702686983,red,1,NaN,831.076682568313,853.099268668537,NaN,NaN,831.076682568313,853.099268668537,1050.31493177915,648.656293821019,923.626453162816,376.971974679454,626.090418184063,413.504806087112,568.891514305654,707.767656743878,NaN,NaN,4,0,0,0,0,NaN,vertical,horizontal,horizontal,vertical,horizontal,none
1d,10,100228,3,32,160,18,F,NA,constant,homogeneous,6,absent,1.35147595405579,1,horizontal,horizontal,1,0.799995994567871,red,4,NaN,817.787900804752,345.621167183745,NaN,NaN,782.212099195248,854.378832816255,1011.40458100154,742.594190385041,1029.19248180629,488.215357568785,817.787900804752,345.621167183745,588.595418998464,457.40580961496,570.807518193712,711.784642431215,0,0,0,4,0,0,vertical,vertical,horizontal,horizontal,vertical,vertical
1d,10,100228,3,33,161,18,F,NA,constant,homogeneous,3,present,0.963985919952393,1,horizontal,horizontal,1,0.847053875642664,red,3,2,545.349468637584,613.345668841951,915.767577433584,372.793336331966,938.882953928832,813.860994826083,915.767577433584,372.793336331966,545.349468637584,613.345668841951,NaN,NaN,NaN,NaN,NaN,NaN,0,0,4,NaN,NaN,NaN,horizontal,horizontal,horizontal,none,none,none
1d,10,100228,3,34,162,18,F,NA,constant,homogeneous,6,absent,0.93116021156311,1,vertical,vertical,1,0.999991989135742,red,4,NaN,777.775285599347,345.970351986605,NaN,NaN,822.224714400653,854.029648013395,1031.10848569435,707.767656743878,1008.88377129369,453.738008730483,777.775285599347,345.970351986605,568.891514305654,492.232343256122,591.116228706307,746.261991269517,0,0,0,4,0,0,horizontal,vertical,horizontal,vertical,horizontal,vertical
1d,10,100228,3,35,163,18,F,NA,constant,homogeneous,3,absent,0.726030826568604,1,horizontal,horizontal,1,0.999991989135742,red,1,NaN,973.909581815937,786.495193912888,NaN,NaN,973.909581815937,786.495193912888,874.554784704298,356.142287229426,551.535633479765,657.362518857686,NaN,NaN,NaN,NaN,NaN,NaN,4,0,0,NaN,NaN,NaN,horizontal,horizontal,horizontal,none,none,none
1d,10,100228,3,36,164,18,F,NA,constant,homogeneous,4,present,0.671999931335449,1,horizontal,horizontal,1,0.964698578329647,red,3,4,800,345,545,600,800,855,1055,600,800,345,545,600,NaN,NaN,NaN,NaN,0,0,4,0,NaN,NaN,horizontal,horizontal,horizontal,horizontal,none,none
1d,10,100228,3,37,165,18,F,NA,constant,homogeneous,5,present,0.826831102371216,1,horizontal,horizontal,1,1.05881434047923,red,1,2,782.212099195248,854.378832816255,1036.43188291453,695.524681321058,782.212099195248,854.378832816255,1036.43188291453,695.524681321058,963.910840470068,404.658667004661,664.870587620533,383.747735480111,552.574589799621,661.690083377915,NaN,NaN,4,0,0,0,0,NaN,horizontal,vertical,vertical,vertical,horizontal,none
1d,10,100228,3,38,166,18,F,NA,constant,homogeneous,5,present,1.28241682052612,1,vertical,vertical,1,0.74117364322438,red,5,1,552.574589799621,538.309916622085,664.870587620533,816.252264519889,664.870587620533,816.252264519889,963.910840470068,795.341332995339,1036.43188291453,504.475318678942,782.212099195248,345.621167183745,552.574589799621,538.309916622085,NaN,NaN,0,0,0,0,4,NaN,horizontal,horizontal,horizontal,horizontal,vertical,none
1d,10,100228,3,39,167,18,F,NA,constant,homogeneous,6,absent,1.58112907409668,1,horizontal,horizontal,1,0.623528940537397,red,3,NaN,1050.31493177915,551.343706178981,NaN,NaN,716.980120613425,841.107236777826,967.295052392579,792.450942956807,1050.31493177915,551.343706178981,883.019879386575,358.892763222174,632.704947607421,407.549057043193,549.685068220846,648.656293821019,0,0,4,0,0,0,vertical,horizontal,horizontal,vertical,vertical,horizontal
1d,10,100228,3,40,168,18,F,NA,constant,homogeneous,6,absent,0.877784967422485,1,vertical,vertical,1,0.858818345911363,red,6,NaN,545.155339110131,608.899371659138,NaN,NaN,680.284751489598,825.151636179026,935.129412379467,816.252264519889,1054.84466088987,591.100628340862,919.715248510402,374.848363820974,664.870587620533,383.747735480111,545.155339110131,608.899371659138,0,0,0,0,0,4,horizontal,vertical,vertical,vertical,horizontal,vertical
1d,10,100228,3,41,169,18,F,NA,constant,homogeneous,5,present,0.783060073852539,1,horizontal,horizontal,1,0.964698578329647,red,2,1,980.31222920257,780.31222920257,684.232422566416,827.206663668034,684.232422566416,827.206663668034,980.31222920257,780.31222920257,1027.20666366803,484.232422566416,760.109211414741,348.13947314824,548.13947314824,560.109211414741,NaN,NaN,0,4,0,0,0,NaN,horizontal,horizontal,vertical,horizontal,horizontal,none
1d,10,100228,3,42,170,18,F,NA,constant,homogeneous,3,absent,0.678442001342773,1,vertical,vertical,1,0.988227518867044,red,1,NaN,738.309916622085,847.425410200379,NaN,NaN,738.309916622085,847.425410200379,1045.12173246427,529.712474266665,616.568350913644,422.862115532956,NaN,NaN,NaN,NaN,NaN,NaN,4,0,0,NaN,NaN,NaN,vertical,vertical,vertical,none,none,none
1d,10,100228,3,43,171,18,F,NA,constant,homogeneous,5,present,1.07139205932617,1,vertical,vertical,1,0.764702583761776,red,3,1,1011.40458100154,457.40580961496,712.784863451954,839.621618300407,712.784863451954,839.621618300407,1000.94274216971,756.993676208043,1011.40458100154,457.40580961496,729.712474266665,354.878267535729,545.155339110131,591.100628340862,NaN,NaN,0,0,4,0,0,NaN,horizontal,horizontal,vertical,horizontal,horizontal,none
1d,10,100228,3,44,172,18,F,NA,constant,homogeneous,4,absent,0.861048936843872,1,vertical,vertical,1,0.999991989135742,red,1,NaN,700.363562235235,834.728737630372,NaN,NaN,700.363562235235,834.728737630372,1034.72873763037,699.636437764765,899.636437764765,365.271262369628,565.271262369628,500.363562235235,NaN,NaN,NaN,NaN,4,0,0,0,NaN,NaN,vertical,horizontal,vertical,horizontal,none,none
1d,10,100228,3,45,173,18,F,NA,constant,homogeneous,4,absent,0.817830085754395,1,horizontal,horizontal,1,0.964698578329647,red,2,NaN,1023.02802532055,476.373546837184,NaN,NaN,923.626453162816,823.028025320546,1023.02802532055,476.373546837184,676.373546837184,376.971974679454,576.971974679454,723.626453162816,NaN,NaN,NaN,NaN,0,4,0,0,NaN,NaN,horizontal,horizontal,horizontal,horizontal,none,none
1d,10,100228,3,46,174,18,F,NA,constant,homogeneous,5,absent,0.991106986999512,0,horizontal,vertical,1,0.835289405373966,red,2,NaN,1054.84466088987,608.899371659138,NaN,NaN,870.287525733335,845.121732464271,1054.84466088987,608.899371659138,887.215136548046,360.378381699593,599.057257830286,443.006323791957,588.595418998464,742.594190385041,NaN,NaN,0,4,0,0,0,NaN,vertical,horizontal,vertical,horizontal,horizontal,none
1d,10,100228,3,47,175,18,F,NA,constant,homogeneous,4,absent,1.09248113632202,1,vertical,vertical,1,0.882347286448759,red,4,NaN,583.747735480111,735.129412379467,NaN,NaN,935.129412379467,816.252264519889,1016.25226451989,464.870587620533,664.870587620533,383.747735480111,583.747735480111,735.129412379467,NaN,NaN,NaN,NaN,0,0,0,4,NaN,NaN,horizontal,vertical,vertical,vertical,none,none
1d,10,100228,3,48,176,18,F,NA,constant,homogeneous,6,present,1.42168283462524,1,horizontal,horizontal,1,0.74117364322438,red,4,6,768.923317431687,346.900731331463,596.34794493794,753.462830903772,831.076682568313,853.099268668537,1034.72873763037,699.636437764765,1003.65205506206,446.537169096228,768.923317431687,346.900731331463,565.271262369628,500.363562235235,596.34794493794,753.462830903772,0,0,0,4,0,0,horizontal,vertical,horizontal,horizontal,vertical,vertical
1d,10,100228,3,49,177,18,F,NA,constant,homogeneous,5,present,1.75407600402832,1,vertical,vertical,1,0.788231524299173,red,1,3,742.637481142314,848.464366520235,992.450942956807,432.704947607421,742.637481142314,848.464366520235,1018.57766167904,731.334709102064,992.450942956807,432.704947607421,700.363562235235,365.271262369628,545.970351986605,622.224714400653,NaN,NaN,4,0,0,0,0,NaN,vertical,horizontal,vertical,horizontal,vertical,none
1d,10,100228,3,50,178,18,F,NA,constant,homogeneous,6,present,0.700784921646118,1,vertical,vertical,1,0.976463048598346,red,6,2,668.665290897936,818.577661679039,1054.96116226488,604.450363641507,923.626453162816,823.028025320546,1054.96116226488,604.450363641507,931.334709102064,381.422338320961,676.373546837184,376.971974679454,545.03883773512,595.549636358493,668.665290897936,818.577661679039,0,0,0,0,0,4,horizontal,vertical,horizontal,horizontal,vertical,vertical
1d,10,100228,3,51,179,18,F,NA,constant,homogeneous,4,absent,0.87592601776123,1,horizontal,horizontal,1,0.847053875642664,red,2,NaN,992.450942956807,432.704947607421,NaN,NaN,967.295052392579,792.450942956807,992.450942956807,432.704947607421,632.704947607421,407.549057043193,607.549057043193,767.295052392579,NaN,NaN,NaN,NaN,0,4,0,0,NaN,NaN,vertical,horizontal,vertical,vertical,none,none
1d,10,100228,3,52,180,18,F,NA,constant,homogeneous,6,present,0.756865978240967,1,horizontal,horizontal,1,0.764702583761776,red,1,4,895.524681321058,836.431882914531,704.475318678942,363.568117085469,895.524681321058,836.431882914531,1052.5183575291,635.489140744817,956.993676208043,399.057257830286,704.475318678942,363.568117085469,547.481642470899,564.510859255183,643.006323791957,800.942742169714,4,0,0,0,0,0,horizontal,vertical,vertical,horizontal,horizontal,vertical
1d,10,100228,3,53,181,18,F,NA,constant,homogeneous,3,absent,1.34320688247681,1,horizontal,horizontal,1,0.952934108060949,red,1,NaN,607.549057043193,767.295052392579,NaN,NaN,607.549057043193,767.295052392579,1041.10723677783,683.019879386575,751.343706178981,349.685068220846,NaN,NaN,NaN,NaN,NaN,NaN,4,0,0,NaN,NaN,NaN,horizontal,horizontal,horizontal,none,none,none
1d,10,100228,3,54,182,18,F,NA,constant,homogeneous,5,absent,1.39015889167786,1,vertical,vertical,1,0.6,red,1,NaN,661.117046071168,813.860994826083,NaN,NaN,661.117046071168,813.860994826083,960.476699717708,798.172220171528,1038.06300875679,508.616172865948,786.654331158049,345.349468637584,553.688914296288,534.001143498857,NaN,NaN,4,0,0,0,0,NaN,vertical,horizontal,vertical,horizontal,horizontal,none
1d,10,100228,3,55,183,18,F,NA,constant,homogeneous,3,present,0.772936105728149,1,vertical,vertical,1,0.929405167523552,red,2,3,989.501930496736,429.371695378491,557.480588344736,521.200666434388,853.017481158529,849.42763818712,989.501930496736,429.371695378491,557.480588344736,521.200666434388,NaN,NaN,NaN,NaN,NaN,NaN,0,4,0,NaN,NaN,NaN,horizontal,vertical,horizontal,none,none,none
1d,10,100228,3,56,184,18,F,NA,constant,homogeneous,3,absent,0.633301973342896,1,horizontal,horizontal,1,0.635293410806095,red,2,NaN,949.885239334581,393.700666434388,NaN,NaN,903.717843984329,832.954091698863,949.885239334581,393.700666434388,546.39691668109,573.345241866748,NaN,NaN,NaN,NaN,NaN,NaN,0,4,0,NaN,NaN,NaN,vertical,horizontal,vertical,none,none,none
1d,10,100228,3,57,185,18,F,NA,constant,homogeneous,6,absent,1.06903696060181,1,vertical,vertical,1,0.752938113493078,red,6,NaN,586.139005173917,738.882953928832,NaN,NaN,813.345668841951,854.650531362416,1027.20666366803,715.767577433584,1013.86099482608,461.117046071168,786.654331158049,345.349468637584,572.793336331966,484.232422566416,586.139005173917,738.882953928832,0,0,0,0,0,4,vertical,horizontal,vertical,vertical,horizontal,vertical
1d,10,100228,3,58,186,18,F,NA,constant,homogeneous,6,present,0.903424978256226,1,vertical,vertical,1,0.647057881074793,red,5,3,548.13947314824,560.109211414741,960.476699717708,401.827779828472,891.383827134052,838.063008756786,1051.86052685176,639.890788585259,960.476699717708,401.827779828472,708.616172865948,361.936991243214,548.13947314824,560.109211414741,639.523300282292,798.172220171528,0,0,0,0,4,0,vertical,horizontal,horizontal,horizontal,vertical,vertical
1d,10,100228,3,59,187,18,F,NA,constant,homogeneous,4,present,0.845484018325806,1,horizontal,horizontal,1,0.799995994567871,red,1,2,643.006323791957,800.942742169714,1000.94274216971,756.993676208043,643.006323791957,800.942742169714,1000.94274216971,756.993676208043,956.993676208043,399.057257830286,599.057257830286,443.006323791957,NaN,NaN,NaN,NaN,4,0,0,0,NaN,NaN,horizontal,vertical,horizontal,vertical,none,none
1d,10,100228,3,60,188,18,F,NA,constant,homogeneous,5,absent,0.673784017562866,1,horizontal,horizontal,1,0.764702583761776,red,3,NaN,1000.94274216971,443.006323791957,NaN,NaN,729.712474266665,845.121732464271,1011.40458100154,742.594190385041,1000.94274216971,443.006323791957,712.784863451954,360.378381699593,545.155339110131,608.899371659138,NaN,NaN,0,0,4,0,0,NaN,horizontal,horizontal,horizontal,vertical,horizontal,none
1d,10,100228,3,61,189,18,F,NA,constant,homogeneous,3,present,0.992435932159424,1,horizontal,horizontal,1,0.847053875642664,red,3,1,557.480588344736,521.200666434388,853.017481158529,849.42763818712,853.017481158529,849.42763818712,989.501930496736,429.371695378491,557.480588344736,521.200666434388,NaN,NaN,NaN,NaN,NaN,NaN,0,0,4,NaN,NaN,NaN,horizontal,vertical,horizontal,none,none,none
1d,10,100228,3,62,190,18,F,NA,constant,homogeneous,4,present,1.43924808502197,1,vertical,vertical,1,0.729409172955681,red,1,3,942.594190385041,811.404581001536,657.405809614959,388.595418998464,942.594190385041,811.404581001536,1011.40458100154,457.40580961496,657.405809614959,388.595418998464,588.595418998464,742.594190385041,NaN,NaN,NaN,NaN,4,0,0,0,NaN,NaN,vertical,horizontal,vertical,horizontal,none,none
1d,10,100228,3,63,191,18,F,NA,constant,homogeneous,5,absent,0.633132934570312,1,vertical,vertical,1,1.07057881074793,red,2,NaN,992.450942956807,767.295052392579,NaN,NaN,700.363562235235,834.728737630372,992.450942956807,767.295052392579,1018.57766167904,468.665290897936,742.637481142314,351.535633479765,545.970351986605,577.775285599347,NaN,NaN,0,4,0,0,0,NaN,vertical,vertical,horizontal,horizontal,horizontal,none
1d,10,100228,3,64,192,18,F,NA,constant,homogeneous,4,absent,0.680856943130493,1,vertical,vertical,1,0.74117364322438,red,4,NaN,619.68777079743,780.31222920257,NaN,NaN,980.31222920257,780.31222920257,980.31222920257,419.68777079743,619.68777079743,419.68777079743,619.68777079743,780.31222920257,NaN,NaN,NaN,NaN,0,0,0,4,NaN,NaN,vertical,vertical,horizontal,vertical,none,none
1d,10,100228,4,1,193,18,F,NA,constant,homogeneous,4,present,0.709299802780151,1,vertical,vertical,1,0.647057881074793,red,4,3,550.57236181288,546.982518841471,853.017481158529,350.57236181288,746.982518841471,849.42763818712,1049.42763818712,653.017481158529,853.017481158529,350.57236181288,550.57236181288,546.982518841471,NaN,NaN,NaN,NaN,0,0,0,4,NaN,NaN,horizontal,vertical,vertical,vertical,none,none
1d,10,100228,4,2,194,18,F,NA,constant,homogeneous,5,present,0.561929941177368,1,vertical,vertical,1,0.917640697254854,red,4,2,599.057257830286,443.006323791957,1054.84466088987,608.899371659138,870.287525733335,845.121732464271,1054.84466088987,608.899371659138,887.215136548046,360.378381699593,599.057257830286,443.006323791957,588.595418998464,742.594190385041,NaN,NaN,0,0,0,4,0,NaN,horizontal,vertical,vertical,vertical,horizontal,none
1d,10,100228,4,3,195,18,F,NA,constant,homogeneous,6,present,0.494735956192017,1,vertical,vertical,1,0.67058682161219,red,5,6,604.658667004661,436.089159529932,560.378381699593,687.215136548046,755.719714694933,851.125977018113,995.341332995339,763.910840470068,1039.62161830041,512.784863451954,844.280285305067,348.874022981887,604.658667004661,436.089159529932,560.378381699593,687.215136548046,0,0,0,0,4,0,horizontal,vertical,vertical,vertical,vertical,horizontal
1d,10,100228,4,4,196,18,F,NA,constant,homogeneous,3,present,0.735230922698975,1,vertical,vertical,1,0.717644702686983,red,2,1,1016.25226451989,464.870587620533,808.899371659138,854.844660889869,808.899371659138,854.844660889869,1016.25226451989,464.870587620533,574.848363820974,480.284751489598,NaN,NaN,NaN,NaN,NaN,NaN,0,4,0,NaN,NaN,NaN,vertical,vertical,horizontal,none,none,none
1d,10,100228,4,5,197,18,F,NA,constant,homogeneous,5,absent,1.12253880500793,0,vertical,horizontal,1,0.623528940537397,red,1,NaN,725.445215295702,843.857712770574,NaN,NaN,725.445215295702,843.857712770574,1008.88377129369,746.261991269517,1003.65205506206,446.537169096228,716.980120613425,358.892763222174,545.03883773512,604.450363641507,NaN,NaN,4,0,0,0,0,NaN,vertical,vertical,vertical,horizontal,horizontal,none
1d,10,100228,4,6,198,18,F,NA,constant,homogeneous,6,absent,0.940462112426758,1,horizontal,horizontal,1,0.764702583761776,red,6,NaN,626.090418184063,786.495193912888,NaN,NaN,874.554784704298,843.857712770574,1048.46436652023,657.362518857686,973.909581815937,413.504806087112,725.445215295702,356.142287229426,551.535633479765,542.637481142314,626.090418184063,786.495193912888,0,0,0,0,0,4,vertical,horizontal,vertical,vertical,vertical,horizontal
1d,10,100228,4,7,199,18,F,NA,constant,homogeneous,4,absent,0.918164014816284,1,vertical,vertical,1,0.717644702686983,red,1,NaN,853.017481158529,849.42763818712,NaN,NaN,853.017481158529,849.42763818712,1049.42763818712,546.982518841471,746.982518841471,350.57236181288,550.57236181288,653.017481158529,NaN,NaN,NaN,NaN,4,0,0,0,NaN,NaN,vertical,vertical,horizontal,horizontal,none,none
1d,10,100228,4,8,200,18,F,NA,constant,homogeneous,5,absent,1.11683988571167,1,horizontal,horizontal,1,1.02352092967314,red,3,NaN,973.909581815937,413.504806087112,NaN,NaN,768.923317431687,853.099268668537,1031.10848569435,707.767656743878,973.909581815937,413.504806087112,676.373546837184,376.971974679454,549.685068220846,648.656293821019,NaN,NaN,0,0,4,0,0,NaN,horizontal,horizontal,horizontal,vertical,vertical,none
1d,10,100228,4,9,201,18,F,NA,constant,homogeneous,3,absent,0.638880014419556,1,vertical,vertical,1,0.964698578329647,red,3,NaN,547.481642470899,635.489140744817,NaN,NaN,956.993676208043,800.942742169714,895.524681321058,363.568117085469,547.481642470899,635.489140744817,NaN,NaN,NaN,NaN,NaN,NaN,0,0,4,NaN,NaN,NaN,vertical,vertical,vertical,none,none,none
1d,10,100228,4,10,202,18,F,NA,constant,homogeneous,4,absent,1.02343201637268,1,horizontal,horizontal,1,0.776467054030474,red,3,NaN,746.982518841471,350.57236181288,NaN,NaN,853.017481158529,849.42763818712,1049.42763818712,546.982518841471,746.982518841471,350.57236181288,550.57236181288,653.017481158529,NaN,NaN,NaN,NaN,0,0,4,0,NaN,NaN,vertical,vertical,horizontal,vertical,none,none
1d,10,100228,4,11,203,18,F,NA,constant,homogeneous,4,present,0.746222972869873,1,horizontal,horizontal,1,0.905876226986156,red,4,2,553.688914296288,665.998856501143,1046.31108570371,534.001143498857,865.998856501143,846.311085703712,1046.31108570371,534.001143498857,734.001143498857,353.688914296288,553.688914296288,665.998856501143,NaN,NaN,NaN,NaN,0,0,0,4,NaN,NaN,horizontal,horizontal,horizontal,horizontal,none,none
1d,10,100228,4,12,204,18,F,NA,constant,homogeneous,6,absent,0.84653115272522,1,horizontal,horizontal,1,0.858818345911363,red,5,NaN,632.704947607421,407.549057043193,NaN,NaN,716.980120613425,841.107236777826,967.295052392579,792.450942956807,1050.31493177915,551.343706178981,883.019879386575,358.892763222174,632.704947607421,407.549057043193,549.685068220846,648.656293821019,0,0,0,0,4,0,horizontal,horizontal,horizontal,vertical,horizontal,horizontal
1d,10,100228,4,13,205,18,F,NA,constant,homogeneous,3,present,0.853564023971558,1,horizontal,horizontal,1,0.694115762149586,red,1,2,643.006323791957,800.942742169714,1052.5183575291,635.489140744817,643.006323791957,800.942742169714,1052.5183575291,635.489140744817,704.475318678942,363.568117085469,NaN,NaN,NaN,NaN,NaN,NaN,4,0,0,NaN,NaN,NaN,horizontal,vertical,horizontal,none,none,none
1d,10,100228,4,14,206,18,F,NA,constant,homogeneous,5,absent,0.708213090896606,1,horizontal,horizontal,1,0.870582816180061,red,5,NaN,632.704947607421,792.450942956807,NaN,NaN,931.334709102064,818.577661679039,1048.46436652023,542.637481142314,822.224714400653,345.970351986605,565.271262369628,500.363562235235,632.704947607421,792.450942956807,NaN,NaN,0,0,0,0,4,NaN,horizontal,horizontal,horizontal,vertical,horizontal,none
1d,10,100228,4,15,207,18,F,NA,constant,homogeneous,4,present,0.922376155853271,1,vertical,vertical,1,0.988227518867044,red,3,1,646.537169096228,396.34794493794,953.462830903772,803.65205506206,953.462830903772,803.65205506206,1003.65205506206,446.537169096228,646.537169096228,396.34794493794,596.34794493794,753.462830903772,NaN,NaN,NaN,NaN,0,0,4,0,NaN,NaN,vertical,vertical,vertical,horizontal,none,none
1d,10,100228,4,16,208,18,F,NA,constant,homogeneous,6,present,0.843722820281982,0,vertical,horizontal,1,0.941169637792251,red,6,4,550.57236181288,653.017481158529,878.799333565612,357.480588344736,721.200666434388,842.519411655264,970.628304621509,789.501930496736,1049.42763818712,546.982518841471,878.799333565612,357.480588344736,629.371695378491,410.498069503264,550.57236181288,653.017481158529,0,0,0,0,0,4,horizontal,vertical,vertical,vertical,horizontal,vertical
1d,10,100228,4,17,209,18,F,NA,constant,homogeneous,5,present,1.04387903213501,0,horizontal,vertical,1,0.752938113493078,red,3,4,861.690083377915,352.574589799621,583.747735480111,464.870587620533,895.524681321058,836.431882914531,1054.37883281626,582.212099195248,861.690083377915,352.574589799621,583.747735480111,464.870587620533,604.658667004661,763.910840470068,NaN,NaN,0,0,4,0,0,NaN,vertical,horizontal,horizontal,vertical,vertical,none
1d,10,100228,4,18,210,18,F,NA,constant,homogeneous,3,absent,1.11920595169067,0,horizontal,vertical,1,0.917640697254854,red,1,NaN,601.827779828472,760.476699717708,NaN,NaN,601.827779828472,760.476699717708,1038.06300875679,691.383827134052,760.109211414741,348.13947314824,NaN,NaN,NaN,NaN,NaN,NaN,4,0,0,NaN,NaN,NaN,horizontal,vertical,horizontal,none,none,none
1d,10,100228,4,19,211,18,F,NA,constant,homogeneous,6,present,1.41009116172791,1,horizontal,horizontal,1,0.811760464836569,red,5,4,653.738008730483,391.116228706307,907.767656743878,368.891514305654,692.232343256122,831.108485694346,946.261991269517,808.883771293693,1054.0296480134,577.775285599347,907.767656743878,368.891514305654,653.738008730483,391.116228706307,545.970351986605,622.224714400653,0,0,0,0,4,0,horizontal,horizontal,horizontal,vertical,horizontal,horizontal
1d,10,100228,4,20,212,18,F,NA,constant,homogeneous,4,absent,0.971012115478516,1,horizontal,horizontal,1,0.635293410806095,red,3,NaN,782.212099195248,345.621167183745,NaN,NaN,817.787900804752,854.378832816255,1054.37883281626,582.212099195248,782.212099195248,345.621167183745,545.621167183745,617.787900804752,NaN,NaN,NaN,NaN,0,0,4,0,NaN,NaN,horizontal,vertical,horizontal,horizontal,none,none
1d,10,100228,4,21,213,18,F,NA,constant,homogeneous,5,present,0.727310180664062,1,horizontal,horizontal,1,1.03528539994184,red,3,5,1031.10848569435,492.232343256122,549.685068220846,551.343706178981,676.373546837184,823.028025320546,973.909581815937,786.495193912888,1031.10848569435,492.232343256122,768.923317431687,346.900731331463,549.685068220846,551.343706178981,NaN,NaN,0,0,4,0,0,NaN,horizontal,horizontal,horizontal,horizontal,vertical,none
1d,10,100228,4,22,214,18,F,NA,constant,homogeneous,4,absent,0.904288053512573,1,vertical,vertical,1,0.717644702686983,red,2,NaN,1054.0296480134,577.775285599347,NaN,NaN,822.224714400653,854.029648013395,1054.0296480134,577.775285599347,777.775285599347,345.970351986605,545.970351986605,622.224714400653,NaN,NaN,NaN,NaN,0,4,0,0,NaN,NaN,vertical,vertical,vertical,horizontal,none,none
1d,10,100228,4,23,215,18,F,NA,constant,homogeneous,4,present,0.749442100524902,1,vertical,vertical,1,0.952934108060949,red,3,1,953.462830903772,396.34794493794,646.537169096228,803.65205506206,646.537169096228,803.65205506206,1003.65205506206,753.462830903772,953.462830903772,396.34794493794,596.34794493794,446.537169096228,NaN,NaN,NaN,NaN,0,0,4,0,NaN,NaN,vertical,horizontal,vertical,horizontal,none,none
1d,10,100228,4,24,216,18,F,NA,constant,homogeneous,5,present,0.864445209503174,1,vertical,vertical,1,1.01175645940444,red,4,3,721.200666434388,357.480588344736,1006.29933356561,450.114760665419,721.200666434388,842.519411655264,1006.29933356561,749.885239334581,1006.29933356561,450.114760665419,721.200666434388,357.480588344736,545,600,NaN,NaN,0,0,0,4,0,NaN,horizontal,vertical,horizontal,vertical,horizontal,none
1d,10,100228,4,25,217,18,F,NA,constant,homogeneous,6,absent,0.855207204818726,1,vertical,vertical,1,1.05881434047923,red,2,NaN,953.462830903772,803.65205506206,NaN,NaN,700.363562235235,834.728737630372,953.462830903772,803.65205506206,1053.09926866854,568.923317431687,899.636437764765,365.271262369628,646.537169096228,396.34794493794,546.900731331463,631.076682568313,0,4,0,0,0,0,horizontal,vertical,horizontal,horizontal,vertical,vertical
1d,10,100228,4,26,218,18,F,NA,constant,homogeneous,5,present,1.42301106452942,1,horizontal,horizontal,1,0.717644702686983,red,1,5,795.549636358493,854.96116226488,556.142287229426,674.554784704298,795.549636358493,854.96116226488,1041.10723677783,683.019879386575,953.462830903772,396.34794493794,653.738008730483,391.116228706307,556.142287229426,674.554784704298,NaN,NaN,4,0,0,0,0,NaN,horizontal,vertical,horizontal,horizontal,vertical,none
1d,10,100228,4,27,219,18,F,NA,constant,homogeneous,3,present,0.648903131484985,0,vertical,horizontal,1,0.858818345911363,red,1,3,919.715248510402,825.151636179026,545.155339110131,591.100628340862,919.715248510402,825.151636179026,935.129412379467,383.747735480111,545.155339110131,591.100628340862,NaN,NaN,NaN,NaN,NaN,NaN,4,0,0,NaN,NaN,NaN,vertical,vertical,horizontal,none,none,none
1d,10,100228,4,28,220,18,F,NA,constant,homogeneous,4,present,1.87143993377686,1,horizontal,horizontal,1,0.67058682161219,red,2,4,1013.86099482608,461.117046071168,586.139005173917,738.882953928832,938.882953928832,813.860994826083,1013.86099482608,461.117046071168,661.117046071168,386.139005173917,586.139005173917,738.882953928832,NaN,NaN,NaN,NaN,0,4,0,0,NaN,NaN,vertical,horizontal,vertical,vertical,none,none
1d,10,100228,4,29,221,18,F,NA,constant,homogeneous,5,absent,0.958010911941528,1,vertical,vertical,1,1.04704987021054,red,2,NaN,1031.10848569435,707.767656743878,NaN,NaN,768.923317431687,853.099268668537,1031.10848569435,707.767656743878,973.909581815937,413.504806087112,676.373546837184,376.971974679454,549.685068220846,648.656293821019,NaN,NaN,0,4,0,0,0,NaN,vertical,vertical,vertical,vertical,horizontal,none
1d,10,100228,4,30,222,18,F,NA,constant,homogeneous,6,absent,1.21374416351318,1,vertical,vertical,1,0.611764470268698,red,5,NaN,545.03883773512,595.549636358493,NaN,NaN,923.626453162816,823.028025320546,1054.96116226488,604.450363641507,931.334709102064,381.422338320961,676.373546837184,376.971974679454,545.03883773512,595.549636358493,668.665290897936,818.577661679039,0,0,0,0,4,0,vertical,vertical,horizontal,vertical,vertical,horizontal
1d,10,100228,4,31,223,18,F,NA,constant,homogeneous,5,absent,0.772465944290161,1,horizontal,horizontal,1,0.705880232418285,red,4,NaN,579.163522034968,472.5,NaN,NaN,903.717843984329,832.954091698863,1053.60308331891,573.345241866748,853.017481158529,350.57236181288,579.163522034968,472.5,610.498069503264,770.628304621509,NaN,NaN,0,0,0,4,0,NaN,vertical,horizontal,vertical,horizontal,vertical,none
1d,10,100228,4,32,224,18,F,NA,constant,homogeneous,6,present,1.04588294029236,1,vertical,vertical,1,0.694115762149586,red,4,5,729.712474266665,354.878267535729,552.574589799621,538.309916622085,870.287525733335,845.121732464271,1047.42541020038,661.690083377915,977.137884467044,416.568350913644,729.712474266665,354.878267535729,552.574589799621,538.309916622085,622.862115532956,783.431649086356,0,0,0,4,0,0,vertical,vertical,horizontal,vertical,vertical,vertical
1d,10,100228,4,33,225,18,F,NA,constant,homogeneous,5,absent,1.13946795463562,1,vertical,vertical,1,0.823524935105268,red,4,NaN,676.373546837184,376.971974679454,NaN,NaN,768.923317431687,853.099268668537,1031.10848569435,707.767656743878,973.909581815937,413.504806087112,676.373546837184,376.971974679454,549.685068220846,648.656293821019,NaN,NaN,0,0,0,4,0,NaN,horizontal,vertical,vertical,vertical,vertical,none
1d,10,100228,4,34,226,18,F,NA,constant,homogeneous,3,absent,0.990319013595581,1,horizontal,horizontal,1,0.6,red,1,NaN,639.523300282292,798.172220171528,NaN,NaN,639.523300282292,798.172220171528,1051.86052685176,639.890788585259,708.616172865948,361.936991243214,NaN,NaN,NaN,NaN,NaN,NaN,4,0,0,NaN,NaN,NaN,horizontal,vertical,vertical,none,none,none
1d,10,100228,4,35,227,18,F,NA,constant,homogeneous,5,present,0.818273067474365,1,vertical,vertical,1,1.01175645940444,red,5,1,546.900731331463,631.076682568313,751.343706178981,850.314931779154,751.343706178981,850.314931779154,1023.02802532055,723.626453162816,986.495193912888,426.090418184063,692.232343256122,368.891514305654,546.900731331463,631.076682568313,NaN,NaN,0,0,0,0,4,NaN,horizontal,horizontal,vertical,vertical,vertical,none
1d,10,100228,4,36,228,18,F,NA,constant,homogeneous,3,absent,0.666354179382324,1,vertical,vertical,1,0.952934108060949,red,3,NaN,551.535633479765,657.362518857686,NaN,NaN,973.909581815937,786.495193912888,874.554784704298,356.142287229426,551.535633479765,657.362518857686,NaN,NaN,NaN,NaN,NaN,NaN,0,0,4,NaN,NaN,NaN,vertical,vertical,vertical,none,none,none
1d,10,100228,4,37,229,18,F,NA,constant,homogeneous,3,present,0.736685037612915,1,vertical,vertical,1,0.858818345911363,red,1,2,764.510859255183,852.518357529101,1036.43188291453,504.475318678942,764.510859255183,852.518357529101,1036.43188291453,504.475318678942,599.057257830286,443.006323791957,NaN,NaN,NaN,NaN,NaN,NaN,4,0,0,NaN,NaN,NaN,vertical,vertical,vertical,none,none,none
1d,10,100228,4,38,230,18,F,NA,constant,homogeneous,5,absent,1.03048396110535,1,vertical,vertical,1,0.941169637792251,red,4,NaN,777.775285599347,345.970351986605,NaN,NaN,668.665290897936,818.577661679039,967.295052392579,792.450942956807,1034.72873763037,500.363562235235,777.775285599347,345.970351986605,551.535633479765,542.637481142314,NaN,NaN,0,0,0,4,0,NaN,vertical,horizontal,vertical,vertical,horizontal,none
1d,10,100228,4,39,231,18,F,NA,constant,homogeneous,6,present,1.23831009864807,1,vertical,vertical,1,0.764702583761776,red,6,2,622.862115532956,783.431649086356,1047.42541020038,661.690083377915,870.287525733335,845.121732464271,1047.42541020038,661.690083377915,977.137884467044,416.568350913644,729.712474266665,354.878267535729,552.574589799621,538.309916622085,622.862115532956,783.431649086356,0,0,0,0,0,4,vertical,vertical,horizontal,vertical,horizontal,vertical
1d,10,100228,4,40,232,18,F,NA,constant,homogeneous,5,absent,0.821568012237549,1,horizontal,horizontal,1,0.905876226986156,red,3,NaN,808.899371659138,345.155339110131,NaN,NaN,942.594190385041,811.404581001536,1045.12173246427,529.712474266665,808.899371659138,345.155339110131,560.378381699593,512.784863451954,643.006323791957,800.942742169714,NaN,NaN,0,0,4,0,0,NaN,horizontal,horizontal,horizontal,horizontal,horizontal,none
1d,10,100228,4,41,233,18,F,NA,constant,homogeneous,3,present,0.694585084915161,1,horizontal,horizontal,1,0.623528940537397,red,1,3,725.445215295702,843.857712770574,626.090418184063,413.504806087112,725.445215295702,843.857712770574,1048.46436652023,542.637481142314,626.090418184063,413.504806087112,NaN,NaN,NaN,NaN,NaN,NaN,4,0,0,NaN,NaN,NaN,horizontal,horizontal,horizontal,none,none,none
1d,10,100228,4,42,234,18,F,NA,constant,homogeneous,6,present,0.752884864807129,1,horizontal,horizontal,1,0.811760464836569,red,6,5,616.568350913644,777.137884467044,554.878267535729,529.712474266665,861.690083377915,847.425410200379,1045.12173246427,670.287525733335,983.431649086356,422.862115532956,738.309916622085,352.574589799621,554.878267535729,529.712474266665,616.568350913644,777.137884467044,0,0,0,0,0,4,vertical,horizontal,vertical,horizontal,vertical,horizontal
1d,10,100228,4,43,235,18,F,NA,constant,homogeneous,4,present,0.697575092315674,1,horizontal,horizontal,1,1.05881434047923,red,1,4,907.767656743878,831.108485694346,568.891514305654,707.767656743878,907.767656743878,831.108485694346,1031.10848569435,492.232343256122,692.232343256122,368.891514305654,568.891514305654,707.767656743878,NaN,NaN,NaN,NaN,4,0,0,0,NaN,NaN,horizontal,horizontal,vertical,vertical,none,none
1d,10,100228,4,44,236,18,F,NA,constant,homogeneous,3,absent,0.603318214416504,1,horizontal,horizontal,1,0.788231524299173,red,1,NaN,938.882953928832,813.860994826083,NaN,NaN,938.882953928832,813.860994826083,915.767577433584,372.793336331966,545.349468637584,613.345668841951,NaN,NaN,NaN,NaN,NaN,NaN,4,0,0,NaN,NaN,NaN,horizontal,horizontal,horizontal,none,none,none
1d,10,100228,4,45,237,18,F,NA,constant,homogeneous,6,absent,1.3375289440155,1,vertical,vertical,1,0.694115762149586,red,3,NaN,1055,600,NaN,NaN,672.5,820.836477965032,927.5,820.836477965032,1055,600,927.5,379.163522034968,672.5,379.163522034968,545,600,0,0,4,0,0,0,horizontal,vertical,vertical,vertical,vertical,vertical
1d,10,100228,4,46,238,18,F,NA,constant,homogeneous,6,absent,1.53040099143982,0,horizontal,vertical,1,0.705880232418285,red,3,NaN,1051.86052685176,560.109211414741,NaN,NaN,708.616172865948,838.063008756786,960.476699717708,798.172220171528,1051.86052685176,560.109211414741,891.383827134052,361.936991243214,639.523300282292,401.827779828472,548.13947314824,639.890788585259,0,0,4,0,0,0,vertical,vertical,horizontal,horizontal,vertical,horizontal
1d,10,100228,4,47,239,18,F,NA,constant,homogeneous,3,absent,1.22674894332886,1,horizontal,horizontal,1,0.658822351343491,red,2,NaN,977.137884467044,416.568350913644,NaN,NaN,870.287525733335,845.121732464271,977.137884467044,416.568350913644,552.574589799621,538.309916622085,NaN,NaN,NaN,NaN,NaN,NaN,0,4,0,NaN,NaN,NaN,horizontal,horizontal,vertical,none,none,none
1d,10,100228,4,48,240,18,F,NA,constant,homogeneous,4,absent,0.734738111495972,1,vertical,vertical,1,0.976463048598346,red,2,NaN,1039.62161830041,687.215136548046,NaN,NaN,712.784863451954,839.621618300407,1039.62161830041,687.215136548046,887.215136548046,360.378381699593,560.378381699593,512.784863451954,NaN,NaN,NaN,NaN,0,4,0,0,NaN,NaN,vertical,vertical,horizontal,horizontal,none,none
1d,10,100228,4,49,241,18,F,NA,constant,homogeneous,6,absent,0.881333827972412,1,horizontal,horizontal,1,0.976463048598346,red,4,NaN,676.373546837184,376.971974679454,NaN,NaN,923.626453162816,823.028025320546,1054.96116226488,604.450363641507,931.334709102064,381.422338320961,676.373546837184,376.971974679454,545.03883773512,595.549636358493,668.665290897936,818.577661679039,0,0,0,4,0,0,vertical,horizontal,vertical,horizontal,horizontal,horizontal
