experiment,subject,uniqueID,block,trial,trial_cumulative,age,gender,color_cond_blocking,color_history,shape_type,set_size,distractor,rt,acc,target_orient,response_key,response_made,iti,target_color,target_item,distractor_item,target_X,target_Y,distractor_X,distractor_Y,item1_X,item1_Y,item2_X,item2_Y,item3_X,item3_Y,item4_X,item4_Y,item5_X,item5_Y,item6_X,item6_Y,item1_shape,item2_shape,item3_shape,item4_shape,item5_shape,item6_shape,item1_line,item2_line,item3_line,item4_line,item5_line,item6_line
1d,11,100217,1,1,1,19,F,NA,constant,homogeneous,5,absent,1.20741987228394,0,vertical,horizontal,1,0.776468652028304,green,3,NaN,963.910840470068,404.658667004661,NaN,NaN,782.212099195248,854.378832816255,1036.43188291453,695.524681321058,963.910840470068,404.658667004661,664.870587620533,383.747735480111,552.574589799621,661.690083377915,NaN,NaN,0,0,4,0,0,NaN,horizontal,horizontal,vertical,vertical,vertical,none
1d,11,100217,1,2,2,19,F,NA,constant,homogeneous,3,absent,1.32014203071594,1,horizontal,horizontal,1,0.635293730405661,green,3,NaN,760.109211414741,348.13947314824,NaN,NaN,601.827779828472,760.476699717708,1038.06300875679,691.383827134052,760.109211414741,348.13947314824,NaN,NaN,NaN,NaN,NaN,NaN,0,0,4,NaN,NaN,NaN,horizontal,horizontal,horizontal,none,none,none
1d,11,100217,1,3,3,19,F,NA,constant,homogeneous,5,present,0.586386919021606,1,horizontal,horizontal,1,0.988231034462268,green,4,3,768.923317431687,346.900731331463,1031.10848569435,492.232343256122,676.373546837184,823.028025320546,973.909581815937,786.495193912888,1031.10848569435,492.232343256122,768.923317431687,346.900731331463,549.685068220846,551.343706178981,NaN,NaN,0,0,0,4,0,NaN,vertical,horizontal,horizontal,horizontal,horizontal,none
1d,11,100217,1,4,4,19,F,NA,constant,homogeneous,5,absent,0.673762083053589,1,vertical,vertical,1,0.764704075226417,green,4,NaN,613.504806087112,426.090418184063,NaN,NaN,848.656293821019,850.314931779154,1053.09926866854,631.076682568313,907.767656743878,368.891514305654,613.504806087112,426.090418184063,576.971974679454,723.626453162816,NaN,NaN,0,0,0,4,0,NaN,horizontal,vertical,vertical,vertical,horizontal,none
1d,11,100217,1,5,5,19,F,NA,constant,homogeneous,6,present,0.713130950927734,1,horizontal,horizontal,1,0.894114420047173,green,3,5,1018.57766167904,468.665290897936,576.971974679454,476.373546837184,804.450363641507,854.96116226488,1023.02802532055,723.626453162816,1018.57766167904,468.665290897936,795.549636358493,345.03883773512,576.971974679454,476.373546837184,581.422338320961,731.334709102064,0,0,4,0,0,0,vertical,horizontal,horizontal,horizontal,vertical,horizontal
1d,11,100217,1,6,6,19,F,NA,constant,homogeneous,3,absent,0.557753801345825,1,horizontal,horizontal,1,0.717645768018869,green,2,NaN,839.890788585259,348.13947314824,NaN,NaN,998.172220171528,760.476699717708,839.890788585259,348.13947314824,561.936991243214,691.383827134052,NaN,NaN,NaN,NaN,NaN,NaN,0,4,0,NaN,NaN,NaN,vertical,horizontal,vertical,none,none,none
1d,11,100217,1,7,7,19,F,NA,constant,homogeneous,3,present,0.650982856750488,1,vertical,vertical,1,1.09411222567925,green,3,1,643.006323791957,399.057257830286,704.475318678942,836.431882914531,704.475318678942,836.431882914531,1052.5183575291,564.510859255183,643.006323791957,399.057257830286,NaN,NaN,NaN,NaN,NaN,NaN,0,0,4,NaN,NaN,NaN,horizontal,horizontal,vertical,none,none,none
1d,11,100217,1,8,8,19,F,NA,constant,homogeneous,3,absent,0.849914073944092,1,vertical,vertical,1,1.09411222567925,green,1,NaN,782.212099195248,854.378832816255,NaN,NaN,782.212099195248,854.378832816255,1029.19248180629,488.215357568785,588.595418998464,457.40580961496,NaN,NaN,NaN,NaN,NaN,NaN,4,0,0,NaN,NaN,NaN,vertical,vertical,horizontal,none,none,none
1d,11,100217,1,9,9,19,F,NA,constant,homogeneous,5,present,0.539574861526489,1,vertical,vertical,1,0.611764576801887,green,4,2,760.109211414741,348.13947314824,980.31222920257,780.31222920257,684.232422566416,827.206663668034,980.31222920257,780.31222920257,1027.20666366803,484.232422566416,760.109211414741,348.13947314824,548.13947314824,560.109211414741,NaN,NaN,0,0,0,4,0,NaN,horizontal,vertical,horizontal,vertical,vertical,none
1d,11,100217,1,10,10,19,F,NA,constant,homogeneous,4,absent,0.872581005096436,1,vertical,vertical,1,0.917643573650947,green,4,NaN,579.163522034968,727.5,NaN,NaN,927.5,820.836477965032,1020.83647796503,472.5,672.5,379.163522034968,579.163522034968,727.5,NaN,NaN,NaN,NaN,0,0,0,4,NaN,NaN,vertical,vertical,horizontal,vertical,none,none
1d,11,100217,1,11,11,19,F,NA,constant,homogeneous,5,present,0.474167108535767,1,vertical,vertical,1,0.988231034462268,green,5,2,548.13947314824,560.109211414741,980.31222920257,780.31222920257,684.232422566416,827.206663668034,980.31222920257,780.31222920257,1027.20666366803,484.232422566416,760.109211414741,348.13947314824,548.13947314824,560.109211414741,NaN,NaN,0,0,0,0,4,NaN,vertical,horizontal,vertical,vertical,vertical,none
1d,11,100217,1,12,12,19,F,NA,constant,homogeneous,3,present,0.5537428855896,1,horizontal,horizontal,1,0.894114420047173,green,2,3,923.626453162816,376.971974679454,545.03883773512,604.450363641507,931.334709102064,818.577661679039,923.626453162816,376.971974679454,545.03883773512,604.450363641507,NaN,NaN,NaN,NaN,NaN,NaN,0,4,0,NaN,NaN,NaN,horizontal,horizontal,vertical,none,none,none
1d,11,100217,1,13,13,19,F,NA,constant,homogeneous,3,absent,0.588085174560547,1,horizontal,horizontal,1,0.75293949842453,green,3,NaN,782.212099195248,345.621167183745,NaN,NaN,588.595418998464,742.594190385041,1029.19248180629,711.784642431215,782.212099195248,345.621167183745,NaN,NaN,NaN,NaN,NaN,NaN,0,0,4,NaN,NaN,NaN,vertical,horizontal,horizontal,none,none,none
1d,11,100217,1,14,14,19,F,NA,constant,homogeneous,5,present,0.510936975479126,1,horizontal,horizontal,1,0.741174921622643,green,4,2,684.232422566416,372.793336331966,1027.20666366803,715.767577433584,760.109211414741,851.86052685176,1027.20666366803,715.767577433584,980.31222920257,419.68777079743,684.232422566416,372.793336331966,548.13947314824,639.890788585259,NaN,NaN,0,0,0,4,0,NaN,vertical,vertical,horizontal,horizontal,horizontal,none
1d,11,100217,1,15,15,19,F,NA,constant,homogeneous,6,present,0.526058912277222,1,horizontal,horizontal,1,0.635293730405661,green,5,2,545,600,1055,600,927.5,820.836477965032,1055,600,927.5,379.163522034968,672.5,379.163522034968,545,600,672.5,820.836477965032,0,0,0,0,4,0,vertical,horizontal,horizontal,horizontal,horizontal,vertical
1d,11,100217,1,16,16,19,F,NA,constant,homogeneous,4,present,0.632910013198853,1,vertical,vertical,1,0.611764576801887,green,3,1,935.129412379467,383.747735480111,664.870587620533,816.252264519889,664.870587620533,816.252264519889,1016.25226451989,735.129412379467,935.129412379467,383.747735480111,583.747735480111,464.870587620533,NaN,NaN,NaN,NaN,0,0,4,0,NaN,NaN,horizontal,vertical,vertical,vertical,none,none
1d,11,100217,1,17,17,19,F,NA,constant,homogeneous,6,present,0.63284707069397,1,vertical,vertical,1,0.764704075226417,green,5,6,599.057257830286,443.006323791957,563.568117085469,695.524681321058,764.510859255183,852.518357529101,1000.94274216971,756.993676208043,1036.43188291453,504.475318678942,835.489140744817,347.4816424709,599.057257830286,443.006323791957,563.568117085469,695.524681321058,0,0,0,0,4,0,horizontal,horizontal,vertical,vertical,vertical,horizontal
1d,11,100217,1,18,18,19,F,NA,constant,homogeneous,5,absent,0.923281908035278,1,vertical,vertical,1,1.08234764887736,green,2,NaN,1016.25226451989,735.129412379467,NaN,NaN,738.309916622085,847.425410200379,1016.25226451989,735.129412379467,995.341332995339,436.089159529932,704.475318678942,363.568117085469,545.621167183745,617.787900804752,NaN,NaN,0,4,0,0,0,NaN,horizontal,vertical,vertical,vertical,vertical,none
1d,11,100217,1,19,19,19,F,NA,constant,homogeneous,6,absent,1.07627320289612,1,horizontal,horizontal,1,0.717645768018869,green,1,NaN,680.284751489598,825.151636179026,NaN,NaN,680.284751489598,825.151636179026,935.129412379467,816.252264519889,1054.84466088987,591.100628340862,919.715248510402,374.848363820974,664.870587620533,383.747735480111,545.155339110131,608.899371659138,4,0,0,0,0,0,horizontal,horizontal,horizontal,horizontal,horizontal,horizontal
1d,11,100217,1,20,20,19,F,NA,constant,homogeneous,5,present,0.556648969650269,0,vertical,horizontal,1,0.941172727254721,green,4,5,560.378381699593,512.784863451954,643.006323791957,800.942742169714,942.594190385041,811.404581001536,1045.12173246427,529.712474266665,808.899371659138,345.155339110131,560.378381699593,512.784863451954,643.006323791957,800.942742169714,NaN,NaN,0,0,0,4,0,NaN,horizontal,vertical,horizontal,vertical,horizontal,none
1d,11,100217,1,21,21,19,F,NA,constant,homogeneous,5,absent,0.800910949707031,1,horizontal,horizontal,1,0.847056112839625,green,4,NaN,786.654331158049,345.349468637584,NaN,NaN,661.117046071168,813.860994826083,960.476699717708,798.172220171528,1038.06300875679,508.616172865948,786.654331158049,345.349468637584,553.688914296288,534.001143498857,NaN,NaN,0,0,0,4,0,NaN,horizontal,horizontal,horizontal,horizontal,horizontal,none
1d,11,100217,1,22,22,19,F,NA,constant,homogeneous,3,absent,0.592144012451172,1,vertical,vertical,1,0.741174921622643,green,3,NaN,646.537169096228,396.34794493794,NaN,NaN,700.363562235235,834.728737630372,1053.09926866854,568.923317431687,646.537169096228,396.34794493794,NaN,NaN,NaN,NaN,NaN,NaN,0,0,4,NaN,NaN,NaN,vertical,vertical,vertical,none,none,none
1d,11,100217,1,23,23,19,F,NA,constant,homogeneous,6,absent,1.04008293151855,1,vertical,vertical,1,0.999995611264155,green,2,NaN,1054.37883281626,617.787900804752,NaN,NaN,911.784642431215,829.192481806288,1054.37883281626,617.787900804752,942.594190385041,388.595418998464,688.215357568785,370.807518193712,545.621167183745,582.212099195248,657.405809614959,811.404581001536,0,4,0,0,0,0,horizontal,vertical,horizontal,vertical,vertical,vertical
1d,11,100217,1,24,24,19,F,NA,constant,homogeneous,5,absent,0.613742828369141,0,horizontal,vertical,1,0.835291536037738,green,2,NaN,1006.29933356561,749.885239334581,NaN,NaN,721.200666434388,842.519411655264,1006.29933356561,749.885239334581,1006.29933356561,450.114760665419,721.200666434388,357.480588344736,545,600,NaN,NaN,0,4,0,0,0,NaN,horizontal,horizontal,horizontal,vertical,vertical,none
1d,11,100217,1,25,25,19,F,NA,constant,homogeneous,3,absent,0.886733055114746,1,vertical,vertical,1,1.02352476486793,green,1,NaN,1008.88377129369,746.261991269517,NaN,NaN,1008.88377129369,746.261991269517,822.224714400653,345.970351986605,568.891514305654,707.767656743878,NaN,NaN,NaN,NaN,NaN,NaN,4,0,0,NaN,NaN,NaN,vertical,horizontal,horizontal,none,none,none
1d,11,100217,1,26,26,19,F,NA,constant,homogeneous,5,absent,0.87739896774292,0,horizontal,vertical,1,0.635293730405661,green,2,NaN,1043.85771277057,525.445215295702,NaN,NaN,946.261991269517,808.883771293693,1043.85771277057,525.445215295702,804.450363641507,345.03883773512,558.892763222174,516.980120613425,646.537169096228,803.65205506206,NaN,NaN,0,4,0,0,0,NaN,horizontal,horizontal,horizontal,vertical,horizontal,none
1d,11,100217,1,27,27,19,F,NA,constant,homogeneous,4,present,0.821411848068237,1,horizontal,horizontal,1,0.717645768018869,green,3,4,716.980120613425,358.892763222174,558.892763222174,683.019879386575,883.019879386575,841.107236777826,1041.10723677783,516.980120613425,716.980120613425,358.892763222174,558.892763222174,683.019879386575,NaN,NaN,NaN,NaN,0,0,4,0,NaN,NaN,vertical,horizontal,horizontal,vertical,none,none
1d,11,100217,1,28,28,19,F,NA,constant,homogeneous,4,present,1.17585110664368,1,horizontal,horizontal,1,0.694116614415095,green,2,3,1053.09926866854,568.923317431687,768.923317431687,346.900731331463,831.076682568313,853.099268668537,1053.09926866854,568.923317431687,768.923317431687,346.900731331463,546.900731331463,631.076682568313,NaN,NaN,NaN,NaN,0,4,0,0,NaN,NaN,vertical,horizontal,vertical,vertical,none,none
1d,11,100217,1,29,29,19,F,NA,constant,homogeneous,6,absent,0.599446058273315,1,vertical,vertical,1,0.988231034462268,green,3,NaN,1018.57766167904,468.665290897936,NaN,NaN,804.450363641507,854.96116226488,1023.02802532055,723.626453162816,1018.57766167904,468.665290897936,795.549636358493,345.03883773512,576.971974679454,476.373546837184,581.422338320961,731.334709102064,0,0,4,0,0,0,horizontal,vertical,vertical,vertical,vertical,vertical
1d,11,100217,1,30,30,19,F,NA,constant,homogeneous,3,present,0.642864942550659,1,horizontal,horizontal,1,0.75293949842453,green,2,3,1054.65053136242,586.654331158049,661.117046071168,386.139005173917,684.232422566416,827.206663668034,1054.65053136242,586.654331158049,661.117046071168,386.139005173917,NaN,NaN,NaN,NaN,NaN,NaN,0,4,0,NaN,NaN,NaN,horizontal,horizontal,vertical,none,none,none
1d,11,100217,1,31,31,19,F,NA,constant,homogeneous,6,absent,1.23574495315552,1,horizontal,horizontal,1,0.999995611264155,green,1,NaN,899.636437764765,834.728737630372,NaN,NaN,899.636437764765,834.728737630372,1053.09926866854,631.076682568313,953.462830903772,396.34794493794,700.363562235235,365.271262369628,546.900731331463,568.923317431687,646.537169096228,803.65205506206,4,0,0,0,0,0,horizontal,vertical,vertical,vertical,vertical,vertical
1d,11,100217,1,32,32,19,F,NA,constant,homogeneous,3,absent,0.753380060195923,1,vertical,vertical,1,1.03528934166982,green,1,NaN,755.719714694933,851.125977018113,NaN,NaN,755.719714694933,851.125977018113,1039.62161830041,512.784863451954,604.658667004661,436.089159529932,NaN,NaN,NaN,NaN,NaN,NaN,4,0,0,NaN,NaN,NaN,vertical,vertical,horizontal,none,none,none
1d,11,100217,1,33,33,19,F,NA,constant,homogeneous,3,present,0.541815042495728,1,vertical,vertical,1,1.0470539184717,green,2,3,1046.31108570371,665.998856501143,734.001143498857,353.688914296288,619.68777079743,780.31222920257,1046.31108570371,665.998856501143,734.001143498857,353.688914296288,NaN,NaN,NaN,NaN,NaN,NaN,0,4,0,NaN,NaN,NaN,horizontal,vertical,horizontal,none,none,none
1d,11,100217,1,34,34,19,F,NA,constant,homogeneous,6,present,0.787765026092529,1,horizontal,horizontal,1,0.75293949842453,green,6,4,613.504806087112,773.909581815937,742.637481142314,351.535633479765,857.362518857686,848.464366520235,1043.85771277057,674.554784704298,986.495193912888,426.090418184063,742.637481142314,351.535633479765,556.142287229426,525.445215295702,613.504806087112,773.909581815937,0,0,0,0,0,4,vertical,horizontal,vertical,vertical,horizontal,horizontal
1d,11,100217,1,35,35,19,F,NA,constant,homogeneous,5,absent,0.695406198501587,1,horizontal,horizontal,1,0.788233228830191,green,4,NaN,607.549057043193,432.704947607421,NaN,NaN,857.362518857686,848.464366520235,1054.0296480134,622.224714400653,899.636437764765,365.271262369628,607.549057043193,432.704947607421,581.422338320961,731.334709102064,NaN,NaN,0,0,0,4,0,NaN,vertical,vertical,vertical,horizontal,horizontal,none
1d,11,100217,1,36,36,19,F,NA,constant,homogeneous,6,absent,0.691555976867676,1,vertical,vertical,1,0.882349843245286,green,1,NaN,804.450363641507,854.96116226488,NaN,NaN,804.450363641507,854.96116226488,1023.02802532055,723.626453162816,1018.57766167904,468.665290897936,795.549636358493,345.03883773512,576.971974679454,476.373546837184,581.422338320961,731.334709102064,4,0,0,0,0,0,vertical,vertical,vertical,horizontal,horizontal,vertical
1d,11,100217,1,37,37,19,F,NA,constant,homogeneous,4,present,0.926862001419067,1,horizontal,horizontal,1,0.670587460811322,green,4,3,560.378381699593,687.215136548046,712.784863451954,360.378381699593,887.215136548046,839.621618300407,1039.62161830041,512.784863451954,712.784863451954,360.378381699593,560.378381699593,687.215136548046,NaN,NaN,NaN,NaN,0,0,0,4,NaN,NaN,horizontal,horizontal,vertical,horizontal,none,none
1d,11,100217,1,38,38,19,F,NA,constant,homogeneous,6,absent,0.879609107971191,1,horizontal,horizontal,1,0.717645768018869,green,3,NaN,983.431649086356,422.862115532956,NaN,NaN,861.690083377915,847.425410200379,1045.12173246427,670.287525733335,983.431649086356,422.862115532956,738.309916622085,352.574589799621,554.878267535729,529.712474266665,616.568350913644,777.137884467044,0,0,4,0,0,0,vertical,vertical,horizontal,vertical,horizontal,vertical
1d,11,100217,1,39,39,19,F,NA,constant,homogeneous,5,present,0.705991983413696,1,horizontal,horizontal,1,1.03528934166982,green,3,1,870.287525733335,354.878267535729,887.215136548046,839.621618300407,887.215136548046,839.621618300407,1054.84466088987,591.100628340862,870.287525733335,354.878267535729,588.595418998464,457.40580961496,599.057257830286,756.993676208043,NaN,NaN,0,0,4,0,0,NaN,vertical,vertical,horizontal,horizontal,horizontal,none
1d,11,100217,1,40,40,19,F,NA,constant,homogeneous,3,present,0.871153116226196,1,horizontal,horizontal,1,0.941172727254721,green,2,3,1003.65205506206,446.537169096228,565.271262369628,500.363562235235,831.076682568313,853.099268668537,1003.65205506206,446.537169096228,565.271262369628,500.363562235235,NaN,NaN,NaN,NaN,NaN,NaN,0,4,0,NaN,NaN,NaN,vertical,horizontal,horizontal,none,none,none
1d,11,100217,1,41,41,19,F,NA,constant,homogeneous,3,present,0.662588119506836,1,vertical,vertical,1,0.694116614415095,green,3,1,661.117046071168,386.139005173917,684.232422566416,827.206663668034,684.232422566416,827.206663668034,1054.65053136242,586.654331158049,661.117046071168,386.139005173917,NaN,NaN,NaN,NaN,NaN,NaN,0,0,4,NaN,NaN,NaN,horizontal,vertical,vertical,none,none,none
1d,11,100217,1,42,42,19,F,NA,constant,homogeneous,4,absent,0.554074048995972,0,vertical,horizontal,1,0.894114420047173,green,2,NaN,1027.20666366803,484.232422566416,NaN,NaN,915.767577433584,827.206663668034,1027.20666366803,484.232422566416,684.232422566416,372.793336331966,572.793336331966,715.767577433584,NaN,NaN,NaN,NaN,0,4,0,0,NaN,NaN,horizontal,vertical,horizontal,vertical,none,none
1d,11,100217,1,43,43,19,F,NA,constant,homogeneous,3,present,0.734342098236084,1,horizontal,horizontal,1,0.847056112839625,green,3,1,547.481642470899,564.510859255183,895.524681321058,836.431882914531,895.524681321058,836.431882914531,956.993676208043,399.057257830286,547.481642470899,564.510859255183,NaN,NaN,NaN,NaN,NaN,NaN,0,0,4,NaN,NaN,NaN,horizontal,vertical,horizontal,none,none,none
1d,11,100217,1,44,44,19,F,NA,constant,homogeneous,4,absent,1.0813000202179,1,horizontal,horizontal,1,0.999995611264155,green,1,NaN,755.719714694933,851.125977018113,NaN,NaN,755.719714694933,851.125977018113,1051.12597701811,644.280285305067,844.280285305067,348.874022981887,548.874022981887,555.719714694933,NaN,NaN,NaN,NaN,4,0,0,0,NaN,NaN,horizontal,vertical,vertical,vertical,none,none
1d,11,100217,1,45,45,19,F,NA,constant,homogeneous,6,present,0.575989007949829,1,vertical,vertical,1,0.835291536037738,green,3,6,970.628304621509,410.498069503264,629.371695378491,789.501930496736,878.799333565612,842.519411655264,1049.42763818712,653.017481158529,970.628304621509,410.498069503264,721.200666434388,357.480588344736,550.57236181288,546.982518841471,629.371695378491,789.501930496736,0,0,4,0,0,0,horizontal,vertical,vertical,vertical,vertical,vertical
1d,11,100217,1,46,46,19,F,NA,constant,homogeneous,4,present,0.574098825454712,1,vertical,vertical,1,0.917643573650947,green,4,2,545.621167183745,582.212099195248,1054.37883281626,617.787900804752,782.212099195248,854.378832816255,1054.37883281626,617.787900804752,817.787900804752,345.621167183745,545.621167183745,582.212099195248,NaN,NaN,NaN,NaN,0,0,0,4,NaN,NaN,vertical,horizontal,horizontal,vertical,none,none
1d,11,100217,1,47,47,19,F,NA,constant,homogeneous,6,present,0.618186235427856,1,vertical,vertical,1,1.03528934166982,green,4,6,782.212099195248,345.621167183745,588.595418998464,742.594190385041,817.787900804752,854.378832816255,1029.19248180629,711.784642431215,1011.40458100154,457.40580961496,782.212099195248,345.621167183745,570.807518193712,488.215357568785,588.595418998464,742.594190385041,0,0,0,4,0,0,horizontal,vertical,vertical,vertical,horizontal,horizontal
1d,11,100217,1,48,48,19,F,NA,constant,homogeneous,4,absent,0.625355005264282,0,horizontal,vertical,1,0.929408150452834,green,3,NaN,692.232343256122,368.891514305654,NaN,NaN,907.767656743878,831.108485694346,1031.10848569435,492.232343256122,692.232343256122,368.891514305654,568.891514305654,707.767656743878,NaN,NaN,NaN,NaN,0,0,4,0,NaN,NaN,horizontal,horizontal,horizontal,vertical,none,none
1d,11,100217,1,49,49,19,F,NA,constant,homogeneous,3,absent,0.726089000701904,1,horizontal,horizontal,1,0.999995611264155,green,2,NaN,831.076682568313,346.900731331463,NaN,NaN,1003.65205506206,753.462830903772,831.076682568313,346.900731331463,565.271262369628,699.636437764765,NaN,NaN,NaN,NaN,NaN,NaN,0,4,0,NaN,NaN,NaN,horizontal,horizontal,vertical,none,none,none
1d,11,100217,1,50,50,19,F,NA,constant,homogeneous,4,absent,0.578229904174805,1,horizontal,horizontal,1,1.08234764887736,green,4,NaN,579.163522034968,727.5,NaN,NaN,927.5,820.836477965032,1020.83647796503,472.5,672.5,379.163522034968,579.163522034968,727.5,NaN,NaN,NaN,NaN,0,0,0,4,NaN,NaN,horizontal,vertical,horizontal,horizontal,none,none
1d,11,100217,1,51,51,19,F,NA,constant,homogeneous,6,absent,0.714814186096191,1,vertical,vertical,1,0.635293730405661,green,6,NaN,639.523300282292,798.172220171528,NaN,NaN,891.383827134052,838.063008756786,1051.86052685176,639.890788585259,960.476699717708,401.827779828472,708.616172865948,361.936991243214,548.13947314824,560.109211414741,639.523300282292,798.172220171528,0,0,0,0,0,4,vertical,vertical,vertical,horizontal,horizontal,vertical
1d,11,100217,1,52,52,19,F,NA,constant,homogeneous,6,present,0.60369610786438,1,horizontal,horizontal,1,0.929408150452834,green,4,1,742.637481142314,351.535633479765,857.362518857686,848.464366520235,857.362518857686,848.464366520235,1043.85771277057,674.554784704298,986.495193912888,426.090418184063,742.637481142314,351.535633479765,556.142287229426,525.445215295702,613.504806087112,773.909581815937,0,0,0,4,0,0,vertical,vertical,vertical,horizontal,vertical,vertical
1d,11,100217,1,53,53,19,F,NA,constant,homogeneous,5,present,0.829437017440796,1,vertical,vertical,1,0.658822884009435,green,5,2,553.688914296288,665.998856501143,1038.06300875679,691.383827134052,786.654331158049,854.650531362416,1038.06300875679,691.383827134052,960.476699717708,401.827779828472,661.117046071168,386.139005173917,553.688914296288,665.998856501143,NaN,NaN,0,0,0,0,4,NaN,vertical,vertical,vertical,horizontal,vertical,none
1d,11,100217,1,54,54,19,F,NA,constant,homogeneous,6,absent,1.27532601356506,1,horizontal,horizontal,1,1.07058307207548,green,2,NaN,983.431649086356,777.137884467044,NaN,NaN,738.309916622085,847.425410200379,983.431649086356,777.137884467044,1045.12173246427,529.712474266665,861.690083377915,352.574589799621,616.568350913644,422.862115532956,554.878267535729,670.287525733335,0,4,0,0,0,0,vertical,horizontal,vertical,vertical,vertical,horizontal
1d,11,100217,1,55,55,19,F,NA,constant,homogeneous,5,absent,0.668807983398438,1,vertical,vertical,1,0.988231034462268,green,4,NaN,626.090418184063,413.504806087112,NaN,NaN,831.076682568313,853.099268668537,1050.31493177915,648.656293821019,923.626453162816,376.971974679454,626.090418184063,413.504806087112,568.891514305654,707.767656743878,NaN,NaN,0,0,0,4,0,NaN,horizontal,vertical,vertical,vertical,horizontal,none
1d,11,100217,1,56,56,19,F,NA,constant,homogeneous,3,present,0.93137001991272,1,vertical,vertical,1,0.858820689641512,green,2,1,1020.83647796503,727.5,579.163522034968,727.5,579.163522034968,727.5,1020.83647796503,727.5,800,345,NaN,NaN,NaN,NaN,NaN,NaN,0,4,0,NaN,NaN,NaN,vertical,vertical,vertical,none,none,none
1d,11,100217,1,57,57,19,F,NA,constant,homogeneous,4,present,0.519747972488403,1,horizontal,horizontal,1,1.07058307207548,green,3,2,963.910840470068,404.658667004661,995.341332995339,763.910840470068,636.089159529932,795.341332995339,995.341332995339,763.910840470068,963.910840470068,404.658667004661,604.658667004661,436.089159529932,NaN,NaN,NaN,NaN,0,0,4,0,NaN,NaN,horizontal,horizontal,horizontal,vertical,none,none
1d,11,100217,1,58,58,19,F,NA,constant,homogeneous,4,present,0.770084142684937,1,vertical,vertical,1,0.788233228830191,green,1,2,817.787900804752,854.378832816255,1054.37883281626,582.212099195248,817.787900804752,854.378832816255,1054.37883281626,582.212099195248,782.212099195248,345.621167183745,545.621167183745,617.787900804752,NaN,NaN,NaN,NaN,4,0,0,0,NaN,NaN,vertical,horizontal,horizontal,horizontal,none,none
1d,11,100217,1,59,59,19,F,NA,constant,homogeneous,5,present,0.627610921859741,1,horizontal,horizontal,1,0.694116614415095,green,3,4,887.215136548046,360.378381699593,599.057257830286,443.006323791957,870.287525733335,845.121732464271,1054.84466088987,608.899371659138,887.215136548046,360.378381699593,599.057257830286,443.006323791957,588.595418998464,742.594190385041,NaN,NaN,0,0,4,0,0,NaN,vertical,horizontal,horizontal,horizontal,vertical,none
1d,11,100217,1,60,60,19,F,NA,constant,homogeneous,4,present,0.716145992279053,1,vertical,vertical,1,0.988231034462268,green,2,1,1018.57766167904,731.334709102064,668.665290897936,818.577661679039,668.665290897936,818.577661679039,1018.57766167904,731.334709102064,931.334709102064,381.422338320961,581.422338320961,468.665290897936,NaN,NaN,NaN,NaN,0,4,0,0,NaN,NaN,vertical,vertical,vertical,horizontal,none,none
1d,11,100217,1,61,61,19,F,NA,constant,homogeneous,4,absent,0.653623104095459,0,vertical,horizontal,1,0.75293949842453,green,4,NaN,572.793336331966,484.232422566416,NaN,NaN,684.232422566416,827.206663668034,1027.20666366803,715.767577433584,915.767577433584,372.793336331966,572.793336331966,484.232422566416,NaN,NaN,NaN,NaN,0,0,0,4,NaN,NaN,vertical,horizontal,horizontal,vertical,none,none
1d,11,100217,1,62,62,19,F,NA,constant,homogeneous,6,present,1.16002297401428,1,vertical,vertical,1,0.858820689641512,green,6,4,601.827779828472,760.476699717708,760.109211414741,348.13947314824,839.890788585259,851.86052685176,1038.06300875679,691.383827134052,998.172220171528,439.523300282291,760.109211414741,348.13947314824,561.936991243214,508.616172865948,601.827779828472,760.476699717708,0,0,0,0,0,4,horizontal,vertical,horizontal,horizontal,horizontal,vertical
1d,11,100217,1,63,63,19,F,NA,constant,homogeneous,4,absent,0.79245400428772,1,horizontal,horizontal,1,0.658822884009435,green,1,NaN,795.549636358493,854.96116226488,NaN,NaN,795.549636358493,854.96116226488,1054.96116226488,604.450363641507,804.450363641507,345.03883773512,545.03883773512,595.549636358493,NaN,NaN,NaN,NaN,4,0,0,0,NaN,NaN,horizontal,vertical,vertical,vertical,none,none
1d,11,100217,1,64,64,19,F,NA,constant,homogeneous,4,absent,0.779608011245728,1,vertical,vertical,1,0.964701880858495,green,1,NaN,619.68777079743,780.31222920257,NaN,NaN,619.68777079743,780.31222920257,980.31222920257,780.31222920257,980.31222920257,419.68777079743,619.68777079743,419.68777079743,NaN,NaN,NaN,NaN,4,0,0,0,NaN,NaN,vertical,horizontal,horizontal,horizontal,none,none
1d,11,100217,2,1,65,19,F,NA,constant,homogeneous,3,absent,0.707311153411865,1,horizontal,horizontal,1,0.788233228830191,green,2,NaN,1052.5183575291,635.489140744817,NaN,NaN,643.006323791957,800.942742169714,1052.5183575291,635.489140744817,704.475318678942,363.568117085469,NaN,NaN,NaN,NaN,NaN,NaN,0,4,0,NaN,NaN,NaN,horizontal,horizontal,horizontal,none,none,none
1d,11,100217,2,2,66,19,F,NA,constant,homogeneous,5,absent,0.55817985534668,1,vertical,vertical,1,1.02352476486793,green,3,NaN,1000.94274216971,443.006323791957,NaN,NaN,729.712474266665,845.121732464271,1011.40458100154,742.594190385041,1000.94274216971,443.006323791957,712.784863451954,360.378381699593,545.155339110131,608.899371659138,NaN,NaN,0,0,4,0,0,NaN,horizontal,horizontal,vertical,vertical,horizontal,none
1d,11,100217,2,3,67,19,F,NA,constant,homogeneous,5,present,0.701442956924438,1,horizontal,horizontal,1,1.01176018806604,green,5,1,560.378381699593,687.215136548046,808.899371659138,854.844660889869,808.899371659138,854.844660889869,1045.12173246427,670.287525733335,942.594190385041,388.595418998464,643.006323791957,399.057257830286,560.378381699593,687.215136548046,NaN,NaN,0,0,0,0,4,NaN,horizontal,horizontal,horizontal,vertical,horizontal,none
1d,11,100217,2,4,68,19,F,NA,constant,homogeneous,6,present,0.559123992919922,1,horizontal,horizontal,1,0.764704075226417,green,4,1,911.784642431215,370.807518193712,688.215357568785,829.192481806288,688.215357568785,829.192481806288,942.594190385041,811.404581001536,1054.37883281626,582.212099195248,911.784642431215,370.807518193712,657.405809614959,388.595418998464,545.621167183745,617.787900804752,0,0,0,4,0,0,horizontal,vertical,horizontal,horizontal,vertical,horizontal
1d,11,100217,2,5,69,19,F,NA,constant,homogeneous,4,present,0.592849016189575,1,vertical,vertical,1,0.90587899684906,green,4,1,547.481642470899,635.489140744817,835.489140744817,852.518357529101,835.489140744817,852.518357529101,1052.5183575291,564.510859255183,764.510859255183,347.4816424709,547.481642470899,635.489140744817,NaN,NaN,NaN,NaN,0,0,0,4,NaN,NaN,vertical,horizontal,horizontal,vertical,none,none
1d,11,100217,2,6,70,19,F,NA,constant,homogeneous,5,absent,0.884483098983765,1,horizontal,horizontal,1,1.01176018806604,green,2,NaN,983.431649086356,777.137884467044,NaN,NaN,688.215357568785,829.192481806288,983.431649086356,777.137884467044,1025.15163617903,480.284751489598,755.719714694933,348.874022981887,547.481642470899,564.510859255183,NaN,NaN,0,4,0,0,0,NaN,horizontal,horizontal,vertical,horizontal,vertical,none
1d,11,100217,2,7,71,19,F,NA,constant,homogeneous,5,absent,0.604312181472778,1,vertical,vertical,1,0.882349843245286,green,2,NaN,1018.57766167904,731.334709102064,NaN,NaN,742.637481142314,848.464366520235,1018.57766167904,731.334709102064,992.450942956807,432.704947607421,700.363562235235,365.271262369628,545.970351986605,622.224714400653,NaN,NaN,0,4,0,0,0,NaN,vertical,vertical,vertical,vertical,horizontal,none
1d,11,100217,2,8,72,19,F,NA,constant,homogeneous,4,absent,0.635461091995239,0,vertical,horizontal,1,0.941172727254721,green,4,NaN,574.848363820974,480.284751489598,NaN,NaN,680.284751489598,825.151636179026,1025.15163617903,719.715248510402,919.715248510402,374.848363820974,574.848363820974,480.284751489598,NaN,NaN,NaN,NaN,0,0,0,4,NaN,NaN,horizontal,horizontal,horizontal,vertical,none,none
1d,11,100217,2,9,73,19,F,NA,constant,homogeneous,3,absent,1.17668700218201,1,vertical,vertical,1,0.611764576801887,green,2,NaN,887.215136548046,360.378381699593,NaN,NaN,963.910840470068,795.341332995339,887.215136548046,360.378381699593,548.874022981887,644.280285305067,NaN,NaN,NaN,NaN,NaN,NaN,0,4,0,NaN,NaN,NaN,vertical,vertical,vertical,none,none,none
1d,11,100217,2,10,74,19,F,NA,constant,homogeneous,3,present,0.62605881690979,1,vertical,vertical,1,0.682352037613208,green,3,2,777.775285599347,345.970351986605,1031.10848569435,707.767656743878,591.116228706307,746.261991269517,1031.10848569435,707.767656743878,777.775285599347,345.970351986605,NaN,NaN,NaN,NaN,NaN,NaN,0,0,4,NaN,NaN,NaN,horizontal,vertical,vertical,none,none,none
1d,11,100217,2,11,75,19,F,NA,constant,homogeneous,3,absent,0.645348072052002,1,vertical,vertical,1,0.929408150452834,green,2,NaN,1025.15163617903,480.284751489598,NaN,NaN,791.100628340862,854.844660889869,1025.15163617903,480.284751489598,583.747735480111,464.870587620533,NaN,NaN,NaN,NaN,NaN,NaN,0,4,0,NaN,NaN,NaN,vertical,vertical,vertical,none,none,none
1d,11,100217,2,12,76,19,F,NA,constant,homogeneous,4,absent,0.613517045974731,1,vertical,vertical,1,0.952937304056608,green,4,NaN,588.595418998464,742.594190385041,NaN,NaN,942.594190385041,811.404581001536,1011.40458100154,457.40580961496,657.405809614959,388.595418998464,588.595418998464,742.594190385041,NaN,NaN,NaN,NaN,0,0,0,4,NaN,NaN,vertical,horizontal,vertical,vertical,none,none
1d,11,100217,2,13,77,19,F,NA,constant,homogeneous,5,absent,0.626730918884277,1,vertical,vertical,1,0.635293730405661,green,5,NaN,554.878267535729,670.287525733335,NaN,NaN,791.100628340862,854.844660889869,1039.62161830041,687.215136548046,956.993676208043,399.057257830286,657.405809614959,388.595418998464,554.878267535729,670.287525733335,NaN,NaN,0,0,0,0,4,NaN,vertical,horizontal,horizontal,horizontal,vertical,none
1d,11,100217,2,14,78,19,F,NA,constant,homogeneous,4,absent,0.63613486289978,0,horizontal,vertical,1,0.835291536037738,green,3,NaN,911.784642431215,370.807518193712,NaN,NaN,688.215357568785,829.192481806288,1029.19248180629,711.784642431215,911.784642431215,370.807518193712,570.807518193712,488.215357568785,NaN,NaN,NaN,NaN,0,0,4,0,NaN,NaN,horizontal,horizontal,horizontal,horizontal,none,none
1d,11,100217,2,15,79,19,F,NA,constant,homogeneous,4,absent,0.581645011901855,1,vertical,vertical,1,0.823526959235852,green,3,NaN,887.215136548046,360.378381699593,NaN,NaN,712.784863451954,839.621618300407,1039.62161830041,687.215136548046,887.215136548046,360.378381699593,560.378381699593,512.784863451954,NaN,NaN,NaN,NaN,0,0,4,0,NaN,NaN,vertical,vertical,vertical,horizontal,none,none
1d,11,100217,2,16,80,19,F,NA,constant,homogeneous,3,absent,0.642824172973633,1,vertical,vertical,1,0.670587460811322,green,2,NaN,1023.02802532055,723.626453162816,NaN,NaN,581.422338320961,731.334709102064,1023.02802532055,723.626453162816,795.549636358493,345.03883773512,NaN,NaN,NaN,NaN,NaN,NaN,0,4,0,NaN,NaN,NaN,vertical,vertical,horizontal,none,none,none
1d,11,100217,2,17,81,19,F,NA,constant,homogeneous,5,absent,0.706946849822998,1,horizontal,horizontal,1,0.75293949842453,green,1,NaN,935.129412379467,816.252264519889,NaN,NaN,935.129412379467,816.252264519889,1047.42541020038,538.309916622085,817.787900804752,345.621167183745,563.568117085469,504.475318678942,636.089159529932,795.341332995339,NaN,NaN,4,0,0,0,0,NaN,horizontal,horizontal,horizontal,horizontal,vertical,none
1d,11,100217,2,18,82,19,F,NA,constant,homogeneous,4,absent,0.76140308380127,1,vertical,vertical,1,0.811762382433965,green,4,NaN,619.68777079743,780.31222920257,NaN,NaN,980.31222920257,780.31222920257,980.31222920257,419.68777079743,619.68777079743,419.68777079743,619.68777079743,780.31222920257,NaN,NaN,NaN,NaN,0,0,0,4,NaN,NaN,vertical,horizontal,vertical,vertical,none,none
1d,11,100217,2,19,83,19,F,NA,constant,homogeneous,6,absent,0.627273082733154,1,vertical,vertical,1,0.929408150452834,green,3,NaN,1042.51941165526,521.200666434388,NaN,NaN,746.982518841471,849.42763818712,989.501930496736,770.628304621509,1042.51941165526,521.200666434388,853.017481158529,350.57236181288,610.498069503264,429.371695378491,557.480588344736,678.799333565612,0,0,4,0,0,0,horizontal,horizontal,vertical,horizontal,horizontal,horizontal
1d,11,100217,2,20,84,19,F,NA,constant,homogeneous,5,present,0.602236986160278,1,vertical,vertical,1,0.917643573650947,green,4,5,661.117046071168,386.139005173917,553.688914296288,665.998856501143,786.654331158049,854.650531362416,1038.06300875679,691.383827134052,960.476699717708,401.827779828472,661.117046071168,386.139005173917,553.688914296288,665.998856501143,NaN,NaN,0,0,0,4,0,NaN,vertical,vertical,vertical,vertical,horizontal,none
1d,11,100217,2,21,85,19,F,NA,constant,homogeneous,3,absent,0.539791822433472,1,vertical,vertical,1,1.05881849527359,green,2,NaN,1047.42541020038,538.309916622085,NaN,NaN,729.712474266665,845.121732464271,1047.42541020038,538.309916622085,622.862115532956,416.568350913644,NaN,NaN,NaN,NaN,NaN,NaN,0,4,0,NaN,NaN,NaN,horizontal,vertical,vertical,none,none,none
1d,11,100217,2,22,86,19,F,NA,constant,homogeneous,4,present,0.758207082748413,1,horizontal,horizontal,1,0.764704075226417,green,1,3,923.626453162816,823.028025320546,676.373546837184,376.971974679454,923.626453162816,823.028025320546,1023.02802532055,476.373546837184,676.373546837184,376.971974679454,576.971974679454,723.626453162816,NaN,NaN,NaN,NaN,4,0,0,0,NaN,NaN,horizontal,vertical,horizontal,vertical,none,none
1d,11,100217,2,23,87,19,F,NA,constant,homogeneous,5,present,0.660397052764893,1,vertical,vertical,1,0.741174921622643,green,4,2,721.200666434388,357.480588344736,1006.29933356561,749.885239334581,721.200666434388,842.519411655264,1006.29933356561,749.885239334581,1006.29933356561,450.114760665419,721.200666434388,357.480588344736,545,600,NaN,NaN,0,0,0,4,0,NaN,horizontal,horizontal,horizontal,vertical,vertical,none
1d,11,100217,2,24,88,19,F,NA,constant,homogeneous,6,absent,0.697107076644897,1,horizontal,horizontal,1,0.764704075226417,green,1,NaN,782.212099195248,854.378832816255,NaN,NaN,782.212099195248,854.378832816255,1011.40458100154,742.594190385041,1029.19248180629,488.215357568785,817.787900804752,345.621167183745,588.595418998464,457.40580961496,570.807518193712,711.784642431215,4,0,0,0,0,0,horizontal,vertical,vertical,horizontal,horizontal,vertical
1d,11,100217,2,25,89,19,F,NA,constant,homogeneous,5,present,0.684076070785522,1,vertical,vertical,1,0.635293730405661,green,3,4,1036.43188291453,504.475318678942,782.212099195248,345.621167183745,664.870587620533,816.252264519889,963.910840470068,795.341332995339,1036.43188291453,504.475318678942,782.212099195248,345.621167183745,552.574589799621,538.309916622085,NaN,NaN,0,0,4,0,0,NaN,horizontal,horizontal,vertical,vertical,vertical,none
1d,11,100217,2,26,90,19,F,NA,constant,homogeneous,4,present,0.834944009780884,1,vertical,vertical,1,0.858820689641512,green,1,4,844.280285305067,851.125977018113,548.874022981887,644.280285305067,844.280285305067,851.125977018113,1051.12597701811,555.719714694933,755.719714694933,348.874022981887,548.874022981887,644.280285305067,NaN,NaN,NaN,NaN,4,0,0,0,NaN,NaN,vertical,horizontal,vertical,vertical,none,none
1d,11,100217,2,27,91,19,F,NA,constant,homogeneous,6,present,0.60700798034668,1,horizontal,horizontal,1,0.741174921622643,green,4,5,742.637481142314,351.535633479765,556.142287229426,525.445215295702,857.362518857686,848.464366520235,1043.85771277057,674.554784704298,986.495193912888,426.090418184063,742.637481142314,351.535633479765,556.142287229426,525.445215295702,613.504806087112,773.909581815937,0,0,0,4,0,0,vertical,vertical,vertical,horizontal,horizontal,vertical
1d,11,100217,2,28,92,19,F,NA,constant,homogeneous,4,absent,0.601212978363037,1,horizontal,horizontal,1,0.705881191216982,green,1,NaN,643.006323791957,800.942742169714,NaN,NaN,643.006323791957,800.942742169714,1000.94274216971,756.993676208043,956.993676208043,399.057257830286,599.057257830286,443.006323791957,NaN,NaN,NaN,NaN,4,0,0,0,NaN,NaN,horizontal,vertical,vertical,vertical,none,none
1d,11,100217,2,29,93,19,F,NA,constant,homogeneous,5,present,0.602727890014648,1,horizontal,horizontal,1,1.05881849527359,green,5,4,556.142287229426,525.445215295702,795.549636358493,345.03883773512,653.738008730483,808.883771293693,953.462830903772,803.65205506206,1041.10723677783,516.980120613425,795.549636358493,345.03883773512,556.142287229426,525.445215295702,NaN,NaN,0,0,0,0,4,NaN,vertical,horizontal,horizontal,horizontal,horizontal,none
1d,11,100217,2,30,94,19,F,NA,constant,homogeneous,6,absent,0.568625926971436,1,vertical,vertical,1,0.894114420047173,green,4,NaN,899.636437764765,365.271262369628,NaN,NaN,700.363562235235,834.728737630372,953.462830903772,803.65205506206,1053.09926866854,568.923317431687,899.636437764765,365.271262369628,646.537169096228,396.34794493794,546.900731331463,631.076682568313,0,0,0,4,0,0,vertical,vertical,vertical,vertical,vertical,horizontal
1d,11,100217,2,31,95,19,F,NA,constant,homogeneous,6,present,0.659554004669189,0,vertical,horizontal,1,0.764704075226417,green,5,4,563.568117085469,504.475318678942,764.510859255183,347.4816424709,835.489140744817,852.518357529101,1036.43188291453,695.524681321058,1000.94274216971,443.006323791957,764.510859255183,347.4816424709,563.568117085469,504.475318678942,599.057257830286,756.993676208043,0,0,0,0,4,0,vertical,horizontal,horizontal,vertical,vertical,horizontal
1d,11,100217,2,32,96,19,F,NA,constant,homogeneous,3,present,0.610741853713989,1,horizontal,horizontal,1,0.882349843245286,green,3,1,545.155339110131,608.899371659138,935.129412379467,816.252264519889,935.129412379467,816.252264519889,919.715248510402,374.848363820974,545.155339110131,608.899371659138,NaN,NaN,NaN,NaN,NaN,NaN,0,0,4,NaN,NaN,NaN,horizontal,vertical,horizontal,none,none,none
1d,11,100217,2,33,97,19,F,NA,constant,homogeneous,6,present,0.82538914680481,1,horizontal,horizontal,1,0.90587899684906,green,4,3,895.524681321058,363.568117085469,1052.5183575291,564.510859255183,704.475318678942,836.431882914531,956.993676208043,800.942742169714,1052.5183575291,564.510859255183,895.524681321058,363.568117085469,643.006323791957,399.057257830286,547.481642470899,635.489140744817,0,0,0,4,0,0,vertical,vertical,vertical,horizontal,horizontal,horizontal
1d,11,100217,2,34,98,19,F,NA,constant,homogeneous,6,absent,1.13068985939026,1,horizontal,horizontal,1,0.835291536037738,green,1,NaN,822.224714400653,854.029648013395,NaN,NaN,822.224714400653,854.029648013395,1031.10848569435,707.767656743878,1008.88377129369,453.738008730483,777.775285599347,345.970351986605,568.891514305654,492.232343256122,591.116228706307,746.261991269517,4,0,0,0,0,0,horizontal,vertical,horizontal,horizontal,horizontal,horizontal
1d,11,100217,2,35,99,19,F,NA,constant,homogeneous,3,absent,0.682307958602905,1,horizontal,horizontal,1,0.835291536037738,green,1,NaN,751.343706178981,850.314931779154,NaN,NaN,751.343706178981,850.314931779154,1041.10723677783,516.980120613425,607.549057043193,432.704947607421,NaN,NaN,NaN,NaN,NaN,NaN,4,0,0,NaN,NaN,NaN,horizontal,vertical,horizontal,none,none,none
1d,11,100217,2,36,100,19,F,NA,constant,homogeneous,3,present,0.596235036849976,1,vertical,vertical,1,0.799997805632078,green,3,1,556.142287229426,525.445215295702,857.362518857686,848.464366520235,857.362518857686,848.464366520235,986.495193912888,426.090418184063,556.142287229426,525.445215295702,NaN,NaN,NaN,NaN,NaN,NaN,0,0,4,NaN,NaN,NaN,horizontal,vertical,vertical,none,none,none
1d,11,100217,2,37,101,19,F,NA,constant,homogeneous,3,present,0.753913879394531,1,horizontal,horizontal,1,0.882349843245286,green,2,1,895.524681321058,363.568117085469,956.993676208043,800.942742169714,956.993676208043,800.942742169714,895.524681321058,363.568117085469,547.481642470899,635.489140744817,NaN,NaN,NaN,NaN,NaN,NaN,0,4,0,NaN,NaN,NaN,horizontal,horizontal,horizontal,none,none,none
1d,11,100217,2,38,102,19,F,NA,constant,homogeneous,3,present,0.693166017532349,1,vertical,vertical,1,0.6,green,1,3,700.363562235235,834.728737630372,646.537169096228,396.34794493794,700.363562235235,834.728737630372,1053.09926866854,568.923317431687,646.537169096228,396.34794493794,NaN,NaN,NaN,NaN,NaN,NaN,4,0,0,NaN,NaN,NaN,vertical,horizontal,horizontal,none,none,none
1d,11,100217,2,39,103,19,F,NA,constant,homogeneous,4,absent,0.636688947677612,1,horizontal,horizontal,1,0.670587460811322,green,3,NaN,956.993676208043,399.057257830286,NaN,NaN,643.006323791957,800.942742169714,1000.94274216971,756.993676208043,956.993676208043,399.057257830286,599.057257830286,443.006323791957,NaN,NaN,NaN,NaN,0,0,4,0,NaN,NaN,vertical,vertical,horizontal,vertical,none,none
1d,11,100217,2,40,104,19,F,NA,constant,homogeneous,3,absent,0.551508903503418,1,horizontal,horizontal,1,0.694116614415095,green,1,NaN,581.422338320961,731.334709102064,NaN,NaN,581.422338320961,731.334709102064,1023.02802532055,723.626453162816,795.549636358493,345.03883773512,NaN,NaN,NaN,NaN,NaN,NaN,4,0,0,NaN,NaN,NaN,horizontal,horizontal,vertical,none,none,none
1d,11,100217,2,41,105,19,F,NA,constant,homogeneous,6,present,0.632030963897705,1,horizontal,horizontal,1,0.858820689641512,green,5,1,545,600,927.5,820.836477965032,927.5,820.836477965032,1055,600,927.5,379.163522034968,672.5,379.163522034968,545,600,672.5,820.836477965032,0,0,0,0,4,0,vertical,vertical,horizontal,vertical,horizontal,vertical
1d,11,100217,2,42,106,19,F,NA,constant,homogeneous,4,present,0.763257026672363,1,horizontal,horizontal,1,0.729410344820756,green,1,2,899.636437764765,834.728737630372,1034.72873763037,500.363562235235,899.636437764765,834.728737630372,1034.72873763037,500.363562235235,700.363562235235,365.271262369628,565.271262369628,699.636437764765,NaN,NaN,NaN,NaN,4,0,0,0,NaN,NaN,horizontal,horizontal,horizontal,vertical,none,none
1d,11,100217,2,43,107,19,F,NA,constant,homogeneous,5,absent,0.650986909866333,1,vertical,vertical,1,0.6,green,1,NaN,668.665290897936,818.577661679039,NaN,NaN,668.665290897936,818.577661679039,967.295052392579,792.450942956807,1034.72873763037,500.363562235235,777.775285599347,345.970351986605,551.535633479765,542.637481142314,NaN,NaN,4,0,0,0,0,NaN,vertical,vertical,vertical,vertical,vertical,none
1d,11,100217,2,44,108,19,F,NA,constant,homogeneous,6,absent,0.630223035812378,1,horizontal,horizontal,1,0.705881191216982,green,6,NaN,626.090418184063,786.495193912888,NaN,NaN,874.554784704298,843.857712770574,1048.46436652023,657.362518857686,973.909581815937,413.504806087112,725.445215295702,356.142287229426,551.535633479765,542.637481142314,626.090418184063,786.495193912888,0,0,0,0,0,4,horizontal,vertical,vertical,horizontal,horizontal,horizontal
1d,11,100217,2,45,109,19,F,NA,constant,homogeneous,6,absent,0.684868097305298,1,horizontal,horizontal,1,0.694116614415095,green,1,NaN,895.524681321058,836.431882914531,NaN,NaN,895.524681321058,836.431882914531,1052.5183575291,635.489140744817,956.993676208043,399.057257830286,704.475318678942,363.568117085469,547.481642470899,564.510859255183,643.006323791957,800.942742169714,4,0,0,0,0,0,horizontal,horizontal,horizontal,vertical,horizontal,horizontal
1d,11,100217,2,46,110,19,F,NA,constant,homogeneous,5,present,0.611522912979126,1,horizontal,horizontal,1,1.03528934166982,green,4,3,616.568350913644,422.862115532956,911.784642431215,370.807518193712,844.280285305067,851.125977018113,1052.5183575291,635.489140744817,911.784642431215,370.807518193712,616.568350913644,422.862115532956,574.848363820974,719.715248510402,NaN,NaN,0,0,0,4,0,NaN,vertical,vertical,vertical,horizontal,horizontal,none
1d,11,100217,2,47,111,19,F,NA,constant,homogeneous,5,absent,0.492419004440308,1,horizontal,horizontal,1,0.823526959235852,green,3,NaN,848.656293821019,349.685068220846,NaN,NaN,907.767656743878,831.108485694346,1053.09926866854,568.923317431687,848.656293821019,349.685068220846,576.971974679454,476.373546837184,613.504806087112,773.909581815937,NaN,NaN,0,0,4,0,0,NaN,horizontal,vertical,horizontal,horizontal,horizontal,none
1d,11,100217,2,48,112,19,F,NA,constant,homogeneous,6,absent,0.676070928573608,1,vertical,vertical,1,0.882349843245286,green,4,NaN,853.017481158529,350.57236181288,NaN,NaN,746.982518841471,849.42763818712,989.501930496736,770.628304621509,1042.51941165526,521.200666434388,853.017481158529,350.57236181288,610.498069503264,429.371695378491,557.480588344736,678.799333565612,0,0,0,4,0,0,horizontal,vertical,vertical,vertical,vertical,vertical
1d,11,100217,2,49,113,19,F,NA,constant,homogeneous,5,present,0.66470193862915,1,vertical,vertical,1,0.75293949842453,green,1,3,870.287525733335,845.121732464271,887.215136548046,360.378381699593,870.287525733335,845.121732464271,1054.84466088987,608.899371659138,887.215136548046,360.378381699593,599.057257830286,443.006323791957,588.595418998464,742.594190385041,NaN,NaN,4,0,0,0,0,NaN,vertical,vertical,horizontal,horizontal,vertical,none
1d,11,100217,2,50,114,19,F,NA,constant,homogeneous,4,present,0.692591905593872,1,horizontal,horizontal,1,0.717645768018869,green,2,3,1034.72873763037,699.636437764765,899.636437764765,365.271262369628,700.363562235235,834.728737630372,1034.72873763037,699.636437764765,899.636437764765,365.271262369628,565.271262369628,500.363562235235,NaN,NaN,NaN,NaN,0,4,0,0,NaN,NaN,horizontal,horizontal,vertical,horizontal,none,none
1d,11,100217,2,51,115,19,F,NA,constant,homogeneous,3,present,0.819706916809082,1,vertical,vertical,1,1.05881849527359,green,1,3,738.309916622085,847.425410200379,616.568350913644,422.862115532956,738.309916622085,847.425410200379,1045.12173246427,529.712474266665,616.568350913644,422.862115532956,NaN,NaN,NaN,NaN,NaN,NaN,4,0,0,NaN,NaN,NaN,vertical,vertical,vertical,none,none,none
1d,11,100217,2,52,116,19,F,NA,constant,homogeneous,6,present,0.574097871780396,1,vertical,vertical,1,1.09411222567925,green,2,3,986.495193912888,773.909581815937,1043.85771277057,525.445215295702,742.637481142314,848.464366520235,986.495193912888,773.909581815937,1043.85771277057,525.445215295702,857.362518857686,351.535633479765,613.504806087112,426.090418184063,556.142287229426,674.554784704298,0,4,0,0,0,0,horizontal,vertical,vertical,horizontal,horizontal,horizontal
1d,11,100217,2,53,117,19,F,NA,constant,homogeneous,4,present,0.492627143859863,1,vertical,vertical,1,0.75293949842453,green,1,4,953.462830903772,803.65205506206,596.34794493794,753.462830903772,953.462830903772,803.65205506206,1003.65205506206,446.537169096228,646.537169096228,396.34794493794,596.34794493794,753.462830903772,NaN,NaN,NaN,NaN,4,0,0,0,NaN,NaN,vertical,vertical,vertical,vertical,none,none
1d,11,100217,2,54,118,19,F,NA,constant,homogeneous,6,present,0.523781061172485,1,vertical,vertical,1,0.658822884009435,green,3,5,1027.20666366803,484.232422566416,586.139005173917,461.117046071168,786.654331158049,854.650531362416,1013.86099482608,738.882953928832,1027.20666366803,484.232422566416,813.345668841951,345.349468637584,586.139005173917,461.117046071168,572.793336331966,715.767577433584,0,0,4,0,0,0,horizontal,vertical,vertical,horizontal,horizontal,horizontal
1d,11,100217,2,55,119,19,F,NA,constant,homogeneous,6,present,0.534311056137085,1,vertical,vertical,1,0.988231034462268,green,4,6,716.980120613425,358.892763222174,632.704947607421,792.450942956807,883.019879386575,841.107236777826,1050.31493177915,648.656293821019,967.295052392579,407.549057043193,716.980120613425,358.892763222174,549.685068220846,551.343706178981,632.704947607421,792.450942956807,0,0,0,4,0,0,horizontal,vertical,vertical,vertical,vertical,horizontal
1d,11,100217,2,56,120,19,F,NA,constant,homogeneous,3,present,0.685916900634766,1,horizontal,horizontal,1,1.03528934166982,green,1,3,923.626453162816,823.028025320546,545.03883773512,595.549636358493,923.626453162816,823.028025320546,931.334709102064,381.422338320961,545.03883773512,595.549636358493,NaN,NaN,NaN,NaN,NaN,NaN,4,0,0,NaN,NaN,NaN,horizontal,horizontal,horizontal,none,none,none
1d,11,100217,2,57,121,19,F,NA,constant,homogeneous,5,present,0.63326096534729,1,horizontal,horizontal,1,1.07058307207548,green,3,5,887.215136548046,360.378381699593,588.595418998464,742.594190385041,870.287525733335,845.121732464271,1054.84466088987,608.899371659138,887.215136548046,360.378381699593,599.057257830286,443.006323791957,588.595418998464,742.594190385041,NaN,NaN,0,0,4,0,0,NaN,horizontal,vertical,horizontal,horizontal,vertical,none
1d,11,100217,2,58,122,19,F,NA,constant,homogeneous,4,present,0.590327024459839,1,vertical,vertical,1,1.02352476486793,green,3,2,808.899371659138,345.155339110131,1054.84466088987,608.899371659138,791.100628340862,854.844660889869,1054.84466088987,608.899371659138,808.899371659138,345.155339110131,545.155339110131,591.100628340862,NaN,NaN,NaN,NaN,0,0,4,0,NaN,NaN,horizontal,vertical,vertical,vertical,none,none
1d,11,100217,2,59,123,19,F,NA,constant,homogeneous,5,absent,0.63588809967041,1,horizontal,horizontal,1,0.882349843245286,green,3,NaN,839.890788585259,348.13947314824,NaN,NaN,915.767577433584,827.206663668034,1051.86052685176,560.109211414741,839.890788585259,348.13947314824,572.793336331966,484.232422566416,619.68777079743,780.31222920257,NaN,NaN,0,0,4,0,0,NaN,horizontal,vertical,horizontal,vertical,horizontal,none
1d,11,100217,2,60,124,19,F,NA,constant,homogeneous,3,absent,0.654186010360718,1,horizontal,horizontal,1,0.870585266443399,green,3,NaN,708.616172865948,361.936991243214,NaN,NaN,639.523300282292,798.172220171528,1051.86052685176,639.890788585259,708.616172865948,361.936991243214,NaN,NaN,NaN,NaN,NaN,NaN,0,0,4,NaN,NaN,NaN,vertical,vertical,horizontal,none,none,none
1d,11,100217,2,61,125,19,F,NA,constant,homogeneous,6,absent,0.975449085235596,1,vertical,vertical,1,0.611764576801887,green,2,NaN,1052.5183575291,635.489140744817,NaN,NaN,895.524681321058,836.431882914531,1052.5183575291,635.489140744817,956.993676208043,399.057257830286,704.475318678942,363.568117085469,547.481642470899,564.510859255183,643.006323791957,800.942742169714,0,4,0,0,0,0,vertical,vertical,horizontal,horizontal,vertical,vertical
1d,11,100217,2,62,126,19,F,NA,constant,homogeneous,4,present,0.668122053146362,1,horizontal,horizontal,1,1.02352476486793,green,2,3,1054.37883281626,582.212099195248,782.212099195248,345.621167183745,817.787900804752,854.378832816255,1054.37883281626,582.212099195248,782.212099195248,345.621167183745,545.621167183745,617.787900804752,NaN,NaN,NaN,NaN,0,4,0,0,NaN,NaN,horizontal,horizontal,vertical,vertical,none,none
1d,11,100217,2,63,127,19,F,NA,constant,homogeneous,4,absent,0.649156808853149,1,horizontal,horizontal,1,0.788233228830191,green,3,NaN,746.982518841471,350.57236181288,NaN,NaN,853.017481158529,849.42763818712,1049.42763818712,546.982518841471,746.982518841471,350.57236181288,550.57236181288,653.017481158529,NaN,NaN,NaN,NaN,0,0,4,0,NaN,NaN,horizontal,horizontal,horizontal,horizontal,none,none
1d,11,100217,2,64,128,19,F,NA,constant,homogeneous,3,present,0.614317893981934,1,horizontal,horizontal,1,0.799997805632078,green,1,2,579.163522034968,727.5,1020.83647796503,727.5,579.163522034968,727.5,1020.83647796503,727.5,800,345,NaN,NaN,NaN,NaN,NaN,NaN,4,0,0,NaN,NaN,NaN,horizontal,vertical,horizontal,none,none,none
1d,11,100217,3,1,129,19,F,NA,constant,homogeneous,5,present,0.784502029418945,1,vertical,vertical,1,0.964701880858495,green,1,3,704.475318678942,836.431882914531,1016.25226451989,464.870587620533,704.475318678942,836.431882914531,995.341332995339,763.910840470068,1016.25226451989,464.870587620533,738.309916622085,352.574589799621,545.621167183745,582.212099195248,NaN,NaN,4,0,0,0,0,NaN,vertical,vertical,horizontal,horizontal,horizontal,none
1d,11,100217,3,2,130,19,F,NA,constant,homogeneous,4,present,0.593485832214355,1,horizontal,horizontal,1,0.658822884009435,green,1,4,791.100628340862,854.844660889869,545.155339110131,591.100628340862,791.100628340862,854.844660889869,1054.84466088987,608.899371659138,808.899371659138,345.155339110131,545.155339110131,591.100628340862,NaN,NaN,NaN,NaN,4,0,0,0,NaN,NaN,horizontal,vertical,horizontal,vertical,none,none
1d,11,100217,3,3,131,19,F,NA,constant,homogeneous,3,present,0.558653116226196,1,horizontal,horizontal,1,1.05881849527359,green,1,2,911.784642431215,829.192481806288,942.594190385041,388.595418998464,911.784642431215,829.192481806288,942.594190385041,388.595418998464,545.621167183745,582.212099195248,NaN,NaN,NaN,NaN,NaN,NaN,4,0,0,NaN,NaN,NaN,horizontal,horizontal,vertical,none,none,none
1d,11,100217,3,4,132,19,F,NA,constant,homogeneous,5,present,0.578346014022827,1,horizontal,horizontal,1,0.623529153603774,green,5,1,547.481642470899,635.489140744817,755.719714694933,851.125977018113,755.719714694933,851.125977018113,1025.15163617903,719.715248510402,983.431649086356,422.862115532956,688.215357568785,370.807518193712,547.481642470899,635.489140744817,NaN,NaN,0,0,0,0,4,NaN,horizontal,vertical,horizontal,vertical,horizontal,none
1d,11,100217,3,5,133,19,F,NA,constant,homogeneous,3,present,0.534622192382812,1,vertical,vertical,1,1.02352476486793,green,2,3,960.476699717708,401.827779828472,548.13947314824,560.109211414741,891.383827134052,838.063008756786,960.476699717708,401.827779828472,548.13947314824,560.109211414741,NaN,NaN,NaN,NaN,NaN,NaN,0,4,0,NaN,NaN,NaN,horizontal,vertical,vertical,none,none,none
1d,11,100217,3,6,134,19,F,NA,constant,homogeneous,5,absent,0.568055152893066,1,vertical,vertical,1,0.929408150452834,green,2,NaN,949.885239334581,806.299333565612,NaN,NaN,650.114760665419,806.299333565612,949.885239334581,806.299333565612,1042.51941165526,521.200666434388,800,345,557.480588344736,521.200666434388,NaN,NaN,0,4,0,0,0,NaN,horizontal,vertical,vertical,vertical,vertical,none
1d,11,100217,3,7,135,19,F,NA,constant,homogeneous,5,absent,0.514867782592773,1,vertical,vertical,1,0.964701880858495,green,2,NaN,992.450942956807,767.295052392579,NaN,NaN,700.363562235235,834.728737630372,992.450942956807,767.295052392579,1018.57766167904,468.665290897936,742.637481142314,351.535633479765,545.970351986605,577.775285599347,NaN,NaN,0,4,0,0,0,NaN,vertical,vertical,vertical,vertical,horizontal,none
1d,11,100217,3,8,136,19,F,NA,constant,homogeneous,5,present,0.882453918457031,1,horizontal,horizontal,1,1.05881849527359,green,1,4,831.076682568313,853.099268668537,626.090418184063,413.504806087112,831.076682568313,853.099268668537,1050.31493177915,648.656293821019,923.626453162816,376.971974679454,626.090418184063,413.504806087112,568.891514305654,707.767656743878,NaN,NaN,4,0,0,0,0,NaN,horizontal,vertical,horizontal,vertical,horizontal,none
1d,11,100217,3,9,137,19,F,NA,constant,homogeneous,5,present,0.670230865478516,1,vertical,vertical,1,0.694116614415095,green,2,3,1053.09926866854,631.076682568313,907.767656743878,368.891514305654,848.656293821019,850.314931779154,1053.09926866854,631.076682568313,907.767656743878,368.891514305654,613.504806087112,426.090418184063,576.971974679454,723.626453162816,NaN,NaN,0,4,0,0,0,NaN,horizontal,vertical,vertical,vertical,horizontal,none
1d,11,100217,3,10,138,19,F,NA,constant,homogeneous,5,present,0.62599778175354,1,horizontal,horizontal,1,0.705881191216982,green,2,4,1049.42763818712,653.017481158529,629.371695378491,410.498069503264,826.654758133252,853.60308331891,1049.42763818712,653.017481158529,927.5,379.163522034968,629.371695378491,410.498069503264,567.045908301137,703.717843984329,NaN,NaN,0,4,0,0,0,NaN,horizontal,horizontal,horizontal,horizontal,vertical,none
1d,11,100217,3,11,139,19,F,NA,constant,homogeneous,6,absent,0.598656177520752,0,vertical,horizontal,1,0.799997805632078,green,1,NaN,725.445215295702,843.857712770574,NaN,NaN,725.445215295702,843.857712770574,973.909581815937,786.495193912888,1048.46436652023,542.637481142314,874.554784704298,356.142287229426,626.090418184063,413.504806087112,551.535633479765,657.362518857686,4,0,0,0,0,0,vertical,horizontal,vertical,vertical,horizontal,horizontal
1d,11,100217,3,12,140,19,F,NA,constant,homogeneous,4,present,0.679548978805542,1,horizontal,horizontal,1,0.635293730405661,green,4,2,579.163522034968,472.5,1020.83647796503,727.5,672.5,820.836477965032,1020.83647796503,727.5,927.5,379.163522034968,579.163522034968,472.5,NaN,NaN,NaN,NaN,0,0,0,4,NaN,NaN,horizontal,horizontal,horizontal,horizontal,none,none
1d,11,100217,3,13,141,19,F,NA,constant,homogeneous,4,absent,0.645642042160034,1,vertical,vertical,1,1.02352476486793,green,1,NaN,626.090418184063,786.495193912888,NaN,NaN,626.090418184063,786.495193912888,986.495193912888,773.909581815937,973.909581815937,413.504806087112,613.504806087112,426.090418184063,NaN,NaN,NaN,NaN,4,0,0,0,NaN,NaN,vertical,vertical,vertical,vertical,none,none
1d,11,100217,3,14,142,19,F,NA,constant,homogeneous,3,absent,0.561959028244019,1,vertical,vertical,1,0.75293949842453,green,1,NaN,907.767656743878,831.108485694346,NaN,NaN,907.767656743878,831.108485694346,946.261991269517,391.116228706307,545.970351986605,577.775285599347,NaN,NaN,NaN,NaN,NaN,NaN,4,0,0,NaN,NaN,NaN,vertical,horizontal,vertical,none,none,none
1d,11,100217,3,15,143,19,F,NA,constant,homogeneous,5,absent,0.628889083862305,1,vertical,vertical,1,0.776468652028304,green,2,NaN,1054.96116226488,604.450363641507,NaN,NaN,874.554784704298,843.857712770574,1054.96116226488,604.450363641507,883.019879386575,358.892763222174,596.34794493794,446.537169096228,591.116228706307,746.261991269517,NaN,NaN,0,4,0,0,0,NaN,horizontal,vertical,vertical,vertical,horizontal,none
1d,11,100217,3,16,144,19,F,NA,constant,homogeneous,4,present,0.675642013549805,1,horizontal,horizontal,1,0.694116614415095,green,1,4,800,855,545,600,800,855,1055,600,800,345,545,600,NaN,NaN,NaN,NaN,4,0,0,0,NaN,NaN,horizontal,horizontal,horizontal,horizontal,none,none
1d,11,100217,3,17,145,19,F,NA,constant,homogeneous,6,present,0.853466987609863,1,vertical,vertical,1,0.611764576801887,green,1,6,835.489140744817,852.518357529101,599.057257830286,756.993676208043,835.489140744817,852.518357529101,1036.43188291453,695.524681321058,1000.94274216971,443.006323791957,764.510859255183,347.4816424709,563.568117085469,504.475318678942,599.057257830286,756.993676208043,4,0,0,0,0,0,vertical,vertical,horizontal,horizontal,vertical,horizontal
1d,11,100217,3,18,146,19,F,NA,constant,homogeneous,6,absent,0.550926923751831,1,horizontal,horizontal,1,0.811762382433965,green,2,NaN,1051.12597701811,644.280285305067,NaN,NaN,887.215136548046,839.621618300407,1051.12597701811,644.280285305067,963.910840470068,404.658667004661,712.784863451954,360.378381699593,548.874022981887,555.719714694933,636.089159529932,795.341332995339,0,4,0,0,0,0,vertical,horizontal,horizontal,horizontal,vertical,horizontal
1d,11,100217,3,19,147,19,F,NA,constant,homogeneous,3,present,0.665459871292114,1,vertical,vertical,1,0.764704075226417,green,1,2,619.68777079743,780.31222920257,1046.31108570371,665.998856501143,619.68777079743,780.31222920257,1046.31108570371,665.998856501143,734.001143498857,353.688914296288,NaN,NaN,NaN,NaN,NaN,NaN,4,0,0,NaN,NaN,NaN,vertical,horizontal,vertical,none,none,none
1d,11,100217,3,20,148,19,F,NA,constant,homogeneous,5,present,0.9980628490448,1,vertical,vertical,1,0.964701880858495,green,4,1,725.445215295702,356.142287229426,716.980120613425,841.107236777826,716.980120613425,841.107236777826,1003.65205506206,753.462830903772,1008.88377129369,453.738008730483,725.445215295702,356.142287229426,545.03883773512,595.549636358493,NaN,NaN,0,0,0,4,0,NaN,horizontal,horizontal,vertical,vertical,horizontal,none
1d,11,100217,3,21,149,19,F,NA,constant,homogeneous,6,absent,0.737736940383911,1,horizontal,horizontal,1,0.788233228830191,green,2,NaN,1016.25226451989,735.129412379467,NaN,NaN,791.100628340862,854.844660889869,1016.25226451989,735.129412379467,1025.15163617903,480.284751489598,808.899371659138,345.155339110131,583.747735480111,464.870587620533,574.848363820974,719.715248510402,0,4,0,0,0,0,horizontal,horizontal,vertical,vertical,horizontal,vertical
1d,11,100217,3,22,150,19,F,NA,constant,homogeneous,4,absent,0.749217987060547,1,horizontal,horizontal,1,1.02352476486793,green,2,NaN,1016.25226451989,464.870587620533,NaN,NaN,935.129412379467,816.252264519889,1016.25226451989,464.870587620533,664.870587620533,383.747735480111,583.747735480111,735.129412379467,NaN,NaN,NaN,NaN,0,4,0,0,NaN,NaN,horizontal,horizontal,vertical,horizontal,none,none
1d,11,100217,3,23,151,19,F,NA,constant,homogeneous,4,absent,0.634921073913574,1,horizontal,horizontal,1,0.729410344820756,green,3,NaN,661.117046071168,386.139005173917,NaN,NaN,938.882953928832,813.860994826083,1013.86099482608,461.117046071168,661.117046071168,386.139005173917,586.139005173917,738.882953928832,NaN,NaN,NaN,NaN,0,0,4,0,NaN,NaN,vertical,vertical,horizontal,horizontal,none,none
1d,11,100217,3,24,152,19,F,NA,constant,homogeneous,4,absent,0.546994924545288,1,vertical,vertical,1,0.952937304056608,green,2,NaN,980.31222920257,780.31222920257,NaN,NaN,619.68777079743,780.31222920257,980.31222920257,780.31222920257,980.31222920257,419.68777079743,619.68777079743,419.68777079743,NaN,NaN,NaN,NaN,0,4,0,0,NaN,NaN,horizontal,vertical,horizontal,horizontal,none,none
1d,11,100217,3,25,153,19,F,NA,constant,homogeneous,6,present,0.740746021270752,1,horizontal,horizontal,1,0.741174921622643,green,3,6,963.910840470068,404.658667004661,636.089159529932,795.341332995339,887.215136548046,839.621618300407,1051.12597701811,644.280285305067,963.910840470068,404.658667004661,712.784863451954,360.378381699593,548.874022981887,555.719714694933,636.089159529932,795.341332995339,0,0,4,0,0,0,vertical,horizontal,horizontal,vertical,vertical,horizontal
1d,11,100217,3,26,154,19,F,NA,constant,homogeneous,3,present,0.665875911712646,1,horizontal,horizontal,1,0.705881191216982,green,3,2,547.481642470899,564.510859255183,956.993676208043,399.057257830286,895.524681321058,836.431882914531,956.993676208043,399.057257830286,547.481642470899,564.510859255183,NaN,NaN,NaN,NaN,NaN,NaN,0,0,4,NaN,NaN,NaN,vertical,horizontal,horizontal,none,none,none
1d,11,100217,3,27,155,19,F,NA,constant,homogeneous,3,absent,0.785459041595459,1,vertical,vertical,1,0.705881191216982,green,2,NaN,857.362518857686,351.535633479765,NaN,NaN,986.495193912888,773.909581815937,857.362518857686,351.535633479765,556.142287229426,674.554784704298,NaN,NaN,NaN,NaN,NaN,NaN,0,4,0,NaN,NaN,NaN,vertical,vertical,vertical,none,none,none
1d,11,100217,3,28,156,19,F,NA,constant,homogeneous,3,present,0.678086996078491,1,vertical,vertical,1,1.0470539184717,green,1,3,791.100628340862,854.844660889869,583.747735480111,464.870587620533,791.100628340862,854.844660889869,1025.15163617903,480.284751489598,583.747735480111,464.870587620533,NaN,NaN,NaN,NaN,NaN,NaN,4,0,0,NaN,NaN,NaN,vertical,vertical,horizontal,none,none,none
1d,11,100217,3,29,157,19,F,NA,constant,homogeneous,6,present,0.55157208442688,1,vertical,vertical,1,0.788233228830191,green,2,6,1055,600,672.5,820.836477965032,927.5,820.836477965032,1055,600,927.5,379.163522034968,672.5,379.163522034968,545,600,672.5,820.836477965032,0,4,0,0,0,0,vertical,vertical,vertical,vertical,horizontal,vertical
1d,11,100217,3,30,158,19,F,NA,constant,homogeneous,6,present,0.578493118286133,1,vertical,vertical,1,0.776468652028304,green,4,5,742.637481142314,351.535633479765,556.142287229426,525.445215295702,857.362518857686,848.464366520235,1043.85771277057,674.554784704298,986.495193912888,426.090418184063,742.637481142314,351.535633479765,556.142287229426,525.445215295702,613.504806087112,773.909581815937,0,0,0,4,0,0,vertical,horizontal,horizontal,vertical,horizontal,vertical
1d,11,100217,3,31,159,19,F,NA,constant,homogeneous,3,absent,0.647689819335938,1,horizontal,horizontal,1,0.670587460811322,green,2,NaN,995.341332995339,436.089159529932,NaN,NaN,844.280285305067,851.125977018113,995.341332995339,436.089159529932,560.378381699593,512.784863451954,NaN,NaN,NaN,NaN,NaN,NaN,0,4,0,NaN,NaN,NaN,horizontal,horizontal,vertical,none,none,none
1d,11,100217,3,32,160,19,F,NA,constant,homogeneous,3,absent,0.621821880340576,1,vertical,vertical,1,0.647058307207548,green,2,NaN,822.224714400653,345.970351986605,NaN,NaN,1008.88377129369,746.261991269517,822.224714400653,345.970351986605,568.891514305654,707.767656743878,NaN,NaN,NaN,NaN,NaN,NaN,0,4,0,NaN,NaN,NaN,vertical,vertical,vertical,none,none,none
1d,11,100217,3,33,161,19,F,NA,constant,homogeneous,5,absent,0.698065042495728,1,horizontal,horizontal,1,0.988231034462268,green,5,NaN,549.685068220846,551.343706178981,NaN,NaN,676.373546837184,823.028025320546,973.909581815937,786.495193912888,1031.10848569435,492.232343256122,768.923317431687,346.900731331463,549.685068220846,551.343706178981,NaN,NaN,0,0,0,0,4,NaN,vertical,vertical,horizontal,vertical,horizontal,none
1d,11,100217,3,34,162,19,F,NA,constant,homogeneous,3,absent,0.586153984069824,1,horizontal,horizontal,1,0.894114420047173,green,3,NaN,664.870587620533,383.747735480111,NaN,NaN,680.284751489598,825.151636179026,1054.84466088987,591.100628340862,664.870587620533,383.747735480111,NaN,NaN,NaN,NaN,NaN,NaN,0,0,4,NaN,NaN,NaN,vertical,horizontal,horizontal,none,none,none
1d,11,100217,3,35,163,19,F,NA,constant,homogeneous,5,absent,0.966125965118408,1,horizontal,horizontal,1,0.6,green,1,NaN,931.334709102064,818.577661679039,NaN,NaN,931.334709102064,818.577661679039,1048.46436652023,542.637481142314,822.224714400653,345.970351986605,565.271262369628,500.363562235235,632.704947607421,792.450942956807,NaN,NaN,4,0,0,0,0,NaN,horizontal,horizontal,horizontal,vertical,horizontal,none
1d,11,100217,3,36,164,19,F,NA,constant,homogeneous,6,absent,0.627227067947388,1,vertical,vertical,1,0.682352037613208,green,4,NaN,760.109211414741,348.13947314824,NaN,NaN,839.890788585259,851.86052685176,1038.06300875679,691.383827134052,998.172220171528,439.523300282291,760.109211414741,348.13947314824,561.936991243214,508.616172865948,601.827779828472,760.476699717708,0,0,0,4,0,0,vertical,horizontal,vertical,vertical,horizontal,horizontal
1d,11,100217,3,37,165,19,F,NA,constant,homogeneous,5,present,0.552870988845825,1,horizontal,horizontal,1,0.847056112839625,green,2,4,1032.95409169886,703.717843984329,672.5,379.163522034968,773.345241866748,853.60308331891,1032.95409169886,703.717843984329,970.628304621509,410.498069503264,672.5,379.163522034968,550.57236181288,653.017481158529,NaN,NaN,0,4,0,0,0,NaN,horizontal,horizontal,horizontal,vertical,horizontal,none
1d,11,100217,3,38,166,19,F,NA,constant,homogeneous,6,absent,0.727790832519531,1,vertical,vertical,1,0.788233228830191,green,1,NaN,911.784642431215,829.192481806288,NaN,NaN,911.784642431215,829.192481806288,1054.37883281626,617.787900804752,942.594190385041,388.595418998464,688.215357568785,370.807518193712,545.621167183745,582.212099195248,657.405809614959,811.404581001536,4,0,0,0,0,0,vertical,horizontal,horizontal,horizontal,vertical,horizontal
1d,11,100217,3,39,167,19,F,NA,constant,homogeneous,4,absent,0.858350992202759,1,horizontal,horizontal,1,0.788233228830191,green,1,NaN,919.715248510402,825.151636179026,NaN,NaN,919.715248510402,825.151636179026,1025.15163617903,480.284751489598,680.284751489598,374.848363820974,574.848363820974,719.715248510402,NaN,NaN,NaN,NaN,4,0,0,0,NaN,NaN,horizontal,vertical,vertical,horizontal,none,none
1d,11,100217,3,40,168,19,F,NA,constant,homogeneous,3,present,0.605010032653809,1,vertical,vertical,1,1.07058307207548,green,1,2,591.116228706307,746.261991269517,1031.10848569435,707.767656743878,591.116228706307,746.261991269517,1031.10848569435,707.767656743878,777.775285599347,345.970351986605,NaN,NaN,NaN,NaN,NaN,NaN,4,0,0,NaN,NaN,NaN,vertical,vertical,vertical,none,none,none
1d,11,100217,3,41,169,19,F,NA,constant,homogeneous,6,present,0.558429002761841,1,horizontal,horizontal,1,0.858820689641512,green,5,2,583.747735480111,464.870587620533,1016.25226451989,735.129412379467,791.100628340862,854.844660889869,1016.25226451989,735.129412379467,1025.15163617903,480.284751489598,808.899371659138,345.155339110131,583.747735480111,464.870587620533,574.848363820974,719.715248510402,0,0,0,0,4,0,vertical,vertical,vertical,horizontal,horizontal,horizontal
1d,11,100217,3,42,170,19,F,NA,constant,homogeneous,3,absent,0.632828950881958,1,vertical,vertical,1,0.952937304056608,green,1,NaN,942.594190385041,811.404581001536,NaN,NaN,942.594190385041,811.404581001536,911.784642431215,370.807518193712,545.621167183745,617.787900804752,NaN,NaN,NaN,NaN,NaN,NaN,4,0,0,NaN,NaN,NaN,vertical,vertical,horizontal,none,none,none
1d,11,100217,3,43,171,19,F,NA,constant,homogeneous,5,absent,0.585083961486816,1,horizontal,horizontal,1,0.764704075226417,green,1,NaN,938.882953928832,813.860994826083,NaN,NaN,938.882953928832,813.860994826083,1046.31108570371,534.001143498857,813.345668841951,345.349468637584,561.936991243214,508.616172865948,639.523300282292,798.172220171528,NaN,NaN,4,0,0,0,0,NaN,horizontal,vertical,horizontal,vertical,horizontal,none
1d,11,100217,3,44,172,19,F,NA,constant,homogeneous,5,absent,0.578038215637207,1,horizontal,horizontal,1,0.658822884009435,green,2,NaN,956.993676208043,800.942742169714,NaN,NaN,657.405809614959,811.404581001536,956.993676208043,800.942742169714,1039.62161830041,512.784863451954,791.100628340862,345.155339110131,554.878267535729,529.712474266665,NaN,NaN,0,4,0,0,0,NaN,horizontal,horizontal,vertical,vertical,horizontal,none
1d,11,100217,3,45,173,19,F,NA,constant,homogeneous,4,present,0.530526876449585,1,vertical,vertical,1,0.635293730405661,green,1,3,865.998856501143,846.311085703712,734.001143498857,353.688914296288,865.998856501143,846.311085703712,1046.31108570371,534.001143498857,734.001143498857,353.688914296288,553.688914296288,665.998856501143,NaN,NaN,NaN,NaN,4,0,0,0,NaN,NaN,vertical,horizontal,horizontal,horizontal,none,none
1d,11,100217,3,46,174,19,F,NA,constant,homogeneous,4,absent,0.670184850692749,1,vertical,vertical,1,0.847056112839625,green,3,NaN,708.616172865948,361.936991243214,NaN,NaN,891.383827134052,838.063008756786,1038.06300875679,508.616172865948,708.616172865948,361.936991243214,561.936991243214,691.383827134052,NaN,NaN,NaN,NaN,0,0,4,0,NaN,NaN,horizontal,vertical,vertical,horizontal,none,none
1d,11,100217,3,47,175,19,F,NA,constant,homogeneous,6,present,0.873575925827026,1,horizontal,horizontal,1,0.882349843245286,green,1,6,804.450363641507,854.96116226488,581.422338320961,731.334709102064,804.450363641507,854.96116226488,1023.02802532055,723.626453162816,1018.57766167904,468.665290897936,795.549636358493,345.03883773512,576.971974679454,476.373546837184,581.422338320961,731.334709102064,4,0,0,0,0,0,horizontal,vertical,horizontal,horizontal,horizontal,horizontal
1d,11,100217,3,48,176,19,F,NA,constant,homogeneous,3,present,0.562888145446777,1,horizontal,horizontal,1,0.988231034462268,green,1,2,960.476699717708,798.172220171528,891.383827134052,361.936991243214,960.476699717708,798.172220171528,891.383827134052,361.936991243214,548.13947314824,639.890788585259,NaN,NaN,NaN,NaN,NaN,NaN,4,0,0,NaN,NaN,NaN,horizontal,horizontal,vertical,none,none,none
1d,11,100217,3,49,177,19,F,NA,constant,homogeneous,3,present,0.573778867721558,1,horizontal,horizontal,1,0.776468652028304,green,1,3,657.405809614959,811.404581001536,688.215357568785,370.807518193712,657.405809614959,811.404581001536,1054.37883281626,617.787900804752,688.215357568785,370.807518193712,NaN,NaN,NaN,NaN,NaN,NaN,4,0,0,NaN,NaN,NaN,horizontal,horizontal,vertical,none,none,none
1d,11,100217,3,50,178,19,F,NA,constant,homogeneous,6,absent,0.570420980453491,1,horizontal,horizontal,1,0.658822884009435,green,1,NaN,870.287525733335,845.121732464271,NaN,NaN,870.287525733335,845.121732464271,1047.42541020038,661.690083377915,977.137884467044,416.568350913644,729.712474266665,354.878267535729,552.574589799621,538.309916622085,622.862115532956,783.431649086356,4,0,0,0,0,0,horizontal,horizontal,horizontal,horizontal,vertical,vertical
1d,11,100217,3,51,179,19,F,NA,constant,homogeneous,4,absent,0.584709882736206,1,horizontal,horizontal,1,0.929408150452834,green,1,NaN,668.665290897936,818.577661679039,NaN,NaN,668.665290897936,818.577661679039,1018.57766167904,731.334709102064,931.334709102064,381.422338320961,581.422338320961,468.665290897936,NaN,NaN,NaN,NaN,4,0,0,0,NaN,NaN,horizontal,horizontal,horizontal,vertical,none,none
1d,11,100217,3,52,180,19,F,NA,constant,homogeneous,6,absent,0.58591103553772,1,horizontal,horizontal,1,1.05881849527359,green,2,NaN,1038.06300875679,691.383827134052,NaN,NaN,839.890788585259,851.86052685176,1038.06300875679,691.383827134052,998.172220171528,439.523300282291,760.109211414741,348.13947314824,561.936991243214,508.616172865948,601.827779828472,760.476699717708,0,4,0,0,0,0,horizontal,horizontal,horizontal,horizontal,horizontal,horizontal
1d,11,100217,3,53,181,19,F,NA,constant,homogeneous,3,absent,0.569695949554443,1,horizontal,horizontal,1,0.611764576801887,green,1,NaN,588.595418998464,742.594190385041,NaN,NaN,588.595418998464,742.594190385041,1029.19248180629,711.784642431215,782.212099195248,345.621167183745,NaN,NaN,NaN,NaN,NaN,NaN,4,0,0,NaN,NaN,NaN,horizontal,vertical,horizontal,none,none,none
1d,11,100217,3,54,182,19,F,NA,constant,homogeneous,6,absent,0.54914402961731,1,vertical,vertical,1,0.988231034462268,green,3,NaN,1043.85771277057,525.445215295702,NaN,NaN,742.637481142314,848.464366520235,986.495193912888,773.909581815937,1043.85771277057,525.445215295702,857.362518857686,351.535633479765,613.504806087112,426.090418184063,556.142287229426,674.554784704298,0,0,4,0,0,0,horizontal,horizontal,vertical,vertical,horizontal,vertical
1d,11,100217,3,55,183,19,F,NA,constant,homogeneous,4,present,0.430415868759155,1,vertical,vertical,1,0.917643573650947,green,2,1,1045.12173246427,529.712474266665,870.287525733335,845.121732464271,870.287525733335,845.121732464271,1045.12173246427,529.712474266665,729.712474266665,354.878267535729,554.878267535729,670.287525733335,NaN,NaN,NaN,NaN,0,4,0,0,NaN,NaN,vertical,vertical,vertical,vertical,none,none
1d,11,100217,3,56,184,19,F,NA,constant,homogeneous,5,absent,0.499160051345825,1,vertical,vertical,1,0.6,green,3,NaN,1036.43188291453,504.475318678942,NaN,NaN,664.870587620533,816.252264519889,963.910840470068,795.341332995339,1036.43188291453,504.475318678942,782.212099195248,345.621167183745,552.574589799621,538.309916622085,NaN,NaN,0,0,4,0,0,NaN,horizontal,vertical,vertical,vertical,horizontal,none
1d,11,100217,3,57,185,19,F,NA,constant,homogeneous,5,present,0.997888088226318,1,vertical,vertical,1,1.03528934166982,green,3,5,822.224714400653,345.970351986605,632.704947607421,792.450942956807,931.334709102064,818.577661679039,1048.46436652023,542.637481142314,822.224714400653,345.970351986605,565.271262369628,500.363562235235,632.704947607421,792.450942956807,NaN,NaN,0,0,4,0,0,NaN,vertical,horizontal,vertical,horizontal,horizontal,none
1d,11,100217,3,58,186,19,F,NA,constant,homogeneous,4,absent,0.596192121505737,1,vertical,vertical,1,0.90587899684906,green,2,NaN,998.172220171528,760.476699717708,NaN,NaN,639.523300282292,798.172220171528,998.172220171528,760.476699717708,960.476699717708,401.827779828472,601.827779828472,439.523300282291,NaN,NaN,NaN,NaN,0,4,0,0,NaN,NaN,horizontal,vertical,vertical,horizontal,none,none
1d,11,100217,3,59,187,19,F,NA,constant,homogeneous,4,present,0.652232885360718,1,vertical,vertical,1,0.799997805632078,green,4,1,567.045908301137,703.717843984329,903.717843984329,832.954091698863,903.717843984329,832.954091698863,1032.95409169886,496.282156015671,696.282156015671,367.045908301137,567.045908301137,703.717843984329,NaN,NaN,NaN,NaN,0,0,0,4,NaN,NaN,horizontal,horizontal,vertical,vertical,none,none
1d,11,100217,3,60,188,19,F,NA,constant,homogeneous,3,absent,0.726665019989014,1,horizontal,horizontal,1,1.05881849527359,green,3,NaN,546.39691668109,626.654758133252,NaN,NaN,949.885239334581,806.299333565612,903.717843984329,367.045908301137,546.39691668109,626.654758133252,NaN,NaN,NaN,NaN,NaN,NaN,0,0,4,NaN,NaN,NaN,horizontal,vertical,horizontal,none,none,none
1d,11,100217,3,61,189,19,F,NA,constant,homogeneous,6,present,0.591840028762817,0,vertical,horizontal,1,0.717645768018869,green,6,5,650.114760665419,806.299333565612,546.39691668109,573.345241866748,903.717843984329,832.954091698863,1053.60308331891,626.654758133252,949.885239334581,393.700666434388,696.282156015671,367.045908301137,546.39691668109,573.345241866748,650.114760665419,806.299333565612,0,0,0,0,0,4,vertical,horizontal,vertical,vertical,horizontal,vertical
1d,11,100217,3,62,190,19,F,NA,constant,homogeneous,4,present,1.02828288078308,1,vertical,vertical,1,1.03528934166982,green,2,3,1036.43188291453,695.524681321058,895.524681321058,363.568117085469,704.475318678942,836.431882914531,1036.43188291453,695.524681321058,895.524681321058,363.568117085469,563.568117085469,504.475318678942,NaN,NaN,NaN,NaN,0,4,0,0,NaN,NaN,vertical,vertical,vertical,vertical,none,none
1d,11,100217,3,63,191,19,F,NA,constant,homogeneous,4,present,0.569493055343628,1,horizontal,horizontal,1,0.823526959235852,green,2,1,1047.42541020038,661.690083377915,738.309916622085,847.425410200379,738.309916622085,847.425410200379,1047.42541020038,661.690083377915,861.690083377915,352.574589799621,552.574589799621,538.309916622085,NaN,NaN,NaN,NaN,0,4,0,0,NaN,NaN,horizontal,horizontal,vertical,vertical,none,none
1d,11,100217,3,64,192,19,F,NA,constant,homogeneous,6,present,1.00148797035217,1,horizontal,horizontal,1,0.823526959235852,green,1,4,708.616172865948,838.063008756786,891.383827134052,361.936991243214,708.616172865948,838.063008756786,960.476699717708,798.172220171528,1051.86052685176,560.109211414741,891.383827134052,361.936991243214,639.523300282292,401.827779828472,548.13947314824,639.890788585259,4,0,0,0,0,0,horizontal,horizontal,horizontal,vertical,vertical,horizontal
1d,11,100217,4,1,193,19,F,NA,constant,homogeneous,4,present,0.730660915374756,1,horizontal,horizontal,1,0.870585266443399,green,1,2,844.280285305067,851.125977018113,1051.12597701811,555.719714694933,844.280285305067,851.125977018113,1051.12597701811,555.719714694933,755.719714694933,348.874022981887,548.874022981887,644.280285305067,NaN,NaN,NaN,NaN,4,0,0,0,NaN,NaN,horizontal,horizontal,horizontal,horizontal,none,none
1d,11,100217,4,2,194,19,F,NA,constant,homogeneous,5,absent,0.789375066757202,1,vertical,vertical,1,0.999995611264155,green,2,NaN,1054.37883281626,582.212099195248,NaN,NaN,895.524681321058,836.431882914531,1054.37883281626,582.212099195248,861.690083377915,352.574589799621,583.747735480111,464.870587620533,604.658667004661,763.910840470068,NaN,NaN,0,4,0,0,0,NaN,horizontal,vertical,horizontal,vertical,horizontal,none
1d,11,100217,4,3,195,19,F,NA,constant,homogeneous,4,present,0.548827886581421,1,vertical,vertical,1,0.776468652028304,green,3,2,668.665290897936,381.422338320961,1018.57766167904,468.665290897936,931.334709102064,818.577661679039,1018.57766167904,468.665290897936,668.665290897936,381.422338320961,581.422338320961,731.334709102064,NaN,NaN,NaN,NaN,0,0,4,0,NaN,NaN,vertical,vertical,vertical,horizontal,none,none
1d,11,100217,4,4,196,19,F,NA,constant,homogeneous,6,absent,0.553775072097778,1,vertical,vertical,1,1.08234764887736,green,1,NaN,716.980120613425,841.107236777826,NaN,NaN,716.980120613425,841.107236777826,967.295052392579,792.450942956807,1050.31493177915,551.343706178981,883.019879386575,358.892763222174,632.704947607421,407.549057043193,549.685068220846,648.656293821019,4,0,0,0,0,0,vertical,horizontal,vertical,horizontal,horizontal,horizontal
1d,11,100217,4,5,197,19,F,NA,constant,homogeneous,6,present,0.579725027084351,1,horizontal,horizontal,1,0.929408150452834,green,4,2,903.717843984329,367.045908301137,949.885239334581,806.299333565612,696.282156015671,832.954091698863,949.885239334581,806.299333565612,1053.60308331891,573.345241866748,903.717843984329,367.045908301137,650.114760665419,393.700666434388,546.39691668109,626.654758133252,0,0,0,4,0,0,vertical,vertical,horizontal,horizontal,vertical,vertical
1d,11,100217,4,6,198,19,F,NA,constant,homogeneous,3,absent,0.610121011734009,1,horizontal,horizontal,1,0.741174921622643,green,2,NaN,1054.96116226488,595.549636358493,NaN,NaN,676.373546837184,823.028025320546,1054.96116226488,595.549636358493,668.665290897936,381.422338320961,NaN,NaN,NaN,NaN,NaN,NaN,0,4,0,NaN,NaN,NaN,vertical,horizontal,horizontal,none,none,none
1d,11,100217,4,7,199,19,F,NA,constant,homogeneous,3,present,0.481743812561035,1,horizontal,horizontal,1,0.764704075226417,green,2,1,1042.51941165526,521.200666434388,746.982518841471,849.42763818712,746.982518841471,849.42763818712,1042.51941165526,521.200666434388,610.498069503264,429.371695378491,NaN,NaN,NaN,NaN,NaN,NaN,0,4,0,NaN,NaN,NaN,vertical,horizontal,horizontal,none,none,none
1d,11,100217,4,8,200,19,F,NA,constant,homogeneous,6,absent,0.517343997955322,1,vertical,vertical,1,0.870585266443399,green,3,NaN,956.993676208043,399.057257830286,NaN,NaN,895.524681321058,836.431882914531,1052.5183575291,635.489140744817,956.993676208043,399.057257830286,704.475318678942,363.568117085469,547.481642470899,564.510859255183,643.006323791957,800.942742169714,0,0,4,0,0,0,horizontal,horizontal,vertical,horizontal,horizontal,horizontal
1d,11,100217,4,9,201,19,F,NA,constant,homogeneous,5,present,0.594029903411865,1,horizontal,horizontal,1,0.705881191216982,green,3,5,998.172220171528,439.523300282291,545.349468637584,613.345668841951,734.001143498857,846.311085703712,1013.86099482608,738.882953928832,998.172220171528,439.523300282291,708.616172865948,361.936991243214,545.349468637584,613.345668841951,NaN,NaN,0,0,4,0,0,NaN,horizontal,vertical,horizontal,horizontal,horizontal,none
1d,11,100217,4,10,202,19,F,NA,constant,homogeneous,5,absent,0.611514091491699,1,horizontal,horizontal,1,1.07058307207548,green,2,NaN,1050.31493177915,648.656293821019,NaN,NaN,831.076682568313,853.099268668537,1050.31493177915,648.656293821019,923.626453162816,376.971974679454,626.090418184063,413.504806087112,568.891514305654,707.767656743878,NaN,NaN,0,4,0,0,0,NaN,vertical,horizontal,horizontal,vertical,vertical,none
1d,11,100217,4,11,203,19,F,NA,constant,homogeneous,3,present,0.545125961303711,1,horizontal,horizontal,1,1.05881849527359,green,2,3,808.899371659138,345.155339110131,574.848363820974,719.715248510402,1016.25226451989,735.129412379467,808.899371659138,345.155339110131,574.848363820974,719.715248510402,NaN,NaN,NaN,NaN,NaN,NaN,0,4,0,NaN,NaN,NaN,horizontal,horizontal,vertical,none,none,none
1d,11,100217,4,12,204,19,F,NA,constant,homogeneous,3,present,0.547138214111328,0,vertical,horizontal,1,0.741174921622643,green,1,2,755.719714694933,851.125977018113,1039.62161830041,512.784863451954,755.719714694933,851.125977018113,1039.62161830041,512.784863451954,604.658667004661,436.089159529932,NaN,NaN,NaN,NaN,NaN,NaN,4,0,0,NaN,NaN,NaN,vertical,horizontal,horizontal,none,none,none
1d,11,100217,4,13,205,19,F,NA,constant,homogeneous,4,present,0.658999919891357,1,vertical,vertical,1,0.647058307207548,green,3,2,887.215136548046,360.378381699593,1039.62161830041,687.215136548046,712.784863451954,839.621618300407,1039.62161830041,687.215136548046,887.215136548046,360.378381699593,560.378381699593,512.784863451954,NaN,NaN,NaN,NaN,0,0,4,0,NaN,NaN,horizontal,vertical,vertical,horizontal,none,none
1d,11,100217,4,14,206,19,F,NA,constant,homogeneous,4,absent,0.640136003494263,1,vertical,vertical,1,0.788233228830191,green,1,NaN,725.445215295702,843.857712770574,NaN,NaN,725.445215295702,843.857712770574,1043.85771277057,674.554784704298,874.554784704298,356.142287229426,556.142287229426,525.445215295702,NaN,NaN,NaN,NaN,4,0,0,0,NaN,NaN,vertical,vertical,vertical,vertical,none,none
1d,11,100217,4,15,207,19,F,NA,constant,homogeneous,3,absent,0.580322027206421,1,vertical,vertical,1,0.764704075226417,green,1,NaN,716.980120613425,841.107236777826,NaN,NaN,716.980120613425,841.107236777826,1050.31493177915,551.343706178981,632.704947607421,407.549057043193,NaN,NaN,NaN,NaN,NaN,NaN,4,0,0,NaN,NaN,NaN,vertical,horizontal,horizontal,none,none,none
1d,11,100217,4,16,208,19,F,NA,constant,homogeneous,5,absent,0.704720973968506,1,vertical,vertical,1,0.623529153603774,green,2,NaN,967.295052392579,792.450942956807,NaN,NaN,668.665290897936,818.577661679039,967.295052392579,792.450942956807,1034.72873763037,500.363562235235,777.775285599347,345.970351986605,551.535633479765,542.637481142314,NaN,NaN,0,4,0,0,0,NaN,vertical,vertical,horizontal,vertical,vertical,none
1d,11,100217,4,17,209,19,F,NA,constant,homogeneous,5,present,0.600312948226929,1,horizontal,horizontal,1,0.658822884009435,green,2,3,1049.42763818712,546.982518841471,826.654758133252,346.39691668109,927.5,820.836477965032,1049.42763818712,546.982518841471,826.654758133252,346.39691668109,567.045908301137,496.282156015671,629.371695378491,789.501930496736,NaN,NaN,0,4,0,0,0,NaN,horizontal,horizontal,horizontal,vertical,vertical,none
1d,11,100217,4,18,210,19,F,NA,constant,homogeneous,4,absent,0.544729232788086,1,vertical,vertical,1,0.811762382433965,green,2,NaN,1054.0296480134,622.224714400653,NaN,NaN,777.775285599347,854.029648013395,1054.0296480134,622.224714400653,822.224714400653,345.970351986605,545.970351986605,577.775285599347,NaN,NaN,NaN,NaN,0,4,0,0,NaN,NaN,vertical,vertical,vertical,vertical,none,none
1d,11,100217,4,19,211,19,F,NA,constant,homogeneous,5,present,0.660449028015137,1,horizontal,horizontal,1,1.03528934166982,green,4,3,557.480588344736,521.200666434388,800,345,949.885239334581,806.299333565612,1042.51941165526,521.200666434388,800,345,557.480588344736,521.200666434388,650.114760665419,806.299333565612,NaN,NaN,0,0,0,4,0,NaN,horizontal,horizontal,horizontal,horizontal,horizontal,none
1d,11,100217,4,20,212,19,F,NA,constant,homogeneous,4,present,0.585837125778198,1,vertical,vertical,1,0.788233228830191,green,1,3,734.001143498857,846.311085703712,865.998856501143,353.688914296288,734.001143498857,846.311085703712,1046.31108570371,665.998856501143,865.998856501143,353.688914296288,553.688914296288,534.001143498857,NaN,NaN,NaN,NaN,4,0,0,0,NaN,NaN,vertical,vertical,vertical,horizontal,none,none
1d,11,100217,4,21,213,19,F,NA,constant,homogeneous,5,absent,0.726104974746704,1,horizontal,horizontal,1,0.623529153603774,green,2,NaN,1031.10848569435,707.767656743878,NaN,NaN,768.923317431687,853.099268668537,1031.10848569435,707.767656743878,973.909581815937,413.504806087112,676.373546837184,376.971974679454,549.685068220846,648.656293821019,NaN,NaN,0,4,0,0,0,NaN,vertical,horizontal,horizontal,vertical,horizontal,none
1d,11,100217,4,22,214,19,F,NA,constant,homogeneous,4,present,0.603236198425293,1,vertical,vertical,1,0.929408150452834,green,1,2,883.019879386575,841.107236777826,1041.10723677783,516.980120613425,883.019879386575,841.107236777826,1041.10723677783,516.980120613425,716.980120613425,358.892763222174,558.892763222174,683.019879386575,NaN,NaN,NaN,NaN,4,0,0,0,NaN,NaN,vertical,vertical,horizontal,vertical,none,none
1d,11,100217,4,23,215,19,F,NA,constant,homogeneous,6,present,0.625706195831299,1,horizontal,horizontal,1,0.917643573650947,green,5,1,622.862115532956,416.568350913644,729.712474266665,845.121732464271,729.712474266665,845.121732464271,977.137884467044,783.431649086356,1047.42541020038,538.309916622085,870.287525733335,354.878267535729,622.862115532956,416.568350913644,552.574589799621,661.690083377915,0,0,0,0,4,0,horizontal,vertical,vertical,horizontal,horizontal,vertical
1d,11,100217,4,24,216,19,F,NA,constant,homogeneous,5,absent,0.730225086212158,1,horizontal,horizontal,1,0.988231034462268,green,4,NaN,668.665290897936,381.422338320961,NaN,NaN,777.775285599347,854.029648013395,1034.72873763037,699.636437764765,967.295052392579,407.549057043193,668.665290897936,381.422338320961,551.535633479765,657.362518857686,NaN,NaN,0,0,0,4,0,NaN,vertical,horizontal,vertical,horizontal,vertical,none
1d,11,100217,4,25,217,19,F,NA,constant,homogeneous,3,absent,0.711446046829224,1,vertical,vertical,1,0.717645768018869,green,3,NaN,570.807518193712,488.215357568785,NaN,NaN,817.787900804752,854.378832816255,1011.40458100154,457.40580961496,570.807518193712,488.215357568785,NaN,NaN,NaN,NaN,NaN,NaN,0,0,4,NaN,NaN,NaN,vertical,horizontal,vertical,none,none,none
1d,11,100217,4,26,218,19,F,NA,constant,homogeneous,4,absent,0.820604801177979,1,vertical,vertical,1,0.941172727254721,green,1,NaN,704.475318678942,836.431882914531,NaN,NaN,704.475318678942,836.431882914531,1036.43188291453,695.524681321058,895.524681321058,363.568117085469,563.568117085469,504.475318678942,NaN,NaN,NaN,NaN,4,0,0,0,NaN,NaN,vertical,horizontal,vertical,vertical,none,none
1d,11,100217,4,27,219,19,F,NA,constant,homogeneous,5,absent,0.857290029525757,1,vertical,vertical,1,0.811762382433965,green,5,NaN,636.089159529932,795.341332995339,NaN,NaN,935.129412379467,816.252264519889,1047.42541020038,538.309916622085,817.787900804752,345.621167183745,563.568117085469,504.475318678942,636.089159529932,795.341332995339,NaN,NaN,0,0,0,0,4,NaN,vertical,horizontal,vertical,horizontal,vertical,none
1d,11,100217,4,28,220,19,F,NA,constant,homogeneous,4,absent,0.634788990020752,1,vertical,vertical,1,0.811762382433965,green,4,NaN,568.891514305654,707.767656743878,NaN,NaN,907.767656743878,831.108485694346,1031.10848569435,492.232343256122,692.232343256122,368.891514305654,568.891514305654,707.767656743878,NaN,NaN,NaN,NaN,0,0,0,4,NaN,NaN,vertical,vertical,horizontal,vertical,none,none
1d,11,100217,4,29,221,19,F,NA,constant,homogeneous,3,absent,0.647091150283813,1,horizontal,horizontal,1,0.964701880858495,green,1,NaN,676.373546837184,823.028025320546,NaN,NaN,676.373546837184,823.028025320546,1054.96116226488,595.549636358493,668.665290897936,381.422338320961,NaN,NaN,NaN,NaN,NaN,NaN,4,0,0,NaN,NaN,NaN,horizontal,vertical,vertical,none,none,none
1d,11,100217,4,30,222,19,F,NA,constant,homogeneous,6,absent,0.621281147003174,1,vertical,vertical,1,0.647058307207548,green,6,NaN,565.271262369628,699.636437764765,NaN,NaN,768.923317431687,853.099268668537,1003.65205506206,753.462830903772,1034.72873763037,500.363562235235,831.076682568313,346.900731331463,596.34794493794,446.537169096228,565.271262369628,699.636437764765,0,0,0,0,0,4,vertical,horizontal,vertical,vertical,vertical,vertical
1d,11,100217,4,31,223,19,F,NA,constant,homogeneous,3,absent,0.650791883468628,1,vertical,vertical,1,1.05881849527359,green,3,NaN,579.163522034968,472.5,NaN,NaN,800,855,1020.83647796503,472.5,579.163522034968,472.5,NaN,NaN,NaN,NaN,NaN,NaN,0,0,4,NaN,NaN,NaN,horizontal,horizontal,vertical,none,none,none
1d,11,100217,4,32,224,19,F,NA,constant,homogeneous,4,present,0.586832046508789,1,horizontal,horizontal,1,0.941172727254721,green,4,3,610.498069503264,770.628304621509,629.371695378491,410.498069503264,970.628304621509,789.501930496736,989.501930496736,429.371695378491,629.371695378491,410.498069503264,610.498069503264,770.628304621509,NaN,NaN,NaN,NaN,0,0,0,4,NaN,NaN,horizontal,vertical,vertical,horizontal,none,none
1d,11,100217,4,33,225,19,F,NA,constant,homogeneous,4,absent,0.922928094863892,1,horizontal,horizontal,1,0.999995611264155,green,2,NaN,1020.83647796503,727.5,NaN,NaN,672.5,820.836477965032,1020.83647796503,727.5,927.5,379.163522034968,579.163522034968,472.5,NaN,NaN,NaN,NaN,0,4,0,0,NaN,NaN,horizontal,horizontal,horizontal,vertical,none,none
1d,11,100217,4,34,226,19,F,NA,constant,homogeneous,3,present,0.669091939926147,1,horizontal,horizontal,1,0.764704075226417,green,2,1,800,345,1020.83647796503,727.5,1020.83647796503,727.5,800,345,579.163522034968,727.5,NaN,NaN,NaN,NaN,NaN,NaN,0,4,0,NaN,NaN,NaN,vertical,horizontal,horizontal,none,none,none
1d,11,100217,4,35,227,19,F,NA,constant,homogeneous,6,absent,0.755896806716919,1,vertical,vertical,1,0.670587460811322,green,4,NaN,712.784863451954,360.378381699593,NaN,NaN,887.215136548046,839.621618300407,1051.12597701811,644.280285305067,963.910840470068,404.658667004661,712.784863451954,360.378381699593,548.874022981887,555.719714694933,636.089159529932,795.341332995339,0,0,0,4,0,0,vertical,horizontal,vertical,vertical,horizontal,vertical
1d,11,100217,4,36,228,19,F,NA,constant,homogeneous,6,absent,0.651118040084839,1,horizontal,horizontal,1,1.01176018806604,green,6,NaN,581.422338320961,731.334709102064,NaN,NaN,804.450363641507,854.96116226488,1023.02802532055,723.626453162816,1018.57766167904,468.665290897936,795.549636358493,345.03883773512,576.971974679454,476.373546837184,581.422338320961,731.334709102064,0,0,0,0,0,4,horizontal,vertical,vertical,horizontal,horizontal,horizontal
1d,11,100217,4,37,229,19,F,NA,constant,homogeneous,6,present,0.499507188796997,1,horizontal,horizontal,1,0.741174921622643,green,6,5,593.700666434388,749.885239334581,567.045908301137,496.282156015671,826.654758133252,853.60308331891,1032.95409169886,703.717843984329,1006.29933356561,450.114760665419,773.345241866748,346.39691668109,567.045908301137,496.282156015671,593.700666434388,749.885239334581,0,0,0,0,0,4,vertical,vertical,horizontal,vertical,vertical,horizontal
1d,11,100217,4,38,230,19,F,NA,constant,homogeneous,5,present,0.692502975463867,1,vertical,vertical,1,0.741174921622643,green,5,2,552.574589799621,661.690083377915,1036.43188291453,695.524681321058,782.212099195248,854.378832816255,1036.43188291453,695.524681321058,963.910840470068,404.658667004661,664.870587620533,383.747735480111,552.574589799621,661.690083377915,NaN,NaN,0,0,0,0,4,NaN,vertical,vertical,horizontal,horizontal,vertical,none
1d,11,100217,4,39,231,19,F,NA,constant,homogeneous,3,present,0.758864879608154,1,horizontal,horizontal,1,0.823526959235852,green,3,1,746.982518841471,350.57236181288,610.498069503264,770.628304621509,610.498069503264,770.628304621509,1042.51941165526,678.799333565612,746.982518841471,350.57236181288,NaN,NaN,NaN,NaN,NaN,NaN,0,0,4,NaN,NaN,NaN,horizontal,vertical,horizontal,none,none,none
1d,11,100217,4,40,232,19,F,NA,constant,homogeneous,6,present,0.58620810508728,1,vertical,vertical,1,0.999995611264155,green,6,3,560.378381699593,687.215136548046,1039.62161830041,512.784863451954,755.719714694933,851.125977018113,995.341332995339,763.910840470068,1039.62161830041,512.784863451954,844.280285305067,348.874022981887,604.658667004661,436.089159529932,560.378381699593,687.215136548046,0,0,0,0,0,4,horizontal,horizontal,horizontal,vertical,vertical,vertical
1d,11,100217,4,41,233,19,F,NA,constant,homogeneous,3,absent,0.46918797492981,0,vertical,horizontal,1,0.952937304056608,green,3,NaN,672.5,379.163522034968,NaN,NaN,672.5,820.836477965032,1055,600,672.5,379.163522034968,NaN,NaN,NaN,NaN,NaN,NaN,0,0,4,NaN,NaN,NaN,vertical,horizontal,vertical,none,none,none
1d,11,100217,4,42,234,19,F,NA,constant,homogeneous,4,present,0.661980152130127,1,horizontal,horizontal,1,0.964701880858495,green,3,4,887.215136548046,360.378381699593,560.378381699593,512.784863451954,712.784863451954,839.621618300407,1039.62161830041,687.215136548046,887.215136548046,360.378381699593,560.378381699593,512.784863451954,NaN,NaN,NaN,NaN,0,0,4,0,NaN,NaN,vertical,horizontal,horizontal,horizontal,none,none
1d,11,100217,4,43,235,19,F,NA,constant,homogeneous,5,absent,0.697691917419434,1,horizontal,horizontal,1,0.917643573650947,green,3,NaN,800,345,NaN,NaN,949.885239334581,806.299333565612,1042.51941165526,521.200666434388,800,345,557.480588344736,521.200666434388,650.114760665419,806.299333565612,NaN,NaN,0,0,4,0,0,NaN,horizontal,horizontal,horizontal,vertical,vertical,none
1d,11,100217,4,44,236,19,F,NA,constant,homogeneous,5,present,0.564183950424194,1,vertical,vertical,1,0.811762382433965,green,5,1,545.03883773512,595.549636358493,716.980120613425,841.107236777826,716.980120613425,841.107236777826,1003.65205506206,753.462830903772,1008.88377129369,453.738008730483,725.445215295702,356.142287229426,545.03883773512,595.549636358493,NaN,NaN,0,0,0,0,4,NaN,vertical,horizontal,horizontal,vertical,vertical,none
1d,11,100217,4,45,237,19,F,NA,constant,homogeneous,6,absent,1.09360814094543,1,horizontal,horizontal,1,0.894114420047173,green,1,NaN,725.445215295702,843.857712770574,NaN,NaN,725.445215295702,843.857712770574,973.909581815937,786.495193912888,1048.46436652023,542.637481142314,874.554784704298,356.142287229426,626.090418184063,413.504806087112,551.535633479765,657.362518857686,4,0,0,0,0,0,horizontal,vertical,horizontal,horizontal,vertical,vertical
1d,11,100217,4,46,238,19,F,NA,constant,homogeneous,5,present,0.656445980072021,1,vertical,vertical,1,1.03528934166982,green,5,1,552.574589799621,661.690083377915,782.212099195248,854.378832816255,782.212099195248,854.378832816255,1036.43188291453,695.524681321058,963.910840470068,404.658667004661,664.870587620533,383.747735480111,552.574589799621,661.690083377915,NaN,NaN,0,0,0,0,4,NaN,vertical,vertical,horizontal,vertical,vertical,none
1d,11,100217,4,47,239,19,F,NA,constant,homogeneous,4,absent,0.672018051147461,1,horizontal,horizontal,1,0.917643573650947,green,3,NaN,760.109211414741,348.13947314824,NaN,NaN,839.890788585259,851.86052685176,1051.86052685176,560.109211414741,760.109211414741,348.13947314824,548.13947314824,639.890788585259,NaN,NaN,NaN,NaN,0,0,4,0,NaN,NaN,vertical,vertical,horizontal,horizontal,none,none
1d,11,100217,4,48,240,19,F,NA,constant,homogeneous,6,absent,0.673627138137817,1,horizontal,horizontal,1,1.01176018806604,green,2,NaN,938.882953928832,813.860994826083,NaN,NaN,684.232422566416,827.206663668034,938.882953928832,813.860994826083,1054.65053136242,586.654331158049,915.767577433584,372.793336331966,661.117046071168,386.139005173917,545.349468637584,613.345668841951,0,4,0,0,0,0,vertical,horizontal,vertical,horizontal,vertical,horizontal
1d,11,100217,4,49,241,19,F,NA,constant,homogeneous,5,absent,1.24943017959595,1,vertical,vertical,1,0.894114420047173,green,2,NaN,1047.42541020038,538.309916622085,NaN,NaN,935.129412379467,816.252264519889,1047.42541020038,538.309916622085,817.787900804752,345.621167183745,563.568117085469,504.475318678942,636.089159529932,795.341332995339,NaN,NaN,0,4,0,0,0,NaN,horizontal,vertical,horizontal,horizontal,vertical,none
1d,11,100217,4,50,242,19,F,NA,constant,homogeneous,3,absent,0.778470993041992,1,horizontal,horizontal,1,0.988231034462268,green,1,NaN,878.799333565612,842.519411655264,NaN,NaN,878.799333565612,842.519411655264,970.628304621509,410.498069503264,550.57236181288,546.982518841471,NaN,NaN,NaN,NaN,NaN,NaN,4,0,0,NaN,NaN,NaN,horizontal,vertical,horizontal,none,none,none
