experiment,subject,uniqueID,block,trial,trial_cumulative,age,gender,color_cond_blocking,color_history,shape_type,set_size,distractor,rt,acc,target_orient,response_key,response_made,iti,target_color,target_item,distractor_item,target_X,target_Y,distractor_X,distractor_Y,item1_X,item1_Y,item2_X,item2_Y,item3_X,item3_Y,item4_X,item4_Y,item5_X,item5_Y,item6_X,item6_Y,item1_shape,item2_shape,item3_shape,item4_shape,item5_shape,item6_shape,item1_line,item2_line,item3_line,item4_line,item5_line,item6_line
1d,12,100234,1,1,1,19,M,NA,constant,homogeneous,3,absent,0.619748115539551,1,horizontal,horizontal,1,1.05881911118825,red,3,NaN,601.827779828472,439.523300282291,NaN,NaN,760.109211414741,851.86052685176,1038.06300875679,508.616172865948,601.827779828472,439.523300282291,NaN,NaN,NaN,NaN,NaN,NaN,0,0,4,NaN,NaN,NaN,vertical,horizontal,horizontal,none,none,none
1d,12,100234,1,2,2,19,M,NA,constant,homogeneous,3,absent,0.576657056808472,1,vertical,vertical,1,0.635293777783712,red,2,NaN,1000.94274216971,443.006323791957,NaN,NaN,835.489140744817,852.518357529101,1000.94274216971,443.006323791957,563.568117085469,504.475318678942,NaN,NaN,NaN,NaN,NaN,NaN,0,4,0,NaN,NaN,NaN,horizontal,vertical,vertical,none,none,none
1d,12,100234,1,3,3,19,M,NA,constant,homogeneous,3,present,0.680884838104248,0,horizontal,vertical,1,0.635293777783712,red,1,2,696.282156015671,832.954091698863,1053.60308331891,573.345241866748,696.282156015671,832.954091698863,1053.60308331891,573.345241866748,650.114760665419,393.700666434388,NaN,NaN,NaN,NaN,NaN,NaN,4,0,0,NaN,NaN,NaN,horizontal,horizontal,horizontal,none,none,none
1d,12,100234,1,4,4,19,M,NA,constant,homogeneous,3,present,0.666445016860962,1,vertical,vertical,1,0.776468888918559,red,3,2,565.271262369628,699.636437764765,831.076682568313,346.900731331463,1003.65205506206,753.462830903772,831.076682568313,346.900731331463,565.271262369628,699.636437764765,NaN,NaN,NaN,NaN,NaN,NaN,0,0,4,NaN,NaN,NaN,vertical,vertical,vertical,none,none,none
1d,12,100234,1,5,5,19,M,NA,constant,homogeneous,6,absent,0.741801977157593,1,horizontal,horizontal,1,0.694116740756565,red,3,NaN,1054.65053136242,586.654331158049,NaN,NaN,684.232422566416,827.206663668034,938.882953928832,813.860994826083,1054.65053136242,586.654331158049,915.767577433584,372.793336331966,661.117046071168,386.139005173917,545.349468637584,613.345668841951,0,0,4,0,0,0,vertical,vertical,horizontal,vertical,horizontal,vertical
1d,12,100234,1,6,6,19,M,NA,constant,homogeneous,4,absent,0.877269983291626,0,vertical,horizontal,1,0.823527259296841,red,1,NaN,676.373546837184,823.028025320546,NaN,NaN,676.373546837184,823.028025320546,1023.02802532055,723.626453162816,923.626453162816,376.971974679454,576.971974679454,476.373546837184,NaN,NaN,NaN,NaN,4,0,0,0,NaN,NaN,vertical,vertical,vertical,vertical,none,none
1d,12,100234,1,7,7,19,M,NA,constant,homogeneous,4,absent,0.686227083206177,1,vertical,vertical,1,0.764704296323988,red,1,NaN,831.076682568313,853.099268668537,NaN,NaN,831.076682568313,853.099268668537,1053.09926866854,568.923317431687,768.923317431687,346.900731331463,546.900731331463,631.076682568313,NaN,NaN,NaN,NaN,4,0,0,0,NaN,NaN,vertical,vertical,horizontal,horizontal,none,none
1d,12,100234,1,8,8,19,M,NA,constant,homogeneous,3,present,0.850046873092651,1,vertical,vertical,1,1.09411288897196,red,3,1,554.878267535729,529.712474266665,861.690083377915,847.425410200379,861.690083377915,847.425410200379,983.431649086356,422.862115532956,554.878267535729,529.712474266665,NaN,NaN,NaN,NaN,NaN,NaN,0,0,4,NaN,NaN,NaN,horizontal,vertical,vertical,none,none,none
1d,12,100234,1,9,9,19,M,NA,constant,homogeneous,4,present,0.693698883056641,1,horizontal,horizontal,1,0.929408592647976,red,2,4,989.501930496736,770.628304621509,610.498069503264,429.371695378491,629.371695378491,789.501930496736,989.501930496736,770.628304621509,970.628304621509,410.498069503264,610.498069503264,429.371695378491,NaN,NaN,NaN,NaN,0,4,0,0,NaN,NaN,horizontal,horizontal,vertical,horizontal,none,none
1d,12,100234,1,10,10,19,M,NA,constant,homogeneous,6,present,0.785475969314575,1,vertical,vertical,1,0.882350222269694,red,4,5,831.076682568313,346.900731331463,596.34794493794,446.537169096228,768.923317431687,853.099268668537,1003.65205506206,753.462830903772,1034.72873763037,500.363562235235,831.076682568313,346.900731331463,596.34794493794,446.537169096228,565.271262369628,699.636437764765,0,0,0,4,0,0,vertical,vertical,vertical,vertical,horizontal,horizontal
1d,12,100234,1,11,11,19,M,NA,constant,homogeneous,5,present,0.565461874008179,1,vertical,vertical,1,0.9999961482154,red,3,5,870.287525733335,354.878267535729,599.057257830286,756.993676208043,887.215136548046,839.621618300407,1054.84466088987,591.100628340862,870.287525733335,354.878267535729,588.595418998464,457.40580961496,599.057257830286,756.993676208043,NaN,NaN,0,0,4,0,0,NaN,vertical,horizontal,vertical,horizontal,vertical,none
1d,12,100234,1,12,12,19,M,NA,constant,homogeneous,5,absent,0.690180063247681,0,vertical,horizontal,1,0.658822962972853,red,5,NaN,547.481642470899,564.510859255183,NaN,NaN,688.215357568785,829.192481806288,983.431649086356,777.137884467044,1025.15163617903,480.284751489598,755.719714694933,348.874022981887,547.481642470899,564.510859255183,NaN,NaN,0,0,0,0,4,NaN,horizontal,horizontal,horizontal,vertical,vertical,none
1d,12,100234,1,13,13,19,M,NA,constant,homogeneous,4,present,0.720379829406738,1,vertical,vertical,1,0.81176266670227,red,2,1,998.172220171528,439.523300282291,960.476699717708,798.172220171528,960.476699717708,798.172220171528,998.172220171528,439.523300282291,639.523300282292,401.827779828472,601.827779828472,760.476699717708,NaN,NaN,NaN,NaN,0,4,0,0,NaN,NaN,vertical,vertical,vertical,horizontal,none,none
1d,12,100234,1,14,14,19,M,NA,constant,homogeneous,6,absent,1.09624409675598,1,vertical,vertical,1,0.670587555567423,red,4,NaN,746.982518841471,350.57236181288,NaN,NaN,853.017481158529,849.42763818712,1042.51941165526,678.799333565612,989.501930496736,429.371695378491,746.982518841471,350.57236181288,557.480588344736,521.200666434388,610.498069503264,770.628304621509,0,0,0,4,0,0,vertical,horizontal,vertical,vertical,horizontal,vertical
1d,12,100234,1,15,15,19,M,NA,constant,homogeneous,6,absent,0.487287998199463,1,vertical,vertical,1,0.847056444485982,red,4,NaN,696.282156015671,367.045908301137,NaN,NaN,903.717843984329,832.954091698863,1053.60308331891,626.654758133252,949.885239334581,393.700666434388,696.282156015671,367.045908301137,546.39691668109,573.345241866748,650.114760665419,806.299333565612,0,0,0,4,0,0,vertical,vertical,horizontal,vertical,vertical,horizontal
1d,12,100234,1,16,16,19,M,NA,constant,homogeneous,4,absent,0.690676927566528,1,vertical,vertical,1,0.870585629675123,red,1,NaN,931.334709102064,818.577661679039,NaN,NaN,931.334709102064,818.577661679039,1018.57766167904,468.665290897936,668.665290897936,381.422338320961,581.422338320961,731.334709102064,NaN,NaN,NaN,NaN,4,0,0,0,NaN,NaN,vertical,vertical,vertical,horizontal,none,none
1d,12,100234,1,17,17,19,M,NA,constant,homogeneous,5,absent,0.621624946594238,1,horizontal,horizontal,1,0.847056444485982,red,3,NaN,983.431649086356,422.862115532956,NaN,NaN,755.719714694933,851.125977018113,1025.15163617903,719.715248510402,983.431649086356,422.862115532956,688.215357568785,370.807518193712,547.481642470899,635.489140744817,NaN,NaN,0,0,4,0,0,NaN,horizontal,vertical,horizontal,horizontal,vertical,none
1d,12,100234,1,18,18,19,M,NA,constant,homogeneous,3,present,0.555684804916382,1,vertical,vertical,1,0.882350222269694,red,1,3,977.137884467044,783.431649086356,552.574589799621,661.690083377915,977.137884467044,783.431649086356,870.287525733335,354.878267535729,552.574589799621,661.690083377915,NaN,NaN,NaN,NaN,NaN,NaN,4,0,0,NaN,NaN,NaN,vertical,horizontal,vertical,none,none,none
1d,12,100234,1,19,19,19,M,NA,constant,homogeneous,4,present,0.834491014480591,1,horizontal,horizontal,1,0.964702370431688,red,4,3,607.549057043193,432.704947607421,967.295052392579,407.549057043193,632.704947607421,792.450942956807,992.450942956807,767.295052392579,967.295052392579,407.549057043193,607.549057043193,432.704947607421,NaN,NaN,NaN,NaN,0,0,0,4,NaN,NaN,vertical,vertical,horizontal,horizontal,none,none
1d,12,100234,1,20,20,19,M,NA,constant,homogeneous,4,absent,0.650706052780151,1,vertical,vertical,1,0.776468888918559,red,4,NaN,563.568117085469,695.524681321058,NaN,NaN,895.524681321058,836.431882914531,1036.43188291453,504.475318678942,704.475318678942,363.568117085469,563.568117085469,695.524681321058,NaN,NaN,NaN,NaN,0,0,0,4,NaN,NaN,horizontal,horizontal,vertical,vertical,none,none
1d,12,100234,1,21,21,19,M,NA,constant,homogeneous,5,present,0.666559934616089,1,vertical,vertical,1,0.717645925945706,red,3,5,915.767577433584,372.793336331966,572.793336331966,715.767577433584,839.890788585259,851.86052685176,1051.86052685176,639.890788585259,915.767577433584,372.793336331966,619.68777079743,419.68777079743,572.793336331966,715.767577433584,NaN,NaN,0,0,4,0,0,NaN,vertical,vertical,vertical,vertical,vertical,none
1d,12,100234,1,22,22,19,M,NA,constant,homogeneous,3,present,0.61461615562439,1,vertical,vertical,1,0.741175111134847,red,1,3,661.117046071168,813.860994826083,684.232422566416,372.793336331966,661.117046071168,813.860994826083,1054.65053136242,613.345668841951,684.232422566416,372.793336331966,NaN,NaN,NaN,NaN,NaN,NaN,4,0,0,NaN,NaN,NaN,vertical,horizontal,horizontal,none,none,none
1d,12,100234,1,23,23,19,M,NA,constant,homogeneous,5,present,0.519134044647217,1,horizontal,horizontal,1,0.7999980741077,red,5,3,553.688914296288,665.998856501143,960.476699717708,401.827779828472,786.654331158049,854.650531362416,1038.06300875679,691.383827134052,960.476699717708,401.827779828472,661.117046071168,386.139005173917,553.688914296288,665.998856501143,NaN,NaN,0,0,0,0,4,NaN,horizontal,vertical,vertical,vertical,horizontal,none
1d,12,100234,1,24,24,19,M,NA,constant,homogeneous,6,present,0.623511075973511,1,vertical,vertical,1,0.694116740756565,red,1,3,835.489140744817,852.518357529101,1000.94274216971,443.006323791957,835.489140744817,852.518357529101,1036.43188291453,695.524681321058,1000.94274216971,443.006323791957,764.510859255183,347.4816424709,563.568117085469,504.475318678942,599.057257830286,756.993676208043,4,0,0,0,0,0,vertical,vertical,horizontal,vertical,vertical,vertical
1d,12,100234,1,25,25,19,M,NA,constant,homogeneous,3,present,0.552375078201294,1,horizontal,horizontal,1,0.988231555620829,red,3,1,560.378381699593,512.784863451954,844.280285305067,851.125977018113,844.280285305067,851.125977018113,995.341332995339,436.089159529932,560.378381699593,512.784863451954,NaN,NaN,NaN,NaN,NaN,NaN,0,0,4,NaN,NaN,NaN,vertical,horizontal,horizontal,none,none,none
1d,12,100234,1,26,26,19,M,NA,constant,homogeneous,6,present,0.663575887680054,1,vertical,vertical,1,0.81176266670227,red,4,3,791.100628340862,345.155339110131,1016.25226451989,464.870587620533,808.899371659138,854.844660889869,1025.15163617903,719.715248510402,1016.25226451989,464.870587620533,791.100628340862,345.155339110131,574.848363820974,480.284751489598,583.747735480111,735.129412379467,0,0,0,4,0,0,vertical,vertical,vertical,vertical,horizontal,horizontal
1d,12,100234,1,27,27,19,M,NA,constant,homogeneous,4,absent,0.514575958251953,0,horizontal,vertical,1,0.870585629675123,red,3,NaN,938.882953928832,386.139005173917,NaN,NaN,661.117046071168,813.860994826083,1013.86099482608,738.882953928832,938.882953928832,386.139005173917,586.139005173917,461.117046071168,NaN,NaN,NaN,NaN,0,0,4,0,NaN,NaN,horizontal,vertical,horizontal,horizontal,none,none
1d,12,100234,1,28,28,19,M,NA,constant,homogeneous,5,absent,0.624517917633057,0,horizontal,vertical,1,0.988231555620829,red,2,NaN,992.450942956807,767.295052392579,NaN,NaN,700.363562235235,834.728737630372,992.450942956807,767.295052392579,1018.57766167904,468.665290897936,742.637481142314,351.535633479765,545.970351986605,577.775285599347,NaN,NaN,0,4,0,0,0,NaN,horizontal,horizontal,horizontal,horizontal,horizontal,none
1d,12,100234,1,29,29,19,M,NA,constant,homogeneous,5,absent,1.14725804328918,1,horizontal,horizontal,1,0.682352148161994,red,4,NaN,622.862115532956,416.568350913644,NaN,NaN,835.489140744817,852.518357529101,1051.12597701811,644.280285305067,919.715248510402,374.848363820974,622.862115532956,416.568350913644,570.807518193712,711.784642431215,NaN,NaN,0,0,0,4,0,NaN,vertical,horizontal,horizontal,horizontal,vertical,none
1d,12,100234,1,30,30,19,M,NA,constant,homogeneous,5,present,0.842488050460815,1,horizontal,horizontal,1,1.02352533340454,red,2,1,1045.12173246427,670.287525733335,808.899371659138,854.844660889869,808.899371659138,854.844660889869,1045.12173246427,670.287525733335,942.594190385041,388.595418998464,643.006323791957,399.057257830286,560.378381699593,687.215136548046,NaN,NaN,0,4,0,0,0,NaN,horizontal,horizontal,horizontal,horizontal,vertical,none
1d,12,100234,1,31,31,19,M,NA,constant,homogeneous,6,absent,0.652149200439453,1,vertical,vertical,1,1.02352533340454,red,6,NaN,545.970351986605,622.224714400653,NaN,NaN,692.232343256122,831.108485694346,946.261991269517,808.883771293693,1054.0296480134,577.775285599347,907.767656743878,368.891514305654,653.738008730483,391.116228706307,545.970351986605,622.224714400653,0,0,0,0,0,4,horizontal,horizontal,horizontal,vertical,vertical,vertical
1d,12,100234,1,32,32,19,M,NA,constant,homogeneous,6,absent,0.759546041488647,1,horizontal,horizontal,1,0.705881333351135,red,3,NaN,935.129412379467,383.747735480111,NaN,NaN,919.715248510402,825.151636179026,1054.84466088987,608.899371659138,935.129412379467,383.747735480111,680.284751489598,374.848363820974,545.155339110131,591.100628340862,664.870587620533,816.252264519889,0,0,4,0,0,0,vertical,horizontal,horizontal,horizontal,horizontal,vertical
1d,12,100234,1,33,33,19,M,NA,constant,homogeneous,5,absent,0.569255113601685,0,vertical,horizontal,1,0.929408592647976,red,2,NaN,970.628304621509,789.501930496736,NaN,NaN,672.5,820.836477965032,970.628304621509,789.501930496736,1032.95409169886,496.282156015671,773.345241866748,346.39691668109,550.57236181288,546.982518841471,NaN,NaN,0,4,0,0,0,NaN,horizontal,vertical,vertical,vertical,vertical,none
1d,12,100234,1,34,34,19,M,NA,constant,homogeneous,4,present,0.825289964675903,1,vertical,vertical,1,1.02352533340454,red,4,2,576.971974679454,476.373546837184,1023.02802532055,723.626453162816,676.373546837184,823.028025320546,1023.02802532055,723.626453162816,923.626453162816,376.971974679454,576.971974679454,476.373546837184,NaN,NaN,NaN,NaN,0,0,0,4,NaN,NaN,vertical,horizontal,horizontal,vertical,none,none
1d,12,100234,1,35,35,19,M,NA,constant,homogeneous,6,absent,0.665263891220093,1,horizontal,horizontal,1,0.764704296323988,red,4,NaN,684.232422566416,372.793336331966,NaN,NaN,915.767577433584,827.206663668034,1054.65053136242,613.345668841951,938.882953928832,386.139005173917,684.232422566416,372.793336331966,545.349468637584,586.654331158049,661.117046071168,813.860994826083,0,0,0,4,0,0,horizontal,horizontal,vertical,horizontal,horizontal,vertical
1d,12,100234,1,36,36,19,M,NA,constant,homogeneous,4,present,0.825304985046387,1,horizontal,horizontal,1,0.929408592647976,red,2,4,1032.95409169886,496.282156015671,567.045908301137,703.717843984329,903.717843984329,832.954091698863,1032.95409169886,496.282156015671,696.282156015671,367.045908301137,567.045908301137,703.717843984329,NaN,NaN,NaN,NaN,0,4,0,0,NaN,NaN,horizontal,horizontal,vertical,vertical,none,none
1d,12,100234,1,37,37,19,M,NA,constant,homogeneous,4,present,0.652662992477417,1,vertical,vertical,1,0.729410518540276,red,3,1,857.362518857686,351.535633479765,742.637481142314,848.464366520235,742.637481142314,848.464366520235,1048.46436652023,657.362518857686,857.362518857686,351.535633479765,551.535633479765,542.637481142314,NaN,NaN,NaN,NaN,0,0,4,0,NaN,NaN,horizontal,horizontal,vertical,vertical,none,none
1d,12,100234,1,38,38,19,M,NA,constant,homogeneous,6,present,0.890241861343384,1,horizontal,horizontal,1,0.623529185189141,red,1,6,700.363562235235,834.728737630372,546.900731331463,631.076682568313,700.363562235235,834.728737630372,953.462830903772,803.65205506206,1053.09926866854,568.923317431687,899.636437764765,365.271262369628,646.537169096228,396.34794493794,546.900731331463,631.076682568313,4,0,0,0,0,0,horizontal,horizontal,horizontal,vertical,horizontal,horizontal
1d,12,100234,1,39,39,19,M,NA,constant,homogeneous,4,present,0.984083890914917,1,vertical,vertical,1,1.01176074080997,red,3,2,716.980120613425,358.892763222174,1041.10723677783,516.980120613425,883.019879386575,841.107236777826,1041.10723677783,516.980120613425,716.980120613425,358.892763222174,558.892763222174,683.019879386575,NaN,NaN,NaN,NaN,0,0,4,0,NaN,NaN,horizontal,horizontal,vertical,vertical,none,none
1d,12,100234,1,40,40,19,M,NA,constant,homogeneous,3,absent,0.603315114974976,1,horizontal,horizontal,1,0.752939703729418,red,1,NaN,680.284751489598,825.151636179026,NaN,NaN,680.284751489598,825.151636179026,1054.84466088987,591.100628340862,664.870587620533,383.747735480111,NaN,NaN,NaN,NaN,NaN,NaN,4,0,0,NaN,NaN,NaN,horizontal,horizontal,vertical,none,none,none
1d,12,100234,1,41,41,19,M,NA,constant,homogeneous,5,present,0.824923992156982,1,vertical,vertical,1,1.07058370378282,red,3,2,857.362518857686,351.535633479765,1054.0296480134,577.775285599347,899.636437764765,834.728737630372,1054.0296480134,577.775285599347,857.362518857686,351.535633479765,581.422338320961,468.665290897936,607.549057043193,767.295052392579,NaN,NaN,0,0,4,0,0,NaN,horizontal,horizontal,vertical,vertical,horizontal,none
1d,12,100234,1,42,42,19,M,NA,constant,homogeneous,3,absent,0.838126182556152,1,vertical,vertical,1,0.623529185189141,red,2,NaN,1039.62161830041,687.215136548046,NaN,NaN,604.658667004661,763.910840470068,1039.62161830041,687.215136548046,755.719714694933,348.874022981887,NaN,NaN,NaN,NaN,NaN,NaN,0,4,0,NaN,NaN,NaN,horizontal,vertical,horizontal,none,none,none
1d,12,100234,1,43,43,19,M,NA,constant,homogeneous,4,present,0.628329038619995,1,horizontal,horizontal,1,1.05881911118825,red,1,4,903.717843984329,832.954091698863,567.045908301137,703.717843984329,903.717843984329,832.954091698863,1032.95409169886,496.282156015671,696.282156015671,367.045908301137,567.045908301137,703.717843984329,NaN,NaN,NaN,NaN,4,0,0,0,NaN,NaN,horizontal,horizontal,vertical,vertical,none,none
1d,12,100234,1,44,44,19,M,NA,constant,homogeneous,3,present,0.725164175033569,1,horizontal,horizontal,1,1.01176074080997,red,3,1,629.371695378491,410.498069503264,721.200666434388,842.519411655264,721.200666434388,842.519411655264,1049.42763818712,546.982518841471,629.371695378491,410.498069503264,NaN,NaN,NaN,NaN,NaN,NaN,0,0,4,NaN,NaN,NaN,horizontal,vertical,horizontal,none,none,none
1d,12,100234,1,45,45,19,M,NA,constant,homogeneous,6,present,0.60222601890564,1,horizontal,horizontal,1,0.929408592647976,red,3,4,983.431649086356,422.862115532956,738.309916622085,352.574589799621,861.690083377915,847.425410200379,1045.12173246427,670.287525733335,983.431649086356,422.862115532956,738.309916622085,352.574589799621,554.878267535729,529.712474266665,616.568350913644,777.137884467044,0,0,4,0,0,0,horizontal,horizontal,horizontal,vertical,horizontal,vertical
1d,12,100234,1,46,46,19,M,NA,constant,homogeneous,3,absent,0.520453929901123,1,horizontal,horizontal,1,1.07058370378282,red,2,NaN,1020.83647796503,727.5,NaN,NaN,579.163522034968,727.5,1020.83647796503,727.5,800,345,NaN,NaN,NaN,NaN,NaN,NaN,0,4,0,NaN,NaN,NaN,horizontal,horizontal,vertical,none,none,none
1d,12,100234,1,47,47,19,M,NA,constant,homogeneous,5,present,0.566813945770264,1,horizontal,horizontal,1,0.7999980741077,red,3,1,1003.65205506206,446.537169096228,725.445215295702,843.857712770574,725.445215295702,843.857712770574,1008.88377129369,746.261991269517,1003.65205506206,446.537169096228,716.980120613425,358.892763222174,545.03883773512,604.450363641507,NaN,NaN,0,0,4,0,0,NaN,vertical,horizontal,horizontal,horizontal,horizontal,none
1d,12,100234,1,48,48,19,M,NA,constant,homogeneous,5,present,0.654308080673218,1,vertical,vertical,1,0.6,red,1,3,813.345668841951,854.650531362416,938.882953928832,386.139005173917,813.345668841951,854.650531362416,1046.31108570371,665.998856501143,938.882953928832,386.139005173917,639.523300282292,401.827779828472,561.936991243214,691.383827134052,NaN,NaN,4,0,0,0,0,NaN,vertical,horizontal,vertical,vertical,vertical,none
1d,12,100234,1,49,49,19,M,NA,constant,homogeneous,6,present,0.555593967437744,1,horizontal,horizontal,1,0.7999980741077,red,1,6,786.654331158049,854.650531362416,572.793336331966,715.767577433584,786.654331158049,854.650531362416,1013.86099482608,738.882953928832,1027.20666366803,484.232422566416,813.345668841951,345.349468637584,586.139005173917,461.117046071168,572.793336331966,715.767577433584,4,0,0,0,0,0,horizontal,horizontal,horizontal,vertical,horizontal,horizontal
1d,12,100234,1,50,50,19,M,NA,constant,homogeneous,5,absent,0.750407934188843,1,horizontal,horizontal,1,0.776468888918559,red,3,NaN,1034.72873763037,500.363562235235,NaN,NaN,668.665290897936,818.577661679039,967.295052392579,792.450942956807,1034.72873763037,500.363562235235,777.775285599347,345.970351986605,551.535633479765,542.637481142314,NaN,NaN,0,0,4,0,0,NaN,vertical,vertical,horizontal,vertical,horizontal,none
1d,12,100234,1,51,51,19,M,NA,constant,homogeneous,3,absent,0.647654056549072,1,horizontal,horizontal,1,0.917644000053406,red,3,NaN,563.568117085469,504.475318678942,NaN,NaN,835.489140744817,852.518357529101,1000.94274216971,443.006323791957,563.568117085469,504.475318678942,NaN,NaN,NaN,NaN,NaN,NaN,0,0,4,NaN,NaN,NaN,horizontal,horizontal,horizontal,none,none,none
1d,12,100234,1,52,52,19,M,NA,constant,homogeneous,6,absent,0.491966009140015,0,vertical,horizontal,1,0.952937777837118,red,6,NaN,545,600,NaN,NaN,672.5,820.836477965032,927.5,820.836477965032,1055,600,927.5,379.163522034968,672.5,379.163522034968,545,600,0,0,0,0,0,4,horizontal,horizontal,horizontal,vertical,vertical,vertical
1d,12,100234,1,53,53,19,M,NA,constant,homogeneous,5,present,0.834695816040039,1,horizontal,horizontal,1,1.03528992599911,red,1,4,878.799333565612,842.519411655264,593.700666434388,450.114760665419,878.799333565612,842.519411655264,1055,600,878.799333565612,357.480588344736,593.700666434388,450.114760665419,593.700666434388,749.885239334581,NaN,NaN,4,0,0,0,0,NaN,horizontal,horizontal,horizontal,horizontal,vertical,none
1d,12,100234,1,54,54,19,M,NA,constant,homogeneous,5,absent,0.708077907562256,1,vertical,vertical,1,1.02352533340454,red,5,NaN,552.574589799621,661.690083377915,NaN,NaN,782.212099195248,854.378832816255,1036.43188291453,695.524681321058,963.910840470068,404.658667004661,664.870587620533,383.747735480111,552.574589799621,661.690083377915,NaN,NaN,0,0,0,0,4,NaN,vertical,horizontal,horizontal,horizontal,vertical,none
1d,12,100234,1,55,55,19,M,NA,constant,homogeneous,5,absent,0.570245981216431,1,vertical,vertical,1,0.988231555620829,red,2,NaN,1052.5183575291,564.510859255183,NaN,NaN,911.784642431215,829.192481806288,1052.5183575291,564.510859255183,844.280285305067,348.874022981887,574.848363820974,480.284751489598,616.568350913644,777.137884467044,NaN,NaN,0,4,0,0,0,NaN,vertical,vertical,vertical,horizontal,horizontal,none
1d,12,100234,1,56,56,19,M,NA,constant,homogeneous,3,present,0.6266930103302,1,horizontal,horizontal,1,0.647058370378282,red,3,1,579.163522034968,727.5,1020.83647796503,727.5,1020.83647796503,727.5,800,345,579.163522034968,727.5,NaN,NaN,NaN,NaN,NaN,NaN,0,0,4,NaN,NaN,NaN,horizontal,horizontal,horizontal,none,none,none
1d,12,100234,1,57,57,19,M,NA,constant,homogeneous,6,absent,0.640466928482056,1,horizontal,horizontal,1,0.647058370378282,red,6,NaN,581.422338320961,731.334709102064,NaN,NaN,804.450363641507,854.96116226488,1023.02802532055,723.626453162816,1018.57766167904,468.665290897936,795.549636358493,345.03883773512,576.971974679454,476.373546837184,581.422338320961,731.334709102064,0,0,0,0,0,4,vertical,vertical,vertical,vertical,vertical,horizontal
1d,12,100234,1,58,58,19,M,NA,constant,homogeneous,4,absent,0.579684019088745,0,horizontal,vertical,1,0.917644000053406,red,2,NaN,1027.20666366803,484.232422566416,NaN,NaN,915.767577433584,827.206663668034,1027.20666366803,484.232422566416,684.232422566416,372.793336331966,572.793336331966,715.767577433584,NaN,NaN,NaN,NaN,0,4,0,0,NaN,NaN,horizontal,horizontal,horizontal,vertical,none,none
1d,12,100234,1,59,59,19,M,NA,constant,homogeneous,6,present,0.726294994354248,1,horizontal,horizontal,1,0.929408592647976,red,6,4,546.900731331463,631.076682568313,899.636437764765,365.271262369628,700.363562235235,834.728737630372,953.462830903772,803.65205506206,1053.09926866854,568.923317431687,899.636437764765,365.271262369628,646.537169096228,396.34794493794,546.900731331463,631.076682568313,0,0,0,0,0,4,vertical,vertical,horizontal,horizontal,horizontal,horizontal
1d,12,100234,1,60,60,19,M,NA,constant,homogeneous,6,present,0.620671033859253,1,vertical,vertical,1,0.7999980741077,red,3,2,1018.57766167904,468.665290897936,1023.02802532055,723.626453162816,804.450363641507,854.96116226488,1023.02802532055,723.626453162816,1018.57766167904,468.665290897936,795.549636358493,345.03883773512,576.971974679454,476.373546837184,581.422338320961,731.334709102064,0,0,4,0,0,0,horizontal,horizontal,vertical,vertical,horizontal,horizontal
1d,12,100234,1,61,61,19,M,NA,constant,homogeneous,4,absent,0.576497077941895,1,horizontal,horizontal,1,0.764704296323988,red,2,NaN,1054.96116226488,604.450363641507,NaN,NaN,795.549636358493,854.96116226488,1054.96116226488,604.450363641507,804.450363641507,345.03883773512,545.03883773512,595.549636358493,NaN,NaN,NaN,NaN,0,4,0,0,NaN,NaN,horizontal,horizontal,horizontal,vertical,none,none
1d,12,100234,1,62,62,19,M,NA,constant,homogeneous,3,absent,0.718143939971924,0,vertical,horizontal,1,0.694116740756565,red,3,NaN,579.163522034968,472.5,NaN,NaN,800,855,1020.83647796503,472.5,579.163522034968,472.5,NaN,NaN,NaN,NaN,NaN,NaN,0,0,4,NaN,NaN,NaN,vertical,vertical,vertical,none,none,none
1d,12,100234,1,63,63,19,M,NA,constant,homogeneous,4,absent,0.651385068893433,1,horizontal,horizontal,1,0.729410518540276,red,3,NaN,636.089159529932,404.658667004661,NaN,NaN,963.910840470068,795.341332995339,995.341332995339,436.089159529932,636.089159529932,404.658667004661,604.658667004661,763.910840470068,NaN,NaN,NaN,NaN,0,0,4,0,NaN,NaN,vertical,horizontal,horizontal,vertical,none,none
1d,12,100234,1,64,64,19,M,NA,constant,homogeneous,3,absent,0.567241191864014,1,vertical,vertical,1,0.929408592647976,red,2,NaN,931.334709102064,381.422338320961,NaN,NaN,923.626453162816,823.028025320546,931.334709102064,381.422338320961,545.03883773512,595.549636358493,NaN,NaN,NaN,NaN,NaN,NaN,0,4,0,NaN,NaN,NaN,vertical,vertical,vertical,none,none,none
1d,12,100234,2,1,65,19,M,NA,constant,homogeneous,5,present,0.949891090393066,1,vertical,vertical,1,0.670587555567423,red,2,1,1027.20666366803,715.767577433584,760.109211414741,851.86052685176,760.109211414741,851.86052685176,1027.20666366803,715.767577433584,980.31222920257,419.68777079743,684.232422566416,372.793336331966,548.13947314824,639.890788585259,NaN,NaN,0,4,0,0,0,NaN,vertical,vertical,horizontal,horizontal,vertical,none
1d,12,100234,2,2,66,19,M,NA,constant,homogeneous,4,absent,0.659052848815918,0,vertical,horizontal,1,0.905879407458835,red,1,NaN,826.654758133252,853.60308331891,NaN,NaN,826.654758133252,853.60308331891,1053.60308331891,573.345241866748,773.345241866748,346.39691668109,546.39691668109,626.654758133252,NaN,NaN,NaN,NaN,4,0,0,0,NaN,NaN,vertical,horizontal,vertical,horizontal,none,none
1d,12,100234,2,3,67,19,M,NA,constant,homogeneous,6,absent,0.753719091415405,1,vertical,vertical,1,0.658822962972853,red,3,NaN,935.129412379467,383.747735480111,NaN,NaN,919.715248510402,825.151636179026,1054.84466088987,608.899371659138,935.129412379467,383.747735480111,680.284751489598,374.848363820974,545.155339110131,591.100628340862,664.870587620533,816.252264519889,0,0,4,0,0,0,vertical,vertical,vertical,vertical,horizontal,vertical
1d,12,100234,2,4,68,19,M,NA,constant,homogeneous,3,present,0.589010953903198,0,horizontal,vertical,1,0.9999961482154,red,1,2,883.019879386575,841.107236777826,967.295052392579,407.549057043193,883.019879386575,841.107236777826,967.295052392579,407.549057043193,549.685068220846,551.343706178981,NaN,NaN,NaN,NaN,NaN,NaN,4,0,0,NaN,NaN,NaN,horizontal,horizontal,vertical,none,none,none
1d,12,100234,2,5,69,19,M,NA,constant,homogeneous,5,absent,0.800942897796631,1,vertical,vertical,1,1.01176074080997,red,1,NaN,746.982518841471,849.42763818712,NaN,NaN,746.982518841471,849.42763818712,1020.83647796503,727.5,989.501930496736,429.371695378491,696.282156015671,367.045908301137,546.39691668109,626.654758133252,NaN,NaN,4,0,0,0,0,NaN,vertical,vertical,vertical,horizontal,horizontal,none
1d,12,100234,2,6,70,19,M,NA,constant,homogeneous,6,absent,1.01433992385864,1,horizontal,horizontal,1,0.847056444485982,red,5,NaN,668.665290897936,381.422338320961,NaN,NaN,676.373546837184,823.028025320546,931.334709102064,818.577661679039,1054.96116226488,595.549636358493,923.626453162816,376.971974679454,668.665290897936,381.422338320961,545.03883773512,604.450363641507,0,0,0,0,4,0,vertical,vertical,vertical,vertical,horizontal,horizontal
1d,12,100234,2,7,71,19,M,NA,constant,homogeneous,3,absent,0.639331817626953,1,vertical,vertical,1,0.823527259296841,red,2,NaN,1050.31493177915,648.656293821019,NaN,NaN,632.704947607421,792.450942956807,1050.31493177915,648.656293821019,716.980120613425,358.892763222174,NaN,NaN,NaN,NaN,NaN,NaN,0,4,0,NaN,NaN,NaN,horizontal,vertical,horizontal,none,none,none
1d,12,100234,2,8,72,19,M,NA,constant,homogeneous,3,present,0.601700067520142,1,horizontal,horizontal,1,1.07058370378282,red,3,2,545.970351986605,577.775285599347,946.261991269517,391.116228706307,907.767656743878,831.108485694346,946.261991269517,391.116228706307,545.970351986605,577.775285599347,NaN,NaN,NaN,NaN,NaN,NaN,0,0,4,NaN,NaN,NaN,vertical,vertical,horizontal,none,none,none
1d,12,100234,2,9,73,19,M,NA,constant,homogeneous,4,absent,0.631441116333008,0,horizontal,vertical,1,1.07058370378282,red,4,NaN,551.535633479765,657.362518857686,NaN,NaN,857.362518857686,848.464366520235,1048.46436652023,542.637481142314,742.637481142314,351.535633479765,551.535633479765,657.362518857686,NaN,NaN,NaN,NaN,0,0,0,4,NaN,NaN,horizontal,vertical,vertical,horizontal,none,none
1d,12,100234,2,10,74,19,M,NA,constant,homogeneous,6,present,0.624460935592651,1,vertical,vertical,1,0.81176266670227,red,1,4,911.784642431215,829.192481806288,688.215357568785,370.807518193712,911.784642431215,829.192481806288,1054.37883281626,617.787900804752,942.594190385041,388.595418998464,688.215357568785,370.807518193712,545.621167183745,582.212099195248,657.405809614959,811.404581001536,4,0,0,0,0,0,vertical,horizontal,vertical,vertical,horizontal,horizontal
1d,12,100234,2,11,75,19,M,NA,constant,homogeneous,6,absent,0.57555103302002,1,vertical,vertical,1,0.917644000053406,red,6,NaN,547.481642470899,635.489140744817,NaN,NaN,704.475318678942,836.431882914531,956.993676208043,800.942742169714,1052.5183575291,564.510859255183,895.524681321058,363.568117085469,643.006323791957,399.057257830286,547.481642470899,635.489140744817,0,0,0,0,0,4,horizontal,vertical,horizontal,horizontal,vertical,vertical
1d,12,100234,2,12,76,19,M,NA,constant,homogeneous,5,present,0.585752010345459,1,vertical,vertical,1,0.729410518540276,red,4,3,576.971974679454,476.373546837184,848.656293821019,349.685068220846,907.767656743878,831.108485694346,1053.09926866854,568.923317431687,848.656293821019,349.685068220846,576.971974679454,476.373546837184,613.504806087112,773.909581815937,NaN,NaN,0,0,0,4,0,NaN,horizontal,vertical,horizontal,vertical,horizontal,none
1d,12,100234,2,13,77,19,M,NA,constant,homogeneous,4,present,0.618069887161255,1,horizontal,horizontal,1,0.611764592594571,red,3,1,668.665290897936,381.422338320961,931.334709102064,818.577661679039,931.334709102064,818.577661679039,1018.57766167904,468.665290897936,668.665290897936,381.422338320961,581.422338320961,731.334709102064,NaN,NaN,NaN,NaN,0,0,4,0,NaN,NaN,vertical,horizontal,horizontal,vertical,none,none
1d,12,100234,2,14,78,19,M,NA,constant,homogeneous,5,absent,0.863640069961548,1,vertical,vertical,1,0.858821037080553,red,1,NaN,684.232422566416,827.206663668034,NaN,NaN,684.232422566416,827.206663668034,980.31222920257,780.31222920257,1027.20666366803,484.232422566416,760.109211414741,348.13947314824,548.13947314824,560.109211414741,NaN,NaN,4,0,0,0,0,NaN,vertical,horizontal,horizontal,horizontal,vertical,none
1d,12,100234,2,15,79,19,M,NA,constant,homogeneous,3,present,0.633977890014648,1,vertical,vertical,1,0.847056444485982,red,3,1,554.878267535729,529.712474266665,861.690083377915,847.425410200379,861.690083377915,847.425410200379,983.431649086356,422.862115532956,554.878267535729,529.712474266665,NaN,NaN,NaN,NaN,NaN,NaN,0,0,4,NaN,NaN,NaN,horizontal,vertical,vertical,none,none,none
1d,12,100234,2,16,80,19,M,NA,constant,homogeneous,3,present,0.612383842468262,1,horizontal,horizontal,1,1.07058370378282,red,2,1,887.215136548046,360.378381699593,963.910840470068,795.341332995339,963.910840470068,795.341332995339,887.215136548046,360.378381699593,548.874022981887,644.280285305067,NaN,NaN,NaN,NaN,NaN,NaN,0,4,0,NaN,NaN,NaN,horizontal,horizontal,vertical,none,none,none
1d,12,100234,2,17,81,19,M,NA,constant,homogeneous,5,present,0.634468793869019,1,vertical,vertical,1,0.682352148161994,red,5,3,545.621167183745,617.787900804752,995.341332995339,436.089159529932,738.309916622085,847.425410200379,1016.25226451989,735.129412379467,995.341332995339,436.089159529932,704.475318678942,363.568117085469,545.621167183745,617.787900804752,NaN,NaN,0,0,0,0,4,NaN,vertical,vertical,horizontal,horizontal,vertical,none
1d,12,100234,2,18,82,19,M,NA,constant,homogeneous,5,absent,0.877837896347046,1,vertical,vertical,1,0.917644000053406,red,3,NaN,946.261991269517,391.116228706307,NaN,NaN,804.450363641507,854.96116226488,1043.85771277057,674.554784704298,946.261991269517,391.116228706307,646.537169096228,396.34794493794,558.892763222174,683.019879386575,NaN,NaN,0,0,4,0,0,NaN,horizontal,horizontal,vertical,vertical,vertical,none
1d,12,100234,2,19,83,19,M,NA,constant,homogeneous,4,present,0.507002830505371,1,vertical,vertical,1,0.976466963026259,red,3,2,725.445215295702,356.142287229426,1043.85771277057,525.445215295702,874.554784704298,843.857712770574,1043.85771277057,525.445215295702,725.445215295702,356.142287229426,556.142287229426,674.554784704298,NaN,NaN,NaN,NaN,0,0,4,0,NaN,NaN,vertical,vertical,vertical,vertical,none,none
1d,12,100234,2,20,84,19,M,NA,constant,homogeneous,5,absent,0.453840970993042,1,horizontal,horizontal,1,1.02352533340454,red,4,NaN,755.719714694933,348.874022981887,NaN,NaN,688.215357568785,829.192481806288,983.431649086356,777.137884467044,1025.15163617903,480.284751489598,755.719714694933,348.874022981887,547.481642470899,564.510859255183,NaN,NaN,0,0,0,4,0,NaN,vertical,vertical,horizontal,horizontal,horizontal,none
1d,12,100234,2,21,85,19,M,NA,constant,homogeneous,4,present,0.727411985397339,1,vertical,vertical,1,0.611764592594571,red,2,1,1006.29933356561,749.885239334581,650.114760665419,806.299333565612,650.114760665419,806.299333565612,1006.29933356561,749.885239334581,949.885239334581,393.700666434388,593.700666434388,450.114760665419,NaN,NaN,NaN,NaN,0,4,0,0,NaN,NaN,horizontal,vertical,vertical,horizontal,none,none
1d,12,100234,2,22,86,19,M,NA,constant,homogeneous,6,absent,0.621363878250122,1,horizontal,horizontal,1,0.976466963026259,red,2,NaN,1034.72873763037,699.636437764765,NaN,NaN,831.076682568313,853.099268668537,1034.72873763037,699.636437764765,1003.65205506206,446.537169096228,768.923317431687,346.900731331463,565.271262369628,500.363562235235,596.34794493794,753.462830903772,0,4,0,0,0,0,horizontal,horizontal,horizontal,vertical,horizontal,horizontal
1d,12,100234,2,23,87,19,M,NA,constant,homogeneous,3,absent,0.559231996536255,1,vertical,vertical,1,1.07058370378282,red,2,NaN,977.137884467044,416.568350913644,NaN,NaN,870.287525733335,845.121732464271,977.137884467044,416.568350913644,552.574589799621,538.309916622085,NaN,NaN,NaN,NaN,NaN,NaN,0,4,0,NaN,NaN,NaN,horizontal,vertical,horizontal,none,none,none
1d,12,100234,2,24,88,19,M,NA,constant,homogeneous,5,present,0.649722099304199,1,horizontal,horizontal,1,0.752939703729418,red,4,3,661.117046071168,386.139005173917,960.476699717708,401.827779828472,786.654331158049,854.650531362416,1038.06300875679,691.383827134052,960.476699717708,401.827779828472,661.117046071168,386.139005173917,553.688914296288,665.998856501143,NaN,NaN,0,0,0,4,0,NaN,horizontal,horizontal,vertical,horizontal,vertical,none
1d,12,100234,2,25,89,19,M,NA,constant,homogeneous,5,absent,0.684101819992065,1,horizontal,horizontal,1,0.858821037080553,red,2,NaN,949.885239334581,806.299333565612,NaN,NaN,650.114760665419,806.299333565612,949.885239334581,806.299333565612,1042.51941165526,521.200666434388,800,345,557.480588344736,521.200666434388,NaN,NaN,0,4,0,0,0,NaN,vertical,horizontal,horizontal,vertical,vertical,none
1d,12,100234,2,26,90,19,M,NA,constant,homogeneous,6,absent,0.551340103149414,1,horizontal,horizontal,1,1.07058370378282,red,2,NaN,931.334709102064,818.577661679039,NaN,NaN,676.373546837184,823.028025320546,931.334709102064,818.577661679039,1054.96116226488,595.549636358493,923.626453162816,376.971974679454,668.665290897936,381.422338320961,545.03883773512,604.450363641507,0,4,0,0,0,0,vertical,horizontal,vertical,horizontal,horizontal,vertical
1d,12,100234,2,27,91,19,M,NA,constant,homogeneous,3,present,0.637551069259644,1,vertical,vertical,1,0.752939703729418,red,2,1,1027.20666366803,484.232422566416,786.654331158049,854.650531362416,786.654331158049,854.650531362416,1027.20666366803,484.232422566416,586.139005173917,461.117046071168,NaN,NaN,NaN,NaN,NaN,NaN,0,4,0,NaN,NaN,NaN,horizontal,vertical,horizontal,none,none,none
1d,12,100234,2,28,92,19,M,NA,constant,homogeneous,4,present,0.731880187988281,1,horizontal,horizontal,1,0.858821037080553,red,4,1,579.163522034968,727.5,927.5,820.836477965032,927.5,820.836477965032,1020.83647796503,472.5,672.5,379.163522034968,579.163522034968,727.5,NaN,NaN,NaN,NaN,0,0,0,4,NaN,NaN,horizontal,vertical,horizontal,horizontal,none,none
1d,12,100234,2,29,93,19,M,NA,constant,homogeneous,6,present,0.573168992996216,1,horizontal,horizontal,1,0.729410518540276,red,2,3,960.476699717708,798.172220171528,1051.86052685176,560.109211414741,708.616172865948,838.063008756786,960.476699717708,798.172220171528,1051.86052685176,560.109211414741,891.383827134052,361.936991243214,639.523300282292,401.827779828472,548.13947314824,639.890788585259,0,4,0,0,0,0,horizontal,horizontal,vertical,vertical,horizontal,horizontal
1d,12,100234,2,30,94,19,M,NA,constant,homogeneous,3,absent,0.519917964935303,1,vertical,vertical,1,0.964702370431688,red,2,NaN,1038.06300875679,508.616172865948,NaN,NaN,760.109211414741,851.86052685176,1038.06300875679,508.616172865948,601.827779828472,439.523300282291,NaN,NaN,NaN,NaN,NaN,NaN,0,4,0,NaN,NaN,NaN,vertical,vertical,vertical,none,none,none
1d,12,100234,2,31,95,19,M,NA,constant,homogeneous,3,absent,0.592387914657593,0,horizontal,vertical,1,1.09411288897196,red,3,NaN,545.349468637584,586.654331158049,NaN,NaN,915.767577433584,827.206663668034,938.882953928832,386.139005173917,545.349468637584,586.654331158049,NaN,NaN,NaN,NaN,NaN,NaN,0,0,4,NaN,NaN,NaN,vertical,vertical,horizontal,none,none,none
1d,12,100234,2,32,96,19,M,NA,constant,homogeneous,6,present,0.636842966079712,1,vertical,vertical,1,0.635293777783712,red,3,6,1054.96116226488,595.549636358493,545.03883773512,604.450363641507,676.373546837184,823.028025320546,931.334709102064,818.577661679039,1054.96116226488,595.549636358493,923.626453162816,376.971974679454,668.665290897936,381.422338320961,545.03883773512,604.450363641507,0,0,4,0,0,0,horizontal,horizontal,vertical,vertical,horizontal,vertical
1d,12,100234,2,33,97,19,M,NA,constant,homogeneous,4,present,0.522045135498047,1,vertical,vertical,1,0.988231555620829,red,2,1,1052.5183575291,564.510859255183,835.489140744817,852.518357529101,835.489140744817,852.518357529101,1052.5183575291,564.510859255183,764.510859255183,347.4816424709,547.481642470899,635.489140744817,NaN,NaN,NaN,NaN,0,4,0,0,NaN,NaN,vertical,vertical,horizontal,vertical,none,none
1d,12,100234,2,34,98,19,M,NA,constant,homogeneous,3,absent,0.500493049621582,1,horizontal,horizontal,1,1.01176074080997,red,2,NaN,1043.85771277057,525.445215295702,NaN,NaN,742.637481142314,848.464366520235,1043.85771277057,525.445215295702,613.504806087112,426.090418184063,NaN,NaN,NaN,NaN,NaN,NaN,0,4,0,NaN,NaN,NaN,vertical,horizontal,vertical,none,none,none
1d,12,100234,2,35,99,19,M,NA,constant,homogeneous,3,present,0.728092908859253,1,vertical,vertical,1,0.658822962972853,red,1,3,874.554784704298,843.857712770574,551.535633479765,542.637481142314,874.554784704298,843.857712770574,973.909581815937,413.504806087112,551.535633479765,542.637481142314,NaN,NaN,NaN,NaN,NaN,NaN,4,0,0,NaN,NaN,NaN,vertical,horizontal,horizontal,none,none,none
1d,12,100234,2,36,100,19,M,NA,constant,homogeneous,4,absent,0.732379913330078,1,vertical,vertical,1,0.870585629675123,red,4,NaN,591.116228706307,453.738008730483,NaN,NaN,653.738008730483,808.883771293693,1008.88377129369,746.261991269517,946.261991269517,391.116228706307,591.116228706307,453.738008730483,NaN,NaN,NaN,NaN,0,0,0,4,NaN,NaN,horizontal,horizontal,horizontal,vertical,none,none
1d,12,100234,2,37,101,19,M,NA,constant,homogeneous,3,absent,0.528082132339478,1,horizontal,horizontal,1,0.647058370378282,red,2,NaN,1054.84466088987,591.100628340862,NaN,NaN,680.284751489598,825.151636179026,1054.84466088987,591.100628340862,664.870587620533,383.747735480111,NaN,NaN,NaN,NaN,NaN,NaN,0,4,0,NaN,NaN,NaN,horizontal,horizontal,horizontal,none,none,none
1d,12,100234,2,38,102,19,M,NA,constant,homogeneous,6,absent,0.948516845703125,1,vertical,vertical,1,0.670587555567423,red,6,NaN,632.704947607421,792.450942956807,NaN,NaN,883.019879386575,841.107236777826,1050.31493177915,648.656293821019,967.295052392579,407.549057043193,716.980120613425,358.892763222174,549.685068220846,551.343706178981,632.704947607421,792.450942956807,0,0,0,0,0,4,horizontal,horizontal,horizontal,horizontal,horizontal,vertical
1d,12,100234,2,39,103,19,M,NA,constant,homogeneous,6,present,0.718816995620728,1,vertical,vertical,1,0.764704296323988,red,3,6,1050.31493177915,551.343706178981,549.685068220846,648.656293821019,716.980120613425,841.107236777826,967.295052392579,792.450942956807,1050.31493177915,551.343706178981,883.019879386575,358.892763222174,632.704947607421,407.549057043193,549.685068220846,648.656293821019,0,0,4,0,0,0,horizontal,horizontal,vertical,vertical,vertical,horizontal
1d,12,100234,2,40,104,19,M,NA,constant,homogeneous,3,absent,0.757400989532471,1,horizontal,horizontal,1,0.7999980741077,red,1,NaN,927.5,820.836477965032,NaN,NaN,927.5,820.836477965032,927.5,379.163522034968,545,600,NaN,NaN,NaN,NaN,NaN,NaN,4,0,0,NaN,NaN,NaN,horizontal,vertical,horizontal,none,none,none
1d,12,100234,2,41,105,19,M,NA,constant,homogeneous,5,present,0.649235010147095,1,horizontal,horizontal,1,1.02352533340454,red,4,5,755.719714694933,348.874022981887,547.481642470899,564.510859255183,688.215357568785,829.192481806288,983.431649086356,777.137884467044,1025.15163617903,480.284751489598,755.719714694933,348.874022981887,547.481642470899,564.510859255183,NaN,NaN,0,0,0,4,0,NaN,vertical,horizontal,vertical,horizontal,horizontal,none
1d,12,100234,2,42,106,19,M,NA,constant,homogeneous,6,absent,0.871393918991089,1,vertical,vertical,1,0.847056444485982,red,4,NaN,755.719714694933,348.874022981887,NaN,NaN,844.280285305067,851.125977018113,1039.62161830041,687.215136548046,995.341332995339,436.089159529932,755.719714694933,348.874022981887,560.378381699593,512.784863451954,604.658667004661,763.910840470068,0,0,0,4,0,0,vertical,vertical,vertical,vertical,vertical,horizontal
1d,12,100234,2,43,107,19,M,NA,constant,homogeneous,5,present,0.582015037536621,1,horizontal,horizontal,1,0.847056444485982,red,4,3,572.793336331966,484.232422566416,839.890788585259,348.13947314824,915.767577433584,827.206663668034,1051.86052685176,560.109211414741,839.890788585259,348.13947314824,572.793336331966,484.232422566416,619.68777079743,780.31222920257,NaN,NaN,0,0,0,4,0,NaN,vertical,horizontal,vertical,horizontal,horizontal,none
1d,12,100234,2,44,108,19,M,NA,constant,homogeneous,3,absent,0.640114784240723,1,vertical,vertical,1,0.905879407458835,red,3,NaN,746.982518841471,350.57236181288,NaN,NaN,610.498069503264,770.628304621509,1042.51941165526,678.799333565612,746.982518841471,350.57236181288,NaN,NaN,NaN,NaN,NaN,NaN,0,0,4,NaN,NaN,NaN,vertical,vertical,vertical,none,none,none
1d,12,100234,2,45,109,19,M,NA,constant,homogeneous,3,present,0.532778978347778,1,horizontal,horizontal,1,0.788233481513129,red,3,2,676.373546837184,376.971974679454,1054.96116226488,604.450363641507,668.665290897936,818.577661679039,1054.96116226488,604.450363641507,676.373546837184,376.971974679454,NaN,NaN,NaN,NaN,NaN,NaN,0,0,4,NaN,NaN,NaN,vertical,horizontal,horizontal,none,none,none
1d,12,100234,2,46,110,19,M,NA,constant,homogeneous,6,present,0.983405113220215,1,horizontal,horizontal,1,0.7999980741077,red,1,2,915.767577433584,827.206663668034,1054.65053136242,613.345668841951,915.767577433584,827.206663668034,1054.65053136242,613.345668841951,938.882953928832,386.139005173917,684.232422566416,372.793336331966,545.349468637584,586.654331158049,661.117046071168,813.860994826083,4,0,0,0,0,0,horizontal,horizontal,vertical,vertical,horizontal,vertical
1d,12,100234,2,47,111,19,M,NA,constant,homogeneous,5,absent,0.658574819564819,1,horizontal,horizontal,1,0.776468888918559,red,5,NaN,553.688914296288,534.001143498857,NaN,NaN,661.117046071168,813.860994826083,960.476699717708,798.172220171528,1038.06300875679,508.616172865948,786.654331158049,345.349468637584,553.688914296288,534.001143498857,NaN,NaN,0,0,0,0,4,NaN,vertical,vertical,horizontal,vertical,horizontal,none
1d,12,100234,2,48,112,19,M,NA,constant,homogeneous,6,present,0.938685894012451,1,horizontal,horizontal,1,0.729410518540276,red,1,3,835.489140744817,852.518357529101,1000.94274216971,443.006323791957,835.489140744817,852.518357529101,1036.43188291453,695.524681321058,1000.94274216971,443.006323791957,764.510859255183,347.4816424709,563.568117085469,504.475318678942,599.057257830286,756.993676208043,4,0,0,0,0,0,horizontal,vertical,horizontal,vertical,horizontal,vertical
1d,12,100234,2,49,113,19,M,NA,constant,homogeneous,6,present,0.548514842987061,1,vertical,vertical,1,0.952937777837118,red,4,3,915.767577433584,372.793336331966,1054.65053136242,586.654331158049,684.232422566416,827.206663668034,938.882953928832,813.860994826083,1054.65053136242,586.654331158049,915.767577433584,372.793336331966,661.117046071168,386.139005173917,545.349468637584,613.345668841951,0,0,0,4,0,0,vertical,vertical,horizontal,vertical,horizontal,horizontal
1d,12,100234,2,50,114,19,M,NA,constant,homogeneous,4,absent,0.621989011764526,1,horizontal,horizontal,1,0.717645925945706,red,2,NaN,1039.62161830041,687.215136548046,NaN,NaN,712.784863451954,839.621618300407,1039.62161830041,687.215136548046,887.215136548046,360.378381699593,560.378381699593,512.784863451954,NaN,NaN,NaN,NaN,0,4,0,0,NaN,NaN,horizontal,horizontal,vertical,vertical,none,none
1d,12,100234,2,51,115,19,M,NA,constant,homogeneous,5,absent,0.606087923049927,1,vertical,vertical,1,0.976466963026259,red,4,NaN,692.232343256122,368.891514305654,NaN,NaN,751.343706178981,850.314931779154,1023.02802532055,723.626453162816,986.495193912888,426.090418184063,692.232343256122,368.891514305654,546.900731331463,631.076682568313,NaN,NaN,0,0,0,4,0,NaN,horizontal,vertical,horizontal,vertical,vertical,none
1d,12,100234,2,52,116,19,M,NA,constant,homogeneous,4,present,0.988004922866821,1,vertical,vertical,1,0.670587555567423,red,2,3,1043.85771277057,525.445215295702,725.445215295702,356.142287229426,874.554784704298,843.857712770574,1043.85771277057,525.445215295702,725.445215295702,356.142287229426,556.142287229426,674.554784704298,NaN,NaN,NaN,NaN,0,4,0,0,NaN,NaN,horizontal,vertical,horizontal,vertical,none,none
1d,12,100234,2,53,117,19,M,NA,constant,homogeneous,4,absent,0.856929063796997,0,horizontal,vertical,1,0.635293777783712,red,1,NaN,915.767577433584,827.206663668034,NaN,NaN,915.767577433584,827.206663668034,1027.20666366803,484.232422566416,684.232422566416,372.793336331966,572.793336331966,715.767577433584,NaN,NaN,NaN,NaN,4,0,0,0,NaN,NaN,horizontal,horizontal,vertical,vertical,none,none
1d,12,100234,2,54,118,19,M,NA,constant,homogeneous,4,present,0.823584079742432,1,horizontal,horizontal,1,1.09411288897196,red,2,3,1000.94274216971,756.993676208043,956.993676208043,399.057257830286,643.006323791957,800.942742169714,1000.94274216971,756.993676208043,956.993676208043,399.057257830286,599.057257830286,443.006323791957,NaN,NaN,NaN,NaN,0,4,0,0,NaN,NaN,horizontal,horizontal,horizontal,vertical,none,none
1d,12,100234,2,55,119,19,M,NA,constant,homogeneous,3,present,0.729743003845215,1,vertical,vertical,1,1.08234829637739,red,3,2,721.200666434388,357.480588344736,1049.42763818712,653.017481158529,629.371695378491,789.501930496736,1049.42763818712,653.017481158529,721.200666434388,357.480588344736,NaN,NaN,NaN,NaN,NaN,NaN,0,0,4,NaN,NaN,NaN,horizontal,horizontal,vertical,none,none,none
1d,12,100234,2,56,120,19,M,NA,constant,homogeneous,5,absent,0.612834930419922,1,horizontal,horizontal,1,0.7999980741077,red,3,NaN,911.784642431215,370.807518193712,NaN,NaN,844.280285305067,851.125977018113,1052.5183575291,635.489140744817,911.784642431215,370.807518193712,616.568350913644,422.862115532956,574.848363820974,719.715248510402,NaN,NaN,0,0,4,0,0,NaN,horizontal,horizontal,horizontal,horizontal,horizontal,none
1d,12,100234,2,57,121,19,M,NA,constant,homogeneous,4,absent,0.651057958602905,1,vertical,vertical,1,1.08234829637739,red,1,NaN,949.885239334581,806.299333565612,NaN,NaN,949.885239334581,806.299333565612,1006.29933356561,450.114760665419,650.114760665419,393.700666434388,593.700666434388,749.885239334581,NaN,NaN,NaN,NaN,4,0,0,0,NaN,NaN,vertical,vertical,vertical,horizontal,none,none
1d,12,100234,2,58,122,19,M,NA,constant,homogeneous,4,present,0.663305044174194,1,horizontal,horizontal,1,0.752939703729418,red,1,4,861.690083377915,847.425410200379,552.574589799621,661.690083377915,861.690083377915,847.425410200379,1047.42541020038,538.309916622085,738.309916622085,352.574589799621,552.574589799621,661.690083377915,NaN,NaN,NaN,NaN,4,0,0,0,NaN,NaN,horizontal,vertical,horizontal,horizontal,none,none
1d,12,100234,2,59,123,19,M,NA,constant,homogeneous,6,absent,0.720698833465576,1,horizontal,horizontal,1,0.6,red,1,NaN,746.982518841471,849.42763818712,NaN,NaN,746.982518841471,849.42763818712,989.501930496736,770.628304621509,1042.51941165526,521.200666434388,853.017481158529,350.57236181288,610.498069503264,429.371695378491,557.480588344736,678.799333565612,4,0,0,0,0,0,horizontal,vertical,horizontal,horizontal,vertical,horizontal
1d,12,100234,2,60,124,19,M,NA,constant,homogeneous,5,present,0.574131011962891,1,horizontal,horizontal,1,0.729410518540276,red,1,5,874.554784704298,843.857712770574,591.116228706307,746.261991269517,874.554784704298,843.857712770574,1054.96116226488,604.450363641507,883.019879386575,358.892763222174,596.34794493794,446.537169096228,591.116228706307,746.261991269517,NaN,NaN,4,0,0,0,0,NaN,horizontal,horizontal,vertical,vertical,vertical,none
1d,12,100234,2,61,125,19,M,NA,constant,homogeneous,4,absent,0.69768500328064,1,horizontal,horizontal,1,0.611764592594571,red,3,NaN,688.215357568785,370.807518193712,NaN,NaN,911.784642431215,829.192481806288,1029.19248180629,488.215357568785,688.215357568785,370.807518193712,570.807518193712,711.784642431215,NaN,NaN,NaN,NaN,0,0,4,0,NaN,NaN,vertical,vertical,horizontal,horizontal,none,none
1d,12,100234,2,62,126,19,M,NA,constant,homogeneous,6,present,0.560778141021729,0,horizontal,vertical,1,1.04705451859368,red,2,4,1053.09926866854,631.076682568313,700.363562235235,365.271262369628,899.636437764765,834.728737630372,1053.09926866854,631.076682568313,953.462830903772,396.34794493794,700.363562235235,365.271262369628,546.900731331463,568.923317431687,646.537169096228,803.65205506206,0,4,0,0,0,0,horizontal,horizontal,horizontal,horizontal,horizontal,vertical
1d,12,100234,2,63,127,19,M,NA,constant,homogeneous,5,present,0.880650997161865,1,vertical,vertical,1,1.03528992599911,red,2,1,1049.42763818712,653.017481158529,826.654758133252,853.60308331891,826.654758133252,853.60308331891,1049.42763818712,653.017481158529,927.5,379.163522034968,629.371695378491,410.498069503264,567.045908301137,703.717843984329,NaN,NaN,0,4,0,0,0,NaN,vertical,vertical,horizontal,vertical,horizontal,none
1d,12,100234,2,64,128,19,M,NA,constant,homogeneous,4,absent,0.632429122924805,0,vertical,horizontal,1,1.09411288897196,red,4,NaN,561.936991243214,508.616172865948,NaN,NaN,708.616172865948,838.063008756786,1038.06300875679,691.383827134052,891.383827134052,361.936991243214,561.936991243214,508.616172865948,NaN,NaN,NaN,NaN,0,0,0,4,NaN,NaN,vertical,vertical,vertical,vertical,none,none
1d,12,100234,3,1,129,19,M,NA,constant,homogeneous,4,present,0.803156852722168,1,vertical,vertical,1,1.05881911118825,red,4,3,545.155339110131,608.899371659138,791.100628340862,345.155339110131,808.899371659138,854.844660889869,1054.84466088987,591.100628340862,791.100628340862,345.155339110131,545.155339110131,608.899371659138,NaN,NaN,NaN,NaN,0,0,0,4,NaN,NaN,vertical,horizontal,vertical,vertical,none,none
1d,12,100234,3,2,130,19,M,NA,constant,homogeneous,3,absent,0.61207914352417,1,vertical,vertical,1,0.835291851891412,red,1,NaN,586.139005173917,738.882953928832,NaN,NaN,586.139005173917,738.882953928832,1027.20666366803,715.767577433584,786.654331158049,345.349468637584,NaN,NaN,NaN,NaN,NaN,NaN,4,0,0,NaN,NaN,NaN,vertical,vertical,horizontal,none,none,none
1d,12,100234,3,3,131,19,M,NA,constant,homogeneous,6,present,0.652961015701294,1,horizontal,horizontal,1,0.823527259296841,red,1,6,782.212099195248,854.378832816255,570.807518193712,711.784642431215,782.212099195248,854.378832816255,1011.40458100154,742.594190385041,1029.19248180629,488.215357568785,817.787900804752,345.621167183745,588.595418998464,457.40580961496,570.807518193712,711.784642431215,4,0,0,0,0,0,horizontal,horizontal,vertical,horizontal,horizontal,vertical
1d,12,100234,3,4,132,19,M,NA,constant,homogeneous,5,absent,0.545325040817261,1,vertical,vertical,1,0.952937777837118,red,5,NaN,607.549057043193,767.295052392579,NaN,NaN,899.636437764765,834.728737630372,1054.0296480134,577.775285599347,857.362518857686,351.535633479765,581.422338320961,468.665290897936,607.549057043193,767.295052392579,NaN,NaN,0,0,0,0,4,NaN,vertical,horizontal,vertical,horizontal,vertical,none
1d,12,100234,3,5,133,19,M,NA,constant,homogeneous,3,present,0.680506944656372,1,horizontal,horizontal,1,0.7999980741077,red,3,2,591.116228706307,453.738008730483,1031.10848569435,492.232343256122,777.775285599347,854.029648013395,1031.10848569435,492.232343256122,591.116228706307,453.738008730483,NaN,NaN,NaN,NaN,NaN,NaN,0,0,4,NaN,NaN,NaN,vertical,horizontal,horizontal,none,none,none
1d,12,100234,3,6,134,19,M,NA,constant,homogeneous,4,present,0.496464967727661,1,horizontal,horizontal,1,0.717645925945706,red,4,3,599.057257830286,756.993676208043,643.006323791957,399.057257830286,956.993676208043,800.942742169714,1000.94274216971,443.006323791957,643.006323791957,399.057257830286,599.057257830286,756.993676208043,NaN,NaN,NaN,NaN,0,0,0,4,NaN,NaN,vertical,horizontal,horizontal,horizontal,none,none
1d,12,100234,3,7,135,19,M,NA,constant,homogeneous,5,absent,0.502076148986816,1,vertical,vertical,1,0.976466963026259,red,3,NaN,986.495193912888,426.090418184063,NaN,NaN,751.343706178981,850.314931779154,1023.02802532055,723.626453162816,986.495193912888,426.090418184063,692.232343256122,368.891514305654,546.900731331463,631.076682568313,NaN,NaN,0,0,4,0,0,NaN,vertical,horizontal,vertical,vertical,vertical,none
1d,12,100234,3,8,136,19,M,NA,constant,homogeneous,5,present,0.66978907585144,1,horizontal,horizontal,1,0.670587555567423,red,2,3,1046.31108570371,665.998856501143,938.882953928832,386.139005173917,813.345668841951,854.650531362416,1046.31108570371,665.998856501143,938.882953928832,386.139005173917,639.523300282292,401.827779828472,561.936991243214,691.383827134052,NaN,NaN,0,4,0,0,0,NaN,vertical,horizontal,vertical,vertical,horizontal,none
1d,12,100234,3,9,137,19,M,NA,constant,homogeneous,4,absent,0.577360868453979,1,vertical,vertical,1,0.705881333351135,red,2,NaN,986.495193912888,426.090418184063,NaN,NaN,973.909581815937,786.495193912888,986.495193912888,426.090418184063,626.090418184063,413.504806087112,613.504806087112,773.909581815937,NaN,NaN,NaN,NaN,0,4,0,0,NaN,NaN,vertical,vertical,horizontal,horizontal,none,none
1d,12,100234,3,10,138,19,M,NA,constant,homogeneous,5,absent,0.649497032165527,0,horizontal,vertical,1,0.81176266670227,red,5,NaN,549.685068220846,648.656293821019,NaN,NaN,768.923317431687,853.099268668537,1031.10848569435,707.767656743878,973.909581815937,413.504806087112,676.373546837184,376.971974679454,549.685068220846,648.656293821019,NaN,NaN,0,0,0,0,4,NaN,vertical,vertical,horizontal,horizontal,horizontal,none
1d,12,100234,3,11,139,19,M,NA,constant,homogeneous,3,present,0.647803068161011,1,horizontal,horizontal,1,1.07058370378282,red,3,1,680.284751489598,374.848363820974,664.870587620533,816.252264519889,664.870587620533,816.252264519889,1054.84466088987,608.899371659138,680.284751489598,374.848363820974,NaN,NaN,NaN,NaN,NaN,NaN,0,0,4,NaN,NaN,NaN,vertical,vertical,horizontal,none,none,none
1d,12,100234,3,12,140,19,M,NA,constant,homogeneous,6,present,0.646571159362793,1,horizontal,horizontal,1,1.07058370378282,red,5,1,551.535633479765,542.637481142314,874.554784704298,843.857712770574,874.554784704298,843.857712770574,1048.46436652023,657.362518857686,973.909581815937,413.504806087112,725.445215295702,356.142287229426,551.535633479765,542.637481142314,626.090418184063,786.495193912888,0,0,0,0,4,0,vertical,vertical,vertical,horizontal,horizontal,horizontal
1d,12,100234,3,13,141,19,M,NA,constant,homogeneous,3,absent,0.675877094268799,1,horizontal,horizontal,1,0.7999980741077,red,1,NaN,956.993676208043,800.942742169714,NaN,NaN,956.993676208043,800.942742169714,895.524681321058,363.568117085469,547.481642470899,635.489140744817,NaN,NaN,NaN,NaN,NaN,NaN,4,0,0,NaN,NaN,NaN,horizontal,vertical,vertical,none,none,none
1d,12,100234,3,14,142,19,M,NA,constant,homogeneous,4,absent,0.561596870422363,1,vertical,vertical,1,0.9999961482154,red,4,NaN,551.535633479765,657.362518857686,NaN,NaN,857.362518857686,848.464366520235,1048.46436652023,542.637481142314,742.637481142314,351.535633479765,551.535633479765,657.362518857686,NaN,NaN,NaN,NaN,0,0,0,4,NaN,NaN,horizontal,horizontal,vertical,vertical,none,none
1d,12,100234,3,15,143,19,M,NA,constant,homogeneous,6,absent,0.778950929641724,1,vertical,vertical,1,0.705881333351135,red,1,NaN,760.109211414741,851.86052685176,NaN,NaN,760.109211414741,851.86052685176,998.172220171528,760.476699717708,1038.06300875679,508.616172865948,839.890788585259,348.13947314824,601.827779828472,439.523300282291,561.936991243214,691.383827134052,4,0,0,0,0,0,vertical,vertical,horizontal,horizontal,vertical,horizontal
1d,12,100234,3,16,144,19,M,NA,constant,homogeneous,6,absent,0.594931840896606,1,horizontal,horizontal,1,0.611764592594571,red,6,NaN,572.793336331966,715.767577433584,NaN,NaN,786.654331158049,854.650531362416,1013.86099482608,738.882953928832,1027.20666366803,484.232422566416,813.345668841951,345.349468637584,586.139005173917,461.117046071168,572.793336331966,715.767577433584,0,0,0,0,0,4,horizontal,horizontal,vertical,vertical,horizontal,horizontal
1d,12,100234,3,17,145,19,M,NA,constant,homogeneous,4,absent,0.421705961227417,1,horizontal,horizontal,1,0.741175111134847,red,4,NaN,548.13947314824,639.890788585259,NaN,NaN,839.890788585259,851.86052685176,1051.86052685176,560.109211414741,760.109211414741,348.13947314824,548.13947314824,639.890788585259,NaN,NaN,NaN,NaN,0,0,0,4,NaN,NaN,horizontal,horizontal,vertical,horizontal,none,none
1d,12,100234,3,18,146,19,M,NA,constant,homogeneous,4,present,0.602581024169922,1,vertical,vertical,1,0.611764592594571,red,3,4,883.019879386575,358.892763222174,558.892763222174,516.980120613425,716.980120613425,841.107236777826,1041.10723677783,683.019879386575,883.019879386575,358.892763222174,558.892763222174,516.980120613425,NaN,NaN,NaN,NaN,0,0,4,0,NaN,NaN,vertical,vertical,vertical,horizontal,none,none
1d,12,100234,3,19,147,19,M,NA,constant,homogeneous,5,present,0.725949048995972,1,vertical,vertical,1,0.752939703729418,red,1,2,895.524681321058,836.431882914531,1054.37883281626,582.212099195248,895.524681321058,836.431882914531,1054.37883281626,582.212099195248,861.690083377915,352.574589799621,583.747735480111,464.870587620533,604.658667004661,763.910840470068,NaN,NaN,4,0,0,0,0,NaN,vertical,horizontal,horizontal,horizontal,vertical,none
1d,12,100234,3,20,148,19,M,NA,constant,homogeneous,4,present,0.487334966659546,1,horizontal,horizontal,1,0.741175111134847,red,3,4,708.616172865948,361.936991243214,561.936991243214,691.383827134052,891.383827134052,838.063008756786,1038.06300875679,508.616172865948,708.616172865948,361.936991243214,561.936991243214,691.383827134052,NaN,NaN,NaN,NaN,0,0,4,0,NaN,NaN,vertical,horizontal,horizontal,vertical,none,none
1d,12,100234,3,21,149,19,M,NA,constant,homogeneous,6,absent,0.578191041946411,1,vertical,vertical,1,0.647058370378282,red,6,NaN,664.870587620533,816.252264519889,NaN,NaN,919.715248510402,825.151636179026,1054.84466088987,608.899371659138,935.129412379467,383.747735480111,680.284751489598,374.848363820974,545.155339110131,591.100628340862,664.870587620533,816.252264519889,0,0,0,0,0,4,horizontal,horizontal,horizontal,horizontal,vertical,vertical
1d,12,100234,3,22,150,19,M,NA,constant,homogeneous,4,absent,0.686812162399292,1,horizontal,horizontal,1,0.647058370378282,red,1,NaN,813.345668841951,854.650531362416,NaN,NaN,813.345668841951,854.650531362416,1054.65053136242,586.654331158049,786.654331158049,345.349468637584,545.349468637584,613.345668841951,NaN,NaN,NaN,NaN,4,0,0,0,NaN,NaN,horizontal,vertical,horizontal,vertical,none,none
1d,12,100234,3,23,151,19,M,NA,constant,homogeneous,6,present,0.526494026184082,0,horizontal,vertical,1,1.08234829637739,red,4,1,891.383827134052,361.936991243214,708.616172865948,838.063008756786,708.616172865948,838.063008756786,960.476699717708,798.172220171528,1051.86052685176,560.109211414741,891.383827134052,361.936991243214,639.523300282292,401.827779828472,548.13947314824,639.890788585259,0,0,0,4,0,0,vertical,vertical,horizontal,horizontal,vertical,vertical
1d,12,100234,3,24,152,19,M,NA,constant,homogeneous,3,absent,0.580183982849121,1,horizontal,horizontal,1,0.952937777837118,red,3,NaN,729.712474266665,354.878267535729,NaN,NaN,622.862115532956,783.431649086356,1047.42541020038,661.690083377915,729.712474266665,354.878267535729,NaN,NaN,NaN,NaN,NaN,NaN,0,0,4,NaN,NaN,NaN,vertical,vertical,horizontal,none,none,none
1d,12,100234,3,25,153,19,M,NA,constant,homogeneous,6,present,0.56697416305542,1,vertical,vertical,1,0.752939703729418,red,4,1,874.554784704298,356.142287229426,725.445215295702,843.857712770574,725.445215295702,843.857712770574,973.909581815937,786.495193912888,1048.46436652023,542.637481142314,874.554784704298,356.142287229426,626.090418184063,413.504806087112,551.535633479765,657.362518857686,0,0,0,4,0,0,vertical,vertical,horizontal,vertical,horizontal,horizontal
1d,12,100234,3,26,154,19,M,NA,constant,homogeneous,4,absent,0.596750974655151,0,vertical,horizontal,1,0.705881333351135,red,1,NaN,915.767577433584,827.206663668034,NaN,NaN,915.767577433584,827.206663668034,1027.20666366803,484.232422566416,684.232422566416,372.793336331966,572.793336331966,715.767577433584,NaN,NaN,NaN,NaN,4,0,0,0,NaN,NaN,vertical,vertical,vertical,vertical,none,none
1d,12,100234,3,27,155,19,M,NA,constant,homogeneous,4,present,0.646504163742065,1,vertical,vertical,1,0.694116740756565,red,2,4,1034.72873763037,699.636437764765,565.271262369628,500.363562235235,700.363562235235,834.728737630372,1034.72873763037,699.636437764765,899.636437764765,365.271262369628,565.271262369628,500.363562235235,NaN,NaN,NaN,NaN,0,4,0,0,NaN,NaN,horizontal,vertical,vertical,horizontal,none,none
1d,12,100234,3,28,156,19,M,NA,constant,homogeneous,4,absent,0.586388111114502,1,horizontal,horizontal,1,0.729410518540276,red,2,NaN,1016.25226451989,735.129412379467,NaN,NaN,664.870587620533,816.252264519889,1016.25226451989,735.129412379467,935.129412379467,383.747735480111,583.747735480111,464.870587620533,NaN,NaN,NaN,NaN,0,4,0,0,NaN,NaN,horizontal,horizontal,vertical,horizontal,none,none
1d,12,100234,3,29,157,19,M,NA,constant,homogeneous,4,absent,0.555166006088257,1,vertical,vertical,1,1.05881911118825,red,2,NaN,1038.06300875679,508.616172865948,NaN,NaN,891.383827134052,838.063008756786,1038.06300875679,508.616172865948,708.616172865948,361.936991243214,561.936991243214,691.383827134052,NaN,NaN,NaN,NaN,0,4,0,0,NaN,NaN,horizontal,vertical,horizontal,horizontal,none,none
1d,12,100234,3,30,158,19,M,NA,constant,homogeneous,6,present,1.0606951713562,1,horizontal,horizontal,1,0.705881333351135,red,4,1,700.363562235235,365.271262369628,899.636437764765,834.728737630372,899.636437764765,834.728737630372,1053.09926866854,631.076682568313,953.462830903772,396.34794493794,700.363562235235,365.271262369628,546.900731331463,568.923317431687,646.537169096228,803.65205506206,0,0,0,4,0,0,horizontal,vertical,horizontal,horizontal,vertical,vertical
1d,12,100234,3,31,159,19,M,NA,constant,homogeneous,3,absent,1.04373002052307,1,horizontal,horizontal,1,0.882350222269694,red,3,NaN,546.900731331463,631.076682568313,NaN,NaN,953.462830903772,803.65205506206,899.636437764765,365.271262369628,546.900731331463,631.076682568313,NaN,NaN,NaN,NaN,NaN,NaN,0,0,4,NaN,NaN,NaN,vertical,vertical,horizontal,none,none,none
1d,12,100234,3,32,160,19,M,NA,constant,homogeneous,3,absent,0.611916065216064,1,vertical,vertical,1,0.952937777837118,red,2,NaN,919.715248510402,374.848363820974,NaN,NaN,935.129412379467,816.252264519889,919.715248510402,374.848363820974,545.155339110131,608.899371659138,NaN,NaN,NaN,NaN,NaN,NaN,0,4,0,NaN,NaN,NaN,vertical,vertical,vertical,none,none,none
1d,12,100234,3,33,161,19,M,NA,constant,homogeneous,5,absent,0.628415107727051,1,horizontal,horizontal,1,0.7999980741077,red,4,NaN,712.784863451954,360.378381699593,NaN,NaN,729.712474266665,845.121732464271,1011.40458100154,742.594190385041,1000.94274216971,443.006323791957,712.784863451954,360.378381699593,545.155339110131,608.899371659138,NaN,NaN,0,0,0,4,0,NaN,horizontal,horizontal,vertical,horizontal,horizontal,none
1d,12,100234,3,34,162,19,M,NA,constant,homogeneous,3,absent,0.484930038452148,1,vertical,vertical,1,1.01176074080997,red,3,NaN,712.784863451954,360.378381699593,NaN,NaN,636.089159529932,795.341332995339,1051.12597701811,644.280285305067,712.784863451954,360.378381699593,NaN,NaN,NaN,NaN,NaN,NaN,0,0,4,NaN,NaN,NaN,vertical,horizontal,vertical,none,none,none
1d,12,100234,3,35,163,19,M,NA,constant,homogeneous,6,absent,1.24818301200867,1,horizontal,horizontal,1,0.647058370378282,red,6,NaN,561.936991243214,691.383827134052,NaN,NaN,760.109211414741,851.86052685176,998.172220171528,760.476699717708,1038.06300875679,508.616172865948,839.890788585259,348.13947314824,601.827779828472,439.523300282291,561.936991243214,691.383827134052,0,0,0,0,0,4,horizontal,vertical,horizontal,vertical,vertical,horizontal
1d,12,100234,3,36,164,19,M,NA,constant,homogeneous,4,present,0.879909992218018,1,horizontal,horizontal,1,0.917644000053406,red,1,2,883.019879386575,841.107236777826,1041.10723677783,516.980120613425,883.019879386575,841.107236777826,1041.10723677783,516.980120613425,716.980120613425,358.892763222174,558.892763222174,683.019879386575,NaN,NaN,NaN,NaN,4,0,0,0,NaN,NaN,horizontal,vertical,horizontal,vertical,none,none
1d,12,100234,3,37,165,19,M,NA,constant,homogeneous,5,present,0.969343900680542,0,horizontal,vertical,1,1.01176074080997,red,2,5,1023.02802532055,723.626453162816,546.900731331463,631.076682568313,751.343706178981,850.314931779154,1023.02802532055,723.626453162816,986.495193912888,426.090418184063,692.232343256122,368.891514305654,546.900731331463,631.076682568313,NaN,NaN,0,4,0,0,0,NaN,horizontal,horizontal,horizontal,horizontal,vertical,none
1d,12,100234,3,38,166,19,M,NA,constant,homogeneous,5,present,0.600706100463867,1,vertical,vertical,1,0.976466963026259,red,2,4,1050.31493177915,551.343706178981,568.891514305654,492.232343256122,923.626453162816,823.028025320546,1050.31493177915,551.343706178981,831.076682568313,346.900731331463,568.891514305654,492.232343256122,626.090418184063,786.495193912888,NaN,NaN,0,4,0,0,0,NaN,horizontal,vertical,vertical,horizontal,vertical,none
1d,12,100234,3,39,167,19,M,NA,constant,homogeneous,5,present,0.475161075592041,1,vertical,vertical,1,0.905879407458835,red,2,3,1054.37883281626,582.212099195248,861.690083377915,352.574589799621,895.524681321058,836.431882914531,1054.37883281626,582.212099195248,861.690083377915,352.574589799621,583.747735480111,464.870587620533,604.658667004661,763.910840470068,NaN,NaN,0,4,0,0,0,NaN,horizontal,vertical,vertical,horizontal,vertical,none
1d,12,100234,3,40,168,19,M,NA,constant,homogeneous,5,absent,0.610593795776367,1,horizontal,horizontal,1,0.694116740756565,red,3,NaN,1020.83647796503,472.5,NaN,NaN,696.282156015671,832.954091698863,989.501930496736,770.628304621509,1020.83647796503,472.5,746.982518841471,350.57236181288,546.39691668109,573.345241866748,NaN,NaN,0,0,4,0,0,NaN,horizontal,horizontal,horizontal,horizontal,vertical,none
1d,12,100234,3,41,169,19,M,NA,constant,homogeneous,5,present,0.640585899353027,0,horizontal,vertical,1,0.882350222269694,red,4,3,755.719714694933,348.874022981887,1025.15163617903,480.284751489598,688.215357568785,829.192481806288,983.431649086356,777.137884467044,1025.15163617903,480.284751489598,755.719714694933,348.874022981887,547.481642470899,564.510859255183,NaN,NaN,0,0,0,4,0,NaN,horizontal,vertical,vertical,horizontal,horizontal,none
1d,12,100234,3,42,170,19,M,NA,constant,homogeneous,3,present,0.471390962600708,1,vertical,vertical,1,0.882350222269694,red,3,2,786.654331158049,345.349468637584,1027.20666366803,715.767577433584,586.139005173917,738.882953928832,1027.20666366803,715.767577433584,786.654331158049,345.349468637584,NaN,NaN,NaN,NaN,NaN,NaN,0,0,4,NaN,NaN,NaN,vertical,horizontal,vertical,none,none,none
1d,12,100234,3,43,171,19,M,NA,constant,homogeneous,3,present,0.633366823196411,1,vertical,vertical,1,0.81176266670227,red,1,2,680.284751489598,825.151636179026,1054.84466088987,591.100628340862,680.284751489598,825.151636179026,1054.84466088987,591.100628340862,664.870587620533,383.747735480111,NaN,NaN,NaN,NaN,NaN,NaN,4,0,0,NaN,NaN,NaN,vertical,vertical,horizontal,none,none,none
1d,12,100234,3,44,172,19,M,NA,constant,homogeneous,5,absent,0.631512880325317,1,vertical,vertical,1,0.870585629675123,red,2,NaN,1038.06300875679,691.383827134052,NaN,NaN,786.654331158049,854.650531362416,1038.06300875679,691.383827134052,960.476699717708,401.827779828472,661.117046071168,386.139005173917,553.688914296288,665.998856501143,NaN,NaN,0,4,0,0,0,NaN,vertical,vertical,horizontal,vertical,vertical,none
1d,12,100234,3,45,173,19,M,NA,constant,homogeneous,6,absent,0.617429971694946,1,horizontal,horizontal,1,0.658822962972853,red,1,NaN,729.712474266665,845.121732464271,NaN,NaN,729.712474266665,845.121732464271,977.137884467044,783.431649086356,1047.42541020038,538.309916622085,870.287525733335,354.878267535729,622.862115532956,416.568350913644,552.574589799621,661.690083377915,4,0,0,0,0,0,horizontal,vertical,vertical,vertical,horizontal,vertical
1d,12,100234,3,46,174,19,M,NA,constant,homogeneous,6,absent,0.741431951522827,1,vertical,vertical,1,0.964702370431688,red,2,NaN,1038.06300875679,691.383827134052,NaN,NaN,839.890788585259,851.86052685176,1038.06300875679,691.383827134052,998.172220171528,439.523300282291,760.109211414741,348.13947314824,561.936991243214,508.616172865948,601.827779828472,760.476699717708,0,4,0,0,0,0,vertical,vertical,horizontal,vertical,vertical,vertical
1d,12,100234,3,47,175,19,M,NA,constant,homogeneous,6,absent,0.543262004852295,1,vertical,vertical,1,0.741175111134847,red,2,NaN,1027.20666366803,715.767577433584,NaN,NaN,813.345668841951,854.650531362416,1027.20666366803,715.767577433584,1013.86099482608,461.117046071168,786.654331158049,345.349468637584,572.793336331966,484.232422566416,586.139005173917,738.882953928832,0,4,0,0,0,0,vertical,vertical,horizontal,horizontal,vertical,horizontal
1d,12,100234,3,48,176,19,M,NA,constant,homogeneous,3,present,0.65339207649231,1,vertical,vertical,1,0.952937777837118,red,1,2,708.616172865948,838.063008756786,1051.86052685176,560.109211414741,708.616172865948,838.063008756786,1051.86052685176,560.109211414741,639.523300282292,401.827779828472,NaN,NaN,NaN,NaN,NaN,NaN,4,0,0,NaN,NaN,NaN,vertical,horizontal,vertical,none,none,none
1d,12,100234,3,49,177,19,M,NA,constant,homogeneous,3,absent,0.587214946746826,1,vertical,vertical,1,0.623529185189141,red,1,NaN,579.163522034968,727.5,NaN,NaN,579.163522034968,727.5,1020.83647796503,727.5,800,345,NaN,NaN,NaN,NaN,NaN,NaN,4,0,0,NaN,NaN,NaN,vertical,horizontal,horizontal,none,none,none
1d,12,100234,3,50,178,19,M,NA,constant,homogeneous,3,present,0.522102117538452,1,horizontal,horizontal,1,0.952937777837118,red,2,1,1054.65053136242,586.654331158049,684.232422566416,827.206663668034,684.232422566416,827.206663668034,1054.65053136242,586.654331158049,661.117046071168,386.139005173917,NaN,NaN,NaN,NaN,NaN,NaN,0,4,0,NaN,NaN,NaN,horizontal,horizontal,vertical,none,none,none
1d,12,100234,3,51,179,19,M,NA,constant,homogeneous,4,absent,0.582808971405029,1,horizontal,horizontal,1,0.705881333351135,red,2,NaN,1049.42763818712,546.982518841471,NaN,NaN,853.017481158529,849.42763818712,1049.42763818712,546.982518841471,746.982518841471,350.57236181288,550.57236181288,653.017481158529,NaN,NaN,NaN,NaN,0,4,0,0,NaN,NaN,horizontal,horizontal,horizontal,horizontal,none,none
1d,12,100234,3,52,180,19,M,NA,constant,homogeneous,5,absent,0.620908975601196,1,vertical,vertical,1,0.717645925945706,red,2,NaN,995.341332995339,763.910840470068,NaN,NaN,704.475318678942,836.431882914531,995.341332995339,763.910840470068,1016.25226451989,464.870587620533,738.309916622085,352.574589799621,545.621167183745,582.212099195248,NaN,NaN,0,4,0,0,0,NaN,horizontal,vertical,horizontal,vertical,vertical,none
1d,12,100234,3,53,181,19,M,NA,constant,homogeneous,4,present,0.622028112411499,1,vertical,vertical,1,0.623529185189141,red,2,3,1054.96116226488,604.450363641507,804.450363641507,345.03883773512,795.549636358493,854.96116226488,1054.96116226488,604.450363641507,804.450363641507,345.03883773512,545.03883773512,595.549636358493,NaN,NaN,NaN,NaN,0,4,0,0,NaN,NaN,horizontal,vertical,vertical,vertical,none,none
1d,12,100234,3,54,182,19,M,NA,constant,homogeneous,4,present,0.563076972961426,1,horizontal,horizontal,1,1.03528992599911,red,2,3,983.431649086356,777.137884467044,977.137884467044,416.568350913644,622.862115532956,783.431649086356,983.431649086356,777.137884467044,977.137884467044,416.568350913644,616.568350913644,422.862115532956,NaN,NaN,NaN,NaN,0,4,0,0,NaN,NaN,vertical,horizontal,horizontal,vertical,none,none
1d,12,100234,3,55,183,19,M,NA,constant,homogeneous,6,absent,0.690155029296875,1,horizontal,horizontal,1,0.988231555620829,red,4,NaN,883.019879386575,358.892763222174,NaN,NaN,716.980120613425,841.107236777826,967.295052392579,792.450942956807,1050.31493177915,551.343706178981,883.019879386575,358.892763222174,632.704947607421,407.549057043193,549.685068220846,648.656293821019,0,0,0,4,0,0,horizontal,horizontal,horizontal,horizontal,vertical,vertical
1d,12,100234,3,56,184,19,M,NA,constant,homogeneous,3,present,0.557832002639771,1,vertical,vertical,1,0.894114814864265,red,1,2,1000.94274216971,756.993676208043,835.489140744817,347.4816424709,1000.94274216971,756.993676208043,835.489140744817,347.4816424709,563.568117085469,695.524681321058,NaN,NaN,NaN,NaN,NaN,NaN,4,0,0,NaN,NaN,NaN,vertical,vertical,horizontal,none,none,none
1d,12,100234,3,57,185,19,M,NA,constant,homogeneous,5,absent,0.675111055374146,1,horizontal,horizontal,1,0.694116740756565,red,1,NaN,891.383827134052,838.063008756786,NaN,NaN,891.383827134052,838.063008756786,1054.65053136242,586.654331158049,865.998856501143,353.688914296288,586.139005173917,461.117046071168,601.827779828472,760.476699717708,NaN,NaN,4,0,0,0,0,NaN,horizontal,horizontal,horizontal,vertical,vertical,none
1d,12,100234,3,58,186,19,M,NA,constant,homogeneous,6,present,0.798906087875366,1,vertical,vertical,1,0.905879407458835,red,6,2,545.03883773512,604.450363641507,931.334709102064,818.577661679039,676.373546837184,823.028025320546,931.334709102064,818.577661679039,1054.96116226488,595.549636358493,923.626453162816,376.971974679454,668.665290897936,381.422338320961,545.03883773512,604.450363641507,0,0,0,0,0,4,horizontal,vertical,vertical,horizontal,horizontal,vertical
1d,12,100234,3,59,187,19,M,NA,constant,homogeneous,5,present,0.512265920639038,1,vertical,vertical,1,1.05881911118825,red,3,5,995.341332995339,436.089159529932,545.621167183745,617.787900804752,738.309916622085,847.425410200379,1016.25226451989,735.129412379467,995.341332995339,436.089159529932,704.475318678942,363.568117085469,545.621167183745,617.787900804752,NaN,NaN,0,0,4,0,0,NaN,vertical,vertical,vertical,horizontal,horizontal,none
1d,12,100234,3,60,188,19,M,NA,constant,homogeneous,6,present,0.58577299118042,1,vertical,vertical,1,0.752939703729418,red,2,1,980.31222920257,780.31222920257,734.001143498857,846.311085703712,734.001143498857,846.311085703712,980.31222920257,780.31222920257,1046.31108570371,534.001143498857,865.998856501143,353.688914296288,619.68777079743,419.68777079743,553.688914296288,665.998856501143,0,4,0,0,0,0,horizontal,vertical,horizontal,horizontal,vertical,vertical
1d,12,100234,3,61,189,19,M,NA,constant,homogeneous,3,present,0.439327001571655,1,horizontal,horizontal,1,1.09411288897196,red,3,2,586.139005173917,461.117046071168,1027.20666366803,484.232422566416,786.654331158049,854.650531362416,1027.20666366803,484.232422566416,586.139005173917,461.117046071168,NaN,NaN,NaN,NaN,NaN,NaN,0,0,4,NaN,NaN,NaN,vertical,vertical,horizontal,none,none,none
1d,12,100234,3,62,190,19,M,NA,constant,homogeneous,6,present,0.564279079437256,1,vertical,vertical,1,1.01176074080997,red,3,5,1043.85771277057,525.445215295702,613.504806087112,426.090418184063,742.637481142314,848.464366520235,986.495193912888,773.909581815937,1043.85771277057,525.445215295702,857.362518857686,351.535633479765,613.504806087112,426.090418184063,556.142287229426,674.554784704298,0,0,4,0,0,0,vertical,vertical,vertical,vertical,vertical,vertical
1d,12,100234,3,63,191,19,M,NA,constant,homogeneous,3,absent,0.507251024246216,1,horizontal,horizontal,1,0.952937777837118,red,3,NaN,650.114760665419,393.700666434388,NaN,NaN,696.282156015671,832.954091698863,1053.60308331891,573.345241866748,650.114760665419,393.700666434388,NaN,NaN,NaN,NaN,NaN,NaN,0,0,4,NaN,NaN,NaN,horizontal,horizontal,horizontal,none,none,none
1d,12,100234,3,64,192,19,M,NA,constant,homogeneous,5,present,0.555114984512329,1,horizontal,horizontal,1,0.682352148161994,red,2,4,989.501930496736,770.628304621509,746.982518841471,350.57236181288,696.282156015671,832.954091698863,989.501930496736,770.628304621509,1020.83647796503,472.5,746.982518841471,350.57236181288,546.39691668109,573.345241866748,NaN,NaN,0,4,0,0,0,NaN,horizontal,horizontal,vertical,horizontal,vertical,none
1d,12,100234,4,1,193,19,M,NA,constant,homogeneous,3,absent,0.627281904220581,1,vertical,vertical,1,1.05881911118825,red,3,NaN,561.936991243214,508.616172865948,NaN,NaN,839.890788585259,851.86052685176,998.172220171528,439.523300282291,561.936991243214,508.616172865948,NaN,NaN,NaN,NaN,NaN,NaN,0,0,4,NaN,NaN,NaN,vertical,vertical,vertical,none,none,none
1d,12,100234,4,2,194,19,M,NA,constant,homogeneous,3,absent,0.54456901550293,1,horizontal,horizontal,1,0.823527259296841,red,2,NaN,1051.86052685176,639.890788585259,NaN,NaN,639.523300282292,798.172220171528,1051.86052685176,639.890788585259,708.616172865948,361.936991243214,NaN,NaN,NaN,NaN,NaN,NaN,0,4,0,NaN,NaN,NaN,horizontal,horizontal,horizontal,none,none,none
1d,12,100234,4,3,195,19,M,NA,constant,homogeneous,6,present,0.611567974090576,1,vertical,vertical,1,1.01176074080997,red,2,5,980.31222920257,780.31222920257,619.68777079743,419.68777079743,734.001143498857,846.311085703712,980.31222920257,780.31222920257,1046.31108570371,534.001143498857,865.998856501143,353.688914296288,619.68777079743,419.68777079743,553.688914296288,665.998856501143,0,4,0,0,0,0,vertical,vertical,horizontal,vertical,vertical,vertical
1d,12,100234,4,4,196,19,M,NA,constant,homogeneous,6,present,0.695101976394653,1,horizontal,horizontal,1,0.941173185242547,red,6,4,643.006323791957,800.942742169714,704.475318678942,363.568117085469,895.524681321058,836.431882914531,1052.5183575291,635.489140744817,956.993676208043,399.057257830286,704.475318678942,363.568117085469,547.481642470899,564.510859255183,643.006323791957,800.942742169714,0,0,0,0,0,4,vertical,horizontal,horizontal,horizontal,vertical,horizontal
1d,12,100234,4,5,197,19,M,NA,constant,homogeneous,3,present,0.560672044754028,1,horizontal,horizontal,1,0.964702370431688,red,1,2,960.476699717708,798.172220171528,891.383827134052,361.936991243214,960.476699717708,798.172220171528,891.383827134052,361.936991243214,548.13947314824,639.890788585259,NaN,NaN,NaN,NaN,NaN,NaN,4,0,0,NaN,NaN,NaN,horizontal,vertical,horizontal,none,none,none
1d,12,100234,4,6,198,19,M,NA,constant,homogeneous,6,present,0.586997985839844,1,vertical,vertical,1,0.752939703729418,red,6,3,632.704947607421,792.450942956807,967.295052392579,407.549057043193,883.019879386575,841.107236777826,1050.31493177915,648.656293821019,967.295052392579,407.549057043193,716.980120613425,358.892763222174,549.685068220846,551.343706178981,632.704947607421,792.450942956807,0,0,0,0,0,4,horizontal,horizontal,vertical,horizontal,horizontal,vertical
1d,12,100234,4,7,199,19,M,NA,constant,homogeneous,5,present,0.530561923980713,1,horizontal,horizontal,1,0.976466963026259,red,2,4,1025.15163617903,719.715248510402,688.215357568785,370.807518193712,755.719714694933,851.125977018113,1025.15163617903,719.715248510402,983.431649086356,422.862115532956,688.215357568785,370.807518193712,547.481642470899,635.489140744817,NaN,NaN,0,4,0,0,0,NaN,horizontal,horizontal,vertical,horizontal,vertical,none
1d,12,100234,4,8,200,19,M,NA,constant,homogeneous,5,present,0.758815050125122,1,horizontal,horizontal,1,0.670587555567423,red,3,4,874.554784704298,356.142287229426,591.116228706307,453.738008730483,883.019879386575,841.107236777826,1054.96116226488,595.549636358493,874.554784704298,356.142287229426,591.116228706307,453.738008730483,596.34794493794,753.462830903772,NaN,NaN,0,0,4,0,0,NaN,horizontal,horizontal,horizontal,horizontal,vertical,none
1d,12,100234,4,9,201,19,M,NA,constant,homogeneous,4,absent,0.577471971511841,1,vertical,vertical,1,0.776468888918559,red,1,NaN,692.232343256122,831.108485694346,NaN,NaN,692.232343256122,831.108485694346,1031.10848569435,707.767656743878,907.767656743878,368.891514305654,568.891514305654,492.232343256122,NaN,NaN,NaN,NaN,4,0,0,0,NaN,NaN,vertical,vertical,vertical,vertical,none,none
1d,12,100234,4,10,202,19,M,NA,constant,homogeneous,4,absent,1.05026412010193,1,vertical,vertical,1,1.03528992599911,red,4,NaN,565.271262369628,500.363562235235,NaN,NaN,700.363562235235,834.728737630372,1034.72873763037,699.636437764765,899.636437764765,365.271262369628,565.271262369628,500.363562235235,NaN,NaN,NaN,NaN,0,0,0,4,NaN,NaN,vertical,horizontal,vertical,vertical,none,none
1d,12,100234,4,11,203,19,M,NA,constant,homogeneous,4,present,0.677489995956421,1,horizontal,horizontal,1,0.705881333351135,red,4,1,563.568117085469,504.475318678942,704.475318678942,836.431882914531,704.475318678942,836.431882914531,1036.43188291453,695.524681321058,895.524681321058,363.568117085469,563.568117085469,504.475318678942,NaN,NaN,NaN,NaN,0,0,0,4,NaN,NaN,horizontal,horizontal,vertical,horizontal,none,none
1d,12,100234,4,12,204,19,M,NA,constant,homogeneous,6,absent,0.605988025665283,1,vertical,vertical,1,0.941173185242547,red,5,NaN,556.142287229426,525.445215295702,NaN,NaN,857.362518857686,848.464366520235,1043.85771277057,674.554784704298,986.495193912888,426.090418184063,742.637481142314,351.535633479765,556.142287229426,525.445215295702,613.504806087112,773.909581815937,0,0,0,0,4,0,horizontal,vertical,vertical,horizontal,vertical,vertical
1d,12,100234,4,13,205,19,M,NA,constant,homogeneous,4,absent,0.660030841827393,1,vertical,vertical,1,1.09411288897196,red,3,NaN,927.5,379.163522034968,NaN,NaN,672.5,820.836477965032,1020.83647796503,727.5,927.5,379.163522034968,579.163522034968,472.5,NaN,NaN,NaN,NaN,0,0,4,0,NaN,NaN,horizontal,vertical,vertical,horizontal,none,none
1d,12,100234,4,14,206,19,M,NA,constant,homogeneous,3,present,0.62657904624939,1,horizontal,horizontal,1,1.05881911118825,red,1,3,650.114760665419,806.299333565612,696.282156015671,367.045908301137,650.114760665419,806.299333565612,1053.60308331891,626.654758133252,696.282156015671,367.045908301137,NaN,NaN,NaN,NaN,NaN,NaN,4,0,0,NaN,NaN,NaN,horizontal,vertical,vertical,none,none,none
1d,12,100234,4,15,207,19,M,NA,constant,homogeneous,6,present,0.517405986785889,1,vertical,vertical,1,0.705881333351135,red,4,1,903.717843984329,367.045908301137,696.282156015671,832.954091698863,696.282156015671,832.954091698863,949.885239334581,806.299333565612,1053.60308331891,573.345241866748,903.717843984329,367.045908301137,650.114760665419,393.700666434388,546.39691668109,626.654758133252,0,0,0,4,0,0,horizontal,horizontal,vertical,vertical,horizontal,horizontal
1d,12,100234,4,16,208,19,M,NA,constant,homogeneous,4,absent,0.504405975341797,0,horizontal,vertical,1,0.81176266670227,red,4,NaN,586.139005173917,738.882953928832,NaN,NaN,938.882953928832,813.860994826083,1013.86099482608,461.117046071168,661.117046071168,386.139005173917,586.139005173917,738.882953928832,NaN,NaN,NaN,NaN,0,0,0,4,NaN,NaN,vertical,vertical,vertical,horizontal,none,none
1d,12,100234,4,17,209,19,M,NA,constant,homogeneous,3,present,0.595278978347778,1,horizontal,horizontal,1,0.635293777783712,red,3,2,576.971974679454,723.626453162816,804.450363641507,345.03883773512,1018.57766167904,731.334709102064,804.450363641507,345.03883773512,576.971974679454,723.626453162816,NaN,NaN,NaN,NaN,NaN,NaN,0,0,4,NaN,NaN,NaN,vertical,horizontal,horizontal,none,none,none
1d,12,100234,4,18,210,19,M,NA,constant,homogeneous,3,absent,0.557148933410645,1,vertical,vertical,1,0.894114814864265,red,3,NaN,668.665290897936,381.422338320961,NaN,NaN,676.373546837184,823.028025320546,1054.96116226488,595.549636358493,668.665290897936,381.422338320961,NaN,NaN,NaN,NaN,NaN,NaN,0,0,4,NaN,NaN,NaN,horizontal,horizontal,vertical,none,none,none
1d,12,100234,4,19,211,19,M,NA,constant,homogeneous,3,absent,0.552953958511353,1,horizontal,horizontal,1,0.623529185189141,red,2,NaN,808.899371659138,345.155339110131,NaN,NaN,1016.25226451989,735.129412379467,808.899371659138,345.155339110131,574.848363820974,719.715248510402,NaN,NaN,NaN,NaN,NaN,NaN,0,4,0,NaN,NaN,NaN,horizontal,horizontal,horizontal,none,none,none
1d,12,100234,4,20,212,19,M,NA,constant,homogeneous,5,present,0.992154121398926,1,horizontal,horizontal,1,1.01176074080997,red,2,5,1052.5183575291,564.510859255183,616.568350913644,777.137884467044,911.784642431215,829.192481806288,1052.5183575291,564.510859255183,844.280285305067,348.874022981887,574.848363820974,480.284751489598,616.568350913644,777.137884467044,NaN,NaN,0,4,0,0,0,NaN,horizontal,horizontal,horizontal,horizontal,vertical,none
1d,12,100234,4,21,213,19,M,NA,constant,homogeneous,5,absent,1.03488397598267,1,vertical,vertical,1,0.717645925945706,red,4,NaN,572.793336331966,484.232422566416,NaN,NaN,915.767577433584,827.206663668034,1051.86052685176,560.109211414741,839.890788585259,348.13947314824,572.793336331966,484.232422566416,619.68777079743,780.31222920257,NaN,NaN,0,0,0,4,0,NaN,vertical,horizontal,horizontal,vertical,vertical,none
1d,12,100234,4,22,214,19,M,NA,constant,homogeneous,4,present,0.579375982284546,1,horizontal,horizontal,1,0.976466963026259,red,2,1,1032.95409169886,703.717843984329,696.282156015671,832.954091698863,696.282156015671,832.954091698863,1032.95409169886,703.717843984329,903.717843984329,367.045908301137,567.045908301137,496.282156015671,NaN,NaN,NaN,NaN,0,4,0,0,NaN,NaN,vertical,horizontal,vertical,vertical,none,none
1d,12,100234,4,23,215,19,M,NA,constant,homogeneous,4,present,0.5243239402771,1,horizontal,horizontal,1,0.858821037080553,red,2,4,989.501930496736,429.371695378491,610.498069503264,770.628304621509,970.628304621509,789.501930496736,989.501930496736,429.371695378491,629.371695378491,410.498069503264,610.498069503264,770.628304621509,NaN,NaN,NaN,NaN,0,4,0,0,NaN,NaN,horizontal,horizontal,horizontal,horizontal,none,none
1d,12,100234,4,24,216,19,M,NA,constant,homogeneous,5,present,0.781321048736572,0,horizontal,vertical,1,0.717645925945706,red,4,2,668.665290897936,381.422338320961,1034.72873763037,699.636437764765,777.775285599347,854.029648013395,1034.72873763037,699.636437764765,967.295052392579,407.549057043193,668.665290897936,381.422338320961,551.535633479765,657.362518857686,NaN,NaN,0,0,0,4,0,NaN,vertical,horizontal,vertical,horizontal,vertical,none
1d,12,100234,4,25,217,19,M,NA,constant,homogeneous,5,absent,0.586961984634399,1,horizontal,horizontal,1,0.894114814864265,red,3,NaN,953.462830903772,396.34794493794,NaN,NaN,795.549636358493,854.96116226488,1041.10723677783,683.019879386575,953.462830903772,396.34794493794,653.738008730483,391.116228706307,556.142287229426,674.554784704298,NaN,NaN,0,0,4,0,0,NaN,vertical,vertical,horizontal,horizontal,horizontal,none
1d,12,100234,4,26,218,19,M,NA,constant,homogeneous,3,absent,0.868431806564331,1,vertical,vertical,1,1.07058370378282,red,1,NaN,791.100628340862,854.844660889869,NaN,NaN,791.100628340862,854.844660889869,1025.15163617903,480.284751489598,583.747735480111,464.870587620533,NaN,NaN,NaN,NaN,NaN,NaN,4,0,0,NaN,NaN,NaN,vertical,horizontal,horizontal,none,none,none
1d,12,100234,4,27,219,19,M,NA,constant,homogeneous,6,absent,0.827291011810303,1,vertical,vertical,1,0.882350222269694,red,3,NaN,986.495193912888,426.090418184063,NaN,NaN,857.362518857686,848.464366520235,1043.85771277057,674.554784704298,986.495193912888,426.090418184063,742.637481142314,351.535633479765,556.142287229426,525.445215295702,613.504806087112,773.909581815937,0,0,4,0,0,0,horizontal,vertical,vertical,vertical,vertical,vertical
1d,12,100234,4,28,220,19,M,NA,constant,homogeneous,4,absent,0.732877016067505,1,horizontal,horizontal,1,0.635293777783712,red,4,NaN,599.057257830286,443.006323791957,NaN,NaN,643.006323791957,800.942742169714,1000.94274216971,756.993676208043,956.993676208043,399.057257830286,599.057257830286,443.006323791957,NaN,NaN,NaN,NaN,0,0,0,4,NaN,NaN,vertical,horizontal,vertical,horizontal,none,none
1d,12,100234,4,29,221,19,M,NA,constant,homogeneous,5,absent,0.777169942855835,1,horizontal,horizontal,1,0.670587555567423,red,5,NaN,545.621167183745,617.787900804752,NaN,NaN,738.309916622085,847.425410200379,1016.25226451989,735.129412379467,995.341332995339,436.089159529932,704.475318678942,363.568117085469,545.621167183745,617.787900804752,NaN,NaN,0,0,0,0,4,NaN,horizontal,vertical,horizontal,vertical,horizontal,none
1d,12,100234,4,30,222,19,M,NA,constant,homogeneous,3,absent,0.716429948806763,1,horizontal,horizontal,1,0.776468888918559,red,1,NaN,650.114760665419,806.299333565612,NaN,NaN,650.114760665419,806.299333565612,1053.60308331891,626.654758133252,696.282156015671,367.045908301137,NaN,NaN,NaN,NaN,NaN,NaN,4,0,0,NaN,NaN,NaN,horizontal,horizontal,vertical,none,none,none
1d,12,100234,4,31,223,19,M,NA,constant,homogeneous,6,present,0.636052131652832,1,horizontal,horizontal,1,0.647058370378282,red,5,4,581.422338320961,468.665290897936,804.450363641507,345.03883773512,795.549636358493,854.96116226488,1018.57766167904,731.334709102064,1023.02802532055,476.373546837184,804.450363641507,345.03883773512,581.422338320961,468.665290897936,576.971974679454,723.626453162816,0,0,0,0,4,0,vertical,horizontal,vertical,horizontal,horizontal,horizontal
1d,12,100234,4,32,224,19,M,NA,constant,homogeneous,6,present,0.571658849716187,1,horizontal,horizontal,1,0.729410518540276,red,4,1,746.982518841471,350.57236181288,853.017481158529,849.42763818712,853.017481158529,849.42763818712,1042.51941165526,678.799333565612,989.501930496736,429.371695378491,746.982518841471,350.57236181288,557.480588344736,521.200666434388,610.498069503264,770.628304621509,0,0,0,4,0,0,vertical,vertical,horizontal,horizontal,horizontal,vertical
1d,12,100234,4,33,225,19,M,NA,constant,homogeneous,6,absent,0.772120952606201,1,horizontal,horizontal,1,0.647058370378282,red,5,NaN,568.891514305654,492.232343256122,NaN,NaN,822.224714400653,854.029648013395,1031.10848569435,707.767656743878,1008.88377129369,453.738008730483,777.775285599347,345.970351986605,568.891514305654,492.232343256122,591.116228706307,746.261991269517,0,0,0,0,4,0,horizontal,horizontal,horizontal,vertical,horizontal,horizontal
1d,12,100234,4,34,226,19,M,NA,constant,homogeneous,3,absent,0.544375896453857,1,vertical,vertical,1,1.03528992599911,red,2,NaN,1029.19248180629,488.215357568785,NaN,NaN,782.212099195248,854.378832816255,1029.19248180629,488.215357568785,588.595418998464,457.40580961496,NaN,NaN,NaN,NaN,NaN,NaN,0,4,0,NaN,NaN,NaN,vertical,vertical,horizontal,none,none,none
1d,12,100234,4,35,227,19,M,NA,constant,homogeneous,6,absent,0.673265933990479,1,horizontal,horizontal,1,0.694116740756565,red,5,NaN,563.568117085469,504.475318678942,NaN,NaN,835.489140744817,852.518357529101,1036.43188291453,695.524681321058,1000.94274216971,443.006323791957,764.510859255183,347.4816424709,563.568117085469,504.475318678942,599.057257830286,756.993676208043,0,0,0,0,4,0,vertical,vertical,vertical,horizontal,horizontal,vertical
1d,12,100234,4,36,228,19,M,NA,constant,homogeneous,3,present,0.628973007202148,1,vertical,vertical,1,0.705881333351135,red,1,2,729.712474266665,845.121732464271,1047.42541020038,538.309916622085,729.712474266665,845.121732464271,1047.42541020038,538.309916622085,622.862115532956,416.568350913644,NaN,NaN,NaN,NaN,NaN,NaN,4,0,0,NaN,NaN,NaN,vertical,horizontal,vertical,none,none,none
1d,12,100234,4,37,229,19,M,NA,constant,homogeneous,4,present,0.676698207855225,1,vertical,vertical,1,0.741175111134847,red,4,1,574.848363820974,719.715248510402,919.715248510402,825.151636179026,919.715248510402,825.151636179026,1025.15163617903,480.284751489598,680.284751489598,374.848363820974,574.848363820974,719.715248510402,NaN,NaN,NaN,NaN,0,0,0,4,NaN,NaN,horizontal,vertical,horizontal,vertical,none,none
1d,12,100234,4,38,230,19,M,NA,constant,homogeneous,6,absent,0.627172946929932,1,horizontal,horizontal,1,0.647058370378282,red,4,NaN,708.616172865948,361.936991243214,NaN,NaN,891.383827134052,838.063008756786,1051.86052685176,639.890788585259,960.476699717708,401.827779828472,708.616172865948,361.936991243214,548.13947314824,560.109211414741,639.523300282292,798.172220171528,0,0,0,4,0,0,vertical,vertical,vertical,horizontal,vertical,horizontal
1d,12,100234,4,39,231,19,M,NA,constant,homogeneous,5,absent,0.616940975189209,1,vertical,vertical,1,0.847056444485982,red,5,NaN,601.827779828472,760.476699717708,NaN,NaN,891.383827134052,838.063008756786,1054.65053136242,586.654331158049,865.998856501143,353.688914296288,586.139005173917,461.117046071168,601.827779828472,760.476699717708,NaN,NaN,0,0,0,0,4,NaN,vertical,vertical,vertical,vertical,vertical,none
1d,12,100234,4,40,232,19,M,NA,constant,homogeneous,5,present,0.578294992446899,1,vertical,vertical,1,1.04705451859368,red,1,3,844.280285305067,851.125977018113,911.784642431215,370.807518193712,844.280285305067,851.125977018113,1052.5183575291,635.489140744817,911.784642431215,370.807518193712,616.568350913644,422.862115532956,574.848363820974,719.715248510402,NaN,NaN,4,0,0,0,0,NaN,vertical,horizontal,horizontal,vertical,vertical,none
1d,12,100234,4,41,233,19,M,NA,constant,homogeneous,5,present,0.522893905639648,1,vertical,vertical,1,0.635293777783712,red,4,1,721.200666434388,357.480588344736,721.200666434388,842.519411655264,721.200666434388,842.519411655264,1006.29933356561,749.885239334581,1006.29933356561,450.114760665419,721.200666434388,357.480588344736,545,600,NaN,NaN,0,0,0,4,0,NaN,vertical,horizontal,horizontal,vertical,vertical,none
1d,12,100234,4,42,234,19,M,NA,constant,homogeneous,4,present,0.55681586265564,0,vertical,horizontal,1,0.764704296323988,red,1,3,626.090418184063,786.495193912888,973.909581815937,413.504806087112,626.090418184063,786.495193912888,986.495193912888,773.909581815937,973.909581815937,413.504806087112,613.504806087112,426.090418184063,NaN,NaN,NaN,NaN,4,0,0,0,NaN,NaN,vertical,vertical,vertical,horizontal,none,none
1d,12,100234,4,43,235,19,M,NA,constant,homogeneous,3,present,0.536795854568481,1,vertical,vertical,1,0.623529185189141,red,2,1,853.017481158529,350.57236181288,989.501930496736,770.628304621509,989.501930496736,770.628304621509,853.017481158529,350.57236181288,557.480588344736,678.799333565612,NaN,NaN,NaN,NaN,NaN,NaN,0,4,0,NaN,NaN,NaN,horizontal,vertical,vertical,none,none,none
1d,12,100234,4,44,236,19,M,NA,constant,homogeneous,6,present,0.788858890533447,1,horizontal,horizontal,1,0.870585629675123,red,6,2,604.658667004661,763.910840470068,1039.62161830041,687.215136548046,844.280285305067,851.125977018113,1039.62161830041,687.215136548046,995.341332995339,436.089159529932,755.719714694933,348.874022981887,560.378381699593,512.784863451954,604.658667004661,763.910840470068,0,0,0,0,0,4,vertical,vertical,vertical,horizontal,vertical,horizontal
1d,12,100234,4,45,237,19,M,NA,constant,homogeneous,4,present,0.671247959136963,1,horizontal,horizontal,1,0.917644000053406,red,2,3,1054.37883281626,617.787900804752,817.787900804752,345.621167183745,782.212099195248,854.378832816255,1054.37883281626,617.787900804752,817.787900804752,345.621167183745,545.621167183745,582.212099195248,NaN,NaN,NaN,NaN,0,4,0,0,NaN,NaN,horizontal,horizontal,horizontal,horizontal,none,none
1d,12,100234,4,46,238,19,M,NA,constant,homogeneous,3,present,0.514069795608521,1,vertical,vertical,1,0.658822962972853,red,2,1,1006.29933356561,450.114760665419,826.654758133252,853.60308331891,826.654758133252,853.60308331891,1006.29933356561,450.114760665419,567.045908301137,496.282156015671,NaN,NaN,NaN,NaN,NaN,NaN,0,4,0,NaN,NaN,NaN,horizontal,vertical,horizontal,none,none,none
1d,12,100234,4,47,239,19,M,NA,constant,homogeneous,4,present,0.584735870361328,1,vertical,vertical,1,0.611764592594571,red,2,3,1043.85771277057,674.554784704298,874.554784704298,356.142287229426,725.445215295702,843.857712770574,1043.85771277057,674.554784704298,874.554784704298,356.142287229426,556.142287229426,525.445215295702,NaN,NaN,NaN,NaN,0,4,0,0,NaN,NaN,horizontal,vertical,vertical,vertical,none,none
1d,12,100234,4,48,240,19,M,NA,constant,homogeneous,4,absent,0.613541126251221,1,horizontal,horizontal,1,1.04705451859368,red,1,NaN,712.784863451954,839.621618300407,NaN,NaN,712.784863451954,839.621618300407,1039.62161830041,687.215136548046,887.215136548046,360.378381699593,560.378381699593,512.784863451954,NaN,NaN,NaN,NaN,4,0,0,0,NaN,NaN,horizontal,vertical,horizontal,horizontal,none,none
1d,12,100234,4,49,241,19,M,NA,constant,homogeneous,5,absent,0.753818035125732,1,vertical,vertical,1,1.01176074080997,red,5,NaN,557.480588344736,678.799333565612,NaN,NaN,800,855,1042.51941165526,678.799333565612,949.885239334581,393.700666434388,650.114760665419,393.700666434388,557.480588344736,678.799333565612,NaN,NaN,0,0,0,0,4,NaN,horizontal,horizontal,vertical,vertical,vertical,none
