experiment,subject,uniqueID,block,trial,trial_cumulative,age,gender,color_cond_blocking,color_history,shape_type,set_size,distractor,rt,acc,target_orient,response_key,response_made,iti,target_color,target_item,distractor_item,target_X,target_Y,distractor_X,distractor_Y,item1_X,item1_Y,item2_X,item2_Y,item3_X,item3_Y,item4_X,item4_Y,item5_X,item5_Y,item6_X,item6_Y,item1_shape,item2_shape,item3_shape,item4_shape,item5_shape,item6_shape,item1_line,item2_line,item3_line,item4_line,item5_line,item6_line
1d,13,100235,1,1,1,24,M,NA,constant,homogeneous,6,present,1.58183979988098,1,horizontal,horizontal,1,0.917641469148489,green,1,3,822.224714400653,854.029648013395,1008.88377129369,453.738008730483,822.224714400653,854.029648013395,1031.10848569435,707.767656743878,1008.88377129369,453.738008730483,777.775285599347,345.970351986605,568.891514305654,492.232343256122,591.116228706307,746.261991269517,4,0,0,0,0,0,horizontal,vertical,horizontal,vertical,vertical,horizontal
1d,13,100235,1,2,2,24,M,NA,constant,homogeneous,5,present,NaN,0,vertical,none,0,0.788231981717623,green,2,1,973.909581815937,786.495193912888,676.373546837184,823.028025320546,676.373546837184,823.028025320546,973.909581815937,786.495193912888,1031.10848569435,492.232343256122,768.923317431687,346.900731331463,549.685068220846,551.343706178981,NaN,NaN,0,4,0,0,0,NaN,horizontal,vertical,vertical,horizontal,horizontal,none
1d,13,100235,1,3,3,24,M,NA,constant,homogeneous,4,present,NaN,0,vertical,none,0,0.882347972576435,green,4,2,549.685068220846,551.343706178981,1050.31493177915,648.656293821019,751.343706178981,850.314931779154,1050.31493177915,648.656293821019,848.656293821019,349.685068220846,549.685068220846,551.343706178981,NaN,NaN,NaN,NaN,0,0,0,4,NaN,NaN,horizontal,vertical,horizontal,vertical,none,none
1d,13,100235,1,4,4,24,M,NA,constant,homogeneous,6,present,0.711062908172607,0,vertical,horizontal,1,1.0117574600073,green,4,5,786.654331158049,345.349468637584,572.793336331966,484.232422566416,813.345668841951,854.650531362416,1027.20666366803,715.767577433584,1013.86099482608,461.117046071168,786.654331158049,345.349468637584,572.793336331966,484.232422566416,586.139005173917,738.882953928832,0,0,0,4,0,0,horizontal,horizontal,vertical,vertical,horizontal,horizontal
1d,13,100235,1,5,5,24,M,NA,constant,homogeneous,5,absent,0.818111181259155,0,vertical,horizontal,1,0.623528997714703,green,1,NaN,684.232422566416,827.206663668034,NaN,NaN,684.232422566416,827.206663668034,980.31222920257,780.31222920257,1027.20666366803,484.232422566416,760.109211414741,348.13947314824,548.13947314824,560.109211414741,NaN,NaN,4,0,0,0,0,NaN,vertical,horizontal,vertical,vertical,vertical,none
1d,13,100235,1,6,6,24,M,NA,constant,homogeneous,6,absent,0.560389041900635,0,vertical,horizontal,1,1.08234445315141,green,4,NaN,808.899371659138,345.155339110131,NaN,NaN,791.100628340862,854.844660889869,1016.25226451989,735.129412379467,1025.15163617903,480.284751489598,808.899371659138,345.155339110131,583.747735480111,464.870587620533,574.848363820974,719.715248510402,0,0,0,4,0,0,horizontal,vertical,vertical,vertical,vertical,vertical
1d,13,100235,1,7,7,24,M,NA,constant,homogeneous,3,present,0.744556188583374,0,horizontal,vertical,1,0.635293496572054,green,1,3,946.261991269517,808.883771293693,545.970351986605,622.224714400653,946.261991269517,808.883771293693,907.767656743878,368.891514305654,545.970351986605,622.224714400653,NaN,NaN,NaN,NaN,NaN,NaN,4,0,0,NaN,NaN,NaN,horizontal,vertical,horizontal,none,none,none
1d,13,100235,1,8,8,24,M,NA,constant,homogeneous,3,present,0.572086095809937,0,horizontal,vertical,1,1.035286457722,green,2,1,1054.0296480134,622.224714400653,653.738008730483,808.883771293693,653.738008730483,808.883771293693,1054.0296480134,622.224714400653,692.232343256122,368.891514305654,NaN,NaN,NaN,NaN,NaN,NaN,0,4,0,NaN,NaN,NaN,vertical,horizontal,horizontal,none,none,none
1d,13,100235,1,9,9,24,M,NA,constant,homogeneous,3,present,0.760854005813599,0,vertical,horizontal,1,0.858818974861732,green,3,2,742.637481142314,351.535633479765,1043.85771277057,674.554784704298,613.504806087112,773.909581815937,1043.85771277057,674.554784704298,742.637481142314,351.535633479765,NaN,NaN,NaN,NaN,NaN,NaN,0,0,4,NaN,NaN,NaN,horizontal,vertical,vertical,none,none,none
1d,13,100235,1,10,10,24,M,NA,constant,homogeneous,3,present,0.608963012695312,1,horizontal,horizontal,1,0.635293496572054,green,3,1,545.621167183745,617.787900804752,942.594190385041,811.404581001536,942.594190385041,811.404581001536,911.784642431215,370.807518193712,545.621167183745,617.787900804752,NaN,NaN,NaN,NaN,NaN,NaN,0,0,4,NaN,NaN,NaN,horizontal,vertical,horizontal,none,none,none
1d,13,100235,1,11,11,24,M,NA,constant,homogeneous,6,present,0.901121139526367,0,horizontal,vertical,1,0.799996480574975,green,3,4,1008.88377129369,453.738008730483,777.775285599347,345.970351986605,822.224714400653,854.029648013395,1031.10848569435,707.767656743878,1008.88377129369,453.738008730483,777.775285599347,345.970351986605,568.891514305654,492.232343256122,591.116228706307,746.261991269517,0,0,4,0,0,0,horizontal,vertical,horizontal,vertical,vertical,horizontal
1d,13,100235,1,12,12,24,M,NA,constant,homogeneous,6,absent,0.679854869842529,0,vertical,horizontal,1,1.035286457722,green,3,NaN,1006.29933356561,450.114760665419,NaN,NaN,826.654758133252,853.60308331891,1032.95409169886,703.717843984329,1006.29933356561,450.114760665419,773.345241866748,346.39691668109,567.045908301137,496.282156015671,593.700666434388,749.885239334581,0,0,4,0,0,0,horizontal,horizontal,vertical,horizontal,vertical,vertical
1d,13,100235,1,13,13,24,M,NA,constant,homogeneous,4,present,0.691674947738647,0,horizontal,vertical,1,0.905876970291138,green,4,1,607.549057043193,432.704947607421,632.704947607421,792.450942956807,632.704947607421,792.450942956807,992.450942956807,767.295052392579,967.295052392579,407.549057043193,607.549057043193,432.704947607421,NaN,NaN,NaN,NaN,0,0,0,4,NaN,NaN,horizontal,horizontal,vertical,horizontal,none,none
1d,13,100235,1,14,14,24,M,NA,constant,homogeneous,3,absent,0.727634906768799,0,vertical,horizontal,1,1.09410895200876,green,3,NaN,610.498069503264,429.371695378491,NaN,NaN,746.982518841471,849.42763818712,1042.51941165526,521.200666434388,610.498069503264,429.371695378491,NaN,NaN,NaN,NaN,NaN,NaN,0,0,4,NaN,NaN,NaN,vertical,vertical,vertical,none,none,none
1d,13,100235,1,15,15,24,M,NA,constant,homogeneous,4,present,0.615175008773804,0,vertical,horizontal,1,0.84705447600438,green,2,4,1054.0296480134,577.775285599347,545.970351986605,622.224714400653,822.224714400653,854.029648013395,1054.0296480134,577.775285599347,777.775285599347,345.970351986605,545.970351986605,622.224714400653,NaN,NaN,NaN,NaN,0,4,0,0,NaN,NaN,vertical,vertical,vertical,vertical,none,none
1d,13,100235,1,16,16,24,M,NA,constant,homogeneous,5,absent,0.755481958389282,0,vertical,horizontal,1,0.988228462292598,green,1,NaN,755.719714694933,851.125977018113,NaN,NaN,755.719714694933,851.125977018113,1025.15163617903,719.715248510402,983.431649086356,422.862115532956,688.215357568785,370.807518193712,547.481642470899,635.489140744817,NaN,NaN,4,0,0,0,0,NaN,vertical,vertical,horizontal,horizontal,horizontal,none
1d,13,100235,1,17,17,24,M,NA,constant,homogeneous,5,absent,0.723958015441895,0,vertical,horizontal,1,1.05881545543671,green,4,NaN,558.892763222174,516.980120613425,NaN,NaN,946.261991269517,808.883771293693,1043.85771277057,525.445215295702,804.450363641507,345.03883773512,558.892763222174,516.980120613425,646.537169096228,803.65205506206,NaN,NaN,0,0,0,4,0,NaN,horizontal,horizontal,vertical,vertical,vertical,none
1d,13,100235,1,18,18,24,M,NA,constant,homogeneous,5,present,0.628901958465576,0,horizontal,vertical,1,0.917641469148489,green,2,5,949.885239334581,806.299333565612,557.480588344736,521.200666434388,650.114760665419,806.299333565612,949.885239334581,806.299333565612,1042.51941165526,521.200666434388,800,345,557.480588344736,521.200666434388,NaN,NaN,0,4,0,0,0,NaN,vertical,horizontal,vertical,vertical,horizontal,none
1d,13,100235,1,19,19,24,M,NA,constant,homogeneous,6,absent,0.459095001220703,0,vertical,horizontal,1,0.870583473719083,green,5,NaN,599.057257830286,443.006323791957,NaN,NaN,764.510859255183,852.518357529101,1000.94274216971,756.993676208043,1036.43188291453,504.475318678942,835.489140744817,347.4816424709,599.057257830286,443.006323791957,563.568117085469,695.524681321058,0,0,0,0,4,0,vertical,vertical,vertical,vertical,vertical,vertical
1d,13,100235,1,20,20,24,M,NA,constant,homogeneous,6,present,0.6045241355896,0,vertical,horizontal,1,0.999992961149949,green,1,5,768.923317431687,853.099268668537,596.34794493794,446.537169096228,768.923317431687,853.099268668537,1003.65205506206,753.462830903772,1034.72873763037,500.363562235235,831.076682568313,346.900731331463,596.34794493794,446.537169096228,565.271262369628,699.636437764765,4,0,0,0,0,0,vertical,horizontal,vertical,vertical,horizontal,horizontal
1d,13,100235,1,21,21,24,M,NA,constant,homogeneous,5,present,0.609204053878784,0,vertical,horizontal,1,0.623528997714703,green,3,5,1023.02802532055,476.373546837184,546.900731331463,568.923317431687,692.232343256122,831.108485694346,986.495193912888,773.909581815937,1023.02802532055,476.373546837184,751.343706178981,349.685068220846,546.900731331463,568.923317431687,NaN,NaN,0,0,4,0,0,NaN,vertical,horizontal,vertical,vertical,horizontal,none
1d,13,100235,1,22,22,24,M,NA,constant,homogeneous,5,present,0.502274990081787,0,horizontal,vertical,1,0.823525478289677,green,2,4,1043.85771277057,525.445215295702,558.892763222174,516.980120613425,946.261991269517,808.883771293693,1043.85771277057,525.445215295702,804.450363641507,345.03883773512,558.892763222174,516.980120613425,646.537169096228,803.65205506206,NaN,NaN,0,4,0,0,0,NaN,horizontal,horizontal,vertical,vertical,horizontal,none
1d,13,100235,1,23,23,24,M,NA,constant,homogeneous,4,absent,0.528795957565308,0,horizontal,vertical,1,1.035286457722,green,1,NaN,746.982518841471,849.42763818712,NaN,NaN,746.982518841471,849.42763818712,1049.42763818712,653.017481158529,853.017481158529,350.57236181288,550.57236181288,546.982518841471,NaN,NaN,NaN,NaN,4,0,0,0,NaN,NaN,horizontal,horizontal,vertical,vertical,none,none
1d,13,100235,1,24,24,24,M,NA,constant,homogeneous,6,absent,0.51789379119873,0,horizontal,vertical,1,0.717644988573514,green,3,NaN,960.476699717708,401.827779828472,NaN,NaN,891.383827134052,838.063008756786,1051.86052685176,639.890788585259,960.476699717708,401.827779828472,708.616172865948,361.936991243214,548.13947314824,560.109211414741,639.523300282292,798.172220171528,0,0,4,0,0,0,horizontal,vertical,horizontal,vertical,horizontal,horizontal
1d,13,100235,1,25,25,24,M,NA,constant,homogeneous,4,absent,0.73828387260437,0,vertical,horizontal,1,1.08234445315141,green,2,NaN,1052.5183575291,635.489140744817,NaN,NaN,764.510859255183,852.518357529101,1052.5183575291,635.489140744817,835.489140744817,347.4816424709,547.481642470899,564.510859255183,NaN,NaN,NaN,NaN,0,4,0,0,NaN,NaN,horizontal,vertical,horizontal,vertical,none,none
1d,13,100235,1,26,26,24,M,NA,constant,homogeneous,6,absent,0.630059003829956,1,horizontal,horizontal,1,0.647057995429406,green,6,NaN,610.498069503264,770.628304621509,NaN,NaN,853.017481158529,849.42763818712,1042.51941165526,678.799333565612,989.501930496736,429.371695378491,746.982518841471,350.57236181288,557.480588344736,521.200666434388,610.498069503264,770.628304621509,0,0,0,0,0,4,vertical,horizontal,horizontal,vertical,horizontal,horizontal
1d,13,100235,1,27,27,24,M,NA,constant,homogeneous,5,absent,1.28676509857178,0,horizontal,vertical,1,0.788231981717623,green,1,NaN,650.114760665419,806.299333565612,NaN,NaN,650.114760665419,806.299333565612,949.885239334581,806.299333565612,1042.51941165526,521.200666434388,800,345,557.480588344736,521.200666434388,NaN,NaN,4,0,0,0,0,NaN,horizontal,horizontal,vertical,horizontal,vertical,none
1d,13,100235,1,28,28,24,M,NA,constant,homogeneous,4,absent,0.809929847717285,0,vertical,horizontal,1,0.670586993144109,green,1,NaN,861.690083377915,847.425410200379,NaN,NaN,861.690083377915,847.425410200379,1047.42541020038,538.309916622085,738.309916622085,352.574589799621,552.574589799621,661.690083377915,NaN,NaN,NaN,NaN,4,0,0,0,NaN,NaN,vertical,vertical,horizontal,vertical,none,none
1d,13,100235,1,29,29,24,M,NA,constant,homogeneous,5,absent,0.608117818832397,0,horizontal,vertical,1,1.09410895200876,green,2,NaN,1027.20666366803,715.767577433584,NaN,NaN,760.109211414741,851.86052685176,1027.20666366803,715.767577433584,980.31222920257,419.68777079743,684.232422566416,372.793336331966,548.13947314824,639.890788585259,NaN,NaN,0,4,0,0,0,NaN,horizontal,horizontal,vertical,vertical,vertical,none
1d,13,100235,1,30,30,24,M,NA,constant,homogeneous,6,present,1.24789714813232,0,vertical,horizontal,1,0.964699464577895,green,2,3,995.341332995339,763.910840470068,1039.62161830041,512.784863451954,755.719714694933,851.125977018113,995.341332995339,763.910840470068,1039.62161830041,512.784863451954,844.280285305067,348.874022981887,604.658667004661,436.089159529932,560.378381699593,687.215136548046,0,4,0,0,0,0,horizontal,vertical,horizontal,horizontal,vertical,horizontal
1d,13,100235,1,31,31,24,M,NA,constant,homogeneous,4,present,0.679666042327881,0,vertical,horizontal,1,0.941170466863192,green,4,2,549.685068220846,551.343706178981,1050.31493177915,648.656293821019,751.343706178981,850.314931779154,1050.31493177915,648.656293821019,848.656293821019,349.685068220846,549.685068220846,551.343706178981,NaN,NaN,NaN,NaN,0,0,0,4,NaN,NaN,vertical,vertical,horizontal,vertical,none,none
1d,13,100235,1,32,32,24,M,NA,constant,homogeneous,3,present,1.05477690696716,0,vertical,horizontal,1,0.670586993144109,green,1,2,588.595418998464,742.594190385041,1029.19248180629,711.784642431215,588.595418998464,742.594190385041,1029.19248180629,711.784642431215,782.212099195248,345.621167183745,NaN,NaN,NaN,NaN,NaN,NaN,4,0,0,NaN,NaN,NaN,vertical,vertical,horizontal,none,none,none
1d,13,100235,1,33,33,24,M,NA,constant,homogeneous,5,present,0.565846920013428,0,horizontal,vertical,1,1.09410895200876,green,2,5,973.909581815937,786.495193912888,549.685068220846,551.343706178981,676.373546837184,823.028025320546,973.909581815937,786.495193912888,1031.10848569435,492.232343256122,768.923317431687,346.900731331463,549.685068220846,551.343706178981,NaN,NaN,0,4,0,0,0,NaN,vertical,horizontal,vertical,horizontal,vertical,none
1d,13,100235,1,34,34,24,M,NA,constant,homogeneous,4,present,0.622804880142212,0,vertical,horizontal,1,0.670586993144109,green,4,2,545.155339110131,608.899371659138,1054.84466088987,591.100628340862,808.899371659138,854.844660889869,1054.84466088987,591.100628340862,791.100628340862,345.155339110131,545.155339110131,608.899371659138,NaN,NaN,NaN,NaN,0,0,0,4,NaN,NaN,horizontal,vertical,vertical,vertical,none,none
1d,13,100235,1,35,35,24,M,NA,constant,homogeneous,6,absent,0.872692823410034,0,horizontal,vertical,1,1.05881545543671,green,6,NaN,563.568117085469,695.524681321058,NaN,NaN,764.510859255183,852.518357529101,1000.94274216971,756.993676208043,1036.43188291453,504.475318678942,835.489140744817,347.4816424709,599.057257830286,443.006323791957,563.568117085469,695.524681321058,0,0,0,0,0,4,vertical,horizontal,vertical,vertical,vertical,horizontal
1d,13,100235,1,36,36,24,M,NA,constant,homogeneous,5,present,1.04677820205688,0,vertical,horizontal,1,0.623528997714703,green,2,4,1048.46436652023,657.362518857686,632.704947607421,407.549057043193,822.224714400653,854.029648013395,1048.46436652023,657.362518857686,931.334709102064,381.422338320961,632.704947607421,407.549057043193,565.271262369628,699.636437764765,NaN,NaN,0,4,0,0,0,NaN,horizontal,vertical,vertical,vertical,vertical,none
1d,13,100235,1,37,37,24,M,NA,constant,homogeneous,5,absent,1.97705101966858,1,horizontal,horizontal,1,0.858818974861732,green,3,NaN,903.717843984329,367.045908301137,NaN,NaN,853.017481158529,849.42763818712,1053.60308331891,626.654758133252,903.717843984329,367.045908301137,610.498069503264,429.371695378491,579.163522034968,727.5,NaN,NaN,0,0,4,0,0,NaN,vertical,horizontal,horizontal,horizontal,horizontal,none
1d,13,100235,1,38,38,24,M,NA,constant,homogeneous,3,absent,0.864727020263672,1,horizontal,horizontal,1,0.788231981717623,green,3,NaN,552.574589799621,538.309916622085,NaN,NaN,870.287525733335,845.121732464271,977.137884467044,416.568350913644,552.574589799621,538.309916622085,NaN,NaN,NaN,NaN,NaN,NaN,0,0,4,NaN,NaN,NaN,vertical,horizontal,horizontal,none,none,none
1d,13,100235,1,39,39,24,M,NA,constant,homogeneous,4,absent,1.33636403083801,0,horizontal,vertical,1,0.705880489716163,green,1,NaN,746.982518841471,849.42763818712,NaN,NaN,746.982518841471,849.42763818712,1049.42763818712,653.017481158529,853.017481158529,350.57236181288,550.57236181288,546.982518841471,NaN,NaN,NaN,NaN,4,0,0,0,NaN,NaN,horizontal,vertical,vertical,horizontal,none,none
1d,13,100235,1,40,40,24,M,NA,constant,homogeneous,6,present,0.755224943161011,0,horizontal,vertical,1,0.6,green,6,3,545.970351986605,622.224714400653,1054.0296480134,577.775285599347,692.232343256122,831.108485694346,946.261991269517,808.883771293693,1054.0296480134,577.775285599347,907.767656743878,368.891514305654,653.738008730483,391.116228706307,545.970351986605,622.224714400653,0,0,0,0,0,4,horizontal,vertical,vertical,horizontal,vertical,horizontal
1d,13,100235,1,41,41,24,M,NA,constant,homogeneous,5,present,0.784311056137085,0,vertical,horizontal,1,1.09410895200876,green,1,3,861.690083377915,847.425410200379,895.524681321058,363.568117085469,861.690083377915,847.425410200379,1054.37883281626,617.787900804752,895.524681321058,363.568117085469,604.658667004661,436.089159529932,583.747735480111,735.129412379467,NaN,NaN,4,0,0,0,0,NaN,vertical,horizontal,vertical,horizontal,horizontal,none
1d,13,100235,1,42,42,24,M,NA,constant,homogeneous,3,present,0.796529054641724,0,vertical,horizontal,1,0.999992961149949,green,2,1,1032.95409169886,703.717843984329,593.700666434388,749.885239334581,593.700666434388,749.885239334581,1032.95409169886,703.717843984329,773.345241866748,346.39691668109,NaN,NaN,NaN,NaN,NaN,NaN,0,4,0,NaN,NaN,NaN,horizontal,vertical,horizontal,none,none,none
1d,13,100235,1,43,43,24,M,NA,constant,homogeneous,4,present,0.749083995819092,0,horizontal,vertical,1,0.84705447600438,green,1,3,636.089159529932,795.341332995339,963.910840470068,404.658667004661,636.089159529932,795.341332995339,995.341332995339,763.910840470068,963.910840470068,404.658667004661,604.658667004661,436.089159529932,NaN,NaN,NaN,NaN,4,0,0,0,NaN,NaN,horizontal,horizontal,vertical,vertical,none,none
1d,13,100235,1,44,44,24,M,NA,constant,homogeneous,3,absent,0.695719003677368,0,vertical,horizontal,1,0.964699464577895,green,3,NaN,568.891514305654,707.767656743878,NaN,NaN,1008.88377129369,746.261991269517,822.224714400653,345.970351986605,568.891514305654,707.767656743878,NaN,NaN,NaN,NaN,NaN,NaN,0,0,4,NaN,NaN,NaN,vertical,vertical,vertical,none,none,none
1d,13,100235,1,45,45,24,M,NA,constant,homogeneous,3,absent,0.679004907608032,0,vertical,horizontal,1,0.870583473719083,green,3,NaN,557.480588344736,521.200666434388,NaN,NaN,853.017481158529,849.42763818712,989.501930496736,429.371695378491,557.480588344736,521.200666434388,NaN,NaN,NaN,NaN,NaN,NaN,0,0,4,NaN,NaN,NaN,horizontal,horizontal,vertical,none,none,none
1d,13,100235,1,46,46,24,M,NA,constant,homogeneous,3,present,0.515259027481079,0,vertical,horizontal,1,0.905876970291138,green,1,2,716.980120613425,841.107236777826,1050.31493177915,551.343706178981,716.980120613425,841.107236777826,1050.31493177915,551.343706178981,632.704947607421,407.549057043193,NaN,NaN,NaN,NaN,NaN,NaN,4,0,0,NaN,NaN,NaN,vertical,vertical,horizontal,none,none,none
1d,13,100235,1,47,47,24,M,NA,constant,homogeneous,4,absent,0.880178928375244,0,vertical,horizontal,1,0.76470298400292,green,3,NaN,742.637481142314,351.535633479765,NaN,NaN,857.362518857686,848.464366520235,1048.46436652023,542.637481142314,742.637481142314,351.535633479765,551.535633479765,657.362518857686,NaN,NaN,NaN,NaN,0,0,4,0,NaN,NaN,horizontal,horizontal,vertical,horizontal,none,none
1d,13,100235,1,48,48,24,M,NA,constant,homogeneous,4,absent,0.94315505027771,0,horizontal,vertical,1,1.04705095657936,green,1,NaN,822.224714400653,854.029648013395,NaN,NaN,822.224714400653,854.029648013395,1054.0296480134,577.775285599347,777.775285599347,345.970351986605,545.970351986605,622.224714400653,NaN,NaN,NaN,NaN,4,0,0,0,NaN,NaN,horizontal,vertical,vertical,horizontal,none,none
1d,13,100235,1,49,49,24,M,NA,constant,homogeneous,3,absent,1.16368103027344,0,horizontal,vertical,1,1.05881545543671,green,2,NaN,891.383827134052,361.936991243214,NaN,NaN,960.476699717708,798.172220171528,891.383827134052,361.936991243214,548.13947314824,639.890788585259,NaN,NaN,NaN,NaN,NaN,NaN,0,4,0,NaN,NaN,NaN,vertical,horizontal,horizontal,none,none,none
1d,13,100235,1,50,50,24,M,NA,constant,homogeneous,6,absent,0.647740840911865,0,horizontal,vertical,1,0.835289977147029,green,4,NaN,742.637481142314,351.535633479765,NaN,NaN,857.362518857686,848.464366520235,1043.85771277057,674.554784704298,986.495193912888,426.090418184063,742.637481142314,351.535633479765,556.142287229426,525.445215295702,613.504806087112,773.909581815937,0,0,0,4,0,0,horizontal,vertical,horizontal,horizontal,vertical,horizontal
1d,13,100235,1,51,51,24,M,NA,constant,homogeneous,3,absent,0.544709920883179,0,horizontal,vertical,1,0.788231981717623,green,3,NaN,547.481642470899,564.510859255183,NaN,NaN,895.524681321058,836.431882914531,956.993676208043,399.057257830286,547.481642470899,564.510859255183,NaN,NaN,NaN,NaN,NaN,NaN,0,0,4,NaN,NaN,NaN,horizontal,horizontal,horizontal,none,none,none
1d,13,100235,1,52,52,24,M,NA,constant,homogeneous,4,absent,0.464177131652832,0,horizontal,vertical,1,1.02352195886465,green,4,NaN,607.549057043193,767.295052392579,NaN,NaN,967.295052392579,792.450942956807,992.450942956807,432.704947607421,632.704947607421,407.549057043193,607.549057043193,767.295052392579,NaN,NaN,NaN,NaN,0,0,0,4,NaN,NaN,horizontal,horizontal,horizontal,horizontal,none,none
1d,13,100235,1,53,53,24,M,NA,constant,homogeneous,3,absent,0.680525064468384,0,horizontal,vertical,1,0.752938485145569,green,3,NaN,688.215357568785,370.807518193712,NaN,NaN,657.405809614959,811.404581001536,1054.37883281626,617.787900804752,688.215357568785,370.807518193712,NaN,NaN,NaN,NaN,NaN,NaN,0,0,4,NaN,NaN,NaN,vertical,vertical,horizontal,none,none,none
1d,13,100235,1,54,54,24,M,NA,constant,homogeneous,5,absent,0.913259983062744,0,vertical,horizontal,1,0.941170466863192,green,5,NaN,550.57236181288,546.982518841471,NaN,NaN,672.5,820.836477965032,970.628304621509,789.501930496736,1032.95409169886,496.282156015671,773.345241866748,346.39691668109,550.57236181288,546.982518841471,NaN,NaN,0,0,0,0,4,NaN,vertical,horizontal,horizontal,vertical,vertical,none
1d,13,100235,1,55,55,24,M,NA,constant,homogeneous,6,absent,0.61352014541626,0,vertical,horizontal,1,0.894112471433786,green,2,NaN,1032.95409169886,703.717843984329,NaN,NaN,826.654758133252,853.60308331891,1032.95409169886,703.717843984329,1006.29933356561,450.114760665419,773.345241866748,346.39691668109,567.045908301137,496.282156015671,593.700666434388,749.885239334581,0,4,0,0,0,0,horizontal,vertical,horizontal,vertical,horizontal,vertical
1d,13,100235,1,56,56,24,M,NA,constant,homogeneous,5,absent,0.713848829269409,0,horizontal,vertical,1,0.988228462292598,green,4,NaN,560.378381699593,512.784863451954,NaN,NaN,942.594190385041,811.404581001536,1045.12173246427,529.712474266665,808.899371659138,345.155339110131,560.378381699593,512.784863451954,643.006323791957,800.942742169714,NaN,NaN,0,0,0,4,0,NaN,vertical,horizontal,vertical,horizontal,vertical,none
1d,13,100235,1,57,57,24,M,NA,constant,homogeneous,4,present,0.652798891067505,0,horizontal,vertical,1,0.623528997714703,green,2,1,1054.96116226488,595.549636358493,804.450363641507,854.96116226488,804.450363641507,854.96116226488,1054.96116226488,595.549636358493,795.549636358493,345.03883773512,545.03883773512,604.450363641507,NaN,NaN,NaN,NaN,0,4,0,0,NaN,NaN,vertical,horizontal,vertical,vertical,none,none
1d,13,100235,1,58,58,24,M,NA,constant,homogeneous,6,present,0.797549962997437,0,horizontal,vertical,1,0.788231981717623,green,6,2,610.498069503264,770.628304621509,1042.51941165526,678.799333565612,853.017481158529,849.42763818712,1042.51941165526,678.799333565612,989.501930496736,429.371695378491,746.982518841471,350.57236181288,557.480588344736,521.200666434388,610.498069503264,770.628304621509,0,0,0,0,0,4,vertical,horizontal,vertical,horizontal,vertical,horizontal
1d,13,100235,1,59,59,24,M,NA,constant,homogeneous,4,present,0.894481897354126,0,horizontal,vertical,1,1.04705095657936,green,2,1,1039.62161830041,512.784863451954,887.215136548046,839.621618300407,887.215136548046,839.621618300407,1039.62161830041,512.784863451954,712.784863451954,360.378381699593,560.378381699593,687.215136548046,NaN,NaN,NaN,NaN,0,4,0,0,NaN,NaN,vertical,horizontal,horizontal,horizontal,none,none
1d,13,100235,1,60,60,24,M,NA,constant,homogeneous,3,present,0.678157091140747,0,horizontal,vertical,1,1.07057995429406,green,1,3,680.284751489598,825.151636179026,664.870587620533,383.747735480111,680.284751489598,825.151636179026,1054.84466088987,591.100628340862,664.870587620533,383.747735480111,NaN,NaN,NaN,NaN,NaN,NaN,4,0,0,NaN,NaN,NaN,horizontal,vertical,horizontal,none,none,none
1d,13,100235,1,61,61,24,M,NA,constant,homogeneous,4,absent,0.736071109771729,0,vertical,horizontal,1,0.611764498857351,green,4,NaN,583.747735480111,464.870587620533,NaN,NaN,664.870587620533,816.252264519889,1016.25226451989,735.129412379467,935.129412379467,383.747735480111,583.747735480111,464.870587620533,NaN,NaN,NaN,NaN,0,0,0,4,NaN,NaN,horizontal,vertical,horizontal,vertical,none,none
1d,13,100235,1,62,62,24,M,NA,constant,homogeneous,5,present,0.818316221237183,0,horizontal,vertical,1,0.776467482860272,green,1,3,676.373546837184,823.028025320546,1031.10848569435,492.232343256122,676.373546837184,823.028025320546,973.909581815937,786.495193912888,1031.10848569435,492.232343256122,768.923317431687,346.900731331463,549.685068220846,551.343706178981,NaN,NaN,4,0,0,0,0,NaN,horizontal,vertical,horizontal,horizontal,vertical,none
1d,13,100235,1,63,63,24,M,NA,constant,homogeneous,3,absent,0.553002119064331,0,vertical,horizontal,1,0.905876970291138,green,2,NaN,1043.85771277057,674.554784704298,NaN,NaN,613.504806087112,773.909581815937,1043.85771277057,674.554784704298,742.637481142314,351.535633479765,NaN,NaN,NaN,NaN,NaN,NaN,0,4,0,NaN,NaN,NaN,horizontal,vertical,horizontal,none,none,none
1d,13,100235,1,64,64,24,M,NA,constant,homogeneous,6,present,0.95722508430481,0,vertical,horizontal,1,0.647057995429406,green,1,5,751.343706178981,850.314931779154,607.549057043193,432.704947607421,751.343706178981,850.314931779154,992.450942956807,767.295052392579,1041.10723677783,516.980120613425,848.656293821019,349.685068220846,607.549057043193,432.704947607421,558.892763222174,683.019879386575,4,0,0,0,0,0,vertical,horizontal,horizontal,vertical,horizontal,horizontal
1d,13,100235,2,1,65,24,M,NA,constant,homogeneous,6,absent,0.966356992721558,1,horizontal,horizontal,1,0.811760979432326,green,6,NaN,563.568117085469,695.524681321058,NaN,NaN,764.510859255183,852.518357529101,1000.94274216971,756.993676208043,1036.43188291453,504.475318678942,835.489140744817,347.4816424709,599.057257830286,443.006323791957,563.568117085469,695.524681321058,0,0,0,0,0,4,vertical,horizontal,horizontal,vertical,horizontal,horizontal
1d,13,100235,2,2,66,24,M,NA,constant,homogeneous,3,present,0.606462955474854,1,vertical,vertical,1,0.623528997714703,green,2,3,1036.43188291453,504.475318678942,599.057257830286,443.006323791957,764.510859255183,852.518357529101,1036.43188291453,504.475318678942,599.057257830286,443.006323791957,NaN,NaN,NaN,NaN,NaN,NaN,0,4,0,NaN,NaN,NaN,vertical,vertical,vertical,none,none,none
1d,13,100235,2,3,67,24,M,NA,constant,homogeneous,3,absent,0.783904075622559,1,vertical,vertical,1,0.858818974861732,green,1,NaN,907.767656743878,831.108485694346,NaN,NaN,907.767656743878,831.108485694346,946.261991269517,391.116228706307,545.970351986605,577.775285599347,NaN,NaN,NaN,NaN,NaN,NaN,4,0,0,NaN,NaN,NaN,vertical,horizontal,vertical,none,none,none
1d,13,100235,2,4,68,24,M,NA,constant,homogeneous,6,absent,0.582849025726318,0,horizontal,vertical,1,0.964699464577895,green,1,NaN,844.280285305067,851.125977018113,NaN,NaN,844.280285305067,851.125977018113,1039.62161830041,687.215136548046,995.341332995339,436.089159529932,755.719714694933,348.874022981887,560.378381699593,512.784863451954,604.658667004661,763.910840470068,4,0,0,0,0,0,horizontal,horizontal,vertical,vertical,vertical,vertical
1d,13,100235,2,5,69,24,M,NA,constant,homogeneous,4,absent,0.683132886886597,1,vertical,vertical,1,0.623528997714703,green,1,NaN,653.738008730483,808.883771293693,NaN,NaN,653.738008730483,808.883771293693,1008.88377129369,746.261991269517,946.261991269517,391.116228706307,591.116228706307,453.738008730483,NaN,NaN,NaN,NaN,4,0,0,0,NaN,NaN,vertical,horizontal,horizontal,vertical,none,none
1d,13,100235,2,6,70,24,M,NA,constant,homogeneous,5,present,1.29427695274353,1,horizontal,horizontal,1,0.647057995429406,green,1,2,822.224714400653,854.029648013395,1048.46436652023,657.362518857686,822.224714400653,854.029648013395,1048.46436652023,657.362518857686,931.334709102064,381.422338320961,632.704947607421,407.549057043193,565.271262369628,699.636437764765,NaN,NaN,4,0,0,0,0,NaN,horizontal,horizontal,vertical,horizontal,horizontal,none
1d,13,100235,2,7,71,24,M,NA,constant,homogeneous,3,absent,0.71282696723938,1,horizontal,horizontal,1,1.035286457722,green,1,NaN,1020.83647796503,727.5,NaN,NaN,1020.83647796503,727.5,800,345,579.163522034968,727.5,NaN,NaN,NaN,NaN,NaN,NaN,4,0,0,NaN,NaN,NaN,horizontal,horizontal,vertical,none,none,none
1d,13,100235,2,8,72,24,M,NA,constant,homogeneous,4,present,0.77307915687561,1,vertical,vertical,1,0.894112471433786,green,3,2,639.523300282292,401.827779828472,998.172220171528,439.523300282291,960.476699717708,798.172220171528,998.172220171528,439.523300282291,639.523300282292,401.827779828472,601.827779828472,760.476699717708,NaN,NaN,NaN,NaN,0,0,4,0,NaN,NaN,horizontal,horizontal,vertical,horizontal,none,none
1d,13,100235,2,9,73,24,M,NA,constant,homogeneous,3,present,0.515841007232666,1,vertical,vertical,1,0.952934965720543,green,3,2,632.704947607421,407.549057043193,1050.31493177915,551.343706178981,716.980120613425,841.107236777826,1050.31493177915,551.343706178981,632.704947607421,407.549057043193,NaN,NaN,NaN,NaN,NaN,NaN,0,0,4,NaN,NaN,NaN,horizontal,horizontal,vertical,none,none,none
1d,13,100235,2,10,74,24,M,NA,constant,homogeneous,3,absent,0.815856218338013,1,horizontal,horizontal,1,0.870583473719083,green,3,NaN,546.39691668109,573.345241866748,NaN,NaN,903.717843984329,832.954091698863,949.885239334581,393.700666434388,546.39691668109,573.345241866748,NaN,NaN,NaN,NaN,NaN,NaN,0,0,4,NaN,NaN,NaN,vertical,horizontal,horizontal,none,none,none
1d,13,100235,2,11,75,24,M,NA,constant,homogeneous,5,absent,1.13329696655273,1,vertical,vertical,1,0.658822494286757,green,1,NaN,782.212099195248,854.378832816255,NaN,NaN,782.212099195248,854.378832816255,1036.43188291453,695.524681321058,963.910840470068,404.658667004661,664.870587620533,383.747735480111,552.574589799621,661.690083377915,NaN,NaN,4,0,0,0,0,NaN,vertical,horizontal,horizontal,vertical,horizontal,none
1d,13,100235,2,12,76,24,M,NA,constant,homogeneous,6,present,0.921723127365112,0,horizontal,vertical,1,0.870583473719083,green,1,5,734.001143498857,846.311085703712,619.68777079743,419.68777079743,734.001143498857,846.311085703712,980.31222920257,780.31222920257,1046.31108570371,534.001143498857,865.998856501143,353.688914296288,619.68777079743,419.68777079743,553.688914296288,665.998856501143,4,0,0,0,0,0,horizontal,horizontal,vertical,vertical,horizontal,horizontal
1d,13,100235,2,13,77,24,M,NA,constant,homogeneous,5,absent,0.904237985610962,1,vertical,vertical,1,0.799996480574975,green,3,NaN,938.882953928832,386.139005173917,NaN,NaN,813.345668841951,854.650531362416,1046.31108570371,665.998856501143,938.882953928832,386.139005173917,639.523300282292,401.827779828472,561.936991243214,691.383827134052,NaN,NaN,0,0,4,0,0,NaN,vertical,vertical,vertical,horizontal,horizontal,none
1d,13,100235,2,14,78,24,M,NA,constant,homogeneous,5,present,0.570605993270874,1,vertical,vertical,1,0.611764498857351,green,3,5,1023.02802532055,476.373546837184,546.900731331463,568.923317431687,692.232343256122,831.108485694346,986.495193912888,773.909581815937,1023.02802532055,476.373546837184,751.343706178981,349.685068220846,546.900731331463,568.923317431687,NaN,NaN,0,0,4,0,0,NaN,vertical,horizontal,vertical,horizontal,vertical,none
1d,13,100235,2,15,79,24,M,NA,constant,homogeneous,5,present,0.72972297668457,1,horizontal,horizontal,1,0.976463963435246,green,5,2,646.537169096228,803.65205506206,1043.85771277057,525.445215295702,946.261991269517,808.883771293693,1043.85771277057,525.445215295702,804.450363641507,345.03883773512,558.892763222174,516.980120613425,646.537169096228,803.65205506206,NaN,NaN,0,0,0,0,4,NaN,horizontal,vertical,horizontal,horizontal,horizontal,none
1d,13,100235,2,16,80,24,M,NA,constant,homogeneous,4,absent,0.75231409072876,1,horizontal,horizontal,1,0.988228462292598,green,1,NaN,915.767577433584,827.206663668034,NaN,NaN,915.767577433584,827.206663668034,1027.20666366803,484.232422566416,684.232422566416,372.793336331966,572.793336331966,715.767577433584,NaN,NaN,NaN,NaN,4,0,0,0,NaN,NaN,horizontal,vertical,horizontal,horizontal,none,none
1d,13,100235,2,17,81,24,M,NA,constant,homogeneous,5,present,0.591197967529297,1,horizontal,horizontal,1,0.964699464577895,green,5,4,607.549057043193,767.295052392579,581.422338320961,468.665290897936,899.636437764765,834.728737630372,1054.0296480134,577.775285599347,857.362518857686,351.535633479765,581.422338320961,468.665290897936,607.549057043193,767.295052392579,NaN,NaN,0,0,0,0,4,NaN,horizontal,horizontal,horizontal,vertical,horizontal,none
1d,13,100235,2,18,82,24,M,NA,constant,homogeneous,6,absent,0.580557107925415,1,vertical,vertical,1,0.68235149200146,green,6,NaN,599.057257830286,756.993676208043,NaN,NaN,835.489140744817,852.518357529101,1036.43188291453,695.524681321058,1000.94274216971,443.006323791957,764.510859255183,347.4816424709,563.568117085469,504.475318678942,599.057257830286,756.993676208043,0,0,0,0,0,4,horizontal,vertical,horizontal,vertical,vertical,vertical
1d,13,100235,2,19,83,24,M,NA,constant,homogeneous,4,present,0.675199031829834,0,vertical,horizontal,1,0.941170466863192,green,1,2,970.628304621509,789.501930496736,989.501930496736,429.371695378491,970.628304621509,789.501930496736,989.501930496736,429.371695378491,629.371695378491,410.498069503264,610.498069503264,770.628304621509,NaN,NaN,NaN,NaN,4,0,0,0,NaN,NaN,vertical,vertical,vertical,horizontal,none,none
1d,13,100235,2,20,84,24,M,NA,constant,homogeneous,3,present,0.917896032333374,1,vertical,vertical,1,1.05881545543671,green,3,1,786.654331158049,345.349468637584,586.139005173917,738.882953928832,586.139005173917,738.882953928832,1027.20666366803,715.767577433584,786.654331158049,345.349468637584,NaN,NaN,NaN,NaN,NaN,NaN,0,0,4,NaN,NaN,NaN,vertical,vertical,vertical,none,none,none
1d,13,100235,2,21,85,24,M,NA,constant,homogeneous,6,absent,0.836388111114502,1,vertical,vertical,1,0.776467482860272,green,4,NaN,684.232422566416,372.793336331966,NaN,NaN,915.767577433584,827.206663668034,1054.65053136242,613.345668841951,938.882953928832,386.139005173917,684.232422566416,372.793336331966,545.349468637584,586.654331158049,661.117046071168,813.860994826083,0,0,0,4,0,0,horizontal,vertical,vertical,vertical,vertical,vertical
1d,13,100235,2,22,86,24,M,NA,constant,homogeneous,4,present,0.698612928390503,1,vertical,vertical,1,1.08234445315141,green,4,1,599.057257830286,443.006323791957,643.006323791957,800.942742169714,643.006323791957,800.942742169714,1000.94274216971,756.993676208043,956.993676208043,399.057257830286,599.057257830286,443.006323791957,NaN,NaN,NaN,NaN,0,0,0,4,NaN,NaN,vertical,horizontal,vertical,vertical,none,none
1d,13,100235,2,23,87,24,M,NA,constant,homogeneous,6,absent,NaN,0,vertical,none,0,0.705880489716163,green,1,NaN,773.345241866748,853.60308331891,NaN,NaN,773.345241866748,853.60308331891,1006.29933356561,749.885239334581,1032.95409169886,496.282156015671,826.654758133252,346.39691668109,593.700666434388,450.114760665419,567.045908301137,703.717843984329,4,0,0,0,0,0,vertical,horizontal,vertical,horizontal,vertical,horizontal
1d,13,100235,2,24,88,24,M,NA,constant,homogeneous,6,present,0.909286975860596,1,horizontal,horizontal,1,0.694115990858812,green,1,3,927.5,820.836477965032,927.5,379.163522034968,927.5,820.836477965032,1055,600,927.5,379.163522034968,672.5,379.163522034968,545,600,672.5,820.836477965032,4,0,0,0,0,0,horizontal,vertical,horizontal,horizontal,vertical,horizontal
1d,13,100235,2,25,89,24,M,NA,constant,homogeneous,5,absent,0.596731901168823,1,horizontal,horizontal,1,0.858818974861732,green,4,NaN,583.747735480111,464.870587620533,NaN,NaN,895.524681321058,836.431882914531,1054.37883281626,582.212099195248,861.690083377915,352.574589799621,583.747735480111,464.870587620533,604.658667004661,763.910840470068,NaN,NaN,0,0,0,4,0,NaN,horizontal,vertical,vertical,horizontal,vertical,none
1d,13,100235,2,26,90,24,M,NA,constant,homogeneous,3,absent,0.54764199256897,1,vertical,vertical,1,0.729409487430866,green,1,NaN,998.172220171528,760.476699717708,NaN,NaN,998.172220171528,760.476699717708,839.890788585259,348.13947314824,561.936991243214,691.383827134052,NaN,NaN,NaN,NaN,NaN,NaN,4,0,0,NaN,NaN,NaN,vertical,horizontal,horizontal,none,none,none
1d,13,100235,2,27,91,24,M,NA,constant,homogeneous,4,absent,0.447124004364014,1,vertical,vertical,1,0.635293496572054,green,2,NaN,1051.86052685176,639.890788585259,NaN,NaN,760.109211414741,851.86052685176,1051.86052685176,639.890788585259,839.890788585259,348.13947314824,548.13947314824,560.109211414741,NaN,NaN,NaN,NaN,0,4,0,0,NaN,NaN,horizontal,vertical,vertical,horizontal,none,none
1d,13,100235,2,28,92,24,M,NA,constant,homogeneous,4,present,0.728241920471191,1,horizontal,horizontal,1,1.0117574600073,green,3,2,953.462830903772,396.34794493794,1003.65205506206,753.462830903772,646.537169096228,803.65205506206,1003.65205506206,753.462830903772,953.462830903772,396.34794493794,596.34794493794,446.537169096228,NaN,NaN,NaN,NaN,0,0,4,0,NaN,NaN,horizontal,vertical,horizontal,vertical,none,none
1d,13,100235,2,29,93,24,M,NA,constant,homogeneous,3,absent,0.901876211166382,0,horizontal,vertical,1,0.917641469148489,green,1,NaN,684.232422566416,827.206663668034,NaN,NaN,684.232422566416,827.206663668034,1054.65053136242,586.654331158049,661.117046071168,386.139005173917,NaN,NaN,NaN,NaN,NaN,NaN,4,0,0,NaN,NaN,NaN,horizontal,horizontal,vertical,none,none,none
1d,13,100235,2,30,94,24,M,NA,constant,homogeneous,3,present,NaN,0,horizontal,none,0,0.799996480574975,green,1,3,919.715248510402,825.151636179026,545.155339110131,591.100628340862,919.715248510402,825.151636179026,935.129412379467,383.747735480111,545.155339110131,591.100628340862,NaN,NaN,NaN,NaN,NaN,NaN,4,0,0,NaN,NaN,NaN,horizontal,vertical,vertical,none,none,none
1d,13,100235,2,31,95,24,M,NA,constant,homogeneous,5,absent,0.403977155685425,1,horizontal,horizontal,1,0.788231981717623,green,2,NaN,989.501930496736,770.628304621509,NaN,NaN,696.282156015671,832.954091698863,989.501930496736,770.628304621509,1020.83647796503,472.5,746.982518841471,350.57236181288,546.39691668109,573.345241866748,NaN,NaN,0,4,0,0,0,NaN,vertical,horizontal,vertical,horizontal,vertical,none
1d,13,100235,2,32,96,24,M,NA,constant,homogeneous,5,present,0.560742139816284,1,horizontal,horizontal,1,0.623528997714703,green,2,4,1054.65053136242,613.345668841951,601.827779828472,439.523300282291,865.998856501143,846.311085703712,1054.65053136242,613.345668841951,891.383827134052,361.936991243214,601.827779828472,439.523300282291,586.139005173917,738.882953928832,NaN,NaN,0,4,0,0,0,NaN,vertical,horizontal,horizontal,horizontal,vertical,none
1d,13,100235,2,33,97,24,M,NA,constant,homogeneous,3,absent,0.648236989974976,1,vertical,vertical,1,0.811760979432326,green,2,NaN,848.656293821019,349.685068220846,NaN,NaN,992.450942956807,767.295052392579,848.656293821019,349.685068220846,558.892763222174,683.019879386575,NaN,NaN,NaN,NaN,NaN,NaN,0,4,0,NaN,NaN,NaN,vertical,vertical,vertical,none,none,none
1d,13,100235,2,34,98,24,M,NA,constant,homogeneous,5,absent,0.625563859939575,1,horizontal,horizontal,1,0.988228462292598,green,1,NaN,899.636437764765,834.728737630372,NaN,NaN,899.636437764765,834.728737630372,1054.0296480134,577.775285599347,857.362518857686,351.535633479765,581.422338320961,468.665290897936,607.549057043193,767.295052392579,NaN,NaN,4,0,0,0,0,NaN,horizontal,horizontal,horizontal,horizontal,horizontal,none
1d,13,100235,2,35,99,24,M,NA,constant,homogeneous,4,absent,0.84275221824646,1,horizontal,horizontal,1,0.835289977147029,green,3,NaN,874.554784704298,356.142287229426,NaN,NaN,725.445215295702,843.857712770574,1043.85771277057,674.554784704298,874.554784704298,356.142287229426,556.142287229426,525.445215295702,NaN,NaN,NaN,NaN,0,0,4,0,NaN,NaN,vertical,vertical,horizontal,vertical,none,none
1d,13,100235,2,36,100,24,M,NA,constant,homogeneous,6,absent,0.848904848098755,1,vertical,vertical,1,0.858818974861732,green,2,NaN,960.476699717708,798.172220171528,NaN,NaN,708.616172865948,838.063008756786,960.476699717708,798.172220171528,1051.86052685176,560.109211414741,891.383827134052,361.936991243214,639.523300282292,401.827779828472,548.13947314824,639.890788585259,0,4,0,0,0,0,vertical,vertical,vertical,vertical,horizontal,vertical
1d,13,100235,2,37,101,24,M,NA,constant,homogeneous,4,present,0.798754930496216,1,horizontal,horizontal,1,0.623528997714703,green,1,2,891.383827134052,838.063008756786,1038.06300875679,508.616172865948,891.383827134052,838.063008756786,1038.06300875679,508.616172865948,708.616172865948,361.936991243214,561.936991243214,691.383827134052,NaN,NaN,NaN,NaN,4,0,0,0,NaN,NaN,horizontal,horizontal,vertical,horizontal,none,none
1d,13,100235,2,38,102,24,M,NA,constant,homogeneous,6,present,1.08825898170471,1,vertical,vertical,1,0.658822494286757,green,5,4,549.685068220846,551.343706178981,716.980120613425,358.892763222174,883.019879386575,841.107236777826,1050.31493177915,648.656293821019,967.295052392579,407.549057043193,716.980120613425,358.892763222174,549.685068220846,551.343706178981,632.704947607421,792.450942956807,0,0,0,0,4,0,vertical,horizontal,horizontal,horizontal,vertical,horizontal
1d,13,100235,2,39,103,24,M,NA,constant,homogeneous,5,absent,1.0844829082489,1,vertical,vertical,1,0.717644988573514,green,1,NaN,808.899371659138,854.844660889869,NaN,NaN,808.899371659138,854.844660889869,1045.12173246427,670.287525733335,942.594190385041,388.595418998464,643.006323791957,399.057257830286,560.378381699593,687.215136548046,NaN,NaN,4,0,0,0,0,NaN,vertical,horizontal,vertical,vertical,vertical,none
1d,13,100235,2,40,104,24,M,NA,constant,homogeneous,4,absent,0.507428884506226,1,vertical,vertical,1,1.05881545543671,green,2,NaN,1054.65053136242,613.345668841951,NaN,NaN,786.654331158049,854.650531362416,1054.65053136242,613.345668841951,813.345668841951,345.349468637584,545.349468637584,586.654331158049,NaN,NaN,NaN,NaN,0,4,0,0,NaN,NaN,vertical,vertical,horizontal,horizontal,none,none
1d,13,100235,2,41,105,24,M,NA,constant,homogeneous,3,present,0.735188961029053,1,horizontal,horizontal,1,0.670586993144109,green,2,3,835.489140744817,347.4816424709,563.568117085469,695.524681321058,1000.94274216971,756.993676208043,835.489140744817,347.4816424709,563.568117085469,695.524681321058,NaN,NaN,NaN,NaN,NaN,NaN,0,4,0,NaN,NaN,NaN,horizontal,horizontal,horizontal,none,none,none
1d,13,100235,2,42,106,24,M,NA,constant,homogeneous,3,present,0.810497999191284,1,horizontal,horizontal,1,0.623528997714703,green,1,2,676.373546837184,823.028025320546,1054.96116226488,595.549636358493,676.373546837184,823.028025320546,1054.96116226488,595.549636358493,668.665290897936,381.422338320961,NaN,NaN,NaN,NaN,NaN,NaN,4,0,0,NaN,NaN,NaN,horizontal,horizontal,horizontal,none,none,none
1d,13,100235,2,43,107,24,M,NA,constant,homogeneous,6,present,0.967171907424927,1,horizontal,horizontal,1,0.811760979432326,green,4,1,911.784642431215,370.807518193712,688.215357568785,829.192481806288,688.215357568785,829.192481806288,942.594190385041,811.404581001536,1054.37883281626,582.212099195248,911.784642431215,370.807518193712,657.405809614959,388.595418998464,545.621167183745,617.787900804752,0,0,0,4,0,0,vertical,horizontal,vertical,horizontal,horizontal,horizontal
1d,13,100235,2,44,108,24,M,NA,constant,homogeneous,3,absent,0.812391042709351,1,horizontal,horizontal,1,0.882347972576435,green,3,NaN,552.574589799621,661.690083377915,NaN,NaN,977.137884467044,783.431649086356,870.287525733335,354.878267535729,552.574589799621,661.690083377915,NaN,NaN,NaN,NaN,NaN,NaN,0,0,4,NaN,NaN,NaN,vertical,vertical,horizontal,none,none,none
1d,13,100235,2,45,109,24,M,NA,constant,homogeneous,4,present,0.815418004989624,1,horizontal,horizontal,1,0.717644988573514,green,4,3,551.535633479765,542.637481142314,857.362518857686,351.535633479765,742.637481142314,848.464366520235,1048.46436652023,657.362518857686,857.362518857686,351.535633479765,551.535633479765,542.637481142314,NaN,NaN,NaN,NaN,0,0,0,4,NaN,NaN,vertical,horizontal,vertical,horizontal,none,none
1d,13,100235,2,46,110,24,M,NA,constant,homogeneous,6,present,0.771007061004639,0,horizontal,vertical,1,0.76470298400292,green,3,1,1003.65205506206,446.537169096228,831.076682568313,853.099268668537,831.076682568313,853.099268668537,1034.72873763037,699.636437764765,1003.65205506206,446.537169096228,768.923317431687,346.900731331463,565.271262369628,500.363562235235,596.34794493794,753.462830903772,0,0,4,0,0,0,horizontal,horizontal,horizontal,horizontal,vertical,horizontal
1d,13,100235,2,47,111,24,M,NA,constant,homogeneous,5,present,0.863956928253174,0,vertical,horizontal,1,0.858818974861732,green,3,1,903.717843984329,367.045908301137,853.017481158529,849.42763818712,853.017481158529,849.42763818712,1053.60308331891,626.654758133252,903.717843984329,367.045908301137,610.498069503264,429.371695378491,579.163522034968,727.5,NaN,NaN,0,0,4,0,0,NaN,vertical,horizontal,vertical,vertical,horizontal,none
1d,13,100235,2,48,112,24,M,NA,constant,homogeneous,4,present,0.669504880905151,1,horizontal,horizontal,1,0.611764498857351,green,2,4,1034.72873763037,500.363562235235,565.271262369628,699.636437764765,899.636437764765,834.728737630372,1034.72873763037,500.363562235235,700.363562235235,365.271262369628,565.271262369628,699.636437764765,NaN,NaN,NaN,NaN,0,4,0,0,NaN,NaN,vertical,horizontal,horizontal,vertical,none,none
1d,13,100235,2,49,113,24,M,NA,constant,homogeneous,3,present,0.727397203445435,1,vertical,vertical,1,0.611764498857351,green,3,2,545.621167183745,617.787900804752,911.784642431215,370.807518193712,942.594190385041,811.404581001536,911.784642431215,370.807518193712,545.621167183745,617.787900804752,NaN,NaN,NaN,NaN,NaN,NaN,0,0,4,NaN,NaN,NaN,horizontal,horizontal,vertical,none,none,none
1d,13,100235,2,50,114,24,M,NA,constant,homogeneous,6,present,0.645925998687744,1,vertical,vertical,1,0.799996480574975,green,3,4,1013.86099482608,461.117046071168,786.654331158049,345.349468637584,813.345668841951,854.650531362416,1027.20666366803,715.767577433584,1013.86099482608,461.117046071168,786.654331158049,345.349468637584,572.793336331966,484.232422566416,586.139005173917,738.882953928832,0,0,4,0,0,0,vertical,horizontal,vertical,horizontal,vertical,horizontal
1d,13,100235,2,51,115,24,M,NA,constant,homogeneous,3,present,0.782995939254761,1,horizontal,horizontal,1,1.0117574600073,green,2,3,953.462830903772,396.34794493794,546.900731331463,568.923317431687,899.636437764765,834.728737630372,953.462830903772,396.34794493794,546.900731331463,568.923317431687,NaN,NaN,NaN,NaN,NaN,NaN,0,4,0,NaN,NaN,NaN,vertical,horizontal,horizontal,none,none,none
1d,13,100235,2,52,116,24,M,NA,constant,homogeneous,5,present,1.10977387428284,1,vertical,vertical,1,0.917641469148489,green,3,1,923.626453162816,376.971974679454,831.076682568313,853.099268668537,831.076682568313,853.099268668537,1050.31493177915,648.656293821019,923.626453162816,376.971974679454,626.090418184063,413.504806087112,568.891514305654,707.767656743878,NaN,NaN,0,0,4,0,0,NaN,horizontal,vertical,vertical,horizontal,horizontal,none
1d,13,100235,2,53,117,24,M,NA,constant,homogeneous,6,present,0.476690053939819,1,vertical,vertical,1,0.635293496572054,green,3,2,1011.40458100154,457.40580961496,1029.19248180629,711.784642431215,817.787900804752,854.378832816255,1029.19248180629,711.784642431215,1011.40458100154,457.40580961496,782.212099195248,345.621167183745,570.807518193712,488.215357568785,588.595418998464,742.594190385041,0,0,4,0,0,0,vertical,vertical,vertical,vertical,vertical,vertical
1d,13,100235,2,54,118,24,M,NA,constant,homogeneous,6,absent,0.57929801940918,1,horizontal,horizontal,1,1.04705095657936,green,3,NaN,963.910840470068,404.658667004661,NaN,NaN,887.215136548046,839.621618300407,1051.12597701811,644.280285305067,963.910840470068,404.658667004661,712.784863451954,360.378381699593,548.874022981887,555.719714694933,636.089159529932,795.341332995339,0,0,4,0,0,0,vertical,vertical,horizontal,horizontal,vertical,horizontal
1d,13,100235,2,55,119,24,M,NA,constant,homogeneous,5,absent,1.41211318969727,1,vertical,vertical,1,0.658822494286757,green,1,NaN,721.200666434388,842.519411655264,NaN,NaN,721.200666434388,842.519411655264,1006.29933356561,749.885239334581,1006.29933356561,450.114760665419,721.200666434388,357.480588344736,545,600,NaN,NaN,4,0,0,0,0,NaN,vertical,horizontal,horizontal,vertical,horizontal,none
1d,13,100235,2,56,120,24,M,NA,constant,homogeneous,4,absent,0.73373007774353,1,horizontal,horizontal,1,1.04705095657936,green,1,NaN,927.5,820.836477965032,NaN,NaN,927.5,820.836477965032,1020.83647796503,472.5,672.5,379.163522034968,579.163522034968,727.5,NaN,NaN,NaN,NaN,4,0,0,0,NaN,NaN,horizontal,vertical,vertical,horizontal,none,none
1d,13,100235,2,57,121,24,M,NA,constant,homogeneous,4,present,1.38267803192139,1,vertical,vertical,1,0.705880489716163,green,2,4,998.172220171528,439.523300282291,601.827779828472,760.476699717708,960.476699717708,798.172220171528,998.172220171528,439.523300282291,639.523300282292,401.827779828472,601.827779828472,760.476699717708,NaN,NaN,NaN,NaN,0,4,0,0,NaN,NaN,horizontal,vertical,horizontal,horizontal,none,none
1d,13,100235,2,58,122,24,M,NA,constant,homogeneous,5,absent,0.694171905517578,1,horizontal,horizontal,1,0.988228462292598,green,1,NaN,938.882953928832,813.860994826083,NaN,NaN,938.882953928832,813.860994826083,1046.31108570371,534.001143498857,813.345668841951,345.349468637584,561.936991243214,508.616172865948,639.523300282292,798.172220171528,NaN,NaN,4,0,0,0,0,NaN,horizontal,horizontal,horizontal,vertical,vertical,none
1d,13,100235,2,59,123,24,M,NA,constant,homogeneous,4,absent,0.833026885986328,1,vertical,vertical,1,0.635293496572054,green,3,NaN,907.767656743878,368.891514305654,NaN,NaN,692.232343256122,831.108485694346,1031.10848569435,707.767656743878,907.767656743878,368.891514305654,568.891514305654,492.232343256122,NaN,NaN,NaN,NaN,0,0,4,0,NaN,NaN,horizontal,vertical,vertical,vertical,none,none
1d,13,100235,2,60,124,24,M,NA,constant,homogeneous,6,absent,0.978060960769653,1,horizontal,horizontal,1,0.835289977147029,green,6,NaN,546.39691668109,626.654758133252,NaN,NaN,696.282156015671,832.954091698863,949.885239334581,806.299333565612,1053.60308331891,573.345241866748,903.717843984329,367.045908301137,650.114760665419,393.700666434388,546.39691668109,626.654758133252,0,0,0,0,0,4,horizontal,vertical,horizontal,horizontal,vertical,horizontal
1d,13,100235,2,61,125,24,M,NA,constant,homogeneous,5,present,0.638751983642578,1,vertical,vertical,1,1.02352195886465,green,2,3,1011.40458100154,742.594190385041,1000.94274216971,443.006323791957,729.712474266665,845.121732464271,1011.40458100154,742.594190385041,1000.94274216971,443.006323791957,712.784863451954,360.378381699593,545.155339110131,608.899371659138,NaN,NaN,0,4,0,0,0,NaN,horizontal,vertical,horizontal,vertical,vertical,none
1d,13,100235,2,62,126,24,M,NA,constant,homogeneous,4,absent,0.68022894859314,1,horizontal,horizontal,1,1.02352195886465,green,2,NaN,1045.12173246427,670.287525733335,NaN,NaN,729.712474266665,845.121732464271,1045.12173246427,670.287525733335,870.287525733335,354.878267535729,554.878267535729,529.712474266665,NaN,NaN,NaN,NaN,0,4,0,0,NaN,NaN,vertical,horizontal,horizontal,horizontal,none,none
1d,13,100235,2,63,127,24,M,NA,constant,homogeneous,3,absent,0.958244800567627,1,vertical,vertical,1,0.623528997714703,green,3,NaN,552.574589799621,538.309916622085,NaN,NaN,870.287525733335,845.121732464271,977.137884467044,416.568350913644,552.574589799621,538.309916622085,NaN,NaN,NaN,NaN,NaN,NaN,0,0,4,NaN,NaN,NaN,vertical,vertical,vertical,none,none,none
1d,13,100235,2,64,128,24,M,NA,constant,homogeneous,6,present,0.784799098968506,1,vertical,vertical,1,0.952934965720543,green,5,3,545.970351986605,577.775285599347,946.261991269517,391.116228706307,907.767656743878,831.108485694346,1054.0296480134,622.224714400653,946.261991269517,391.116228706307,692.232343256122,368.891514305654,545.970351986605,577.775285599347,653.738008730483,808.883771293693,0,0,0,0,4,0,vertical,vertical,vertical,vertical,vertical,horizontal
1d,13,100235,3,1,129,24,M,NA,constant,homogeneous,3,absent,0.725664854049683,1,horizontal,horizontal,1,0.694115990858812,green,1,NaN,1011.40458100154,742.594190385041,NaN,NaN,1011.40458100154,742.594190385041,817.787900804752,345.621167183745,570.807518193712,711.784642431215,NaN,NaN,NaN,NaN,NaN,NaN,4,0,0,NaN,NaN,NaN,horizontal,vertical,vertical,none,none,none
1d,13,100235,3,2,130,24,M,NA,constant,homogeneous,6,absent,0.567958831787109,1,horizontal,horizontal,1,0.988228462292598,green,6,NaN,545.349468637584,613.345668841951,NaN,NaN,684.232422566416,827.206663668034,938.882953928832,813.860994826083,1054.65053136242,586.654331158049,915.767577433584,372.793336331966,661.117046071168,386.139005173917,545.349468637584,613.345668841951,0,0,0,0,0,4,horizontal,vertical,horizontal,horizontal,vertical,horizontal
1d,13,100235,3,3,131,24,M,NA,constant,homogeneous,4,absent,0.438041925430298,1,vertical,vertical,1,0.929405968005841,green,2,NaN,1053.09926866854,568.923317431687,NaN,NaN,831.076682568313,853.099268668537,1053.09926866854,568.923317431687,768.923317431687,346.900731331463,546.900731331463,631.076682568313,NaN,NaN,NaN,NaN,0,4,0,0,NaN,NaN,horizontal,vertical,horizontal,horizontal,none,none
1d,13,100235,3,4,132,24,M,NA,constant,homogeneous,5,present,1.10497784614563,1,vertical,vertical,1,0.694115990858812,green,1,4,742.637481142314,848.464366520235,700.363562235235,365.271262369628,742.637481142314,848.464366520235,1018.57766167904,731.334709102064,992.450942956807,432.704947607421,700.363562235235,365.271262369628,545.970351986605,622.224714400653,NaN,NaN,4,0,0,0,0,NaN,vertical,horizontal,vertical,vertical,horizontal,none
1d,13,100235,3,5,133,24,M,NA,constant,homogeneous,3,present,0.60989785194397,1,horizontal,horizontal,1,0.929405968005841,green,1,3,1003.65205506206,753.462830903772,565.271262369628,699.636437764765,1003.65205506206,753.462830903772,831.076682568313,346.900731331463,565.271262369628,699.636437764765,NaN,NaN,NaN,NaN,NaN,NaN,4,0,0,NaN,NaN,NaN,horizontal,vertical,vertical,none,none,none
1d,13,100235,3,6,134,24,M,NA,constant,homogeneous,6,absent,1.1736159324646,1,vertical,vertical,1,0.776467482860272,green,1,NaN,725.445215295702,843.857712770574,NaN,NaN,725.445215295702,843.857712770574,973.909581815937,786.495193912888,1048.46436652023,542.637481142314,874.554784704298,356.142287229426,626.090418184063,413.504806087112,551.535633479765,657.362518857686,4,0,0,0,0,0,vertical,horizontal,vertical,vertical,vertical,vertical
1d,13,100235,3,7,135,24,M,NA,constant,homogeneous,5,absent,0.587700128555298,1,horizontal,horizontal,1,0.729409487430866,green,1,NaN,935.129412379467,816.252264519889,NaN,NaN,935.129412379467,816.252264519889,1047.42541020038,538.309916622085,817.787900804752,345.621167183745,563.568117085469,504.475318678942,636.089159529932,795.341332995339,NaN,NaN,4,0,0,0,0,NaN,horizontal,vertical,horizontal,vertical,vertical,none
1d,13,100235,3,8,136,24,M,NA,constant,homogeneous,3,absent,1.01124286651611,0,horizontal,vertical,1,0.776467482860272,green,2,NaN,1027.20666366803,484.232422566416,NaN,NaN,786.654331158049,854.650531362416,1027.20666366803,484.232422566416,586.139005173917,461.117046071168,NaN,NaN,NaN,NaN,NaN,NaN,0,4,0,NaN,NaN,NaN,vertical,horizontal,vertical,none,none,none
1d,13,100235,3,9,137,24,M,NA,constant,homogeneous,6,absent,1.38083004951477,1,vertical,vertical,1,0.84705447600438,green,4,NaN,887.215136548046,360.378381699593,NaN,NaN,712.784863451954,839.621618300407,963.910840470068,795.341332995339,1051.12597701811,555.719714694933,887.215136548046,360.378381699593,636.089159529932,404.658667004661,548.874022981887,644.280285305067,0,0,0,4,0,0,vertical,vertical,horizontal,vertical,horizontal,vertical
1d,13,100235,3,10,138,24,M,NA,constant,homogeneous,5,present,0.81712794303894,1,vertical,vertical,1,0.623528997714703,green,5,4,545.349468637584,586.654331158049,734.001143498857,353.688914296288,708.616172865948,838.063008756786,998.172220171528,760.476699717708,1013.86099482608,461.117046071168,734.001143498857,353.688914296288,545.349468637584,586.654331158049,NaN,NaN,0,0,0,0,4,NaN,horizontal,horizontal,horizontal,horizontal,vertical,none
1d,13,100235,3,11,139,24,M,NA,constant,homogeneous,4,absent,0.758264064788818,1,vertical,vertical,1,0.635293496572054,green,1,NaN,646.537169096228,803.65205506206,NaN,NaN,646.537169096228,803.65205506206,1003.65205506206,753.462830903772,953.462830903772,396.34794493794,596.34794493794,446.537169096228,NaN,NaN,NaN,NaN,4,0,0,0,NaN,NaN,vertical,horizontal,horizontal,vertical,none,none
1d,13,100235,3,12,140,24,M,NA,constant,homogeneous,5,present,0.620760917663574,1,horizontal,horizontal,1,0.76470298400292,green,2,3,1054.0296480134,622.224714400653,899.636437764765,365.271262369628,857.362518857686,848.464366520235,1054.0296480134,622.224714400653,899.636437764765,365.271262369628,607.549057043193,432.704947607421,581.422338320961,731.334709102064,NaN,NaN,0,4,0,0,0,NaN,horizontal,horizontal,vertical,horizontal,horizontal,none
1d,13,100235,3,13,141,24,M,NA,constant,homogeneous,4,absent,0.414959907531738,1,horizontal,horizontal,1,0.670586993144109,green,2,NaN,1054.65053136242,613.345668841951,NaN,NaN,786.654331158049,854.650531362416,1054.65053136242,613.345668841951,813.345668841951,345.349468637584,545.349468637584,586.654331158049,NaN,NaN,NaN,NaN,0,4,0,0,NaN,NaN,horizontal,horizontal,vertical,horizontal,none,none
1d,13,100235,3,14,142,24,M,NA,constant,homogeneous,6,present,0.996907949447632,1,horizontal,horizontal,1,0.68235149200146,green,4,2,848.656293821019,349.685068220846,992.450942956807,767.295052392579,751.343706178981,850.314931779154,992.450942956807,767.295052392579,1041.10723677783,516.980120613425,848.656293821019,349.685068220846,607.549057043193,432.704947607421,558.892763222174,683.019879386575,0,0,0,4,0,0,vertical,horizontal,horizontal,horizontal,horizontal,vertical
1d,13,100235,3,15,143,24,M,NA,constant,homogeneous,4,present,0.751341104507446,1,vertical,vertical,1,0.717644988573514,green,2,1,1031.10848569435,707.767656743878,692.232343256122,831.108485694346,692.232343256122,831.108485694346,1031.10848569435,707.767656743878,907.767656743878,368.891514305654,568.891514305654,492.232343256122,NaN,NaN,NaN,NaN,0,4,0,0,NaN,NaN,vertical,vertical,horizontal,horizontal,none,none
1d,13,100235,3,16,144,24,M,NA,constant,homogeneous,3,absent,0.954928159713745,1,vertical,vertical,1,1.035286457722,green,1,NaN,725.445215295702,843.857712770574,NaN,NaN,725.445215295702,843.857712770574,1048.46436652023,542.637481142314,626.090418184063,413.504806087112,NaN,NaN,NaN,NaN,NaN,NaN,4,0,0,NaN,NaN,NaN,vertical,horizontal,horizontal,none,none,none
1d,13,100235,3,17,145,24,M,NA,constant,homogeneous,3,present,0.604055881500244,1,vertical,vertical,1,1.08234445315141,green,1,2,915.767577433584,827.206663668034,938.882953928832,386.139005173917,915.767577433584,827.206663668034,938.882953928832,386.139005173917,545.349468637584,586.654331158049,NaN,NaN,NaN,NaN,NaN,NaN,4,0,0,NaN,NaN,NaN,vertical,horizontal,horizontal,none,none,none
1d,13,100235,3,18,146,24,M,NA,constant,homogeneous,4,present,0.732202053070068,1,vertical,vertical,1,0.988228462292598,green,4,2,560.378381699593,687.215136548046,1039.62161830041,512.784863451954,887.215136548046,839.621618300407,1039.62161830041,512.784863451954,712.784863451954,360.378381699593,560.378381699593,687.215136548046,NaN,NaN,NaN,NaN,0,0,0,4,NaN,NaN,horizontal,vertical,horizontal,vertical,none,none
1d,13,100235,3,19,147,24,M,NA,constant,homogeneous,5,absent,0.788671970367432,0,horizontal,vertical,1,0.68235149200146,green,1,NaN,938.882953928832,813.860994826083,NaN,NaN,938.882953928832,813.860994826083,1046.31108570371,534.001143498857,813.345668841951,345.349468637584,561.936991243214,508.616172865948,639.523300282292,798.172220171528,NaN,NaN,4,0,0,0,0,NaN,horizontal,horizontal,vertical,horizontal,horizontal,none
1d,13,100235,3,20,148,24,M,NA,constant,homogeneous,6,present,0.926537036895752,1,vertical,vertical,1,0.694115990858812,green,6,4,622.862115532956,783.431649086356,729.712474266665,354.878267535729,870.287525733335,845.121732464271,1047.42541020038,661.690083377915,977.137884467044,416.568350913644,729.712474266665,354.878267535729,552.574589799621,538.309916622085,622.862115532956,783.431649086356,0,0,0,0,0,4,vertical,vertical,horizontal,vertical,horizontal,vertical
1d,13,100235,3,21,149,24,M,NA,constant,homogeneous,4,present,0.629151821136475,1,horizontal,horizontal,1,0.799996480574975,green,2,3,992.450942956807,767.295052392579,967.295052392579,407.549057043193,632.704947607421,792.450942956807,992.450942956807,767.295052392579,967.295052392579,407.549057043193,607.549057043193,432.704947607421,NaN,NaN,NaN,NaN,0,4,0,0,NaN,NaN,horizontal,horizontal,horizontal,horizontal,none,none
1d,13,100235,3,22,150,24,M,NA,constant,homogeneous,4,absent,0.638504981994629,1,vertical,vertical,1,0.635293496572054,green,1,NaN,949.885239334581,806.299333565612,NaN,NaN,949.885239334581,806.299333565612,1006.29933356561,450.114760665419,650.114760665419,393.700666434388,593.700666434388,749.885239334581,NaN,NaN,NaN,NaN,4,0,0,0,NaN,NaN,vertical,vertical,vertical,horizontal,none,none
1d,13,100235,3,23,151,24,M,NA,constant,homogeneous,6,present,0.776995897293091,1,vertical,vertical,1,1.07057995429406,green,4,5,891.383827134052,361.936991243214,639.523300282292,401.827779828472,708.616172865948,838.063008756786,960.476699717708,798.172220171528,1051.86052685176,560.109211414741,891.383827134052,361.936991243214,639.523300282292,401.827779828472,548.13947314824,639.890788585259,0,0,0,4,0,0,horizontal,horizontal,horizontal,vertical,horizontal,horizontal
1d,13,100235,3,24,152,24,M,NA,constant,homogeneous,4,absent,1.07308006286621,1,horizontal,horizontal,1,0.811760979432326,green,1,NaN,853.017481158529,849.42763818712,NaN,NaN,853.017481158529,849.42763818712,1049.42763818712,546.982518841471,746.982518841471,350.57236181288,550.57236181288,653.017481158529,NaN,NaN,NaN,NaN,4,0,0,0,NaN,NaN,horizontal,vertical,vertical,horizontal,none,none
1d,13,100235,3,25,153,24,M,NA,constant,homogeneous,6,absent,0.655524015426636,1,vertical,vertical,1,0.647057995429406,green,4,NaN,696.282156015671,367.045908301137,NaN,NaN,903.717843984329,832.954091698863,1053.60308331891,626.654758133252,949.885239334581,393.700666434388,696.282156015671,367.045908301137,546.39691668109,573.345241866748,650.114760665419,806.299333565612,0,0,0,4,0,0,horizontal,vertical,horizontal,vertical,vertical,vertical
1d,13,100235,3,26,154,24,M,NA,constant,homogeneous,3,absent,1.02268195152283,1,horizontal,horizontal,1,0.694115990858812,green,1,NaN,725.445215295702,843.857712770574,NaN,NaN,725.445215295702,843.857712770574,1048.46436652023,542.637481142314,626.090418184063,413.504806087112,NaN,NaN,NaN,NaN,NaN,NaN,4,0,0,NaN,NaN,NaN,horizontal,vertical,horizontal,none,none,none
1d,13,100235,3,27,155,24,M,NA,constant,homogeneous,5,absent,0.802844047546387,1,horizontal,horizontal,1,0.976463963435246,green,1,NaN,938.882953928832,813.860994826083,NaN,NaN,938.882953928832,813.860994826083,1046.31108570371,534.001143498857,813.345668841951,345.349468637584,561.936991243214,508.616172865948,639.523300282292,798.172220171528,NaN,NaN,4,0,0,0,0,NaN,horizontal,vertical,horizontal,vertical,horizontal,none
1d,13,100235,3,28,156,24,M,NA,constant,homogeneous,5,present,0.651413917541504,1,horizontal,horizontal,1,0.611764498857351,green,1,5,751.343706178981,850.314931779154,546.900731331463,631.076682568313,751.343706178981,850.314931779154,1023.02802532055,723.626453162816,986.495193912888,426.090418184063,692.232343256122,368.891514305654,546.900731331463,631.076682568313,NaN,NaN,4,0,0,0,0,NaN,horizontal,horizontal,horizontal,vertical,vertical,none
1d,13,100235,3,29,157,24,M,NA,constant,homogeneous,3,absent,0.617378950119019,1,vertical,vertical,1,1.04705095657936,green,1,NaN,903.717843984329,832.954091698863,NaN,NaN,903.717843984329,832.954091698863,949.885239334581,393.700666434388,546.39691668109,573.345241866748,NaN,NaN,NaN,NaN,NaN,NaN,4,0,0,NaN,NaN,NaN,vertical,horizontal,vertical,none,none,none
1d,13,100235,3,30,158,24,M,NA,constant,homogeneous,3,absent,0.529675006866455,1,vertical,vertical,1,0.976463963435246,green,2,NaN,967.295052392579,407.549057043193,NaN,NaN,883.019879386575,841.107236777826,967.295052392579,407.549057043193,549.685068220846,551.343706178981,NaN,NaN,NaN,NaN,NaN,NaN,0,4,0,NaN,NaN,NaN,vertical,vertical,horizontal,none,none,none
1d,13,100235,3,31,159,24,M,NA,constant,homogeneous,5,absent,0.612958908081055,1,vertical,vertical,1,0.623528997714703,green,1,NaN,903.717843984329,832.954091698863,NaN,NaN,903.717843984329,832.954091698863,1053.60308331891,573.345241866748,853.017481158529,350.57236181288,579.163522034968,472.5,610.498069503264,770.628304621509,NaN,NaN,4,0,0,0,0,NaN,vertical,horizontal,vertical,vertical,vertical,none
1d,13,100235,3,32,160,24,M,NA,constant,homogeneous,6,present,0.453590869903564,0,horizontal,vertical,1,0.6,green,3,4,1050.31493177915,551.343706178981,883.019879386575,358.892763222174,716.980120613425,841.107236777826,967.295052392579,792.450942956807,1050.31493177915,551.343706178981,883.019879386575,358.892763222174,632.704947607421,407.549057043193,549.685068220846,648.656293821019,0,0,4,0,0,0,horizontal,vertical,horizontal,horizontal,vertical,horizontal
1d,13,100235,3,33,161,24,M,NA,constant,homogeneous,4,present,1.00359201431274,1,horizontal,horizontal,1,0.84705447600438,green,3,1,786.654331158049,345.349468637584,813.345668841951,854.650531362416,813.345668841951,854.650531362416,1054.65053136242,586.654331158049,786.654331158049,345.349468637584,545.349468637584,613.345668841951,NaN,NaN,NaN,NaN,0,0,4,0,NaN,NaN,vertical,vertical,horizontal,vertical,none,none
1d,13,100235,3,34,162,24,M,NA,constant,homogeneous,4,absent,0.947288990020752,1,horizontal,horizontal,1,0.988228462292598,green,1,NaN,970.628304621509,789.501930496736,NaN,NaN,970.628304621509,789.501930496736,989.501930496736,429.371695378491,629.371695378491,410.498069503264,610.498069503264,770.628304621509,NaN,NaN,NaN,NaN,4,0,0,0,NaN,NaN,horizontal,horizontal,horizontal,horizontal,none,none
1d,13,100235,3,35,163,24,M,NA,constant,homogeneous,5,absent,0.676781892776489,1,vertical,vertical,1,0.894112471433786,green,1,NaN,949.885239334581,806.299333565612,NaN,NaN,949.885239334581,806.299333565612,1042.51941165526,521.200666434388,800,345,557.480588344736,521.200666434388,650.114760665419,806.299333565612,NaN,NaN,4,0,0,0,0,NaN,vertical,vertical,vertical,horizontal,vertical,none
1d,13,100235,3,36,164,24,M,NA,constant,homogeneous,4,present,0.664904832839966,1,horizontal,horizontal,1,0.929405968005841,green,1,4,887.215136548046,839.621618300407,560.378381699593,687.215136548046,887.215136548046,839.621618300407,1039.62161830041,512.784863451954,712.784863451954,360.378381699593,560.378381699593,687.215136548046,NaN,NaN,NaN,NaN,4,0,0,0,NaN,NaN,horizontal,vertical,horizontal,horizontal,none,none
1d,13,100235,3,37,165,24,M,NA,constant,homogeneous,6,present,1.32126498222351,1,horizontal,horizontal,1,0.752938485145569,green,4,1,791.100628340862,345.155339110131,808.899371659138,854.844660889869,808.899371659138,854.844660889869,1025.15163617903,719.715248510402,1016.25226451989,464.870587620533,791.100628340862,345.155339110131,574.848363820974,480.284751489598,583.747735480111,735.129412379467,0,0,0,4,0,0,horizontal,horizontal,horizontal,horizontal,vertical,vertical
1d,13,100235,3,38,166,24,M,NA,constant,homogeneous,5,present,0.553906917572021,1,horizontal,horizontal,1,0.894112471433786,green,1,3,817.787900804752,854.378832816255,935.129412379467,383.747735480111,817.787900804752,854.378832816255,1047.42541020038,661.690083377915,935.129412379467,383.747735480111,636.089159529932,404.658667004661,563.568117085469,695.524681321058,NaN,NaN,4,0,0,0,0,NaN,horizontal,vertical,horizontal,horizontal,horizontal,none
1d,13,100235,3,39,167,24,M,NA,constant,homogeneous,6,present,0.926651000976562,1,vertical,vertical,1,0.870583473719083,green,6,2,643.006323791957,800.942742169714,1052.5183575291,635.489140744817,895.524681321058,836.431882914531,1052.5183575291,635.489140744817,956.993676208043,399.057257830286,704.475318678942,363.568117085469,547.481642470899,564.510859255183,643.006323791957,800.942742169714,0,0,0,0,0,4,horizontal,horizontal,horizontal,vertical,vertical,vertical
1d,13,100235,3,40,168,24,M,NA,constant,homogeneous,3,present,0.72763204574585,1,horizontal,horizontal,1,0.717644988573514,green,3,2,786.654331158049,345.349468637584,1027.20666366803,715.767577433584,586.139005173917,738.882953928832,1027.20666366803,715.767577433584,786.654331158049,345.349468637584,NaN,NaN,NaN,NaN,NaN,NaN,0,0,4,NaN,NaN,NaN,vertical,horizontal,horizontal,none,none,none
1d,13,100235,3,41,169,24,M,NA,constant,homogeneous,5,present,0.8833909034729,1,vertical,vertical,1,1.05881545543671,green,2,5,992.450942956807,767.295052392579,545.970351986605,577.775285599347,700.363562235235,834.728737630372,992.450942956807,767.295052392579,1018.57766167904,468.665290897936,742.637481142314,351.535633479765,545.970351986605,577.775285599347,NaN,NaN,0,4,0,0,0,NaN,vertical,vertical,vertical,horizontal,vertical,none
1d,13,100235,3,42,170,24,M,NA,constant,homogeneous,5,absent,0.530165910720825,1,vertical,vertical,1,0.635293496572054,green,2,NaN,977.137884467044,783.431649086356,NaN,NaN,680.284751489598,825.151636179026,977.137884467044,783.431649086356,1029.19248180629,488.215357568785,764.510859255183,347.4816424709,548.874022981887,555.719714694933,NaN,NaN,0,4,0,0,0,NaN,vertical,vertical,horizontal,vertical,vertical,none
1d,13,100235,3,43,171,24,M,NA,constant,homogeneous,4,present,0.704778909683228,1,vertical,vertical,1,1.0117574600073,green,1,2,672.5,820.836477965032,1020.83647796503,727.5,672.5,820.836477965032,1020.83647796503,727.5,927.5,379.163522034968,579.163522034968,472.5,NaN,NaN,NaN,NaN,4,0,0,0,NaN,NaN,vertical,vertical,horizontal,horizontal,none,none
1d,13,100235,3,44,172,24,M,NA,constant,homogeneous,6,absent,0.617583036422729,1,horizontal,horizontal,1,0.705880489716163,green,4,NaN,911.784642431215,370.807518193712,NaN,NaN,688.215357568785,829.192481806288,942.594190385041,811.404581001536,1054.37883281626,582.212099195248,911.784642431215,370.807518193712,657.405809614959,388.595418998464,545.621167183745,617.787900804752,0,0,0,4,0,0,horizontal,vertical,horizontal,horizontal,horizontal,vertical
1d,13,100235,3,45,173,24,M,NA,constant,homogeneous,6,absent,1.45897388458252,1,horizontal,horizontal,1,0.84705447600438,green,6,NaN,561.936991243214,691.383827134052,NaN,NaN,760.109211414741,851.86052685176,998.172220171528,760.476699717708,1038.06300875679,508.616172865948,839.890788585259,348.13947314824,601.827779828472,439.523300282291,561.936991243214,691.383827134052,0,0,0,0,0,4,vertical,vertical,horizontal,vertical,horizontal,horizontal
1d,13,100235,3,46,174,24,M,NA,constant,homogeneous,5,present,0.835033893585205,1,vertical,vertical,1,0.729409487430866,green,1,4,755.719714694933,851.125977018113,688.215357568785,370.807518193712,755.719714694933,851.125977018113,1025.15163617903,719.715248510402,983.431649086356,422.862115532956,688.215357568785,370.807518193712,547.481642470899,635.489140744817,NaN,NaN,4,0,0,0,0,NaN,vertical,vertical,horizontal,vertical,horizontal,none
1d,13,100235,3,47,175,24,M,NA,constant,homogeneous,3,present,0.706871032714844,1,horizontal,horizontal,1,0.929405968005841,green,3,1,556.142287229426,674.554784704298,986.495193912888,773.909581815937,986.495193912888,773.909581815937,857.362518857686,351.535633479765,556.142287229426,674.554784704298,NaN,NaN,NaN,NaN,NaN,NaN,0,0,4,NaN,NaN,NaN,horizontal,vertical,horizontal,none,none,none
1d,13,100235,3,48,176,24,M,NA,constant,homogeneous,5,absent,0.8299560546875,1,horizontal,horizontal,1,1.04705095657936,green,1,NaN,927.5,820.836477965032,NaN,NaN,927.5,820.836477965032,1049.42763818712,546.982518841471,826.654758133252,346.39691668109,567.045908301137,496.282156015671,629.371695378491,789.501930496736,NaN,NaN,4,0,0,0,0,NaN,horizontal,horizontal,horizontal,vertical,vertical,none
1d,13,100235,3,49,177,24,M,NA,constant,homogeneous,3,absent,0.641252994537354,1,horizontal,horizontal,1,0.729409487430866,green,1,NaN,676.373546837184,823.028025320546,NaN,NaN,676.373546837184,823.028025320546,1054.96116226488,595.549636358493,668.665290897936,381.422338320961,NaN,NaN,NaN,NaN,NaN,NaN,4,0,0,NaN,NaN,NaN,horizontal,horizontal,vertical,none,none,none
1d,13,100235,3,50,178,24,M,NA,constant,homogeneous,5,present,0.682670831680298,1,horizontal,horizontal,1,1.02352195886465,green,3,1,946.261991269517,391.116228706307,804.450363641507,854.96116226488,804.450363641507,854.96116226488,1043.85771277057,674.554784704298,946.261991269517,391.116228706307,646.537169096228,396.34794493794,558.892763222174,683.019879386575,NaN,NaN,0,0,4,0,0,NaN,vertical,vertical,horizontal,horizontal,horizontal,none
1d,13,100235,3,51,179,24,M,NA,constant,homogeneous,3,present,0.662538051605225,1,vertical,vertical,1,0.694115990858812,green,2,1,1053.09926866854,631.076682568313,646.537169096228,803.65205506206,646.537169096228,803.65205506206,1053.09926866854,631.076682568313,700.363562235235,365.271262369628,NaN,NaN,NaN,NaN,NaN,NaN,0,4,0,NaN,NaN,NaN,vertical,vertical,horizontal,none,none,none
1d,13,100235,3,52,180,24,M,NA,constant,homogeneous,5,absent,0.577193021774292,1,vertical,vertical,1,0.647057995429406,green,3,NaN,1027.20666366803,484.232422566416,NaN,NaN,684.232422566416,827.206663668034,980.31222920257,780.31222920257,1027.20666366803,484.232422566416,760.109211414741,348.13947314824,548.13947314824,560.109211414741,NaN,NaN,0,0,4,0,0,NaN,horizontal,horizontal,vertical,horizontal,horizontal,none
1d,13,100235,3,53,181,24,M,NA,constant,homogeneous,6,present,0.690524101257324,1,horizontal,horizontal,1,0.68235149200146,green,3,1,1054.37883281626,582.212099195248,688.215357568785,829.192481806288,688.215357568785,829.192481806288,942.594190385041,811.404581001536,1054.37883281626,582.212099195248,911.784642431215,370.807518193712,657.405809614959,388.595418998464,545.621167183745,617.787900804752,0,0,4,0,0,0,vertical,vertical,horizontal,horizontal,horizontal,vertical
1d,13,100235,3,54,182,24,M,NA,constant,homogeneous,6,absent,0.749331951141357,1,vertical,vertical,1,0.84705447600438,green,4,NaN,672.5,379.163522034968,NaN,NaN,927.5,820.836477965032,1055,600,927.5,379.163522034968,672.5,379.163522034968,545,600,672.5,820.836477965032,0,0,0,4,0,0,horizontal,horizontal,vertical,vertical,vertical,vertical
1d,13,100235,3,55,183,24,M,NA,constant,homogeneous,3,present,0.731704950332642,1,horizontal,horizontal,1,0.776467482860272,green,3,2,560.378381699593,512.784863451954,995.341332995339,436.089159529932,844.280285305067,851.125977018113,995.341332995339,436.089159529932,560.378381699593,512.784863451954,NaN,NaN,NaN,NaN,NaN,NaN,0,0,4,NaN,NaN,NaN,horizontal,horizontal,horizontal,none,none,none
1d,13,100235,3,56,184,24,M,NA,constant,homogeneous,4,absent,0.594577074050903,1,vertical,vertical,1,1.0117574600073,green,3,NaN,800,345,NaN,NaN,800,855,1055,600,800,345,545,600,NaN,NaN,NaN,NaN,0,0,4,0,NaN,NaN,horizontal,horizontal,vertical,horizontal,none,none
1d,13,100235,3,57,185,24,M,NA,constant,homogeneous,3,absent,0.698824882507324,1,vertical,vertical,1,0.799996480574975,green,3,NaN,547.481642470899,564.510859255183,NaN,NaN,895.524681321058,836.431882914531,956.993676208043,399.057257830286,547.481642470899,564.510859255183,NaN,NaN,NaN,NaN,NaN,NaN,0,0,4,NaN,NaN,NaN,vertical,horizontal,vertical,none,none,none
1d,13,100235,3,58,186,24,M,NA,constant,homogeneous,4,present,0.504133939743042,1,vertical,vertical,1,0.952934965720543,green,3,4,895.524681321058,363.568117085469,563.568117085469,504.475318678942,704.475318678942,836.431882914531,1036.43188291453,695.524681321058,895.524681321058,363.568117085469,563.568117085469,504.475318678942,NaN,NaN,NaN,NaN,0,0,4,0,NaN,NaN,horizontal,vertical,vertical,horizontal,none,none
1d,13,100235,3,59,187,24,M,NA,constant,homogeneous,4,present,0.584918022155762,1,horizontal,horizontal,1,0.941170466863192,green,2,4,992.450942956807,767.295052392579,607.549057043193,432.704947607421,632.704947607421,792.450942956807,992.450942956807,767.295052392579,967.295052392579,407.549057043193,607.549057043193,432.704947607421,NaN,NaN,NaN,NaN,0,4,0,0,NaN,NaN,horizontal,horizontal,vertical,horizontal,none,none
1d,13,100235,3,60,188,24,M,NA,constant,homogeneous,6,present,0.568225145339966,1,vertical,vertical,1,0.76470298400292,green,4,5,887.215136548046,360.378381699593,636.089159529932,404.658667004661,712.784863451954,839.621618300407,963.910840470068,795.341332995339,1051.12597701811,555.719714694933,887.215136548046,360.378381699593,636.089159529932,404.658667004661,548.874022981887,644.280285305067,0,0,0,4,0,0,horizontal,vertical,vertical,vertical,horizontal,horizontal
1d,13,100235,3,61,189,24,M,NA,constant,homogeneous,4,absent,0.739954948425293,1,horizontal,horizontal,1,0.611764498857351,green,3,NaN,887.215136548046,360.378381699593,NaN,NaN,712.784863451954,839.621618300407,1039.62161830041,687.215136548046,887.215136548046,360.378381699593,560.378381699593,512.784863451954,NaN,NaN,NaN,NaN,0,0,4,0,NaN,NaN,horizontal,horizontal,horizontal,horizontal,none,none
1d,13,100235,3,62,190,24,M,NA,constant,homogeneous,6,absent,0.701445817947388,1,horizontal,horizontal,1,0.917641469148489,green,6,NaN,560.378381699593,687.215136548046,NaN,NaN,755.719714694933,851.125977018113,995.341332995339,763.910840470068,1039.62161830041,512.784863451954,844.280285305067,348.874022981887,604.658667004661,436.089159529932,560.378381699593,687.215136548046,0,0,0,0,0,4,horizontal,vertical,horizontal,vertical,horizontal,horizontal
1d,13,100235,3,63,191,24,M,NA,constant,homogeneous,3,present,0.870728015899658,1,vertical,vertical,1,0.76470298400292,green,1,3,911.784642431215,829.192481806288,545.621167183745,582.212099195248,911.784642431215,829.192481806288,942.594190385041,388.595418998464,545.621167183745,582.212099195248,NaN,NaN,NaN,NaN,NaN,NaN,4,0,0,NaN,NaN,NaN,vertical,horizontal,vertical,none,none,none
1d,13,100235,3,64,192,24,M,NA,constant,homogeneous,3,present,0.541388034820557,1,vertical,vertical,1,0.84705447600438,green,3,1,777.775285599347,345.970351986605,591.116228706307,746.261991269517,591.116228706307,746.261991269517,1031.10848569435,707.767656743878,777.775285599347,345.970351986605,NaN,NaN,NaN,NaN,NaN,NaN,0,0,4,NaN,NaN,NaN,horizontal,vertical,vertical,none,none,none
1d,13,100235,4,1,193,24,M,NA,constant,homogeneous,4,absent,0.6177978515625,1,vertical,vertical,1,0.658822494286757,green,4,NaN,557.480588344736,678.799333565612,NaN,NaN,878.799333565612,842.519411655264,1042.51941165526,521.200666434388,721.200666434388,357.480588344736,557.480588344736,678.799333565612,NaN,NaN,NaN,NaN,0,0,0,4,NaN,NaN,horizontal,vertical,vertical,vertical,none,none
1d,13,100235,4,2,194,24,M,NA,constant,homogeneous,4,present,0.574604034423828,1,horizontal,horizontal,1,0.611764498857351,green,1,4,768.923317431687,853.099268668537,546.900731331463,568.923317431687,768.923317431687,853.099268668537,1053.09926866854,631.076682568313,831.076682568313,346.900731331463,546.900731331463,568.923317431687,NaN,NaN,NaN,NaN,4,0,0,0,NaN,NaN,horizontal,horizontal,vertical,horizontal,none,none
1d,13,100235,4,3,195,24,M,NA,constant,homogeneous,6,present,1.01324200630188,1,horizontal,horizontal,1,0.752938485145569,green,4,5,857.362518857686,351.535633479765,613.504806087112,426.090418184063,742.637481142314,848.464366520235,986.495193912888,773.909581815937,1043.85771277057,525.445215295702,857.362518857686,351.535633479765,613.504806087112,426.090418184063,556.142287229426,674.554784704298,0,0,0,4,0,0,vertical,horizontal,horizontal,horizontal,vertical,vertical
1d,13,100235,4,4,196,24,M,NA,constant,homogeneous,3,absent,1.34313297271729,1,horizontal,horizontal,1,1.07057995429406,green,1,NaN,853.017481158529,849.42763818712,NaN,NaN,853.017481158529,849.42763818712,989.501930496736,429.371695378491,557.480588344736,521.200666434388,NaN,NaN,NaN,NaN,NaN,NaN,4,0,0,NaN,NaN,NaN,horizontal,horizontal,vertical,none,none,none
1d,13,100235,4,5,197,24,M,NA,constant,homogeneous,5,present,1.56201004981995,1,vertical,vertical,1,0.988228462292598,green,1,5,696.282156015671,832.954091698863,546.39691668109,573.345241866748,696.282156015671,832.954091698863,989.501930496736,770.628304621509,1020.83647796503,472.5,746.982518841471,350.57236181288,546.39691668109,573.345241866748,NaN,NaN,4,0,0,0,0,NaN,vertical,vertical,horizontal,vertical,horizontal,none
1d,13,100235,4,6,198,24,M,NA,constant,homogeneous,4,present,0.621246814727783,1,vertical,vertical,1,0.999992961149949,green,3,4,721.200666434388,357.480588344736,557.480588344736,678.799333565612,878.799333565612,842.519411655264,1042.51941165526,521.200666434388,721.200666434388,357.480588344736,557.480588344736,678.799333565612,NaN,NaN,NaN,NaN,0,0,4,0,NaN,NaN,vertical,vertical,vertical,vertical,none,none
1d,13,100235,4,7,199,24,M,NA,constant,homogeneous,6,absent,0.596803903579712,1,vertical,vertical,1,0.952934965720543,green,2,NaN,942.594190385041,811.404581001536,NaN,NaN,688.215357568785,829.192481806288,942.594190385041,811.404581001536,1054.37883281626,582.212099195248,911.784642431215,370.807518193712,657.405809614959,388.595418998464,545.621167183745,617.787900804752,0,4,0,0,0,0,horizontal,vertical,horizontal,horizontal,vertical,vertical
1d,13,100235,4,8,200,24,M,NA,constant,homogeneous,5,absent,0.734755992889404,1,vertical,vertical,1,0.694115990858812,green,1,NaN,768.923317431687,853.099268668537,NaN,NaN,768.923317431687,853.099268668537,1031.10848569435,707.767656743878,973.909581815937,413.504806087112,676.373546837184,376.971974679454,549.685068220846,648.656293821019,NaN,NaN,4,0,0,0,0,NaN,vertical,vertical,vertical,vertical,horizontal,none
1d,13,100235,4,9,201,24,M,NA,constant,homogeneous,3,absent,0.710295915603638,1,horizontal,horizontal,1,0.635293496572054,green,2,NaN,1023.02802532055,476.373546837184,NaN,NaN,795.549636358493,854.96116226488,1023.02802532055,476.373546837184,581.422338320961,468.665290897936,NaN,NaN,NaN,NaN,NaN,NaN,0,4,0,NaN,NaN,NaN,vertical,horizontal,horizontal,none,none,none
1d,13,100235,4,10,202,24,M,NA,constant,homogeneous,6,absent,0.725425004959106,1,vertical,vertical,1,0.635293496572054,green,4,NaN,746.982518841471,350.57236181288,NaN,NaN,853.017481158529,849.42763818712,1042.51941165526,678.799333565612,989.501930496736,429.371695378491,746.982518841471,350.57236181288,557.480588344736,521.200666434388,610.498069503264,770.628304621509,0,0,0,4,0,0,vertical,vertical,vertical,vertical,horizontal,vertical
1d,13,100235,4,11,203,24,M,NA,constant,homogeneous,3,present,0.692871809005737,1,vertical,vertical,1,0.647057995429406,green,1,2,883.019879386575,841.107236777826,967.295052392579,407.549057043193,883.019879386575,841.107236777826,967.295052392579,407.549057043193,549.685068220846,551.343706178981,NaN,NaN,NaN,NaN,NaN,NaN,4,0,0,NaN,NaN,NaN,vertical,horizontal,horizontal,none,none,none
1d,13,100235,4,12,204,24,M,NA,constant,homogeneous,6,absent,1.01864004135132,1,horizontal,horizontal,1,0.776467482860272,green,6,NaN,579.163522034968,727.5,NaN,NaN,800,855,1020.83647796503,727.5,1020.83647796503,472.5,800,345,579.163522034968,472.5,579.163522034968,727.5,0,0,0,0,0,4,horizontal,horizontal,horizontal,horizontal,vertical,horizontal
1d,13,100235,4,13,205,24,M,NA,constant,homogeneous,5,absent,0.816324949264526,1,vertical,vertical,1,0.658822494286757,green,1,NaN,808.899371659138,854.844660889869,NaN,NaN,808.899371659138,854.844660889869,1045.12173246427,670.287525733335,942.594190385041,388.595418998464,643.006323791957,399.057257830286,560.378381699593,687.215136548046,NaN,NaN,4,0,0,0,0,NaN,vertical,horizontal,vertical,horizontal,horizontal,none
1d,13,100235,4,14,206,24,M,NA,constant,homogeneous,6,absent,1.64559197425842,1,horizontal,horizontal,1,0.635293496572054,green,2,NaN,1042.51941165526,678.799333565612,NaN,NaN,853.017481158529,849.42763818712,1042.51941165526,678.799333565612,989.501930496736,429.371695378491,746.982518841471,350.57236181288,557.480588344736,521.200666434388,610.498069503264,770.628304621509,0,4,0,0,0,0,vertical,horizontal,vertical,vertical,horizontal,vertical
1d,13,100235,4,15,207,24,M,NA,constant,homogeneous,3,present,0.868114948272705,1,vertical,vertical,1,1.07057995429406,green,3,1,716.980120613425,358.892763222174,632.704947607421,792.450942956807,632.704947607421,792.450942956807,1050.31493177915,648.656293821019,716.980120613425,358.892763222174,NaN,NaN,NaN,NaN,NaN,NaN,0,0,4,NaN,NaN,NaN,vertical,horizontal,vertical,none,none,none
1d,13,100235,4,16,208,24,M,NA,constant,homogeneous,4,absent,0.987014055252075,1,vertical,vertical,1,0.658822494286757,green,3,NaN,822.224714400653,345.970351986605,NaN,NaN,777.775285599347,854.029648013395,1054.0296480134,622.224714400653,822.224714400653,345.970351986605,545.970351986605,577.775285599347,NaN,NaN,NaN,NaN,0,0,4,0,NaN,NaN,horizontal,vertical,vertical,horizontal,none,none
1d,13,100235,4,17,209,24,M,NA,constant,homogeneous,3,absent,0.571727991104126,1,vertical,vertical,1,1.04705095657936,green,1,NaN,1013.86099482608,738.882953928832,NaN,NaN,1013.86099482608,738.882953928832,813.345668841951,345.349468637584,572.793336331966,715.767577433584,NaN,NaN,NaN,NaN,NaN,NaN,4,0,0,NaN,NaN,NaN,vertical,horizontal,horizontal,none,none,none
1d,13,100235,4,18,210,24,M,NA,constant,homogeneous,5,absent,0.566262006759644,1,vertical,vertical,1,0.964699464577895,green,2,NaN,973.909581815937,786.495193912888,NaN,NaN,676.373546837184,823.028025320546,973.909581815937,786.495193912888,1031.10848569435,492.232343256122,768.923317431687,346.900731331463,549.685068220846,551.343706178981,NaN,NaN,0,4,0,0,0,NaN,horizontal,vertical,horizontal,horizontal,horizontal,none
1d,13,100235,4,19,211,24,M,NA,constant,homogeneous,3,absent,0.795830011367798,1,vertical,vertical,1,1.08234445315141,green,2,NaN,983.431649086356,422.862115532956,NaN,NaN,861.690083377915,847.425410200379,983.431649086356,422.862115532956,554.878267535729,529.712474266665,NaN,NaN,NaN,NaN,NaN,NaN,0,4,0,NaN,NaN,NaN,vertical,vertical,vertical,none,none,none
1d,13,100235,4,20,212,24,M,NA,constant,homogeneous,5,absent,0.697213172912598,1,horizontal,horizontal,1,0.858818974861732,green,2,NaN,1051.86052685176,560.109211414741,NaN,NaN,915.767577433584,827.206663668034,1051.86052685176,560.109211414741,839.890788585259,348.13947314824,572.793336331966,484.232422566416,619.68777079743,780.31222920257,NaN,NaN,0,4,0,0,0,NaN,vertical,horizontal,vertical,horizontal,vertical,none
1d,13,100235,4,21,213,24,M,NA,constant,homogeneous,6,present,0.933279991149902,1,horizontal,horizontal,1,0.705880489716163,green,6,2,588.595418998464,742.594190385041,1029.19248180629,711.784642431215,817.787900804752,854.378832816255,1029.19248180629,711.784642431215,1011.40458100154,457.40580961496,782.212099195248,345.621167183745,570.807518193712,488.215357568785,588.595418998464,742.594190385041,0,0,0,0,0,4,horizontal,vertical,horizontal,horizontal,vertical,horizontal
1d,13,100235,4,22,214,24,M,NA,constant,homogeneous,5,present,0.602410078048706,1,vertical,vertical,1,0.717644988573514,green,2,4,1054.65053136242,613.345668841951,601.827779828472,439.523300282291,865.998856501143,846.311085703712,1054.65053136242,613.345668841951,891.383827134052,361.936991243214,601.827779828472,439.523300282291,586.139005173917,738.882953928832,NaN,NaN,0,4,0,0,0,NaN,vertical,vertical,vertical,vertical,horizontal,none
1d,13,100235,4,23,215,24,M,NA,constant,homogeneous,5,present,1.08530282974243,1,horizontal,horizontal,1,0.729409487430866,green,3,2,949.885239334581,393.700666434388,1042.51941165526,678.799333565612,800,855,1042.51941165526,678.799333565612,949.885239334581,393.700666434388,650.114760665419,393.700666434388,557.480588344736,678.799333565612,NaN,NaN,0,0,4,0,0,NaN,vertical,horizontal,horizontal,vertical,horizontal,none
1d,13,100235,4,24,216,24,M,NA,constant,homogeneous,3,absent,0.662728786468506,1,vertical,vertical,1,0.976463963435246,green,2,NaN,953.462830903772,396.34794493794,NaN,NaN,899.636437764765,834.728737630372,953.462830903772,396.34794493794,546.900731331463,568.923317431687,NaN,NaN,NaN,NaN,NaN,NaN,0,4,0,NaN,NaN,NaN,horizontal,vertical,vertical,none,none,none
1d,13,100235,4,25,217,24,M,NA,constant,homogeneous,3,present,0.795018196105957,1,horizontal,horizontal,1,0.941170466863192,green,2,3,998.172220171528,439.523300282291,561.936991243214,508.616172865948,839.890788585259,851.86052685176,998.172220171528,439.523300282291,561.936991243214,508.616172865948,NaN,NaN,NaN,NaN,NaN,NaN,0,4,0,NaN,NaN,NaN,vertical,horizontal,horizontal,none,none,none
1d,13,100235,4,26,218,24,M,NA,constant,homogeneous,4,present,1.09201788902283,1,vertical,vertical,1,0.647057995429406,green,3,1,973.909581815937,413.504806087112,626.090418184063,786.495193912888,626.090418184063,786.495193912888,986.495193912888,773.909581815937,973.909581815937,413.504806087112,613.504806087112,426.090418184063,NaN,NaN,NaN,NaN,0,0,4,0,NaN,NaN,vertical,horizontal,vertical,vertical,none,none
1d,13,100235,4,27,219,24,M,NA,constant,homogeneous,4,present,0.578445911407471,1,horizontal,horizontal,1,0.835289977147029,green,3,1,938.882953928832,386.139005173917,661.117046071168,813.860994826083,661.117046071168,813.860994826083,1013.86099482608,738.882953928832,938.882953928832,386.139005173917,586.139005173917,461.117046071168,NaN,NaN,NaN,NaN,0,0,4,0,NaN,NaN,vertical,vertical,horizontal,vertical,none,none
1d,13,100235,4,28,220,24,M,NA,constant,homogeneous,5,present,1.18582081794739,1,horizontal,horizontal,1,0.941170466863192,green,4,5,725.445215295702,356.142287229426,545.03883773512,595.549636358493,716.980120613425,841.107236777826,1003.65205506206,753.462830903772,1008.88377129369,453.738008730483,725.445215295702,356.142287229426,545.03883773512,595.549636358493,NaN,NaN,0,0,0,4,0,NaN,vertical,vertical,vertical,horizontal,vertical,none
1d,13,100235,4,29,221,24,M,NA,constant,homogeneous,6,present,0.777399778366089,1,vertical,vertical,1,0.611764498857351,green,4,2,746.982518841471,350.57236181288,1042.51941165526,678.799333565612,853.017481158529,849.42763818712,1042.51941165526,678.799333565612,989.501930496736,429.371695378491,746.982518841471,350.57236181288,557.480588344736,521.200666434388,610.498069503264,770.628304621509,0,0,0,4,0,0,horizontal,vertical,vertical,vertical,horizontal,vertical
1d,13,100235,4,30,222,24,M,NA,constant,homogeneous,3,present,0.589981079101562,1,horizontal,horizontal,1,1.04705095657936,green,3,2,672.5,379.163522034968,1055,600,672.5,820.836477965032,1055,600,672.5,379.163522034968,NaN,NaN,NaN,NaN,NaN,NaN,0,0,4,NaN,NaN,NaN,horizontal,vertical,horizontal,none,none,none
1d,13,100235,4,31,223,24,M,NA,constant,homogeneous,5,absent,0.712033987045288,1,vertical,vertical,1,1.09410895200876,green,4,NaN,721.200666434388,357.480588344736,NaN,NaN,721.200666434388,842.519411655264,1006.29933356561,749.885239334581,1006.29933356561,450.114760665419,721.200666434388,357.480588344736,545,600,NaN,NaN,0,0,0,4,0,NaN,vertical,vertical,horizontal,vertical,horizontal,none
1d,13,100235,4,32,224,24,M,NA,constant,homogeneous,6,absent,0.913661003112793,1,vertical,vertical,1,0.752938485145569,green,6,NaN,554.878267535729,670.287525733335,NaN,NaN,738.309916622085,847.425410200379,983.431649086356,777.137884467044,1045.12173246427,529.712474266665,861.690083377915,352.574589799621,616.568350913644,422.862115532956,554.878267535729,670.287525733335,0,0,0,0,0,4,vertical,vertical,vertical,vertical,horizontal,vertical
1d,13,100235,4,33,225,24,M,NA,constant,homogeneous,5,absent,0.821577072143555,1,horizontal,horizontal,1,0.694115990858812,green,5,NaN,545.621167183745,582.212099195248,NaN,NaN,704.475318678942,836.431882914531,995.341332995339,763.910840470068,1016.25226451989,464.870587620533,738.309916622085,352.574589799621,545.621167183745,582.212099195248,NaN,NaN,0,0,0,0,4,NaN,vertical,vertical,horizontal,vertical,horizontal,none
1d,13,100235,4,34,226,24,M,NA,constant,homogeneous,4,absent,0.664458036422729,1,horizontal,horizontal,1,0.717644988573514,green,2,NaN,1049.42763818712,546.982518841471,NaN,NaN,853.017481158529,849.42763818712,1049.42763818712,546.982518841471,746.982518841471,350.57236181288,550.57236181288,653.017481158529,NaN,NaN,NaN,NaN,0,4,0,0,NaN,NaN,horizontal,horizontal,vertical,horizontal,none,none
1d,13,100235,4,35,227,24,M,NA,constant,homogeneous,4,present,0.52137303352356,1,vertical,vertical,1,0.976463963435246,green,2,4,992.450942956807,767.295052392579,607.549057043193,432.704947607421,632.704947607421,792.450942956807,992.450942956807,767.295052392579,967.295052392579,407.549057043193,607.549057043193,432.704947607421,NaN,NaN,NaN,NaN,0,4,0,0,NaN,NaN,horizontal,vertical,vertical,vertical,none,none
1d,13,100235,4,36,228,24,M,NA,constant,homogeneous,4,absent,0.569922924041748,1,horizontal,horizontal,1,0.694115990858812,green,2,NaN,1008.88377129369,746.261991269517,NaN,NaN,653.738008730483,808.883771293693,1008.88377129369,746.261991269517,946.261991269517,391.116228706307,591.116228706307,453.738008730483,NaN,NaN,NaN,NaN,0,4,0,0,NaN,NaN,horizontal,horizontal,horizontal,vertical,none,none
1d,13,100235,4,37,229,24,M,NA,constant,homogeneous,5,present,1.2608380317688,1,vertical,vertical,1,1.0117574600073,green,4,3,800,345,1042.51941165526,521.200666434388,650.114760665419,806.299333565612,949.885239334581,806.299333565612,1042.51941165526,521.200666434388,800,345,557.480588344736,521.200666434388,NaN,NaN,0,0,0,4,0,NaN,vertical,horizontal,horizontal,vertical,horizontal,none
1d,13,100235,4,38,230,24,M,NA,constant,homogeneous,4,absent,1.09695601463318,1,horizontal,horizontal,1,1.09410895200876,green,2,NaN,1003.65205506206,446.537169096228,NaN,NaN,953.462830903772,803.65205506206,1003.65205506206,446.537169096228,646.537169096228,396.34794493794,596.34794493794,753.462830903772,NaN,NaN,NaN,NaN,0,4,0,0,NaN,NaN,horizontal,horizontal,vertical,vertical,none,none
1d,13,100235,4,39,231,24,M,NA,constant,homogeneous,3,present,0.877833127975464,1,horizontal,horizontal,1,0.929405968005841,green,3,1,572.793336331966,484.232422566416,813.345668841951,854.650531362416,813.345668841951,854.650531362416,1013.86099482608,461.117046071168,572.793336331966,484.232422566416,NaN,NaN,NaN,NaN,NaN,NaN,0,0,4,NaN,NaN,NaN,vertical,vertical,horizontal,none,none,none
1d,13,100235,4,40,232,24,M,NA,constant,homogeneous,5,present,0.599262952804565,1,vertical,vertical,1,0.788231981717623,green,2,5,1020.83647796503,727.5,546.39691668109,626.654758133252,746.982518841471,849.42763818712,1020.83647796503,727.5,989.501930496736,429.371695378491,696.282156015671,367.045908301137,546.39691668109,626.654758133252,NaN,NaN,0,4,0,0,0,NaN,vertical,vertical,horizontal,vertical,horizontal,none
1d,13,100235,4,41,233,24,M,NA,constant,homogeneous,5,absent,0.658009052276611,1,horizontal,horizontal,1,0.729409487430866,green,2,NaN,1027.20666366803,715.767577433584,NaN,NaN,760.109211414741,851.86052685176,1027.20666366803,715.767577433584,980.31222920257,419.68777079743,684.232422566416,372.793336331966,548.13947314824,639.890788585259,NaN,NaN,0,4,0,0,0,NaN,vertical,horizontal,vertical,horizontal,horizontal,none
1d,13,100235,4,42,234,24,M,NA,constant,homogeneous,3,absent,1.00533509254456,1,horizontal,horizontal,1,0.694115990858812,green,1,NaN,831.076682568313,853.099268668537,NaN,NaN,831.076682568313,853.099268668537,1003.65205506206,446.537169096228,565.271262369628,500.363562235235,NaN,NaN,NaN,NaN,NaN,NaN,4,0,0,NaN,NaN,NaN,horizontal,horizontal,horizontal,none,none,none
1d,13,100235,4,43,235,24,M,NA,constant,homogeneous,6,absent,0.592220067977905,1,horizontal,horizontal,1,0.729409487430866,green,2,NaN,1031.10848569435,707.767656743878,NaN,NaN,822.224714400653,854.029648013395,1031.10848569435,707.767656743878,1008.88377129369,453.738008730483,777.775285599347,345.970351986605,568.891514305654,492.232343256122,591.116228706307,746.261991269517,0,4,0,0,0,0,vertical,horizontal,vertical,horizontal,horizontal,vertical
1d,13,100235,4,44,236,24,M,NA,constant,homogeneous,3,present,0.693394184112549,1,vertical,vertical,1,1.05881545543671,green,3,1,570.807518193712,488.215357568785,817.787900804752,854.378832816255,817.787900804752,854.378832816255,1011.40458100154,457.40580961496,570.807518193712,488.215357568785,NaN,NaN,NaN,NaN,NaN,NaN,0,0,4,NaN,NaN,NaN,vertical,horizontal,vertical,none,none,none
1d,13,100235,4,45,237,24,M,NA,constant,homogeneous,3,present,1.34908604621887,1,vertical,vertical,1,1.07057995429406,green,2,3,1036.43188291453,695.524681321058,764.510859255183,347.4816424709,599.057257830286,756.993676208043,1036.43188291453,695.524681321058,764.510859255183,347.4816424709,NaN,NaN,NaN,NaN,NaN,NaN,0,4,0,NaN,NaN,NaN,vertical,vertical,vertical,none,none,none
1d,13,100235,4,46,238,24,M,NA,constant,homogeneous,6,absent,1.30531287193298,1,vertical,vertical,1,0.858818974861732,green,1,NaN,813.345668841951,854.650531362416,NaN,NaN,813.345668841951,854.650531362416,1027.20666366803,715.767577433584,1013.86099482608,461.117046071168,786.654331158049,345.349468637584,572.793336331966,484.232422566416,586.139005173917,738.882953928832,4,0,0,0,0,0,vertical,horizontal,vertical,vertical,horizontal,vertical
1d,13,100235,4,47,239,24,M,NA,constant,homogeneous,6,present,0.645157098770142,1,vertical,vertical,1,0.670586993144109,green,4,2,721.200666434388,357.480588344736,1049.42763818712,653.017481158529,878.799333565612,842.519411655264,1049.42763818712,653.017481158529,970.628304621509,410.498069503264,721.200666434388,357.480588344736,550.57236181288,546.982518841471,629.371695378491,789.501930496736,0,0,0,4,0,0,vertical,vertical,vertical,vertical,horizontal,horizontal
1d,13,100235,4,48,240,24,M,NA,constant,homogeneous,4,present,0.616842985153198,1,vertical,vertical,1,0.741173986288217,green,4,3,556.142287229426,674.554784704298,725.445215295702,356.142287229426,874.554784704298,843.857712770574,1043.85771277057,525.445215295702,725.445215295702,356.142287229426,556.142287229426,674.554784704298,NaN,NaN,NaN,NaN,0,0,0,4,NaN,NaN,horizontal,horizontal,horizontal,vertical,none,none
1d,13,100235,4,49,241,24,M,NA,constant,homogeneous,5,present,0.571254014968872,1,horizontal,horizontal,1,0.694115990858812,green,2,3,1011.40458100154,742.594190385041,1000.94274216971,443.006323791957,729.712474266665,845.121732464271,1011.40458100154,742.594190385041,1000.94274216971,443.006323791957,712.784863451954,360.378381699593,545.155339110131,608.899371659138,NaN,NaN,0,4,0,0,0,NaN,horizontal,horizontal,horizontal,horizontal,vertical,none
