experiment,subject,uniqueID,block,trial,trial_cumulative,age,gender,color_cond_blocking,color_history,shape_type,set_size,distractor,rt,acc,target_orient,response_key,response_made,iti,target_color,target_item,distractor_item,target_X,target_Y,distractor_X,distractor_Y,item1_X,item1_Y,item2_X,item2_Y,item3_X,item3_Y,item4_X,item4_Y,item5_X,item5_Y,item6_X,item6_Y,item1_shape,item2_shape,item3_shape,item4_shape,item5_shape,item6_shape,item1_line,item2_line,item3_line,item4_line,item5_line,item6_line
1d,14,100237,1,1,1,18,F,NA,constant,homogeneous,6,present,1.46348690986633,1,horizontal,horizontal,1,0.705879788215344,red,1,6,848.656293821019,850.314931779154,607.549057043193,767.295052392579,848.656293821019,850.314931779154,1041.10723677783,683.019879386575,992.450942956807,432.704947607421,751.343706178981,349.685068220846,558.892763222174,516.980120613425,607.549057043193,767.295052392579,4,0,0,0,0,0,horizontal,horizontal,vertical,vertical,vertical,vertical
1d,14,100237,1,2,2,18,F,NA,constant,homogeneous,5,present,1.21567392349243,1,vertical,vertical,1,0.952932627384479,red,3,2,1006.29933356561,450.114760665419,1006.29933356561,749.885239334581,721.200666434388,842.519411655264,1006.29933356561,749.885239334581,1006.29933356561,450.114760665419,721.200666434388,357.480588344736,545,600,NaN,NaN,0,0,4,0,0,NaN,vertical,horizontal,vertical,vertical,horizontal,none
1d,14,100237,1,3,3,18,F,NA,constant,homogeneous,3,present,NaN,0,vertical,none,0,0.894110522820399,red,2,1,1049.42763818712,546.982518841471,721.200666434388,842.519411655264,721.200666434388,842.519411655264,1049.42763818712,546.982518841471,629.371695378491,410.498069503264,NaN,NaN,NaN,NaN,NaN,NaN,0,4,0,NaN,NaN,NaN,horizontal,vertical,vertical,none,none,none
1d,14,100237,1,4,4,18,F,NA,constant,homogeneous,6,present,1.18357419967651,1,vertical,vertical,1,0.670586525476896,red,1,6,782.212099195248,854.378832816255,570.807518193712,711.784642431215,782.212099195248,854.378832816255,1011.40458100154,742.594190385041,1029.19248180629,488.215357568785,817.787900804752,345.621167183745,588.595418998464,457.40580961496,570.807518193712,711.784642431215,4,0,0,0,0,0,vertical,horizontal,horizontal,horizontal,vertical,vertical
1d,14,100237,1,5,5,18,F,NA,constant,homogeneous,5,absent,1.33804297447205,1,vertical,vertical,1,0.929403785558847,red,2,NaN,1047.42541020038,538.309916622085,NaN,NaN,935.129412379467,816.252264519889,1047.42541020038,538.309916622085,817.787900804752,345.621167183745,563.568117085469,504.475318678942,636.089159529932,795.341332995339,NaN,NaN,0,4,0,0,0,NaN,horizontal,vertical,horizontal,horizontal,horizontal,none
1d,14,100237,1,6,6,18,F,NA,constant,homogeneous,5,present,1.72204780578613,1,vertical,vertical,1,0.65882210456408,red,4,5,742.637481142314,351.535633479765,545.970351986605,577.775285599347,700.363562235235,834.728737630372,992.450942956807,767.295052392579,1018.57766167904,468.665290897936,742.637481142314,351.535633479765,545.970351986605,577.775285599347,NaN,NaN,0,0,0,4,0,NaN,vertical,vertical,horizontal,vertical,vertical,none
1d,14,100237,1,7,7,18,F,NA,constant,homogeneous,5,absent,1.2469699382782,1,horizontal,horizontal,1,0.905874943733215,red,5,NaN,545.03883773512,595.549636358493,NaN,NaN,716.980120613425,841.107236777826,1003.65205506206,753.462830903772,1008.88377129369,453.738008730483,725.445215295702,356.142287229426,545.03883773512,595.549636358493,NaN,NaN,0,0,0,0,4,NaN,horizontal,horizontal,horizontal,vertical,horizontal,none
1d,14,100237,1,8,8,18,F,NA,constant,homogeneous,6,present,0.885424137115479,1,horizontal,horizontal,1,0.670586525476896,red,2,5,1052.5183575291,635.489140744817,547.481642470899,564.510859255183,895.524681321058,836.431882914531,1052.5183575291,635.489140744817,956.993676208043,399.057257830286,704.475318678942,363.568117085469,547.481642470899,564.510859255183,643.006323791957,800.942742169714,0,4,0,0,0,0,horizontal,horizontal,horizontal,vertical,horizontal,vertical
1d,14,100237,1,9,9,18,F,NA,constant,homogeneous,4,absent,1.35144186019897,1,horizontal,horizontal,1,0.799995155517872,red,1,NaN,721.200666434388,842.519411655264,NaN,NaN,721.200666434388,842.519411655264,1042.51941165526,678.799333565612,878.799333565612,357.480588344736,557.480588344736,521.200666434388,NaN,NaN,NaN,NaN,4,0,0,0,NaN,NaN,horizontal,horizontal,vertical,horizontal,none,none
1d,14,100237,1,10,10,18,F,NA,constant,homogeneous,5,present,1.67768311500549,1,vertical,vertical,1,0.741173050953792,red,5,4,626.090418184063,786.495193912888,568.891514305654,492.232343256122,923.626453162816,823.028025320546,1050.31493177915,551.343706178981,831.076682568313,346.900731331463,568.891514305654,492.232343256122,626.090418184063,786.495193912888,NaN,NaN,0,0,0,0,4,NaN,horizontal,vertical,vertical,vertical,vertical,none
1d,14,100237,1,11,11,18,F,NA,constant,homogeneous,3,present,1.12127780914307,1,vertical,vertical,1,0.905874943733215,red,3,1,616.568350913644,422.862115532956,738.309916622085,847.425410200379,738.309916622085,847.425410200379,1045.12173246427,529.712474266665,616.568350913644,422.862115532956,NaN,NaN,NaN,NaN,NaN,NaN,0,0,4,NaN,NaN,NaN,horizontal,horizontal,vertical,none,none,none
1d,14,100237,1,12,12,18,F,NA,constant,homogeneous,5,absent,1.11273908615112,1,horizontal,horizontal,1,0.847052839169135,red,5,NaN,574.848363820974,719.715248510402,NaN,NaN,844.280285305067,851.125977018113,1052.5183575291,635.489140744817,911.784642431215,370.807518193712,616.568350913644,422.862115532956,574.848363820974,719.715248510402,NaN,NaN,0,0,0,0,4,NaN,horizontal,horizontal,vertical,horizontal,horizontal,none
1d,14,100237,1,13,13,18,F,NA,constant,homogeneous,6,present,1.46635699272156,1,vertical,vertical,1,0.752937471866608,red,5,3,552.574589799621,538.309916622085,977.137884467044,416.568350913644,870.287525733335,845.121732464271,1047.42541020038,661.690083377915,977.137884467044,416.568350913644,729.712474266665,354.878267535729,552.574589799621,538.309916622085,622.862115532956,783.431649086356,0,0,0,0,4,0,horizontal,vertical,vertical,vertical,vertical,horizontal
1d,14,100237,1,14,14,18,F,NA,constant,homogeneous,3,present,1.58470988273621,1,horizontal,horizontal,1,1.03528357377419,red,1,3,672.5,820.836477965032,672.5,379.163522034968,672.5,820.836477965032,1055,600,672.5,379.163522034968,NaN,NaN,NaN,NaN,NaN,NaN,4,0,0,NaN,NaN,NaN,horizontal,horizontal,horizontal,none,none,none
1d,14,100237,1,15,15,18,F,NA,constant,homogeneous,3,absent,1.12053894996643,1,vertical,vertical,1,0.811759576430688,red,1,NaN,963.910840470068,795.341332995339,NaN,NaN,963.910840470068,795.341332995339,887.215136548046,360.378381699593,548.874022981887,644.280285305067,NaN,NaN,NaN,NaN,NaN,NaN,4,0,0,NaN,NaN,NaN,vertical,vertical,vertical,none,none,none
1d,14,100237,1,16,16,18,F,NA,constant,homogeneous,3,present,1.32873702049255,1,horizontal,horizontal,1,0.870581680994767,red,2,3,1027.20666366803,484.232422566416,586.139005173917,461.117046071168,786.654331158049,854.650531362416,1027.20666366803,484.232422566416,586.139005173917,461.117046071168,NaN,NaN,NaN,NaN,NaN,NaN,0,4,0,NaN,NaN,NaN,horizontal,horizontal,vertical,none,none,none
1d,14,100237,1,17,17,18,F,NA,constant,homogeneous,5,absent,NaN,0,vertical,none,0,0.823523997343504,red,5,NaN,629.371695378491,789.501930496736,NaN,NaN,927.5,820.836477965032,1049.42763818712,546.982518841471,826.654758133252,346.39691668109,567.045908301137,496.282156015671,629.371695378491,789.501930496736,NaN,NaN,0,0,0,0,4,NaN,vertical,vertical,horizontal,vertical,vertical,none
1d,14,100237,1,18,18,18,F,NA,constant,homogeneous,5,absent,1.35974597930908,1,vertical,vertical,1,0.976461469210111,red,1,NaN,935.129412379467,816.252264519889,NaN,NaN,935.129412379467,816.252264519889,1047.42541020038,538.309916622085,817.787900804752,345.621167183745,563.568117085469,504.475318678942,636.089159529932,795.341332995339,NaN,NaN,4,0,0,0,0,NaN,vertical,vertical,horizontal,vertical,vertical,none
1d,14,100237,1,19,19,18,F,NA,constant,homogeneous,3,absent,0.911593914031982,1,horizontal,horizontal,1,1.03528357377419,red,2,NaN,907.767656743878,368.891514305654,NaN,NaN,946.261991269517,808.883771293693,907.767656743878,368.891514305654,545.970351986605,622.224714400653,NaN,NaN,NaN,NaN,NaN,NaN,0,4,0,NaN,NaN,NaN,horizontal,horizontal,horizontal,none,none,none
1d,14,100237,1,20,20,18,F,NA,constant,homogeneous,6,absent,0.833718061447144,1,horizontal,horizontal,1,0.77646631369224,red,3,NaN,946.261991269517,391.116228706307,NaN,NaN,907.767656743878,831.108485694346,1054.0296480134,622.224714400653,946.261991269517,391.116228706307,692.232343256122,368.891514305654,545.970351986605,577.775285599347,653.738008730483,808.883771293693,0,0,4,0,0,0,vertical,horizontal,horizontal,vertical,vertical,horizontal
1d,14,100237,1,21,21,18,F,NA,constant,homogeneous,3,present,1.336266040802,0,vertical,horizontal,1,1.09410567833827,red,1,3,581.422338320961,731.334709102064,795.549636358493,345.03883773512,581.422338320961,731.334709102064,1023.02802532055,723.626453162816,795.549636358493,345.03883773512,NaN,NaN,NaN,NaN,NaN,NaN,4,0,0,NaN,NaN,NaN,vertical,vertical,vertical,none,none,none
1d,14,100237,1,22,22,18,F,NA,constant,homogeneous,4,present,1.24462795257568,1,horizontal,horizontal,1,1.07057683651264,red,1,2,777.775285599347,854.029648013395,1054.0296480134,622.224714400653,777.775285599347,854.029648013395,1054.0296480134,622.224714400653,822.224714400653,345.970351986605,545.970351986605,577.775285599347,NaN,NaN,NaN,NaN,4,0,0,0,NaN,NaN,horizontal,horizontal,horizontal,vertical,none,none
1d,14,100237,1,23,23,18,F,NA,constant,homogeneous,5,present,0.830332040786743,0,horizontal,vertical,1,0.847052839169135,red,2,4,1054.0296480134,622.224714400653,607.549057043193,432.704947607421,857.362518857686,848.464366520235,1054.0296480134,622.224714400653,899.636437764765,365.271262369628,607.549057043193,432.704947607421,581.422338320961,731.334709102064,NaN,NaN,0,4,0,0,0,NaN,vertical,horizontal,horizontal,vertical,vertical,none
1d,14,100237,1,24,24,18,F,NA,constant,homogeneous,3,present,1.96958804130554,1,horizontal,horizontal,1,0.905874943733215,red,3,1,653.738008730483,391.116228706307,692.232343256122,831.108485694346,692.232343256122,831.108485694346,1054.0296480134,577.775285599347,653.738008730483,391.116228706307,NaN,NaN,NaN,NaN,NaN,NaN,0,0,4,NaN,NaN,NaN,horizontal,horizontal,horizontal,none,none,none
1d,14,100237,1,25,25,18,F,NA,constant,homogeneous,3,absent,1.86649799346924,1,horizontal,horizontal,1,1.07057683651264,red,2,NaN,1016.25226451989,464.870587620533,NaN,NaN,808.899371659138,854.844660889869,1016.25226451989,464.870587620533,574.848363820974,480.284751489598,NaN,NaN,NaN,NaN,NaN,NaN,0,4,0,NaN,NaN,NaN,horizontal,horizontal,vertical,none,none,none
1d,14,100237,1,26,26,18,F,NA,constant,homogeneous,6,absent,1.55577111244202,1,horizontal,horizontal,1,0.6,red,2,NaN,1039.62161830041,687.215136548046,NaN,NaN,844.280285305067,851.125977018113,1039.62161830041,687.215136548046,995.341332995339,436.089159529932,755.719714694933,348.874022981887,560.378381699593,512.784863451954,604.658667004661,763.910840470068,0,4,0,0,0,0,vertical,horizontal,vertical,vertical,horizontal,horizontal
1d,14,100237,1,27,27,18,F,NA,constant,homogeneous,6,absent,1.53246021270752,1,vertical,vertical,1,0.858817260081951,red,4,NaN,895.524681321058,363.568117085469,NaN,NaN,704.475318678942,836.431882914531,956.993676208043,800.942742169714,1052.5183575291,564.510859255183,895.524681321058,363.568117085469,643.006323791957,399.057257830286,547.481642470899,635.489140744817,0,0,0,4,0,0,vertical,vertical,horizontal,vertical,vertical,horizontal
1d,14,100237,1,28,28,18,F,NA,constant,homogeneous,3,absent,1.58190393447876,1,vertical,vertical,1,0.952932627384479,red,2,NaN,989.501930496736,429.371695378491,NaN,NaN,853.017481158529,849.42763818712,989.501930496736,429.371695378491,557.480588344736,521.200666434388,NaN,NaN,NaN,NaN,NaN,NaN,0,4,0,NaN,NaN,NaN,horizontal,vertical,vertical,none,none,none
1d,14,100237,1,29,29,18,F,NA,constant,homogeneous,5,absent,0.923390865325928,1,horizontal,horizontal,1,0.670586525476896,red,4,NaN,639.523300282292,401.827779828472,NaN,NaN,813.345668841951,854.650531362416,1046.31108570371,665.998856501143,938.882953928832,386.139005173917,639.523300282292,401.827779828472,561.936991243214,691.383827134052,NaN,NaN,0,0,0,4,0,NaN,horizontal,vertical,vertical,horizontal,vertical,none
1d,14,100237,1,30,30,18,F,NA,constant,homogeneous,6,present,1.30781888961792,1,horizontal,horizontal,1,0.894110522820399,red,3,6,1008.88377129369,453.738008730483,591.116228706307,746.261991269517,822.224714400653,854.029648013395,1031.10848569435,707.767656743878,1008.88377129369,453.738008730483,777.775285599347,345.970351986605,568.891514305654,492.232343256122,591.116228706307,746.261991269517,0,0,4,0,0,0,vertical,vertical,horizontal,horizontal,vertical,vertical
1d,14,100237,1,31,31,18,F,NA,constant,homogeneous,4,absent,1.07196688652039,1,horizontal,horizontal,1,0.694115367302528,red,1,NaN,734.001143498857,846.311085703712,NaN,NaN,734.001143498857,846.311085703712,1046.31108570371,665.998856501143,865.998856501143,353.688914296288,553.688914296288,534.001143498857,NaN,NaN,NaN,NaN,4,0,0,0,NaN,NaN,horizontal,vertical,horizontal,vertical,none,none
1d,14,100237,1,32,32,18,F,NA,constant,homogeneous,4,absent,NaN,0,vertical,none,0,0.694115367302528,red,3,NaN,622.862115532956,416.568350913644,NaN,NaN,977.137884467044,783.431649086356,983.431649086356,422.862115532956,622.862115532956,416.568350913644,616.568350913644,777.137884467044,NaN,NaN,NaN,NaN,0,0,4,0,NaN,NaN,horizontal,vertical,vertical,horizontal,none,none
1d,14,100237,1,33,33,18,F,NA,constant,homogeneous,4,absent,1.30423593521118,1,vertical,vertical,1,0.811759576430688,red,1,NaN,942.594190385041,811.404581001536,NaN,NaN,942.594190385041,811.404581001536,1011.40458100154,457.40580961496,657.405809614959,388.595418998464,588.595418998464,742.594190385041,NaN,NaN,NaN,NaN,4,0,0,0,NaN,NaN,vertical,vertical,horizontal,vertical,none,none
1d,14,100237,1,34,34,18,F,NA,constant,homogeneous,3,absent,0.780035018920898,1,vertical,vertical,1,0.882346101907583,red,3,NaN,546.900731331463,631.076682568313,NaN,NaN,953.462830903772,803.65205506206,899.636437764765,365.271262369628,546.900731331463,631.076682568313,NaN,NaN,NaN,NaN,NaN,NaN,0,0,4,NaN,NaN,NaN,horizontal,horizontal,vertical,none,none,none
1d,14,100237,1,35,35,18,F,NA,constant,homogeneous,6,absent,0.776431798934937,1,vertical,vertical,1,1.02351915286137,red,6,NaN,591.116228706307,746.261991269517,NaN,NaN,822.224714400653,854.029648013395,1031.10848569435,707.767656743878,1008.88377129369,453.738008730483,777.775285599347,345.970351986605,568.891514305654,492.232343256122,591.116228706307,746.261991269517,0,0,0,0,0,4,vertical,vertical,vertical,horizontal,horizontal,vertical
1d,14,100237,1,36,36,18,F,NA,constant,homogeneous,4,absent,1.19317102432251,1,vertical,vertical,1,0.858817260081951,red,2,NaN,1055,600,NaN,NaN,800,855,1055,600,800,345,545,600,NaN,NaN,NaN,NaN,0,4,0,0,NaN,NaN,horizontal,vertical,vertical,horizontal,none,none
1d,14,100237,1,37,37,18,F,NA,constant,homogeneous,5,present,0.901437997817993,1,horizontal,horizontal,1,0.611764420912816,red,5,2,553.688914296288,665.998856501143,1038.06300875679,691.383827134052,786.654331158049,854.650531362416,1038.06300875679,691.383827134052,960.476699717708,401.827779828472,661.117046071168,386.139005173917,553.688914296288,665.998856501143,NaN,NaN,0,0,0,0,4,NaN,vertical,horizontal,horizontal,vertical,horizontal,none
1d,14,100237,1,38,38,18,F,NA,constant,homogeneous,6,absent,1.16831707954407,1,vertical,vertical,1,0.635293262738448,red,2,NaN,942.594190385041,811.404581001536,NaN,NaN,688.215357568785,829.192481806288,942.594190385041,811.404581001536,1054.37883281626,582.212099195248,911.784642431215,370.807518193712,657.405809614959,388.595418998464,545.621167183745,617.787900804752,0,4,0,0,0,0,vertical,vertical,vertical,horizontal,horizontal,horizontal
1d,14,100237,1,39,39,18,F,NA,constant,homogeneous,6,present,1.01030206680298,1,vertical,vertical,1,0.917639364646031,red,4,3,865.998856501143,353.688914296288,1046.31108570371,534.001143498857,734.001143498857,846.311085703712,980.31222920257,780.31222920257,1046.31108570371,534.001143498857,865.998856501143,353.688914296288,619.68777079743,419.68777079743,553.688914296288,665.998856501143,0,0,0,4,0,0,vertical,horizontal,vertical,vertical,horizontal,vertical
1d,14,100237,1,40,40,18,F,NA,constant,homogeneous,5,present,1.42007184028625,1,vertical,vertical,1,0.870581680994767,red,4,3,572.793336331966,484.232422566416,839.890788585259,348.13947314824,915.767577433584,827.206663668034,1051.86052685176,560.109211414741,839.890788585259,348.13947314824,572.793336331966,484.232422566416,619.68777079743,780.31222920257,NaN,NaN,0,0,0,4,0,NaN,vertical,vertical,vertical,vertical,horizontal,none
1d,14,100237,1,41,41,18,F,NA,constant,homogeneous,4,present,0.934636116027832,1,horizontal,horizontal,1,1.09410567833827,red,3,4,696.282156015671,367.045908301137,567.045908301137,703.717843984329,903.717843984329,832.954091698863,1032.95409169886,496.282156015671,696.282156015671,367.045908301137,567.045908301137,703.717843984329,NaN,NaN,NaN,NaN,0,0,4,0,NaN,NaN,vertical,horizontal,horizontal,vertical,none,none
1d,14,100237,1,42,42,18,F,NA,constant,homogeneous,4,present,1.41272521018982,0,vertical,horizontal,1,0.964697048297295,red,4,2,553.688914296288,665.998856501143,1046.31108570371,534.001143498857,865.998856501143,846.311085703712,1046.31108570371,534.001143498857,734.001143498857,353.688914296288,553.688914296288,665.998856501143,NaN,NaN,NaN,NaN,0,0,0,4,NaN,NaN,horizontal,vertical,vertical,vertical,none,none
1d,14,100237,1,43,43,18,F,NA,constant,homogeneous,4,absent,NaN,0,horizontal,none,0,0.964697048297295,red,4,NaN,586.139005173917,461.117046071168,NaN,NaN,661.117046071168,813.860994826083,1013.86099482608,738.882953928832,938.882953928832,386.139005173917,586.139005173917,461.117046071168,NaN,NaN,NaN,NaN,0,0,0,4,NaN,NaN,vertical,horizontal,horizontal,horizontal,none,none
1d,14,100237,1,44,44,18,F,NA,constant,homogeneous,6,absent,0.944552898406982,1,vertical,vertical,1,1.01175473194856,red,4,NaN,861.690083377915,352.574589799621,NaN,NaN,738.309916622085,847.425410200379,983.431649086356,777.137884467044,1045.12173246427,529.712474266665,861.690083377915,352.574589799621,616.568350913644,422.862115532956,554.878267535729,670.287525733335,0,0,0,4,0,0,vertical,horizontal,horizontal,vertical,horizontal,horizontal
1d,14,100237,1,45,45,18,F,NA,constant,homogeneous,4,present,1.07495784759521,1,vertical,vertical,1,0.741173050953792,red,3,2,844.280285305067,348.874022981887,1051.12597701811,644.280285305067,755.719714694933,851.125977018113,1051.12597701811,644.280285305067,844.280285305067,348.874022981887,548.874022981887,555.719714694933,NaN,NaN,NaN,NaN,0,0,4,0,NaN,NaN,vertical,vertical,vertical,vertical,none,none
1d,14,100237,1,46,46,18,F,NA,constant,homogeneous,3,absent,0.995337963104248,1,vertical,vertical,1,0.741173050953792,red,2,NaN,1043.85771277057,525.445215295702,NaN,NaN,742.637481142314,848.464366520235,1043.85771277057,525.445215295702,613.504806087112,426.090418184063,NaN,NaN,NaN,NaN,NaN,NaN,0,4,0,NaN,NaN,NaN,vertical,vertical,horizontal,none,none,none
1d,14,100237,1,47,47,18,F,NA,constant,homogeneous,3,present,0.908912897109985,1,vertical,vertical,1,0.670586525476896,red,3,2,545.621167183745,617.787900804752,911.784642431215,370.807518193712,942.594190385041,811.404581001536,911.784642431215,370.807518193712,545.621167183745,617.787900804752,NaN,NaN,NaN,NaN,NaN,NaN,0,0,4,NaN,NaN,NaN,vertical,horizontal,vertical,none,none,none
1d,14,100237,1,48,48,18,F,NA,constant,homogeneous,4,present,0.870243072509766,1,vertical,vertical,1,0.752937471866608,red,4,3,550.57236181288,546.982518841471,853.017481158529,350.57236181288,746.982518841471,849.42763818712,1049.42763818712,653.017481158529,853.017481158529,350.57236181288,550.57236181288,546.982518841471,NaN,NaN,NaN,NaN,0,0,0,4,NaN,NaN,horizontal,horizontal,vertical,vertical,none,none
1d,14,100237,1,49,49,18,F,NA,constant,homogeneous,5,absent,1.27690505981445,1,horizontal,horizontal,1,1.04704799468701,red,4,NaN,574.848363820974,480.284751489598,NaN,NaN,911.784642431215,829.192481806288,1052.5183575291,564.510859255183,844.280285305067,348.874022981887,574.848363820974,480.284751489598,616.568350913644,777.137884467044,NaN,NaN,0,0,0,4,0,NaN,vertical,vertical,vertical,horizontal,horizontal,none
1d,14,100237,1,50,50,18,F,NA,constant,homogeneous,4,present,1.06243205070496,1,vertical,vertical,1,1.01175473194856,red,3,1,629.371695378491,410.498069503264,970.628304621509,789.501930496736,970.628304621509,789.501930496736,989.501930496736,429.371695378491,629.371695378491,410.498069503264,610.498069503264,770.628304621509,NaN,NaN,NaN,NaN,0,0,4,0,NaN,NaN,vertical,horizontal,vertical,horizontal,none,none
1d,14,100237,1,51,51,18,F,NA,constant,homogeneous,6,absent,1.00172305107117,1,horizontal,horizontal,1,0.670586525476896,red,2,NaN,942.594190385041,811.404581001536,NaN,NaN,688.215357568785,829.192481806288,942.594190385041,811.404581001536,1054.37883281626,582.212099195248,911.784642431215,370.807518193712,657.405809614959,388.595418998464,545.621167183745,617.787900804752,0,4,0,0,0,0,horizontal,horizontal,horizontal,vertical,horizontal,horizontal
1d,14,100237,1,52,52,18,F,NA,constant,homogeneous,3,present,0.791463851928711,1,horizontal,horizontal,1,0.670586525476896,red,2,3,1054.65053136242,586.654331158049,661.117046071168,386.139005173917,684.232422566416,827.206663668034,1054.65053136242,586.654331158049,661.117046071168,386.139005173917,NaN,NaN,NaN,NaN,NaN,NaN,0,4,0,NaN,NaN,NaN,horizontal,horizontal,horizontal,none,none,none
1d,14,100237,1,53,53,18,F,NA,constant,homogeneous,4,present,0.820463895797729,1,horizontal,horizontal,1,1.05881241559982,red,3,1,786.654331158049,345.349468637584,813.345668841951,854.650531362416,813.345668841951,854.650531362416,1054.65053136242,586.654331158049,786.654331158049,345.349468637584,545.349468637584,613.345668841951,NaN,NaN,NaN,NaN,0,0,4,0,NaN,NaN,vertical,vertical,horizontal,vertical,none,none
1d,14,100237,1,54,54,18,F,NA,constant,homogeneous,4,absent,0.88031792640686,1,vertical,vertical,1,0.764701892779424,red,3,NaN,729.712474266665,354.878267535729,NaN,NaN,870.287525733335,845.121732464271,1045.12173246427,529.712474266665,729.712474266665,354.878267535729,554.878267535729,670.287525733335,NaN,NaN,NaN,NaN,0,0,4,0,NaN,NaN,horizontal,vertical,vertical,horizontal,none,none
1d,14,100237,1,55,55,18,F,NA,constant,homogeneous,3,absent,0.82584810256958,1,horizontal,horizontal,1,0.788230734605056,red,3,NaN,791.100628340862,345.155339110131,NaN,NaN,583.747735480111,735.129412379467,1025.15163617903,719.715248510402,791.100628340862,345.155339110131,NaN,NaN,NaN,NaN,NaN,NaN,0,0,4,NaN,NaN,NaN,vertical,horizontal,horizontal,none,none,none
1d,14,100237,1,56,56,18,F,NA,constant,homogeneous,3,absent,0.891976833343506,1,horizontal,horizontal,1,0.682350946389712,red,3,NaN,570.807518193712,488.215357568785,NaN,NaN,817.787900804752,854.378832816255,1011.40458100154,457.40580961496,570.807518193712,488.215357568785,NaN,NaN,NaN,NaN,NaN,NaN,0,0,4,NaN,NaN,NaN,horizontal,horizontal,horizontal,none,none,none
1d,14,100237,1,57,57,18,F,NA,constant,homogeneous,5,absent,1.04146885871887,1,vertical,vertical,1,0.764701892779424,red,4,NaN,755.719714694933,348.874022981887,NaN,NaN,688.215357568785,829.192481806288,983.431649086356,777.137884467044,1025.15163617903,480.284751489598,755.719714694933,348.874022981887,547.481642470899,564.510859255183,NaN,NaN,0,0,0,4,0,NaN,vertical,vertical,vertical,vertical,horizontal,none
1d,14,100237,1,58,58,18,F,NA,constant,homogeneous,5,present,1.01870107650757,1,horizontal,horizontal,1,0.623528841825632,red,4,2,657.405809614959,388.595418998464,1039.62161830041,687.215136548046,791.100628340862,854.844660889869,1039.62161830041,687.215136548046,956.993676208043,399.057257830286,657.405809614959,388.595418998464,554.878267535729,670.287525733335,NaN,NaN,0,0,0,4,0,NaN,horizontal,horizontal,vertical,horizontal,horizontal,none
1d,14,100237,1,59,59,18,F,NA,constant,homogeneous,6,present,0.972653150558472,1,horizontal,horizontal,1,1.07057683651264,red,1,6,844.280285305067,851.125977018113,604.658667004661,763.910840470068,844.280285305067,851.125977018113,1039.62161830041,687.215136548046,995.341332995339,436.089159529932,755.719714694933,348.874022981887,560.378381699593,512.784863451954,604.658667004661,763.910840470068,4,0,0,0,0,0,horizontal,vertical,horizontal,horizontal,vertical,vertical
1d,14,100237,1,60,60,18,F,NA,constant,homogeneous,4,present,0.960577964782715,1,horizontal,horizontal,1,0.811759576430688,red,3,1,751.343706178981,349.685068220846,848.656293821019,850.314931779154,848.656293821019,850.314931779154,1050.31493177915,551.343706178981,751.343706178981,349.685068220846,549.685068220846,648.656293821019,NaN,NaN,NaN,NaN,0,0,4,0,NaN,NaN,horizontal,horizontal,horizontal,horizontal,none,none
1d,14,100237,1,61,61,18,F,NA,constant,homogeneous,6,present,1.68054986000061,1,vertical,vertical,1,1.03528357377419,red,5,1,545.621167183745,582.212099195248,911.784642431215,829.192481806288,911.784642431215,829.192481806288,1054.37883281626,617.787900804752,942.594190385041,388.595418998464,688.215357568785,370.807518193712,545.621167183745,582.212099195248,657.405809614959,811.404581001536,0,0,0,0,4,0,vertical,vertical,horizontal,vertical,vertical,horizontal
1d,14,100237,1,62,62,18,F,NA,constant,homogeneous,4,absent,1.0717179775238,1,horizontal,horizontal,1,0.670586525476896,red,2,NaN,1054.0296480134,577.775285599347,NaN,NaN,822.224714400653,854.029648013395,1054.0296480134,577.775285599347,777.775285599347,345.970351986605,545.970351986605,622.224714400653,NaN,NaN,NaN,NaN,0,4,0,0,NaN,NaN,horizontal,horizontal,horizontal,vertical,none,none
1d,14,100237,1,63,63,18,F,NA,constant,homogeneous,6,absent,0.90190601348877,1,horizontal,horizontal,1,1.02351915286137,red,4,NaN,835.489140744817,347.4816424709,NaN,NaN,764.510859255183,852.518357529101,1000.94274216971,756.993676208043,1036.43188291453,504.475318678942,835.489140744817,347.4816424709,599.057257830286,443.006323791957,563.568117085469,695.524681321058,0,0,0,4,0,0,horizontal,vertical,horizontal,horizontal,horizontal,vertical
1d,14,100237,1,64,64,18,F,NA,constant,homogeneous,5,present,1.1923348903656,1,horizontal,horizontal,1,0.611764420912816,red,5,3,551.535633479765,542.637481142314,1034.72873763037,500.363562235235,668.665290897936,818.577661679039,967.295052392579,792.450942956807,1034.72873763037,500.363562235235,777.775285599347,345.970351986605,551.535633479765,542.637481142314,NaN,NaN,0,0,0,0,4,NaN,vertical,vertical,vertical,vertical,horizontal,none
1d,14,100237,2,1,65,18,F,NA,constant,homogeneous,4,present,0.8195481300354,1,vertical,vertical,1,0.71764420912816,red,2,4,998.172220171528,760.476699717708,601.827779828472,439.523300282291,639.523300282292,798.172220171528,998.172220171528,760.476699717708,960.476699717708,401.827779828472,601.827779828472,439.523300282291,NaN,NaN,NaN,NaN,0,4,0,0,NaN,NaN,horizontal,vertical,horizontal,vertical,none,none
1d,14,100237,2,2,66,18,F,NA,constant,homogeneous,5,present,1.1880030632019,1,vertical,vertical,1,0.6,red,4,5,591.116228706307,453.738008730483,596.34794493794,753.462830903772,883.019879386575,841.107236777826,1054.96116226488,595.549636358493,874.554784704298,356.142287229426,591.116228706307,453.738008730483,596.34794493794,753.462830903772,NaN,NaN,0,0,0,4,0,NaN,horizontal,horizontal,vertical,vertical,horizontal,none
1d,14,100237,2,3,67,18,F,NA,constant,homogeneous,6,present,0.978690147399902,1,horizontal,horizontal,1,0.929403785558847,red,6,2,557.480588344736,678.799333565612,989.501930496736,770.628304621509,746.982518841471,849.42763818712,989.501930496736,770.628304621509,1042.51941165526,521.200666434388,853.017481158529,350.57236181288,610.498069503264,429.371695378491,557.480588344736,678.799333565612,0,0,0,0,0,4,vertical,vertical,horizontal,horizontal,vertical,horizontal
1d,14,100237,2,4,68,18,F,NA,constant,homogeneous,4,present,0.91569185256958,1,vertical,vertical,1,1.05881241559982,red,2,4,1025.15163617903,480.284751489598,574.848363820974,719.715248510402,919.715248510402,825.151636179026,1025.15163617903,480.284751489598,680.284751489598,374.848363820974,574.848363820974,719.715248510402,NaN,NaN,NaN,NaN,0,4,0,0,NaN,NaN,horizontal,vertical,horizontal,horizontal,none,none
1d,14,100237,2,5,69,18,F,NA,constant,homogeneous,6,present,1.24177694320679,0,vertical,horizontal,1,0.788230734605056,red,1,4,729.712474266665,845.121732464271,870.287525733335,354.878267535729,729.712474266665,845.121732464271,977.137884467044,783.431649086356,1047.42541020038,538.309916622085,870.287525733335,354.878267535729,622.862115532956,416.568350913644,552.574589799621,661.690083377915,4,0,0,0,0,0,vertical,horizontal,horizontal,vertical,vertical,vertical
1d,14,100237,2,6,70,18,F,NA,constant,homogeneous,4,absent,0.788167953491211,1,horizontal,horizontal,1,0.870581680994767,red,4,NaN,570.807518193712,711.784642431215,NaN,NaN,911.784642431215,829.192481806288,1029.19248180629,488.215357568785,688.215357568785,370.807518193712,570.807518193712,711.784642431215,NaN,NaN,NaN,NaN,0,0,0,4,NaN,NaN,vertical,vertical,vertical,horizontal,none,none
1d,14,100237,2,7,71,18,F,NA,constant,homogeneous,6,absent,1.45038604736328,1,horizontal,horizontal,1,0.905874943733215,red,5,NaN,581.422338320961,468.665290897936,NaN,NaN,795.549636358493,854.96116226488,1018.57766167904,731.334709102064,1023.02802532055,476.373546837184,804.450363641507,345.03883773512,581.422338320961,468.665290897936,576.971974679454,723.626453162816,0,0,0,0,4,0,vertical,horizontal,horizontal,vertical,horizontal,vertical
1d,14,100237,2,8,72,18,F,NA,constant,homogeneous,6,present,0.888912916183472,1,vertical,vertical,1,1.07057683651264,red,6,5,610.498069503264,770.628304621509,557.480588344736,521.200666434388,853.017481158529,849.42763818712,1042.51941165526,678.799333565612,989.501930496736,429.371695378491,746.982518841471,350.57236181288,557.480588344736,521.200666434388,610.498069503264,770.628304621509,0,0,0,0,0,4,vertical,vertical,horizontal,horizontal,horizontal,vertical
1d,14,100237,2,9,73,18,F,NA,constant,homogeneous,4,absent,0.883692026138306,1,horizontal,horizontal,1,1.04704799468701,red,3,NaN,646.537169096228,396.34794493794,NaN,NaN,953.462830903772,803.65205506206,1003.65205506206,446.537169096228,646.537169096228,396.34794493794,596.34794493794,753.462830903772,NaN,NaN,NaN,NaN,0,0,4,0,NaN,NaN,horizontal,horizontal,horizontal,vertical,none,none
1d,14,100237,2,10,74,18,F,NA,constant,homogeneous,3,present,0.82359504699707,1,horizontal,horizontal,1,0.894110522820399,red,3,1,546.39691668109,626.654758133252,949.885239334581,806.299333565612,949.885239334581,806.299333565612,903.717843984329,367.045908301137,546.39691668109,626.654758133252,NaN,NaN,NaN,NaN,NaN,NaN,0,0,4,NaN,NaN,NaN,horizontal,horizontal,horizontal,none,none,none
1d,14,100237,2,11,75,18,F,NA,constant,homogeneous,6,absent,1.21959590911865,1,horizontal,horizontal,1,0.752937471866608,red,4,NaN,887.215136548046,360.378381699593,NaN,NaN,712.784863451954,839.621618300407,963.910840470068,795.341332995339,1051.12597701811,555.719714694933,887.215136548046,360.378381699593,636.089159529932,404.658667004661,548.874022981887,644.280285305067,0,0,0,4,0,0,vertical,vertical,horizontal,horizontal,vertical,horizontal
1d,14,100237,2,12,76,18,F,NA,constant,homogeneous,5,present,0.907422065734863,1,horizontal,horizontal,1,0.976461469210111,red,5,3,579.163522034968,727.5,903.717843984329,367.045908301137,853.017481158529,849.42763818712,1053.60308331891,626.654758133252,903.717843984329,367.045908301137,610.498069503264,429.371695378491,579.163522034968,727.5,NaN,NaN,0,0,0,0,4,NaN,vertical,horizontal,vertical,vertical,horizontal,none
1d,14,100237,2,13,77,18,F,NA,constant,homogeneous,4,absent,0.769737958908081,1,vertical,vertical,1,1.01175473194856,red,1,NaN,716.980120613425,841.107236777826,NaN,NaN,716.980120613425,841.107236777826,1041.10723677783,683.019879386575,883.019879386575,358.892763222174,558.892763222174,516.980120613425,NaN,NaN,NaN,NaN,4,0,0,0,NaN,NaN,vertical,horizontal,horizontal,vertical,none,none
1d,14,100237,2,14,78,18,F,NA,constant,homogeneous,3,absent,0.897547960281372,1,horizontal,horizontal,1,0.999990311035743,red,2,NaN,983.431649086356,422.862115532956,NaN,NaN,861.690083377915,847.425410200379,983.431649086356,422.862115532956,554.878267535729,529.712474266665,NaN,NaN,NaN,NaN,NaN,NaN,0,4,0,NaN,NaN,NaN,horizontal,horizontal,horizontal,none,none,none
1d,14,100237,2,15,79,18,F,NA,constant,homogeneous,3,absent,1.32627010345459,1,horizontal,horizontal,1,0.729408630040976,red,1,NaN,942.594190385041,811.404581001536,NaN,NaN,942.594190385041,811.404581001536,911.784642431215,370.807518193712,545.621167183745,617.787900804752,NaN,NaN,NaN,NaN,NaN,NaN,4,0,0,NaN,NaN,NaN,horizontal,horizontal,horizontal,none,none,none
1d,14,100237,2,16,80,18,F,NA,constant,homogeneous,6,present,0.775362968444824,1,horizontal,horizontal,1,0.917639364646031,red,6,2,558.892763222174,683.019879386575,992.450942956807,767.295052392579,751.343706178981,850.314931779154,992.450942956807,767.295052392579,1041.10723677783,516.980120613425,848.656293821019,349.685068220846,607.549057043193,432.704947607421,558.892763222174,683.019879386575,0,0,0,0,0,4,horizontal,horizontal,vertical,vertical,horizontal,horizontal
1d,14,100237,2,17,81,18,F,NA,constant,homogeneous,3,present,0.929805994033813,1,horizontal,horizontal,1,0.929403785558847,red,2,3,899.636437764765,365.271262369628,546.900731331463,631.076682568313,953.462830903772,803.65205506206,899.636437764765,365.271262369628,546.900731331463,631.076682568313,NaN,NaN,NaN,NaN,NaN,NaN,0,4,0,NaN,NaN,NaN,horizontal,horizontal,vertical,none,none,none
1d,14,100237,2,18,82,18,F,NA,constant,homogeneous,6,present,0.989135980606079,1,horizontal,horizontal,1,0.823523997343504,red,2,6,949.885239334581,806.299333565612,546.39691668109,626.654758133252,696.282156015671,832.954091698863,949.885239334581,806.299333565612,1053.60308331891,573.345241866748,903.717843984329,367.045908301137,650.114760665419,393.700666434388,546.39691668109,626.654758133252,0,4,0,0,0,0,horizontal,horizontal,vertical,vertical,vertical,horizontal
1d,14,100237,2,19,83,18,F,NA,constant,homogeneous,4,absent,0.871191024780273,1,horizontal,horizontal,1,0.894110522820399,red,4,NaN,548.13947314824,639.890788585259,NaN,NaN,839.890788585259,851.86052685176,1051.86052685176,560.109211414741,760.109211414741,348.13947314824,548.13947314824,639.890788585259,NaN,NaN,NaN,NaN,0,0,0,4,NaN,NaN,vertical,vertical,horizontal,horizontal,none,none
1d,14,100237,2,20,84,18,F,NA,constant,homogeneous,5,absent,0.864902973175049,1,vertical,vertical,1,0.611764420912816,red,4,NaN,586.139005173917,461.117046071168,NaN,NaN,891.383827134052,838.063008756786,1054.65053136242,586.654331158049,865.998856501143,353.688914296288,586.139005173917,461.117046071168,601.827779828472,760.476699717708,NaN,NaN,0,0,0,4,0,NaN,horizontal,vertical,vertical,vertical,horizontal,none
1d,14,100237,2,21,85,18,F,NA,constant,homogeneous,5,present,1.01358103752136,1,vertical,vertical,1,0.964697048297295,red,1,2,949.885239334581,806.299333565612,1042.51941165526,521.200666434388,949.885239334581,806.299333565612,1042.51941165526,521.200666434388,800,345,557.480588344736,521.200666434388,650.114760665419,806.299333565612,NaN,NaN,4,0,0,0,0,NaN,vertical,horizontal,vertical,vertical,vertical,none
1d,14,100237,2,22,86,18,F,NA,constant,homogeneous,4,absent,0.944145202636719,1,vertical,vertical,1,0.694115367302528,red,3,NaN,923.626453162816,376.971974679454,NaN,NaN,676.373546837184,823.028025320546,1023.02802532055,723.626453162816,923.626453162816,376.971974679454,576.971974679454,476.373546837184,NaN,NaN,NaN,NaN,0,0,4,0,NaN,NaN,vertical,horizontal,vertical,horizontal,none,none
1d,14,100237,2,23,87,18,F,NA,constant,homogeneous,4,present,0.92901611328125,1,horizontal,horizontal,1,0.694115367302528,red,3,4,960.476699717708,401.827779828472,601.827779828472,439.523300282291,639.523300282292,798.172220171528,998.172220171528,760.476699717708,960.476699717708,401.827779828472,601.827779828472,439.523300282291,NaN,NaN,NaN,NaN,0,0,4,0,NaN,NaN,horizontal,vertical,horizontal,vertical,none,none
1d,14,100237,2,24,88,18,F,NA,constant,homogeneous,6,present,1.34160709381104,1,horizontal,horizontal,1,1.09410567833827,red,1,2,857.362518857686,848.464366520235,1043.85771277057,674.554784704298,857.362518857686,848.464366520235,1043.85771277057,674.554784704298,986.495193912888,426.090418184063,742.637481142314,351.535633479765,556.142287229426,525.445215295702,613.504806087112,773.909581815937,4,0,0,0,0,0,horizontal,horizontal,vertical,vertical,horizontal,horizontal
1d,14,100237,2,25,89,18,F,NA,constant,homogeneous,4,present,0.962880849838257,1,horizontal,horizontal,1,0.705879788215344,red,4,2,545.349468637584,613.345668841951,1054.65053136242,586.654331158049,813.345668841951,854.650531362416,1054.65053136242,586.654331158049,786.654331158049,345.349468637584,545.349468637584,613.345668841951,NaN,NaN,NaN,NaN,0,0,0,4,NaN,NaN,horizontal,horizontal,horizontal,horizontal,none,none
1d,14,100237,2,26,90,18,F,NA,constant,homogeneous,3,present,0.724159002304077,1,vertical,vertical,1,0.905874943733215,red,1,2,643.006323791957,800.942742169714,1052.5183575291,635.489140744817,643.006323791957,800.942742169714,1052.5183575291,635.489140744817,704.475318678942,363.568117085469,NaN,NaN,NaN,NaN,NaN,NaN,4,0,0,NaN,NaN,NaN,vertical,horizontal,horizontal,none,none,none
1d,14,100237,2,27,91,18,F,NA,constant,homogeneous,3,absent,1.06140685081482,1,horizontal,horizontal,1,0.917639364646031,red,1,NaN,588.595418998464,742.594190385041,NaN,NaN,588.595418998464,742.594190385041,1029.19248180629,711.784642431215,782.212099195248,345.621167183745,NaN,NaN,NaN,NaN,NaN,NaN,4,0,0,NaN,NaN,NaN,horizontal,vertical,horizontal,none,none,none
1d,14,100237,2,28,92,18,F,NA,constant,homogeneous,6,absent,0.972543001174927,1,vertical,vertical,1,0.682350946389712,red,2,NaN,1011.40458100154,742.594190385041,NaN,NaN,782.212099195248,854.378832816255,1011.40458100154,742.594190385041,1029.19248180629,488.215357568785,817.787900804752,345.621167183745,588.595418998464,457.40580961496,570.807518193712,711.784642431215,0,4,0,0,0,0,horizontal,vertical,vertical,horizontal,vertical,vertical
1d,14,100237,2,29,93,18,F,NA,constant,homogeneous,4,present,1.0633590221405,1,vertical,vertical,1,0.964697048297295,red,4,3,557.480588344736,678.799333565612,721.200666434388,357.480588344736,878.799333565612,842.519411655264,1042.51941165526,521.200666434388,721.200666434388,357.480588344736,557.480588344736,678.799333565612,NaN,NaN,NaN,NaN,0,0,0,4,NaN,NaN,horizontal,horizontal,vertical,vertical,none,none
1d,14,100237,2,30,94,18,F,NA,constant,homogeneous,4,absent,0.766603946685791,1,horizontal,horizontal,1,0.682350946389712,red,1,NaN,734.001143498857,846.311085703712,NaN,NaN,734.001143498857,846.311085703712,1046.31108570371,665.998856501143,865.998856501143,353.688914296288,553.688914296288,534.001143498857,NaN,NaN,NaN,NaN,4,0,0,0,NaN,NaN,horizontal,horizontal,horizontal,vertical,none,none
1d,14,100237,2,31,95,18,F,NA,constant,homogeneous,5,present,0.889047861099243,1,horizontal,horizontal,1,0.764701892779424,red,1,3,831.076682568313,853.099268668537,923.626453162816,376.971974679454,831.076682568313,853.099268668537,1050.31493177915,648.656293821019,923.626453162816,376.971974679454,626.090418184063,413.504806087112,568.891514305654,707.767656743878,NaN,NaN,4,0,0,0,0,NaN,horizontal,horizontal,vertical,vertical,horizontal,none
1d,14,100237,2,32,96,18,F,NA,constant,homogeneous,6,absent,0.775650024414062,1,vertical,vertical,1,0.835288418256319,red,3,NaN,949.885239334581,393.700666434388,NaN,NaN,903.717843984329,832.954091698863,1053.60308331891,626.654758133252,949.885239334581,393.700666434388,696.282156015671,367.045908301137,546.39691668109,573.345241866748,650.114760665419,806.299333565612,0,0,4,0,0,0,horizontal,horizontal,vertical,vertical,horizontal,vertical
1d,14,100237,2,33,97,18,F,NA,constant,homogeneous,6,absent,0.754251003265381,1,vertical,vertical,1,0.929403785558847,red,1,NaN,716.980120613425,841.107236777826,NaN,NaN,716.980120613425,841.107236777826,967.295052392579,792.450942956807,1050.31493177915,551.343706178981,883.019879386575,358.892763222174,632.704947607421,407.549057043193,549.685068220846,648.656293821019,4,0,0,0,0,0,vertical,vertical,vertical,vertical,vertical,vertical
1d,14,100237,2,34,98,18,F,NA,constant,homogeneous,5,present,0.911143064498901,1,vertical,vertical,1,1.09410567833827,red,3,1,986.495193912888,426.090418184063,751.343706178981,850.314931779154,751.343706178981,850.314931779154,1023.02802532055,723.626453162816,986.495193912888,426.090418184063,692.232343256122,368.891514305654,546.900731331463,631.076682568313,NaN,NaN,0,0,4,0,0,NaN,horizontal,horizontal,vertical,vertical,horizontal,none
1d,14,100237,2,35,99,18,F,NA,constant,homogeneous,3,absent,0.674924850463867,1,vertical,vertical,1,0.870581680994767,red,1,NaN,782.212099195248,854.378832816255,NaN,NaN,782.212099195248,854.378832816255,1029.19248180629,488.215357568785,588.595418998464,457.40580961496,NaN,NaN,NaN,NaN,NaN,NaN,4,0,0,NaN,NaN,NaN,vertical,horizontal,horizontal,none,none,none
1d,14,100237,2,36,100,18,F,NA,constant,homogeneous,5,present,0.736918926239014,1,horizontal,horizontal,1,0.999990311035743,red,2,1,1003.65205506206,753.462830903772,716.980120613425,841.107236777826,716.980120613425,841.107236777826,1003.65205506206,753.462830903772,1008.88377129369,453.738008730483,725.445215295702,356.142287229426,545.03883773512,595.549636358493,NaN,NaN,0,4,0,0,0,NaN,vertical,horizontal,horizontal,horizontal,horizontal,none
1d,14,100237,2,37,101,18,F,NA,constant,homogeneous,5,absent,0.763735055923462,1,horizontal,horizontal,1,0.799995155517872,red,5,NaN,646.537169096228,803.65205506206,NaN,NaN,946.261991269517,808.883771293693,1043.85771277057,525.445215295702,804.450363641507,345.03883773512,558.892763222174,516.980120613425,646.537169096228,803.65205506206,NaN,NaN,0,0,0,0,4,NaN,horizontal,vertical,vertical,horizontal,horizontal,none
1d,14,100237,2,38,102,18,F,NA,constant,homogeneous,5,absent,0.745441913604736,1,horizontal,horizontal,1,0.905874943733215,red,3,NaN,931.334709102064,381.422338320961,NaN,NaN,822.224714400653,854.029648013395,1048.46436652023,657.362518857686,931.334709102064,381.422338320961,632.704947607421,407.549057043193,565.271262369628,699.636437764765,NaN,NaN,0,0,4,0,0,NaN,vertical,horizontal,horizontal,vertical,vertical,none
1d,14,100237,2,39,103,18,F,NA,constant,homogeneous,6,absent,0.939254999160767,1,horizontal,horizontal,1,0.941168206471663,red,5,NaN,610.498069503264,429.371695378491,NaN,NaN,746.982518841471,849.42763818712,989.501930496736,770.628304621509,1042.51941165526,521.200666434388,853.017481158529,350.57236181288,610.498069503264,429.371695378491,557.480588344736,678.799333565612,0,0,0,0,4,0,vertical,horizontal,vertical,horizontal,horizontal,horizontal
1d,14,100237,2,40,104,18,F,NA,constant,homogeneous,6,absent,0.915875196456909,1,horizontal,horizontal,1,1.08234125742545,red,1,NaN,755.719714694933,851.125977018113,NaN,NaN,755.719714694933,851.125977018113,995.341332995339,763.910840470068,1039.62161830041,512.784863451954,844.280285305067,348.874022981887,604.658667004661,436.089159529932,560.378381699593,687.215136548046,4,0,0,0,0,0,horizontal,horizontal,horizontal,vertical,vertical,horizontal
1d,14,100237,2,41,105,18,F,NA,constant,homogeneous,5,absent,0.723718881607056,1,horizontal,horizontal,1,1.08234125742545,red,5,NaN,636.089159529932,795.341332995339,NaN,NaN,935.129412379467,816.252264519889,1047.42541020038,538.309916622085,817.787900804752,345.621167183745,563.568117085469,504.475318678942,636.089159529932,795.341332995339,NaN,NaN,0,0,0,0,4,NaN,vertical,vertical,vertical,vertical,horizontal,none
1d,14,100237,2,42,106,18,F,NA,constant,homogeneous,5,absent,0.85185980796814,1,horizontal,horizontal,1,0.870581680994767,red,3,NaN,848.656293821019,349.685068220846,NaN,NaN,907.767656743878,831.108485694346,1053.09926866854,568.923317431687,848.656293821019,349.685068220846,576.971974679454,476.373546837184,613.504806087112,773.909581815937,NaN,NaN,0,0,4,0,0,NaN,vertical,vertical,horizontal,vertical,vertical,none
1d,14,100237,2,43,107,18,F,NA,constant,homogeneous,6,present,0.845812082290649,1,vertical,vertical,1,1.03528357377419,red,6,4,657.405809614959,811.404581001536,688.215357568785,370.807518193712,911.784642431215,829.192481806288,1054.37883281626,617.787900804752,942.594190385041,388.595418998464,688.215357568785,370.807518193712,545.621167183745,582.212099195248,657.405809614959,811.404581001536,0,0,0,0,0,4,vertical,vertical,vertical,horizontal,horizontal,vertical
1d,14,100237,2,44,108,18,F,NA,constant,homogeneous,3,absent,0.863751173019409,1,vertical,vertical,1,0.835288418256319,red,2,NaN,1047.42541020038,538.309916622085,NaN,NaN,729.712474266665,845.121732464271,1047.42541020038,538.309916622085,622.862115532956,416.568350913644,NaN,NaN,NaN,NaN,NaN,NaN,0,4,0,NaN,NaN,NaN,vertical,vertical,horizontal,none,none,none
1d,14,100237,2,45,109,18,F,NA,constant,homogeneous,5,present,0.752665042877197,1,horizontal,horizontal,1,0.77646631369224,red,4,5,565.271262369628,500.363562235235,632.704947607421,792.450942956807,931.334709102064,818.577661679039,1048.46436652023,542.637481142314,822.224714400653,345.970351986605,565.271262369628,500.363562235235,632.704947607421,792.450942956807,NaN,NaN,0,0,0,4,0,NaN,horizontal,horizontal,horizontal,horizontal,vertical,none
1d,14,100237,2,46,110,18,F,NA,constant,homogeneous,4,present,1.05908918380737,1,horizontal,horizontal,1,0.752937471866608,red,2,1,1018.57766167904,468.665290897936,931.334709102064,818.577661679039,931.334709102064,818.577661679039,1018.57766167904,468.665290897936,668.665290897936,381.422338320961,581.422338320961,731.334709102064,NaN,NaN,NaN,NaN,0,4,0,0,NaN,NaN,horizontal,horizontal,horizontal,vertical,none,none
1d,14,100237,2,47,111,18,F,NA,constant,homogeneous,3,absent,0.682316064834595,1,vertical,vertical,1,1.08234125742545,red,2,NaN,1053.60308331891,626.654758133252,NaN,NaN,650.114760665419,806.299333565612,1053.60308331891,626.654758133252,696.282156015671,367.045908301137,NaN,NaN,NaN,NaN,NaN,NaN,0,4,0,NaN,NaN,NaN,vertical,vertical,horizontal,none,none,none
1d,14,100237,2,48,112,18,F,NA,constant,homogeneous,6,absent,0.794988870620728,1,vertical,vertical,1,0.952932627384479,red,6,NaN,661.117046071168,813.860994826083,NaN,NaN,915.767577433584,827.206663668034,1054.65053136242,613.345668841951,938.882953928832,386.139005173917,684.232422566416,372.793336331966,545.349468637584,586.654331158049,661.117046071168,813.860994826083,0,0,0,0,0,4,horizontal,horizontal,horizontal,horizontal,horizontal,vertical
1d,14,100237,2,49,113,18,F,NA,constant,homogeneous,4,absent,0.750394105911255,1,vertical,vertical,1,0.764701892779424,red,3,NaN,946.261991269517,391.116228706307,NaN,NaN,653.738008730483,808.883771293693,1008.88377129369,746.261991269517,946.261991269517,391.116228706307,591.116228706307,453.738008730483,NaN,NaN,NaN,NaN,0,0,4,0,NaN,NaN,vertical,horizontal,vertical,vertical,none,none
1d,14,100237,2,50,114,18,F,NA,constant,homogeneous,4,present,0.695618867874146,1,horizontal,horizontal,1,0.694115367302528,red,1,2,622.862115532956,783.431649086356,983.431649086356,777.137884467044,622.862115532956,783.431649086356,983.431649086356,777.137884467044,977.137884467044,416.568350913644,616.568350913644,422.862115532956,NaN,NaN,NaN,NaN,4,0,0,0,NaN,NaN,horizontal,horizontal,horizontal,horizontal,none,none
1d,14,100237,2,51,115,18,F,NA,constant,homogeneous,3,absent,0.960207939147949,1,vertical,vertical,1,0.741173050953792,red,1,NaN,878.799333565612,842.519411655264,NaN,NaN,878.799333565612,842.519411655264,970.628304621509,410.498069503264,550.57236181288,546.982518841471,NaN,NaN,NaN,NaN,NaN,NaN,4,0,0,NaN,NaN,NaN,vertical,vertical,vertical,none,none,none
1d,14,100237,2,52,116,18,F,NA,constant,homogeneous,4,present,0.796425819396973,1,vertical,vertical,1,0.623528841825632,red,3,2,942.594190385041,388.595418998464,1011.40458100154,742.594190385041,657.405809614959,811.404581001536,1011.40458100154,742.594190385041,942.594190385041,388.595418998464,588.595418998464,457.40580961496,NaN,NaN,NaN,NaN,0,0,4,0,NaN,NaN,vertical,vertical,vertical,horizontal,none,none
1d,14,100237,2,53,117,18,F,NA,constant,homogeneous,3,present,0.653650999069214,1,vertical,vertical,1,1.07057683651264,red,2,1,1000.94274216971,443.006323791957,835.489140744817,852.518357529101,835.489140744817,852.518357529101,1000.94274216971,443.006323791957,563.568117085469,504.475318678942,NaN,NaN,NaN,NaN,NaN,NaN,0,4,0,NaN,NaN,NaN,vertical,vertical,horizontal,none,none,none
1d,14,100237,2,54,118,18,F,NA,constant,homogeneous,5,absent,0.670552968978882,1,vertical,vertical,1,0.988225890122927,red,4,NaN,558.892763222174,516.980120613425,NaN,NaN,946.261991269517,808.883771293693,1043.85771277057,525.445215295702,804.450363641507,345.03883773512,558.892763222174,516.980120613425,646.537169096228,803.65205506206,NaN,NaN,0,0,0,4,0,NaN,horizontal,vertical,horizontal,vertical,horizontal,none
1d,14,100237,2,55,119,18,F,NA,constant,homogeneous,5,present,0.718086004257202,1,vertical,vertical,1,0.694115367302528,red,1,3,704.475318678942,836.431882914531,1016.25226451989,464.870587620533,704.475318678942,836.431882914531,995.341332995339,763.910840470068,1016.25226451989,464.870587620533,738.309916622085,352.574589799621,545.621167183745,582.212099195248,NaN,NaN,4,0,0,0,0,NaN,vertical,horizontal,horizontal,horizontal,horizontal,none
1d,14,100237,2,56,120,18,F,NA,constant,homogeneous,3,present,0.887215137481689,1,horizontal,horizontal,1,0.71764420912816,red,3,2,572.793336331966,484.232422566416,1013.86099482608,461.117046071168,813.345668841951,854.650531362416,1013.86099482608,461.117046071168,572.793336331966,484.232422566416,NaN,NaN,NaN,NaN,NaN,NaN,0,0,4,NaN,NaN,NaN,vertical,horizontal,horizontal,none,none,none
1d,14,100237,2,57,121,18,F,NA,constant,homogeneous,6,present,1.08664107322693,1,vertical,vertical,1,0.682350946389712,red,1,6,716.980120613425,841.107236777826,549.685068220846,648.656293821019,716.980120613425,841.107236777826,967.295052392579,792.450942956807,1050.31493177915,551.343706178981,883.019879386575,358.892763222174,632.704947607421,407.549057043193,549.685068220846,648.656293821019,4,0,0,0,0,0,vertical,horizontal,vertical,vertical,vertical,horizontal
1d,14,100237,2,58,122,18,F,NA,constant,homogeneous,3,present,0.759359836578369,1,vertical,vertical,1,0.929403785558847,red,1,3,764.510859255183,852.518357529101,599.057257830286,443.006323791957,764.510859255183,852.518357529101,1036.43188291453,504.475318678942,599.057257830286,443.006323791957,NaN,NaN,NaN,NaN,NaN,NaN,4,0,0,NaN,NaN,NaN,vertical,vertical,vertical,none,none,none
1d,14,100237,2,59,123,18,F,NA,constant,homogeneous,3,absent,0.726505041122437,1,horizontal,horizontal,1,0.788230734605056,red,3,NaN,574.848363820974,480.284751489598,NaN,NaN,808.899371659138,854.844660889869,1016.25226451989,464.870587620533,574.848363820974,480.284751489598,NaN,NaN,NaN,NaN,NaN,NaN,0,0,4,NaN,NaN,NaN,horizontal,horizontal,horizontal,none,none,none
1d,14,100237,2,60,124,18,F,NA,constant,homogeneous,3,present,0.777845144271851,1,horizontal,horizontal,1,1.05881241559982,red,2,3,1027.20666366803,484.232422566416,586.139005173917,461.117046071168,786.654331158049,854.650531362416,1027.20666366803,484.232422566416,586.139005173917,461.117046071168,NaN,NaN,NaN,NaN,NaN,NaN,0,4,0,NaN,NaN,NaN,horizontal,horizontal,vertical,none,none,none
1d,14,100237,2,61,125,18,F,NA,constant,homogeneous,4,absent,0.78361701965332,1,vertical,vertical,1,0.694115367302528,red,1,NaN,782.212099195248,854.378832816255,NaN,NaN,782.212099195248,854.378832816255,1054.37883281626,617.787900804752,817.787900804752,345.621167183745,545.621167183745,582.212099195248,NaN,NaN,NaN,NaN,4,0,0,0,NaN,NaN,vertical,horizontal,vertical,horizontal,none,none
1d,14,100237,2,62,126,18,F,NA,constant,homogeneous,5,absent,0.972877025604248,1,vertical,vertical,1,0.670586525476896,red,2,NaN,1039.62161830041,687.215136548046,NaN,NaN,791.100628340862,854.844660889869,1039.62161830041,687.215136548046,956.993676208043,399.057257830286,657.405809614959,388.595418998464,554.878267535729,670.287525733335,NaN,NaN,0,4,0,0,0,NaN,horizontal,vertical,horizontal,vertical,horizontal,none
1d,14,100237,2,63,127,18,F,NA,constant,homogeneous,5,absent,0.72681999206543,1,vertical,vertical,1,0.917639364646031,red,2,NaN,1049.42763818712,653.017481158529,NaN,NaN,826.654758133252,853.60308331891,1049.42763818712,653.017481158529,927.5,379.163522034968,629.371695378491,410.498069503264,567.045908301137,703.717843984329,NaN,NaN,0,4,0,0,0,NaN,vertical,vertical,vertical,vertical,horizontal,none
1d,14,100237,2,64,128,18,F,NA,constant,homogeneous,3,present,0.608968019485474,1,vertical,vertical,1,0.988225890122927,red,2,3,1052.5183575291,564.510859255183,643.006323791957,399.057257830286,704.475318678942,836.431882914531,1052.5183575291,564.510859255183,643.006323791957,399.057257830286,NaN,NaN,NaN,NaN,NaN,NaN,0,4,0,NaN,NaN,NaN,horizontal,vertical,vertical,none,none,none
1d,14,100237,3,1,129,18,F,NA,constant,homogeneous,6,absent,1.06682395935059,1,horizontal,horizontal,1,1.03528357377419,red,5,NaN,546.39691668109,573.345241866748,NaN,NaN,903.717843984329,832.954091698863,1053.60308331891,626.654758133252,949.885239334581,393.700666434388,696.282156015671,367.045908301137,546.39691668109,573.345241866748,650.114760665419,806.299333565612,0,0,0,0,4,0,horizontal,vertical,vertical,vertical,horizontal,vertical
1d,14,100237,3,2,130,18,F,NA,constant,homogeneous,5,absent,0.692677974700928,1,vertical,vertical,1,1.04704799468701,red,2,NaN,949.885239334581,806.299333565612,NaN,NaN,650.114760665419,806.299333565612,949.885239334581,806.299333565612,1042.51941165526,521.200666434388,800,345,557.480588344736,521.200666434388,NaN,NaN,0,4,0,0,0,NaN,vertical,vertical,horizontal,vertical,horizontal,none
1d,14,100237,3,3,131,18,F,NA,constant,homogeneous,5,absent,0.783112049102783,1,vertical,vertical,1,1.01175473194856,red,1,NaN,817.787900804752,854.378832816255,NaN,NaN,817.787900804752,854.378832816255,1047.42541020038,661.690083377915,935.129412379467,383.747735480111,636.089159529932,404.658667004661,563.568117085469,695.524681321058,NaN,NaN,4,0,0,0,0,NaN,vertical,vertical,horizontal,horizontal,vertical,none
1d,14,100237,3,4,132,18,F,NA,constant,homogeneous,3,absent,0.954602003097534,1,vertical,vertical,1,0.976461469210111,red,3,NaN,547.481642470899,635.489140744817,NaN,NaN,956.993676208043,800.942742169714,895.524681321058,363.568117085469,547.481642470899,635.489140744817,NaN,NaN,NaN,NaN,NaN,NaN,0,0,4,NaN,NaN,NaN,vertical,horizontal,vertical,none,none,none
1d,14,100237,3,5,133,18,F,NA,constant,homogeneous,4,present,0.65871787071228,1,vertical,vertical,1,0.835288418256319,red,4,1,545.621167183745,617.787900804752,817.787900804752,854.378832816255,817.787900804752,854.378832816255,1054.37883281626,582.212099195248,782.212099195248,345.621167183745,545.621167183745,617.787900804752,NaN,NaN,NaN,NaN,0,0,0,4,NaN,NaN,vertical,horizontal,horizontal,vertical,none,none
1d,14,100237,3,6,134,18,F,NA,constant,homogeneous,4,present,0.639015913009644,1,vertical,vertical,1,0.741173050953792,red,1,2,688.215357568785,829.192481806288,1029.19248180629,711.784642431215,688.215357568785,829.192481806288,1029.19248180629,711.784642431215,911.784642431215,370.807518193712,570.807518193712,488.215357568785,NaN,NaN,NaN,NaN,4,0,0,0,NaN,NaN,vertical,vertical,horizontal,horizontal,none,none
1d,14,100237,3,7,135,18,F,NA,constant,homogeneous,6,absent,1.21765899658203,0,horizontal,vertical,1,1.09410567833827,red,2,NaN,1053.60308331891,626.654758133252,NaN,NaN,903.717843984329,832.954091698863,1053.60308331891,626.654758133252,949.885239334581,393.700666434388,696.282156015671,367.045908301137,546.39691668109,573.345241866748,650.114760665419,806.299333565612,0,4,0,0,0,0,horizontal,horizontal,horizontal,vertical,horizontal,vertical
1d,14,100237,3,8,136,18,F,NA,constant,homogeneous,4,absent,0.875002145767212,1,vertical,vertical,1,0.623528841825632,red,1,NaN,891.383827134052,838.063008756786,NaN,NaN,891.383827134052,838.063008756786,1038.06300875679,508.616172865948,708.616172865948,361.936991243214,561.936991243214,691.383827134052,NaN,NaN,NaN,NaN,4,0,0,0,NaN,NaN,vertical,horizontal,vertical,horizontal,none,none
1d,14,100237,3,9,137,18,F,NA,constant,homogeneous,4,present,0.780771970748901,1,vertical,vertical,1,0.811759576430688,red,2,3,989.501930496736,770.628304621509,970.628304621509,410.498069503264,629.371695378491,789.501930496736,989.501930496736,770.628304621509,970.628304621509,410.498069503264,610.498069503264,429.371695378491,NaN,NaN,NaN,NaN,0,4,0,0,NaN,NaN,horizontal,vertical,vertical,horizontal,none,none
1d,14,100237,3,10,138,18,F,NA,constant,homogeneous,3,present,0.809849977493286,1,vertical,vertical,1,1.07057683651264,red,3,2,552.574589799621,538.309916622085,977.137884467044,416.568350913644,870.287525733335,845.121732464271,977.137884467044,416.568350913644,552.574589799621,538.309916622085,NaN,NaN,NaN,NaN,NaN,NaN,0,0,4,NaN,NaN,NaN,horizontal,vertical,vertical,none,none,none
1d,14,100237,3,11,139,18,F,NA,constant,homogeneous,3,present,0.806113004684448,1,horizontal,horizontal,1,0.999990311035743,red,2,1,844.280285305067,348.874022981887,995.341332995339,763.910840470068,995.341332995339,763.910840470068,844.280285305067,348.874022981887,560.378381699593,687.215136548046,NaN,NaN,NaN,NaN,NaN,NaN,0,4,0,NaN,NaN,NaN,vertical,horizontal,vertical,none,none,none
1d,14,100237,3,12,140,18,F,NA,constant,homogeneous,4,present,0.823491096496582,1,horizontal,horizontal,1,1.05881241559982,red,1,4,786.654331158049,854.650531362416,545.349468637584,586.654331158049,786.654331158049,854.650531362416,1054.65053136242,613.345668841951,813.345668841951,345.349468637584,545.349468637584,586.654331158049,NaN,NaN,NaN,NaN,4,0,0,0,NaN,NaN,horizontal,vertical,horizontal,vertical,none,none
1d,14,100237,3,13,141,18,F,NA,constant,homogeneous,6,absent,0.906089067459106,1,horizontal,horizontal,1,0.682350946389712,red,6,NaN,547.481642470899,635.489140744817,NaN,NaN,704.475318678942,836.431882914531,956.993676208043,800.942742169714,1052.5183575291,564.510859255183,895.524681321058,363.568117085469,643.006323791957,399.057257830286,547.481642470899,635.489140744817,0,0,0,0,0,4,vertical,vertical,horizontal,vertical,horizontal,horizontal
1d,14,100237,3,14,142,18,F,NA,constant,homogeneous,6,absent,0.654129028320312,1,horizontal,horizontal,1,1.09410567833827,red,5,NaN,548.874022981887,555.719714694933,NaN,NaN,887.215136548046,839.621618300407,1051.12597701811,644.280285305067,963.910840470068,404.658667004661,712.784863451954,360.378381699593,548.874022981887,555.719714694933,636.089159529932,795.341332995339,0,0,0,0,4,0,horizontal,vertical,horizontal,horizontal,horizontal,horizontal
1d,14,100237,3,15,143,18,F,NA,constant,homogeneous,5,present,0.861841201782227,1,horizontal,horizontal,1,0.71764420912816,red,3,2,848.656293821019,349.685068220846,1053.09926866854,568.923317431687,907.767656743878,831.108485694346,1053.09926866854,568.923317431687,848.656293821019,349.685068220846,576.971974679454,476.373546837184,613.504806087112,773.909581815937,NaN,NaN,0,0,4,0,0,NaN,vertical,horizontal,horizontal,horizontal,horizontal,none
1d,14,100237,3,16,144,18,F,NA,constant,homogeneous,6,absent,0.84328293800354,1,vertical,vertical,1,0.988225890122927,red,6,NaN,581.422338320961,731.334709102064,NaN,NaN,804.450363641507,854.96116226488,1023.02802532055,723.626453162816,1018.57766167904,468.665290897936,795.549636358493,345.03883773512,576.971974679454,476.373546837184,581.422338320961,731.334709102064,0,0,0,0,0,4,vertical,vertical,vertical,horizontal,horizontal,vertical
1d,14,100237,3,17,145,18,F,NA,constant,homogeneous,6,present,0.892072916030884,1,horizontal,horizontal,1,0.799995155517872,red,4,3,883.019879386575,358.892763222174,1050.31493177915,551.343706178981,716.980120613425,841.107236777826,967.295052392579,792.450942956807,1050.31493177915,551.343706178981,883.019879386575,358.892763222174,632.704947607421,407.549057043193,549.685068220846,648.656293821019,0,0,0,4,0,0,vertical,vertical,vertical,horizontal,horizontal,horizontal
1d,14,100237,3,18,146,18,F,NA,constant,homogeneous,6,present,0.925066947937012,1,horizontal,horizontal,1,0.752937471866608,red,2,3,989.501930496736,770.628304621509,1042.51941165526,521.200666434388,746.982518841471,849.42763818712,989.501930496736,770.628304621509,1042.51941165526,521.200666434388,853.017481158529,350.57236181288,610.498069503264,429.371695378491,557.480588344736,678.799333565612,0,4,0,0,0,0,horizontal,horizontal,horizontal,vertical,horizontal,vertical
1d,14,100237,3,19,147,18,F,NA,constant,homogeneous,3,present,1.06245017051697,1,horizontal,horizontal,1,0.741173050953792,red,2,1,973.909581815937,413.504806087112,874.554784704298,843.857712770574,874.554784704298,843.857712770574,973.909581815937,413.504806087112,551.535633479765,542.637481142314,NaN,NaN,NaN,NaN,NaN,NaN,0,4,0,NaN,NaN,NaN,vertical,horizontal,horizontal,none,none,none
1d,14,100237,3,20,148,18,F,NA,constant,homogeneous,4,absent,0.797566890716553,1,vertical,vertical,1,0.682350946389712,red,1,NaN,953.462830903772,803.65205506206,NaN,NaN,953.462830903772,803.65205506206,1003.65205506206,446.537169096228,646.537169096228,396.34794493794,596.34794493794,753.462830903772,NaN,NaN,NaN,NaN,4,0,0,0,NaN,NaN,vertical,horizontal,horizontal,horizontal,none,none
1d,14,100237,3,21,149,18,F,NA,constant,homogeneous,3,present,1.44338798522949,1,horizontal,horizontal,1,0.682350946389712,red,3,1,576.971974679454,723.626453162816,1018.57766167904,731.334709102064,1018.57766167904,731.334709102064,804.450363641507,345.03883773512,576.971974679454,723.626453162816,NaN,NaN,NaN,NaN,NaN,NaN,0,0,4,NaN,NaN,NaN,horizontal,vertical,horizontal,none,none,none
1d,14,100237,3,22,150,18,F,NA,constant,homogeneous,6,absent,1.12188100814819,1,vertical,vertical,1,1.08234125742545,red,2,NaN,1053.60308331891,626.654758133252,NaN,NaN,903.717843984329,832.954091698863,1053.60308331891,626.654758133252,949.885239334581,393.700666434388,696.282156015671,367.045908301137,546.39691668109,573.345241866748,650.114760665419,806.299333565612,0,4,0,0,0,0,horizontal,vertical,vertical,vertical,horizontal,horizontal
1d,14,100237,3,23,151,18,F,NA,constant,homogeneous,5,present,1.30872082710266,1,vertical,vertical,1,0.811759576430688,red,5,2,550.57236181288,546.982518841471,970.628304621509,789.501930496736,672.5,820.836477965032,970.628304621509,789.501930496736,1032.95409169886,496.282156015671,773.345241866748,346.39691668109,550.57236181288,546.982518841471,NaN,NaN,0,0,0,0,4,NaN,vertical,vertical,horizontal,vertical,vertical,none
1d,14,100237,3,24,152,18,F,NA,constant,homogeneous,3,absent,0.746670007705688,1,horizontal,horizontal,1,0.764701892779424,red,2,NaN,813.345668841951,345.349468637584,NaN,NaN,1013.86099482608,738.882953928832,813.345668841951,345.349468637584,572.793336331966,715.767577433584,NaN,NaN,NaN,NaN,NaN,NaN,0,4,0,NaN,NaN,NaN,horizontal,horizontal,horizontal,none,none,none
1d,14,100237,3,25,153,18,F,NA,constant,homogeneous,6,present,0.826035022735596,1,vertical,vertical,1,1.02351915286137,red,2,4,1054.96116226488,604.450363641507,676.373546837184,376.971974679454,923.626453162816,823.028025320546,1054.96116226488,604.450363641507,931.334709102064,381.422338320961,676.373546837184,376.971974679454,545.03883773512,595.549636358493,668.665290897936,818.577661679039,0,4,0,0,0,0,vertical,vertical,vertical,vertical,horizontal,vertical
1d,14,100237,3,26,154,18,F,NA,constant,homogeneous,5,present,0.847661018371582,1,horizontal,horizontal,1,0.647057683651264,red,3,2,946.261991269517,391.116228706307,1043.85771277057,674.554784704298,804.450363641507,854.96116226488,1043.85771277057,674.554784704298,946.261991269517,391.116228706307,646.537169096228,396.34794493794,558.892763222174,683.019879386575,NaN,NaN,0,0,4,0,0,NaN,vertical,vertical,horizontal,horizontal,horizontal,none
1d,14,100237,3,27,155,18,F,NA,constant,homogeneous,6,present,0.917440176010132,1,horizontal,horizontal,1,0.623528841825632,red,1,4,716.980120613425,841.107236777826,883.019879386575,358.892763222174,716.980120613425,841.107236777826,967.295052392579,792.450942956807,1050.31493177915,551.343706178981,883.019879386575,358.892763222174,632.704947607421,407.549057043193,549.685068220846,648.656293821019,4,0,0,0,0,0,horizontal,horizontal,vertical,vertical,vertical,horizontal
1d,14,100237,3,28,156,18,F,NA,constant,homogeneous,5,absent,0.795389175415039,1,horizontal,horizontal,1,0.77646631369224,red,5,NaN,548.13947314824,560.109211414741,NaN,NaN,684.232422566416,827.206663668034,980.31222920257,780.31222920257,1027.20666366803,484.232422566416,760.109211414741,348.13947314824,548.13947314824,560.109211414741,NaN,NaN,0,0,0,0,4,NaN,vertical,vertical,vertical,horizontal,horizontal,none
1d,14,100237,3,29,157,18,F,NA,constant,homogeneous,4,absent,1.60135293006897,1,horizontal,horizontal,1,0.905874943733215,red,4,NaN,616.568350913644,777.137884467044,NaN,NaN,977.137884467044,783.431649086356,983.431649086356,422.862115532956,622.862115532956,416.568350913644,616.568350913644,777.137884467044,NaN,NaN,NaN,NaN,0,0,0,4,NaN,NaN,horizontal,horizontal,vertical,horizontal,none,none
1d,14,100237,3,30,158,18,F,NA,constant,homogeneous,4,absent,0.815302133560181,1,vertical,vertical,1,0.870581680994767,red,4,NaN,619.68777079743,780.31222920257,NaN,NaN,980.31222920257,780.31222920257,980.31222920257,419.68777079743,619.68777079743,419.68777079743,619.68777079743,780.31222920257,NaN,NaN,NaN,NaN,0,0,0,4,NaN,NaN,vertical,vertical,vertical,vertical,none,none
1d,14,100237,3,31,159,18,F,NA,constant,homogeneous,5,absent,0.847764015197754,1,vertical,vertical,1,0.999990311035743,red,2,NaN,960.476699717708,798.172220171528,NaN,NaN,661.117046071168,813.860994826083,960.476699717708,798.172220171528,1038.06300875679,508.616172865948,786.654331158049,345.349468637584,553.688914296288,534.001143498857,NaN,NaN,0,4,0,0,0,NaN,horizontal,vertical,vertical,vertical,horizontal,none
1d,14,100237,3,32,160,18,F,NA,constant,homogeneous,6,present,0.664396047592163,1,vertical,vertical,1,0.764701892779424,red,4,3,874.554784704298,356.142287229426,1048.46436652023,542.637481142314,725.445215295702,843.857712770574,973.909581815937,786.495193912888,1048.46436652023,542.637481142314,874.554784704298,356.142287229426,626.090418184063,413.504806087112,551.535633479765,657.362518857686,0,0,0,4,0,0,vertical,vertical,horizontal,vertical,vertical,vertical
1d,14,100237,3,33,161,18,F,NA,constant,homogeneous,3,absent,0.742388963699341,1,horizontal,horizontal,1,0.835288418256319,red,3,NaN,729.712474266665,354.878267535729,NaN,NaN,622.862115532956,783.431649086356,1047.42541020038,661.690083377915,729.712474266665,354.878267535729,NaN,NaN,NaN,NaN,NaN,NaN,0,0,4,NaN,NaN,NaN,vertical,vertical,horizontal,none,none,none
1d,14,100237,3,34,162,18,F,NA,constant,homogeneous,4,present,0.785604953765869,1,horizontal,horizontal,1,0.611764420912816,red,4,1,572.793336331966,484.232422566416,684.232422566416,827.206663668034,684.232422566416,827.206663668034,1027.20666366803,715.767577433584,915.767577433584,372.793336331966,572.793336331966,484.232422566416,NaN,NaN,NaN,NaN,0,0,0,4,NaN,NaN,vertical,vertical,vertical,horizontal,none,none
1d,14,100237,3,35,163,18,F,NA,constant,homogeneous,4,absent,0.729714870452881,1,horizontal,horizontal,1,0.611764420912816,red,1,NaN,795.549636358493,854.96116226488,NaN,NaN,795.549636358493,854.96116226488,1054.96116226488,604.450363641507,804.450363641507,345.03883773512,545.03883773512,595.549636358493,NaN,NaN,NaN,NaN,4,0,0,0,NaN,NaN,horizontal,horizontal,vertical,vertical,none,none
1d,14,100237,3,36,164,18,F,NA,constant,homogeneous,6,present,0.761306047439575,1,horizontal,horizontal,1,0.635293262738448,red,3,1,1018.57766167904,468.665290897936,804.450363641507,854.96116226488,804.450363641507,854.96116226488,1023.02802532055,723.626453162816,1018.57766167904,468.665290897936,795.549636358493,345.03883773512,576.971974679454,476.373546837184,581.422338320961,731.334709102064,0,0,4,0,0,0,horizontal,horizontal,horizontal,vertical,vertical,vertical
1d,14,100237,3,37,165,18,F,NA,constant,homogeneous,4,absent,0.675225973129272,1,horizontal,horizontal,1,0.729408630040976,red,2,NaN,1006.29933356561,749.885239334581,NaN,NaN,650.114760665419,806.299333565612,1006.29933356561,749.885239334581,949.885239334581,393.700666434388,593.700666434388,450.114760665419,NaN,NaN,NaN,NaN,0,4,0,0,NaN,NaN,vertical,horizontal,horizontal,horizontal,none,none
1d,14,100237,3,38,166,18,F,NA,constant,homogeneous,4,present,0.577078104019165,1,vertical,vertical,1,0.999990311035743,red,4,2,572.793336331966,484.232422566416,1027.20666366803,715.767577433584,684.232422566416,827.206663668034,1027.20666366803,715.767577433584,915.767577433584,372.793336331966,572.793336331966,484.232422566416,NaN,NaN,NaN,NaN,0,0,0,4,NaN,NaN,horizontal,vertical,vertical,vertical,none,none
1d,14,100237,3,39,167,18,F,NA,constant,homogeneous,5,absent,0.77783989906311,1,horizontal,horizontal,1,0.858817260081951,red,5,NaN,646.537169096228,803.65205506206,NaN,NaN,946.261991269517,808.883771293693,1043.85771277057,525.445215295702,804.450363641507,345.03883773512,558.892763222174,516.980120613425,646.537169096228,803.65205506206,NaN,NaN,0,0,0,0,4,NaN,vertical,horizontal,vertical,vertical,horizontal,none
1d,14,100237,3,40,168,18,F,NA,constant,homogeneous,3,absent,0.63667106628418,1,vertical,vertical,1,0.952932627384479,red,3,NaN,795.549636358493,345.03883773512,NaN,NaN,581.422338320961,731.334709102064,1023.02802532055,723.626453162816,795.549636358493,345.03883773512,NaN,NaN,NaN,NaN,NaN,NaN,0,0,4,NaN,NaN,NaN,vertical,vertical,vertical,none,none,none
1d,14,100237,3,41,169,18,F,NA,constant,homogeneous,3,absent,0.758487939834595,0,horizontal,vertical,1,0.847052839169135,red,2,NaN,1036.43188291453,695.524681321058,NaN,NaN,599.057257830286,756.993676208043,1036.43188291453,695.524681321058,764.510859255183,347.4816424709,NaN,NaN,NaN,NaN,NaN,NaN,0,4,0,NaN,NaN,NaN,vertical,horizontal,horizontal,none,none,none
1d,14,100237,3,42,170,18,F,NA,constant,homogeneous,4,absent,0.917392015457153,1,horizontal,horizontal,1,0.964697048297295,red,1,NaN,786.654331158049,854.650531362416,NaN,NaN,786.654331158049,854.650531362416,1054.65053136242,613.345668841951,813.345668841951,345.349468637584,545.349468637584,586.654331158049,NaN,NaN,NaN,NaN,4,0,0,0,NaN,NaN,horizontal,vertical,horizontal,vertical,none,none
1d,14,100237,3,43,171,18,F,NA,constant,homogeneous,3,present,0.908828973770142,1,vertical,vertical,1,0.647057683651264,red,3,1,782.212099195248,345.621167183745,588.595418998464,742.594190385041,588.595418998464,742.594190385041,1029.19248180629,711.784642431215,782.212099195248,345.621167183745,NaN,NaN,NaN,NaN,NaN,NaN,0,0,4,NaN,NaN,NaN,horizontal,vertical,vertical,none,none,none
1d,14,100237,3,44,172,18,F,NA,constant,homogeneous,5,present,0.850001096725464,1,vertical,vertical,1,0.741173050953792,red,2,5,1034.72873763037,699.636437764765,551.535633479765,657.362518857686,777.775285599347,854.029648013395,1034.72873763037,699.636437764765,967.295052392579,407.549057043193,668.665290897936,381.422338320961,551.535633479765,657.362518857686,NaN,NaN,0,4,0,0,0,NaN,vertical,vertical,vertical,horizontal,horizontal,none
1d,14,100237,3,45,173,18,F,NA,constant,homogeneous,5,absent,0.772516012191772,1,vertical,vertical,1,0.65882210456408,red,3,NaN,1029.19248180629,488.215357568785,NaN,NaN,680.284751489598,825.151636179026,977.137884467044,783.431649086356,1029.19248180629,488.215357568785,764.510859255183,347.4816424709,548.874022981887,555.719714694933,NaN,NaN,0,0,4,0,0,NaN,vertical,vertical,vertical,horizontal,vertical,none
1d,14,100237,3,46,174,18,F,NA,constant,homogeneous,3,absent,0.979161977767944,1,horizontal,horizontal,1,0.952932627384479,red,2,NaN,899.636437764765,365.271262369628,NaN,NaN,953.462830903772,803.65205506206,899.636437764765,365.271262369628,546.900731331463,631.076682568313,NaN,NaN,NaN,NaN,NaN,NaN,0,4,0,NaN,NaN,NaN,horizontal,horizontal,vertical,none,none,none
1d,14,100237,3,47,175,18,F,NA,constant,homogeneous,3,present,0.728368997573853,1,vertical,vertical,1,0.670586525476896,red,1,2,915.767577433584,827.206663668034,938.882953928832,386.139005173917,915.767577433584,827.206663668034,938.882953928832,386.139005173917,545.349468637584,586.654331158049,NaN,NaN,NaN,NaN,NaN,NaN,4,0,0,NaN,NaN,NaN,vertical,vertical,vertical,none,none,none
1d,14,100237,3,48,176,18,F,NA,constant,homogeneous,3,present,0.659297943115234,1,vertical,vertical,1,0.623528841825632,red,2,1,1041.10723677783,683.019879386575,607.549057043193,767.295052392579,607.549057043193,767.295052392579,1041.10723677783,683.019879386575,751.343706178981,349.685068220846,NaN,NaN,NaN,NaN,NaN,NaN,0,4,0,NaN,NaN,NaN,horizontal,vertical,horizontal,none,none,none
1d,14,100237,3,49,177,18,F,NA,constant,homogeneous,3,present,0.798871040344238,1,horizontal,horizontal,1,1.09410567833827,red,2,1,1050.31493177915,551.343706178981,716.980120613425,841.107236777826,716.980120613425,841.107236777826,1050.31493177915,551.343706178981,632.704947607421,407.549057043193,NaN,NaN,NaN,NaN,NaN,NaN,0,4,0,NaN,NaN,NaN,horizontal,horizontal,vertical,none,none,none
1d,14,100237,3,50,178,18,F,NA,constant,homogeneous,6,present,0.706423044204712,1,vertical,vertical,1,0.976461469210111,red,3,6,1045.12173246427,529.712474266665,554.878267535729,670.287525733335,738.309916622085,847.425410200379,983.431649086356,777.137884467044,1045.12173246427,529.712474266665,861.690083377915,352.574589799621,616.568350913644,422.862115532956,554.878267535729,670.287525733335,0,0,4,0,0,0,horizontal,horizontal,vertical,vertical,vertical,vertical
1d,14,100237,3,51,179,18,F,NA,constant,homogeneous,4,absent,0.833805084228516,1,vertical,vertical,1,0.835288418256319,red,1,NaN,804.450363641507,854.96116226488,NaN,NaN,804.450363641507,854.96116226488,1054.96116226488,595.549636358493,795.549636358493,345.03883773512,545.03883773512,604.450363641507,NaN,NaN,NaN,NaN,4,0,0,0,NaN,NaN,vertical,horizontal,vertical,vertical,none,none
1d,14,100237,3,52,180,18,F,NA,constant,homogeneous,5,absent,0.666399955749512,1,horizontal,horizontal,1,1.01175473194856,red,2,NaN,1052.5183575291,564.510859255183,NaN,NaN,911.784642431215,829.192481806288,1052.5183575291,564.510859255183,844.280285305067,348.874022981887,574.848363820974,480.284751489598,616.568350913644,777.137884467044,NaN,NaN,0,4,0,0,0,NaN,vertical,horizontal,vertical,horizontal,horizontal,none
1d,14,100237,3,53,181,18,F,NA,constant,homogeneous,6,present,0.758043050765991,1,vertical,vertical,1,0.694115367302528,red,5,4,599.057257830286,443.006323791957,835.489140744817,347.4816424709,764.510859255183,852.518357529101,1000.94274216971,756.993676208043,1036.43188291453,504.475318678942,835.489140744817,347.4816424709,599.057257830286,443.006323791957,563.568117085469,695.524681321058,0,0,0,0,4,0,vertical,horizontal,horizontal,horizontal,vertical,vertical
1d,14,100237,3,54,182,18,F,NA,constant,homogeneous,5,present,0.796252965927124,1,horizontal,horizontal,1,0.941168206471663,red,1,3,676.373546837184,823.028025320546,1031.10848569435,492.232343256122,676.373546837184,823.028025320546,973.909581815937,786.495193912888,1031.10848569435,492.232343256122,768.923317431687,346.900731331463,549.685068220846,551.343706178981,NaN,NaN,4,0,0,0,0,NaN,horizontal,horizontal,horizontal,horizontal,vertical,none
1d,14,100237,3,55,183,18,F,NA,constant,homogeneous,5,absent,1.19331407546997,1,horizontal,horizontal,1,0.65882210456408,red,3,NaN,953.462830903772,396.34794493794,NaN,NaN,795.549636358493,854.96116226488,1041.10723677783,683.019879386575,953.462830903772,396.34794493794,653.738008730483,391.116228706307,556.142287229426,674.554784704298,NaN,NaN,0,0,4,0,0,NaN,horizontal,horizontal,horizontal,horizontal,horizontal,none
1d,14,100237,3,56,184,18,F,NA,constant,homogeneous,5,present,0.798073768615723,1,vertical,vertical,1,1.03528357377419,red,1,3,813.345668841951,854.650531362416,938.882953928832,386.139005173917,813.345668841951,854.650531362416,1046.31108570371,665.998856501143,938.882953928832,386.139005173917,639.523300282292,401.827779828472,561.936991243214,691.383827134052,NaN,NaN,4,0,0,0,0,NaN,vertical,vertical,vertical,vertical,vertical,none
1d,14,100237,3,57,185,18,F,NA,constant,homogeneous,4,present,0.752712965011597,1,horizontal,horizontal,1,0.941168206471663,red,1,4,938.882953928832,813.860994826083,586.139005173917,738.882953928832,938.882953928832,813.860994826083,1013.86099482608,461.117046071168,661.117046071168,386.139005173917,586.139005173917,738.882953928832,NaN,NaN,NaN,NaN,4,0,0,0,NaN,NaN,horizontal,vertical,horizontal,horizontal,none,none
1d,14,100237,3,58,186,18,F,NA,constant,homogeneous,3,absent,0.949686050415039,1,vertical,vertical,1,1.07057683651264,red,1,NaN,596.34794493794,753.462830903772,NaN,NaN,596.34794493794,753.462830903772,1034.72873763037,699.636437764765,768.923317431687,346.900731331463,NaN,NaN,NaN,NaN,NaN,NaN,4,0,0,NaN,NaN,NaN,vertical,vertical,vertical,none,none,none
1d,14,100237,3,59,187,18,F,NA,constant,homogeneous,5,present,0.79420018196106,1,vertical,vertical,1,1.05881241559982,red,2,1,1055,600,878.799333565612,842.519411655264,878.799333565612,842.519411655264,1055,600,878.799333565612,357.480588344736,593.700666434388,450.114760665419,593.700666434388,749.885239334581,NaN,NaN,0,4,0,0,0,NaN,horizontal,vertical,vertical,horizontal,horizontal,none
1d,14,100237,3,60,188,18,F,NA,constant,homogeneous,5,present,0.654614210128784,1,horizontal,horizontal,1,0.635293262738448,red,2,1,1016.25226451989,735.129412379467,738.309916622085,847.425410200379,738.309916622085,847.425410200379,1016.25226451989,735.129412379467,995.341332995339,436.089159529932,704.475318678942,363.568117085469,545.621167183745,617.787900804752,NaN,NaN,0,4,0,0,0,NaN,vertical,horizontal,horizontal,vertical,horizontal,none
1d,14,100237,3,61,189,18,F,NA,constant,homogeneous,3,absent,0.765185117721558,1,vertical,vertical,1,1.07057683651264,red,2,NaN,935.129412379467,383.747735480111,NaN,NaN,919.715248510402,825.151636179026,935.129412379467,383.747735480111,545.155339110131,591.100628340862,NaN,NaN,NaN,NaN,NaN,NaN,0,4,0,NaN,NaN,NaN,horizontal,vertical,vertical,none,none,none
1d,14,100237,3,62,190,18,F,NA,constant,homogeneous,6,absent,0.673979997634888,1,vertical,vertical,1,1.05881241559982,red,5,NaN,576.971974679454,476.373546837184,NaN,NaN,804.450363641507,854.96116226488,1023.02802532055,723.626453162816,1018.57766167904,468.665290897936,795.549636358493,345.03883773512,576.971974679454,476.373546837184,581.422338320961,731.334709102064,0,0,0,0,4,0,vertical,vertical,vertical,vertical,vertical,vertical
1d,14,100237,3,63,191,18,F,NA,constant,homogeneous,4,present,0.696333885192871,1,horizontal,horizontal,1,0.623528841825632,red,2,1,1047.42541020038,538.309916622085,861.690083377915,847.425410200379,861.690083377915,847.425410200379,1047.42541020038,538.309916622085,738.309916622085,352.574589799621,552.574589799621,661.690083377915,NaN,NaN,NaN,NaN,0,4,0,0,NaN,NaN,horizontal,horizontal,horizontal,horizontal,none,none
1d,14,100237,3,64,192,18,F,NA,constant,homogeneous,6,absent,0.890959024429321,1,vertical,vertical,1,0.635293262738448,red,3,NaN,935.129412379467,383.747735480111,NaN,NaN,919.715248510402,825.151636179026,1054.84466088987,608.899371659138,935.129412379467,383.747735480111,680.284751489598,374.848363820974,545.155339110131,591.100628340862,664.870587620533,816.252264519889,0,0,4,0,0,0,vertical,vertical,vertical,horizontal,horizontal,vertical
1d,14,100237,4,1,193,18,F,NA,constant,homogeneous,4,present,0.715413808822632,1,vertical,vertical,1,1.03528357377419,red,3,1,973.909581815937,413.504806087112,626.090418184063,786.495193912888,626.090418184063,786.495193912888,986.495193912888,773.909581815937,973.909581815937,413.504806087112,613.504806087112,426.090418184063,NaN,NaN,NaN,NaN,0,0,4,0,NaN,NaN,vertical,vertical,vertical,horizontal,none,none
1d,14,100237,4,2,194,18,F,NA,constant,homogeneous,6,present,0.650669097900391,1,vertical,vertical,1,0.835288418256319,red,5,1,545.155339110131,591.100628340862,919.715248510402,825.151636179026,919.715248510402,825.151636179026,1054.84466088987,608.899371659138,935.129412379467,383.747735480111,680.284751489598,374.848363820974,545.155339110131,591.100628340862,664.870587620533,816.252264519889,0,0,0,0,4,0,horizontal,horizontal,horizontal,vertical,vertical,vertical
1d,14,100237,4,3,195,18,F,NA,constant,homogeneous,5,absent,0.675589799880981,1,horizontal,horizontal,1,0.788230734605056,red,3,NaN,927.5,379.163522034968,NaN,NaN,826.654758133252,853.60308331891,1049.42763818712,653.017481158529,927.5,379.163522034968,629.371695378491,410.498069503264,567.045908301137,703.717843984329,NaN,NaN,0,0,4,0,0,NaN,horizontal,vertical,horizontal,vertical,vertical,none
1d,14,100237,4,4,196,18,F,NA,constant,homogeneous,4,absent,0.619677066802979,1,vertical,vertical,1,0.71764420912816,red,3,NaN,643.006323791957,399.057257830286,NaN,NaN,956.993676208043,800.942742169714,1000.94274216971,443.006323791957,643.006323791957,399.057257830286,599.057257830286,756.993676208043,NaN,NaN,NaN,NaN,0,0,4,0,NaN,NaN,vertical,vertical,vertical,horizontal,none,none
1d,14,100237,4,5,197,18,F,NA,constant,homogeneous,4,present,0.565498113632202,1,vertical,vertical,1,0.870581680994767,red,3,2,804.450363641507,345.03883773512,1054.96116226488,604.450363641507,795.549636358493,854.96116226488,1054.96116226488,604.450363641507,804.450363641507,345.03883773512,545.03883773512,595.549636358493,NaN,NaN,NaN,NaN,0,0,4,0,NaN,NaN,horizontal,vertical,vertical,horizontal,none,none
1d,14,100237,4,6,198,18,F,NA,constant,homogeneous,4,present,0.710230112075806,1,horizontal,horizontal,1,1.07057683651264,red,2,4,1054.96116226488,595.549636358493,545.03883773512,604.450363641507,804.450363641507,854.96116226488,1054.96116226488,595.549636358493,795.549636358493,345.03883773512,545.03883773512,604.450363641507,NaN,NaN,NaN,NaN,0,4,0,0,NaN,NaN,horizontal,horizontal,vertical,vertical,none,none
1d,14,100237,4,7,199,18,F,NA,constant,homogeneous,4,absent,0.724981069564819,1,horizontal,horizontal,1,0.611764420912816,red,1,NaN,899.636437764765,834.728737630372,NaN,NaN,899.636437764765,834.728737630372,1034.72873763037,500.363562235235,700.363562235235,365.271262369628,565.271262369628,699.636437764765,NaN,NaN,NaN,NaN,4,0,0,0,NaN,NaN,horizontal,horizontal,horizontal,vertical,none,none
1d,14,100237,4,8,200,18,F,NA,constant,homogeneous,3,present,0.695550918579102,1,vertical,vertical,1,1.01175473194856,red,3,1,561.936991243214,508.616172865948,839.890788585259,851.86052685176,839.890788585259,851.86052685176,998.172220171528,439.523300282291,561.936991243214,508.616172865948,NaN,NaN,NaN,NaN,NaN,NaN,0,0,4,NaN,NaN,NaN,vertical,vertical,vertical,none,none,none
1d,14,100237,4,9,201,18,F,NA,constant,homogeneous,4,present,0.637145042419434,1,horizontal,horizontal,1,0.952932627384479,red,1,3,725.445215295702,843.857712770574,874.554784704298,356.142287229426,725.445215295702,843.857712770574,1043.85771277057,674.554784704298,874.554784704298,356.142287229426,556.142287229426,525.445215295702,NaN,NaN,NaN,NaN,4,0,0,0,NaN,NaN,horizontal,horizontal,horizontal,horizontal,none,none
1d,14,100237,4,10,202,18,F,NA,constant,homogeneous,6,absent,0.737894058227539,1,vertical,vertical,1,0.788230734605056,red,4,NaN,777.775285599347,345.970351986605,NaN,NaN,822.224714400653,854.029648013395,1031.10848569435,707.767656743878,1008.88377129369,453.738008730483,777.775285599347,345.970351986605,568.891514305654,492.232343256122,591.116228706307,746.261991269517,0,0,0,4,0,0,vertical,horizontal,vertical,vertical,vertical,vertical
1d,14,100237,4,11,203,18,F,NA,constant,homogeneous,4,absent,0.731251001358032,1,horizontal,horizontal,1,0.929403785558847,red,2,NaN,1053.09926866854,631.076682568313,NaN,NaN,768.923317431687,853.099268668537,1053.09926866854,631.076682568313,831.076682568313,346.900731331463,546.900731331463,568.923317431687,NaN,NaN,NaN,NaN,0,4,0,0,NaN,NaN,vertical,horizontal,horizontal,horizontal,none,none
1d,14,100237,4,12,204,18,F,NA,constant,homogeneous,3,absent,0.742644071578979,1,vertical,vertical,1,1.02351915286137,red,2,NaN,1043.85771277057,674.554784704298,NaN,NaN,613.504806087112,773.909581815937,1043.85771277057,674.554784704298,742.637481142314,351.535633479765,NaN,NaN,NaN,NaN,NaN,NaN,0,4,0,NaN,NaN,NaN,vertical,vertical,vertical,none,none,none
1d,14,100237,4,13,205,18,F,NA,constant,homogeneous,5,absent,0.834149122238159,1,horizontal,horizontal,1,0.611764420912816,red,4,NaN,738.309916622085,352.574589799621,NaN,NaN,704.475318678942,836.431882914531,995.341332995339,763.910840470068,1016.25226451989,464.870587620533,738.309916622085,352.574589799621,545.621167183745,582.212099195248,NaN,NaN,0,0,0,4,0,NaN,vertical,horizontal,horizontal,horizontal,horizontal,none
1d,14,100237,4,14,206,18,F,NA,constant,homogeneous,6,absent,0.767970085144043,1,vertical,vertical,1,1.05881241559982,red,3,NaN,1041.10723677783,516.980120613425,NaN,NaN,751.343706178981,850.314931779154,992.450942956807,767.295052392579,1041.10723677783,516.980120613425,848.656293821019,349.685068220846,607.549057043193,432.704947607421,558.892763222174,683.019879386575,0,0,4,0,0,0,horizontal,horizontal,vertical,horizontal,horizontal,horizontal
1d,14,100237,4,15,207,18,F,NA,constant,homogeneous,4,absent,0.77880597114563,1,vertical,vertical,1,0.764701892779424,red,2,NaN,980.31222920257,780.31222920257,NaN,NaN,619.68777079743,780.31222920257,980.31222920257,780.31222920257,980.31222920257,419.68777079743,619.68777079743,419.68777079743,NaN,NaN,NaN,NaN,0,4,0,0,NaN,NaN,horizontal,vertical,horizontal,horizontal,none,none
1d,14,100237,4,16,208,18,F,NA,constant,homogeneous,6,present,0.714959859848022,1,horizontal,horizontal,1,0.811759576430688,red,2,4,1053.09926866854,631.076682568313,700.363562235235,365.271262369628,899.636437764765,834.728737630372,1053.09926866854,631.076682568313,953.462830903772,396.34794493794,700.363562235235,365.271262369628,546.900731331463,568.923317431687,646.537169096228,803.65205506206,0,4,0,0,0,0,vertical,horizontal,horizontal,horizontal,horizontal,horizontal
1d,14,100237,4,17,209,18,F,NA,constant,homogeneous,4,absent,0.758685111999512,1,vertical,vertical,1,0.870581680994767,red,3,NaN,716.980120613425,358.892763222174,NaN,NaN,883.019879386575,841.107236777826,1041.10723677783,516.980120613425,716.980120613425,358.892763222174,558.892763222174,683.019879386575,NaN,NaN,NaN,NaN,0,0,4,0,NaN,NaN,horizontal,vertical,vertical,horizontal,none,none
1d,14,100237,4,18,210,18,F,NA,constant,homogeneous,4,present,0.645930051803589,1,vertical,vertical,1,0.788230734605056,red,2,4,980.31222920257,780.31222920257,619.68777079743,419.68777079743,619.68777079743,780.31222920257,980.31222920257,780.31222920257,980.31222920257,419.68777079743,619.68777079743,419.68777079743,NaN,NaN,NaN,NaN,0,4,0,0,NaN,NaN,vertical,vertical,horizontal,horizontal,none,none
1d,14,100237,4,19,211,18,F,NA,constant,homogeneous,6,present,0.82379412651062,1,vertical,vertical,1,1.03528357377419,red,1,3,891.383827134052,838.063008756786,960.476699717708,401.827779828472,891.383827134052,838.063008756786,1051.86052685176,639.890788585259,960.476699717708,401.827779828472,708.616172865948,361.936991243214,548.13947314824,560.109211414741,639.523300282292,798.172220171528,4,0,0,0,0,0,vertical,horizontal,vertical,vertical,horizontal,vertical
1d,14,100237,4,20,212,18,F,NA,constant,homogeneous,3,absent,0.739502906799316,1,vertical,vertical,1,0.752937471866608,red,1,NaN,607.549057043193,767.295052392579,NaN,NaN,607.549057043193,767.295052392579,1041.10723677783,683.019879386575,751.343706178981,349.685068220846,NaN,NaN,NaN,NaN,NaN,NaN,4,0,0,NaN,NaN,NaN,vertical,horizontal,horizontal,none,none,none
1d,14,100237,4,21,213,18,F,NA,constant,homogeneous,5,absent,0.70954704284668,1,horizontal,horizontal,1,0.952932627384479,red,4,NaN,591.116228706307,453.738008730483,NaN,NaN,883.019879386575,841.107236777826,1054.96116226488,595.549636358493,874.554784704298,356.142287229426,591.116228706307,453.738008730483,596.34794493794,753.462830903772,NaN,NaN,0,0,0,4,0,NaN,vertical,horizontal,horizontal,horizontal,vertical,none
1d,14,100237,4,22,214,18,F,NA,constant,homogeneous,6,present,1.03983306884766,1,horizontal,horizontal,1,0.999990311035743,red,6,2,607.549057043193,767.295052392579,1041.10723677783,683.019879386575,848.656293821019,850.314931779154,1041.10723677783,683.019879386575,992.450942956807,432.704947607421,751.343706178981,349.685068220846,558.892763222174,516.980120613425,607.549057043193,767.295052392579,0,0,0,0,0,4,vertical,vertical,horizontal,horizontal,horizontal,horizontal
1d,14,100237,4,23,215,18,F,NA,constant,homogeneous,5,present,0.650219917297363,1,vertical,vertical,1,1.07057683651264,red,5,2,550.57236181288,546.982518841471,970.628304621509,789.501930496736,672.5,820.836477965032,970.628304621509,789.501930496736,1032.95409169886,496.282156015671,773.345241866748,346.39691668109,550.57236181288,546.982518841471,NaN,NaN,0,0,0,0,4,NaN,vertical,horizontal,horizontal,vertical,vertical,none
1d,14,100237,4,24,216,18,F,NA,constant,homogeneous,5,present,1.07764720916748,1,horizontal,horizontal,1,0.705879788215344,red,5,2,604.658667004661,763.910840470068,1054.37883281626,582.212099195248,895.524681321058,836.431882914531,1054.37883281626,582.212099195248,861.690083377915,352.574589799621,583.747735480111,464.870587620533,604.658667004661,763.910840470068,NaN,NaN,0,0,0,0,4,NaN,vertical,horizontal,horizontal,horizontal,horizontal,none
1d,14,100237,4,25,217,18,F,NA,constant,homogeneous,6,absent,0.764616012573242,1,horizontal,horizontal,1,1.07057683651264,red,1,NaN,822.224714400653,854.029648013395,NaN,NaN,822.224714400653,854.029648013395,1031.10848569435,707.767656743878,1008.88377129369,453.738008730483,777.775285599347,345.970351986605,568.891514305654,492.232343256122,591.116228706307,746.261991269517,4,0,0,0,0,0,horizontal,vertical,vertical,vertical,horizontal,horizontal
1d,14,100237,4,26,218,18,F,NA,constant,homogeneous,3,absent,0.831989049911499,1,horizontal,horizontal,1,0.788230734605056,red,3,NaN,570.807518193712,488.215357568785,NaN,NaN,817.787900804752,854.378832816255,1011.40458100154,457.40580961496,570.807518193712,488.215357568785,NaN,NaN,NaN,NaN,NaN,NaN,0,0,4,NaN,NaN,NaN,horizontal,horizontal,horizontal,none,none,none
1d,14,100237,4,27,219,18,F,NA,constant,homogeneous,3,present,0.750932931900024,0,vertical,horizontal,1,0.71764420912816,red,2,1,1032.95409169886,496.282156015671,773.345241866748,853.60308331891,773.345241866748,853.60308331891,1032.95409169886,496.282156015671,593.700666434388,450.114760665419,NaN,NaN,NaN,NaN,NaN,NaN,0,4,0,NaN,NaN,NaN,vertical,vertical,vertical,none,none,none
1d,14,100237,4,28,220,18,F,NA,constant,homogeneous,6,absent,0.811332941055298,1,horizontal,horizontal,1,1.05881241559982,red,6,NaN,568.891514305654,707.767656743878,NaN,NaN,777.775285599347,854.029648013395,1008.88377129369,746.261991269517,1031.10848569435,492.232343256122,822.224714400653,345.970351986605,591.116228706307,453.738008730483,568.891514305654,707.767656743878,0,0,0,0,0,4,vertical,vertical,horizontal,horizontal,vertical,horizontal
1d,14,100237,4,29,221,18,F,NA,constant,homogeneous,4,present,1.04553484916687,1,horizontal,horizontal,1,0.894110522820399,red,4,3,557.480588344736,521.200666434388,878.799333565612,357.480588344736,721.200666434388,842.519411655264,1042.51941165526,678.799333565612,878.799333565612,357.480588344736,557.480588344736,521.200666434388,NaN,NaN,NaN,NaN,0,0,0,4,NaN,NaN,horizontal,horizontal,horizontal,horizontal,none,none
1d,14,100237,4,30,222,18,F,NA,constant,homogeneous,5,present,0.683861017227173,1,vertical,vertical,1,1.05881241559982,red,5,3,553.688914296288,665.998856501143,960.476699717708,401.827779828472,786.654331158049,854.650531362416,1038.06300875679,691.383827134052,960.476699717708,401.827779828472,661.117046071168,386.139005173917,553.688914296288,665.998856501143,NaN,NaN,0,0,0,0,4,NaN,horizontal,horizontal,horizontal,horizontal,vertical,none
1d,14,100237,4,31,223,18,F,NA,constant,homogeneous,5,absent,1.07065796852112,1,vertical,vertical,1,0.647057683651264,red,1,NaN,795.549636358493,854.96116226488,NaN,NaN,795.549636358493,854.96116226488,1041.10723677783,683.019879386575,953.462830903772,396.34794493794,653.738008730483,391.116228706307,556.142287229426,674.554784704298,NaN,NaN,4,0,0,0,0,NaN,vertical,vertical,vertical,horizontal,horizontal,none
1d,14,100237,4,32,224,18,F,NA,constant,homogeneous,3,absent,0.87279486656189,1,horizontal,horizontal,1,0.811759576430688,red,2,NaN,907.767656743878,368.891514305654,NaN,NaN,946.261991269517,808.883771293693,907.767656743878,368.891514305654,545.970351986605,622.224714400653,NaN,NaN,NaN,NaN,NaN,NaN,0,4,0,NaN,NaN,NaN,vertical,horizontal,vertical,none,none,none
1d,14,100237,4,33,225,18,F,NA,constant,homogeneous,5,present,0.885540962219238,1,horizontal,horizontal,1,0.752937471866608,red,5,1,545.155339110131,591.100628340862,712.784863451954,839.621618300407,712.784863451954,839.621618300407,1000.94274216971,756.993676208043,1011.40458100154,457.40580961496,729.712474266665,354.878267535729,545.155339110131,591.100628340862,NaN,NaN,0,0,0,0,4,NaN,horizontal,horizontal,vertical,vertical,horizontal,none
1d,14,100237,4,34,226,18,F,NA,constant,homogeneous,5,absent,0.635797023773193,1,horizontal,horizontal,1,1.03528357377419,red,5,NaN,545.03883773512,604.450363641507,NaN,NaN,725.445215295702,843.857712770574,1008.88377129369,746.261991269517,1003.65205506206,446.537169096228,716.980120613425,358.892763222174,545.03883773512,604.450363641507,NaN,NaN,0,0,0,0,4,NaN,vertical,vertical,horizontal,vertical,horizontal,none
1d,14,100237,4,35,227,18,F,NA,constant,homogeneous,5,present,0.754593133926392,1,vertical,vertical,1,0.882346101907583,red,4,2,599.057257830286,443.006323791957,1054.84466088987,608.899371659138,870.287525733335,845.121732464271,1054.84466088987,608.899371659138,887.215136548046,360.378381699593,599.057257830286,443.006323791957,588.595418998464,742.594190385041,NaN,NaN,0,0,0,4,0,NaN,vertical,horizontal,vertical,vertical,horizontal,none
1d,14,100237,4,36,228,18,F,NA,constant,homogeneous,3,present,0.897539138793945,1,vertical,vertical,1,0.788230734605056,red,1,2,911.784642431215,829.192481806288,942.594190385041,388.595418998464,911.784642431215,829.192481806288,942.594190385041,388.595418998464,545.621167183745,582.212099195248,NaN,NaN,NaN,NaN,NaN,NaN,4,0,0,NaN,NaN,NaN,vertical,horizontal,horizontal,none,none,none
1d,14,100237,4,37,229,18,F,NA,constant,homogeneous,5,absent,0.730318069458008,1,vertical,vertical,1,0.71764420912816,red,4,NaN,692.232343256122,368.891514305654,NaN,NaN,751.343706178981,850.314931779154,1023.02802532055,723.626453162816,986.495193912888,426.090418184063,692.232343256122,368.891514305654,546.900731331463,631.076682568313,NaN,NaN,0,0,0,4,0,NaN,vertical,horizontal,vertical,vertical,horizontal,none
1d,14,100237,4,38,230,18,F,NA,constant,homogeneous,3,present,0.782407999038696,1,horizontal,horizontal,1,0.870581680994767,red,1,3,593.700666434388,749.885239334581,773.345241866748,346.39691668109,593.700666434388,749.885239334581,1032.95409169886,703.717843984329,773.345241866748,346.39691668109,NaN,NaN,NaN,NaN,NaN,NaN,4,0,0,NaN,NaN,NaN,horizontal,vertical,horizontal,none,none,none
1d,14,100237,4,39,231,18,F,NA,constant,homogeneous,5,present,0.805679082870483,1,horizontal,horizontal,1,0.964697048297295,red,1,5,786.654331158049,854.650531362416,553.688914296288,665.998856501143,786.654331158049,854.650531362416,1038.06300875679,691.383827134052,960.476699717708,401.827779828472,661.117046071168,386.139005173917,553.688914296288,665.998856501143,NaN,NaN,4,0,0,0,0,NaN,horizontal,horizontal,vertical,vertical,vertical,none
1d,14,100237,4,40,232,18,F,NA,constant,homogeneous,6,absent,1.03942108154297,1,horizontal,horizontal,1,0.682350946389712,red,1,NaN,899.636437764765,834.728737630372,NaN,NaN,899.636437764765,834.728737630372,1053.09926866854,631.076682568313,953.462830903772,396.34794493794,700.363562235235,365.271262369628,546.900731331463,568.923317431687,646.537169096228,803.65205506206,4,0,0,0,0,0,horizontal,vertical,vertical,horizontal,vertical,vertical
1d,14,100237,4,41,233,18,F,NA,constant,homogeneous,5,absent,0.763039827346802,1,vertical,vertical,1,0.941168206471663,red,3,NaN,1008.88377129369,453.738008730483,NaN,NaN,716.980120613425,841.107236777826,1003.65205506206,753.462830903772,1008.88377129369,453.738008730483,725.445215295702,356.142287229426,545.03883773512,595.549636358493,NaN,NaN,0,0,4,0,0,NaN,vertical,horizontal,vertical,horizontal,vertical,none
1d,14,100237,4,42,234,18,F,NA,constant,homogeneous,3,absent,0.847955942153931,1,horizontal,horizontal,1,0.670586525476896,red,3,NaN,545.03883773512,604.450363641507,NaN,NaN,931.334709102064,818.577661679039,923.626453162816,376.971974679454,545.03883773512,604.450363641507,NaN,NaN,NaN,NaN,NaN,NaN,0,0,4,NaN,NaN,NaN,vertical,vertical,horizontal,none,none,none
1d,14,100237,4,43,235,18,F,NA,constant,homogeneous,3,absent,0.670062065124512,1,vertical,vertical,1,1.04704799468701,red,3,NaN,755.719714694933,348.874022981887,NaN,NaN,604.658667004661,763.910840470068,1039.62161830041,687.215136548046,755.719714694933,348.874022981887,NaN,NaN,NaN,NaN,NaN,NaN,0,0,4,NaN,NaN,NaN,horizontal,vertical,vertical,none,none,none
1d,14,100237,4,44,236,18,F,NA,constant,homogeneous,4,absent,0.801372051239014,1,horizontal,horizontal,1,0.882346101907583,red,3,NaN,696.282156015671,367.045908301137,NaN,NaN,903.717843984329,832.954091698863,1032.95409169886,496.282156015671,696.282156015671,367.045908301137,567.045908301137,703.717843984329,NaN,NaN,NaN,NaN,0,0,4,0,NaN,NaN,vertical,horizontal,horizontal,vertical,none,none
1d,14,100237,4,45,237,18,F,NA,constant,homogeneous,5,present,0.836710929870605,1,vertical,vertical,1,0.752937471866608,red,3,5,1036.43188291453,504.475318678942,552.574589799621,538.309916622085,664.870587620533,816.252264519889,963.910840470068,795.341332995339,1036.43188291453,504.475318678942,782.212099195248,345.621167183745,552.574589799621,538.309916622085,NaN,NaN,0,0,4,0,0,NaN,vertical,horizontal,vertical,horizontal,horizontal,none
1d,14,100237,4,46,238,18,F,NA,constant,homogeneous,6,absent,0.859313011169434,1,vertical,vertical,1,0.682350946389712,red,6,NaN,551.535633479765,657.362518857686,NaN,NaN,725.445215295702,843.857712770574,973.909581815937,786.495193912888,1048.46436652023,542.637481142314,874.554784704298,356.142287229426,626.090418184063,413.504806087112,551.535633479765,657.362518857686,0,0,0,0,0,4,vertical,horizontal,vertical,horizontal,vertical,vertical
1d,14,100237,4,47,239,18,F,NA,constant,homogeneous,3,absent,0.620650053024292,1,horizontal,horizontal,1,0.999990311035743,red,3,NaN,545.03883773512,595.549636358493,NaN,NaN,923.626453162816,823.028025320546,931.334709102064,381.422338320961,545.03883773512,595.549636358493,NaN,NaN,NaN,NaN,NaN,NaN,0,0,4,NaN,NaN,NaN,vertical,vertical,horizontal,none,none,none
1d,14,100237,4,48,240,18,F,NA,constant,homogeneous,3,present,0.730650901794434,1,vertical,vertical,1,0.65882210456408,red,3,1,548.13947314824,560.109211414741,891.383827134052,838.063008756786,891.383827134052,838.063008756786,960.476699717708,401.827779828472,548.13947314824,560.109211414741,NaN,NaN,NaN,NaN,NaN,NaN,0,0,4,NaN,NaN,NaN,vertical,vertical,vertical,none,none,none
1d,14,100237,4,49,241,18,F,NA,constant,homogeneous,4,present,1.00272107124329,1,horizontal,horizontal,1,0.858817260081951,red,1,3,870.287525733335,845.121732464271,729.712474266665,354.878267535729,870.287525733335,845.121732464271,1045.12173246427,529.712474266665,729.712474266665,354.878267535729,554.878267535729,670.287525733335,NaN,NaN,NaN,NaN,4,0,0,0,NaN,NaN,horizontal,vertical,horizontal,horizontal,none,none
