experiment,subject,uniqueID,block,trial,trial_cumulative,age,gender,color_cond_blocking,color_history,shape_type,set_size,distractor,rt,acc,target_orient,response_key,response_made,iti,target_color,target_item,distractor_item,target_X,target_Y,distractor_X,distractor_Y,item1_X,item1_Y,item2_X,item2_Y,item3_X,item3_Y,item4_X,item4_Y,item5_X,item5_Y,item6_X,item6_Y,item1_shape,item2_shape,item3_shape,item4_shape,item5_shape,item6_shape,item1_line,item2_line,item3_line,item4_line,item5_line,item6_line
1d,15,100239,1,1,1,20,M,NA,constant,homogeneous,4,absent,NaN,0,horizontal,none,0,0.623528999752469,green,4,NaN,596.34794493794,753.462830903772,NaN,NaN,953.462830903772,803.65205506206,1003.65205506206,446.537169096228,646.537169096228,396.34794493794,596.34794493794,753.462830903772,NaN,NaN,NaN,NaN,0,0,0,4,NaN,NaN,horizontal,vertical,horizontal,horizontal,none,none
1d,15,100239,1,2,2,20,M,NA,constant,homogeneous,4,present,1.0246479511261,1,horizontal,horizontal,1,0.84705449740092,green,4,2,568.891514305654,707.767656743878,1031.10848569435,492.232343256122,907.767656743878,831.108485694346,1031.10848569435,492.232343256122,692.232343256122,368.891514305654,568.891514305654,707.767656743878,NaN,NaN,NaN,NaN,0,0,0,4,NaN,NaN,horizontal,vertical,vertical,horizontal,none,none
1d,15,100239,1,3,3,20,M,NA,constant,homogeneous,5,absent,0.754148006439209,1,vertical,vertical,1,1.03528649542067,green,1,NaN,935.129412379467,816.252264519889,NaN,NaN,935.129412379467,816.252264519889,1047.42541020038,538.309916622085,817.787900804752,345.621167183745,563.568117085469,504.475318678942,636.089159529932,795.341332995339,NaN,NaN,4,0,0,0,0,NaN,vertical,horizontal,horizontal,horizontal,horizontal,none
1d,15,100239,1,4,4,20,M,NA,constant,homogeneous,3,absent,0.679689884185791,1,vertical,vertical,1,0.741173998514811,green,2,NaN,831.076682568313,346.900731331463,NaN,NaN,1003.65205506206,753.462830903772,831.076682568313,346.900731331463,565.271262369628,699.636437764765,NaN,NaN,NaN,NaN,NaN,NaN,0,4,0,NaN,NaN,NaN,vertical,vertical,vertical,none,none,none
1d,15,100239,1,5,5,20,M,NA,constant,homogeneous,6,present,0.836615800857544,1,horizontal,horizontal,1,0.752938498391045,green,4,5,822.224714400653,345.970351986605,591.116228706307,453.738008730483,777.775285599347,854.029648013395,1008.88377129369,746.261991269517,1031.10848569435,492.232343256122,822.224714400653,345.970351986605,591.116228706307,453.738008730483,568.891514305654,707.767656743878,0,0,0,4,0,0,horizontal,horizontal,vertical,horizontal,horizontal,horizontal
1d,15,100239,1,6,6,20,M,NA,constant,homogeneous,4,absent,0.612366914749146,1,horizontal,horizontal,1,0.752938498391045,green,3,NaN,915.767577433584,372.793336331966,NaN,NaN,684.232422566416,827.206663668034,1027.20666366803,715.767577433584,915.767577433584,372.793336331966,572.793336331966,484.232422566416,NaN,NaN,NaN,NaN,0,0,4,0,NaN,NaN,horizontal,vertical,horizontal,horizontal,none,none
1d,15,100239,1,7,7,20,M,NA,constant,homogeneous,5,absent,0.577672958374023,1,horizontal,horizontal,1,1.03528649542067,green,3,NaN,903.717843984329,367.045908301137,NaN,NaN,853.017481158529,849.42763818712,1053.60308331891,626.654758133252,903.717843984329,367.045908301137,610.498069503264,429.371695378491,579.163522034968,727.5,NaN,NaN,0,0,4,0,0,NaN,vertical,horizontal,horizontal,horizontal,vertical,none
1d,15,100239,1,8,8,20,M,NA,constant,homogeneous,4,absent,0.777793884277344,1,vertical,vertical,1,0.811760997772217,green,4,NaN,546.39691668109,573.345241866748,NaN,NaN,773.345241866748,853.60308331891,1053.60308331891,626.654758133252,826.654758133252,346.39691668109,546.39691668109,573.345241866748,NaN,NaN,NaN,NaN,0,0,0,4,NaN,NaN,horizontal,vertical,horizontal,vertical,none,none
1d,15,100239,1,9,9,20,M,NA,constant,homogeneous,3,absent,0.754716157913208,1,horizontal,horizontal,1,0.658822499381171,green,3,NaN,545.155339110131,608.899371659138,NaN,NaN,935.129412379467,816.252264519889,919.715248510402,374.848363820974,545.155339110131,608.899371659138,NaN,NaN,NaN,NaN,NaN,NaN,0,0,4,NaN,NaN,NaN,horizontal,horizontal,horizontal,none,none,none
1d,15,100239,1,10,10,20,M,NA,constant,homogeneous,3,absent,0.733877897262573,1,vertical,vertical,1,0.799996497895982,green,2,NaN,1042.51941165526,521.200666434388,NaN,NaN,746.982518841471,849.42763818712,1042.51941165526,521.200666434388,610.498069503264,429.371695378491,NaN,NaN,NaN,NaN,NaN,NaN,0,4,0,NaN,NaN,NaN,horizontal,vertical,horizontal,none,none,none
1d,15,100239,1,11,11,20,M,NA,constant,homogeneous,5,absent,0.738253116607666,0,vertical,horizontal,1,0.670586999257406,green,3,NaN,1008.88377129369,453.738008730483,NaN,NaN,716.980120613425,841.107236777826,1003.65205506206,753.462830903772,1008.88377129369,453.738008730483,725.445215295702,356.142287229426,545.03883773512,595.549636358493,NaN,NaN,0,0,4,0,0,NaN,horizontal,horizontal,vertical,vertical,vertical,none
1d,15,100239,1,12,12,20,M,NA,constant,homogeneous,5,present,1.44612002372742,1,vertical,vertical,1,0.84705449740092,green,3,5,853.017481158529,350.57236181288,610.498069503264,770.628304621509,903.717843984329,832.954091698863,1053.60308331891,573.345241866748,853.017481158529,350.57236181288,579.163522034968,472.5,610.498069503264,770.628304621509,NaN,NaN,0,0,4,0,0,NaN,vertical,horizontal,vertical,vertical,horizontal,none
1d,15,100239,1,13,13,20,M,NA,constant,homogeneous,5,absent,0.915682792663574,1,horizontal,horizontal,1,0.823525497648451,green,5,NaN,610.498069503264,770.628304621509,NaN,NaN,903.717843984329,832.954091698863,1053.60308331891,573.345241866748,853.017481158529,350.57236181288,579.163522034968,472.5,610.498069503264,770.628304621509,NaN,NaN,0,0,0,0,4,NaN,horizontal,horizontal,vertical,vertical,horizontal,none
1d,15,100239,1,14,14,20,M,NA,constant,homogeneous,6,absent,0.768465042114258,1,horizontal,horizontal,1,0.717644998762343,green,4,NaN,899.636437764765,365.271262369628,NaN,NaN,700.363562235235,834.728737630372,953.462830903772,803.65205506206,1053.09926866854,568.923317431687,899.636437764765,365.271262369628,646.537169096228,396.34794493794,546.900731331463,631.076682568313,0,0,0,4,0,0,vertical,vertical,vertical,horizontal,horizontal,vertical
1d,15,100239,1,15,15,20,M,NA,constant,homogeneous,5,present,0.989573001861572,1,horizontal,horizontal,1,0.68235149913364,green,2,3,1006.29933356561,749.885239334581,1006.29933356561,450.114760665419,721.200666434388,842.519411655264,1006.29933356561,749.885239334581,1006.29933356561,450.114760665419,721.200666434388,357.480588344736,545,600,NaN,NaN,0,4,0,0,0,NaN,vertical,horizontal,horizontal,horizontal,horizontal,none
1d,15,100239,1,16,16,20,M,NA,constant,homogeneous,6,absent,1.13089799880981,1,horizontal,horizontal,1,1.05881549517314,green,2,NaN,977.137884467044,783.431649086356,NaN,NaN,729.712474266665,845.121732464271,977.137884467044,783.431649086356,1047.42541020038,538.309916622085,870.287525733335,354.878267535729,622.862115532956,416.568350913644,552.574589799621,661.690083377915,0,4,0,0,0,0,vertical,horizontal,vertical,horizontal,vertical,vertical
1d,15,100239,1,17,17,20,M,NA,constant,homogeneous,6,absent,0.706713914871216,1,vertical,vertical,1,0.835289997524685,green,5,NaN,619.68777079743,419.68777079743,NaN,NaN,734.001143498857,846.311085703712,980.31222920257,780.31222920257,1046.31108570371,534.001143498857,865.998856501143,353.688914296288,619.68777079743,419.68777079743,553.688914296288,665.998856501143,0,0,0,0,4,0,horizontal,horizontal,horizontal,horizontal,vertical,horizontal
1d,15,100239,1,18,18,20,M,NA,constant,homogeneous,5,present,0.737516164779663,1,horizontal,horizontal,1,0.835289997524685,green,2,1,1031.10848569435,707.767656743878,768.923317431687,853.099268668537,768.923317431687,853.099268668537,1031.10848569435,707.767656743878,973.909581815937,413.504806087112,676.373546837184,376.971974679454,549.685068220846,648.656293821019,NaN,NaN,0,4,0,0,0,NaN,horizontal,horizontal,horizontal,horizontal,vertical,none
1d,15,100239,1,19,19,20,M,NA,constant,homogeneous,4,present,0.609977960586548,1,horizontal,horizontal,1,0.68235149913364,green,2,1,1045.12173246427,670.287525733335,729.712474266665,845.121732464271,729.712474266665,845.121732464271,1045.12173246427,670.287525733335,870.287525733335,354.878267535729,554.878267535729,529.712474266665,NaN,NaN,NaN,NaN,0,4,0,0,NaN,NaN,vertical,horizontal,horizontal,horizontal,none,none
1d,15,100239,1,20,20,20,M,NA,constant,homogeneous,5,present,1.08053708076477,1,vertical,vertical,1,0.917641496658325,green,3,1,956.993676208043,399.057257830286,791.100628340862,854.844660889869,791.100628340862,854.844660889869,1039.62161830041,687.215136548046,956.993676208043,399.057257830286,657.405809614959,388.595418998464,554.878267535729,670.287525733335,NaN,NaN,0,0,4,0,0,NaN,horizontal,vertical,vertical,vertical,vertical,none
1d,15,100239,1,21,21,20,M,NA,constant,homogeneous,4,absent,0.729751110076904,1,horizontal,horizontal,1,0.964699496163262,green,3,NaN,903.717843984329,367.045908301137,NaN,NaN,696.282156015671,832.954091698863,1032.95409169886,703.717843984329,903.717843984329,367.045908301137,567.045908301137,496.282156015671,NaN,NaN,NaN,NaN,0,0,4,0,NaN,NaN,horizontal,horizontal,horizontal,vertical,none,none
1d,15,100239,1,22,22,20,M,NA,constant,homogeneous,5,present,0.945718050003052,1,vertical,vertical,1,1.05881549517314,green,4,3,746.982518841471,350.57236181288,1020.83647796503,472.5,696.282156015671,832.954091698863,989.501930496736,770.628304621509,1020.83647796503,472.5,746.982518841471,350.57236181288,546.39691668109,573.345241866748,NaN,NaN,0,0,0,4,0,NaN,vertical,horizontal,vertical,vertical,vertical,none
1d,15,100239,1,23,23,20,M,NA,constant,homogeneous,5,absent,NaN,0,horizontal,none,0,0.917641496658325,green,2,NaN,1051.12597701811,644.280285305067,NaN,NaN,835.489140744817,852.518357529101,1051.12597701811,644.280285305067,919.715248510402,374.848363820974,622.862115532956,416.568350913644,570.807518193712,711.784642431215,NaN,NaN,0,4,0,0,0,NaN,vertical,horizontal,vertical,vertical,horizontal,none
1d,15,100239,1,24,24,20,M,NA,constant,homogeneous,6,present,1.68408417701721,1,horizontal,horizontal,1,0.835289997524685,green,4,3,795.549636358493,345.03883773512,1018.57766167904,468.665290897936,804.450363641507,854.96116226488,1023.02802532055,723.626453162816,1018.57766167904,468.665290897936,795.549636358493,345.03883773512,576.971974679454,476.373546837184,581.422338320961,731.334709102064,0,0,0,4,0,0,vertical,horizontal,vertical,horizontal,vertical,horizontal
1d,15,100239,1,25,25,20,M,NA,constant,homogeneous,6,absent,0.976368188858032,1,vertical,vertical,1,0.717644998762343,green,2,NaN,970.628304621509,789.501930496736,NaN,NaN,721.200666434388,842.519411655264,970.628304621509,789.501930496736,1049.42763818712,546.982518841471,878.799333565612,357.480588344736,629.371695378491,410.498069503264,550.57236181288,653.017481158529,0,4,0,0,0,0,vertical,vertical,horizontal,vertical,vertical,horizontal
1d,15,100239,1,26,26,20,M,NA,constant,homogeneous,5,present,0.854175090789795,1,vertical,vertical,1,0.894112496905857,green,1,3,804.450363641507,854.96116226488,946.261991269517,391.116228706307,804.450363641507,854.96116226488,1043.85771277057,674.554784704298,946.261991269517,391.116228706307,646.537169096228,396.34794493794,558.892763222174,683.019879386575,NaN,NaN,4,0,0,0,0,NaN,vertical,horizontal,vertical,horizontal,horizontal,none
1d,15,100239,1,27,27,20,M,NA,constant,homogeneous,3,present,0.713907957077026,1,horizontal,horizontal,1,0.929405996534559,green,2,3,1038.06300875679,691.383827134052,760.109211414741,348.13947314824,601.827779828472,760.476699717708,1038.06300875679,691.383827134052,760.109211414741,348.13947314824,NaN,NaN,NaN,NaN,NaN,NaN,0,4,0,NaN,NaN,NaN,horizontal,horizontal,vertical,none,none,none
1d,15,100239,1,28,28,20,M,NA,constant,homogeneous,3,present,0.80738091468811,1,horizontal,horizontal,1,0.76470299826728,green,3,2,676.373546837184,376.971974679454,1054.96116226488,604.450363641507,668.665290897936,818.577661679039,1054.96116226488,604.450363641507,676.373546837184,376.971974679454,NaN,NaN,NaN,NaN,NaN,NaN,0,0,4,NaN,NaN,NaN,vertical,horizontal,horizontal,none,none,none
1d,15,100239,1,29,29,20,M,NA,constant,homogeneous,6,absent,0.796551942825317,1,horizontal,horizontal,1,1.0470509952969,green,1,NaN,839.890788585259,851.86052685176,NaN,NaN,839.890788585259,851.86052685176,1038.06300875679,691.383827134052,998.172220171528,439.523300282291,760.109211414741,348.13947314824,561.936991243214,508.616172865948,601.827779828472,760.476699717708,4,0,0,0,0,0,horizontal,horizontal,vertical,vertical,horizontal,horizontal
1d,15,100239,1,30,30,20,M,NA,constant,homogeneous,3,present,0.604763031005859,1,vertical,vertical,1,0.799996497895982,green,1,2,887.215136548046,839.621618300407,963.910840470068,404.658667004661,887.215136548046,839.621618300407,963.910840470068,404.658667004661,548.874022981887,555.719714694933,NaN,NaN,NaN,NaN,NaN,NaN,4,0,0,NaN,NaN,NaN,vertical,vertical,vertical,none,none,none
1d,15,100239,1,31,31,20,M,NA,constant,homogeneous,6,present,0.886584997177124,1,horizontal,horizontal,1,1.0823444949256,green,4,6,831.076682568313,346.900731331463,565.271262369628,699.636437764765,768.923317431687,853.099268668537,1003.65205506206,753.462830903772,1034.72873763037,500.363562235235,831.076682568313,346.900731331463,596.34794493794,446.537169096228,565.271262369628,699.636437764765,0,0,0,4,0,0,vertical,horizontal,horizontal,horizontal,vertical,horizontal
1d,15,100239,1,32,32,20,M,NA,constant,homogeneous,3,absent,0.722116947174072,0,vertical,horizontal,1,0.670586999257406,green,2,NaN,963.910840470068,404.658667004661,NaN,NaN,887.215136548046,839.621618300407,963.910840470068,404.658667004661,548.874022981887,555.719714694933,NaN,NaN,NaN,NaN,NaN,NaN,0,4,0,NaN,NaN,NaN,horizontal,vertical,vertical,none,none,none
1d,15,100239,1,33,33,20,M,NA,constant,homogeneous,3,present,0.642446994781494,1,horizontal,horizontal,1,0.694115999009874,green,3,1,622.862115532956,416.568350913644,729.712474266665,845.121732464271,729.712474266665,845.121732464271,1047.42541020038,538.309916622085,622.862115532956,416.568350913644,NaN,NaN,NaN,NaN,NaN,NaN,0,0,4,NaN,NaN,NaN,vertical,horizontal,horizontal,none,none,none
1d,15,100239,1,34,34,20,M,NA,constant,homogeneous,3,absent,0.939908981323242,0,horizontal,vertical,1,0.623528999752469,green,1,NaN,927.5,820.836477965032,NaN,NaN,927.5,820.836477965032,927.5,379.163522034968,545,600,NaN,NaN,NaN,NaN,NaN,NaN,4,0,0,NaN,NaN,NaN,horizontal,vertical,vertical,none,none,none
1d,15,100239,1,35,35,20,M,NA,constant,homogeneous,5,absent,0.730423927307129,0,horizontal,vertical,1,0.976463996039497,green,2,NaN,1053.09926866854,631.076682568313,NaN,NaN,848.656293821019,850.314931779154,1053.09926866854,631.076682568313,907.767656743878,368.891514305654,613.504806087112,426.090418184063,576.971974679454,723.626453162816,NaN,NaN,0,4,0,0,0,NaN,vertical,horizontal,horizontal,horizontal,vertical,none
1d,15,100239,1,36,36,20,M,NA,constant,homogeneous,4,present,1.09814596176147,1,vertical,vertical,1,1.03528649542067,green,4,3,561.936991243214,508.616172865948,891.383827134052,361.936991243214,708.616172865948,838.063008756786,1038.06300875679,691.383827134052,891.383827134052,361.936991243214,561.936991243214,508.616172865948,NaN,NaN,NaN,NaN,0,0,0,4,NaN,NaN,horizontal,horizontal,horizontal,vertical,none,none
1d,15,100239,1,37,37,20,M,NA,constant,homogeneous,4,present,1.86559820175171,1,vertical,vertical,1,0.870583497153388,green,3,1,826.654758133252,346.39691668109,773.345241866748,853.60308331891,773.345241866748,853.60308331891,1053.60308331891,626.654758133252,826.654758133252,346.39691668109,546.39691668109,573.345241866748,NaN,NaN,NaN,NaN,0,0,4,0,NaN,NaN,vertical,vertical,vertical,vertical,none,none
1d,15,100239,1,38,38,20,M,NA,constant,homogeneous,3,present,0.719272136688232,1,horizontal,horizontal,1,0.611764499876234,green,3,1,548.13947314824,639.890788585259,960.476699717708,798.172220171528,960.476699717708,798.172220171528,891.383827134052,361.936991243214,548.13947314824,639.890788585259,NaN,NaN,NaN,NaN,NaN,NaN,0,0,4,NaN,NaN,NaN,vertical,horizontal,horizontal,none,none,none
1d,15,100239,1,39,39,20,M,NA,constant,homogeneous,6,present,0.598420143127441,1,horizontal,horizontal,1,1.02352199554443,green,5,6,546.900731331463,568.923317431687,646.537169096228,803.65205506206,899.636437764765,834.728737630372,1053.09926866854,631.076682568313,953.462830903772,396.34794493794,700.363562235235,365.271262369628,546.900731331463,568.923317431687,646.537169096228,803.65205506206,0,0,0,0,4,0,horizontal,vertical,horizontal,horizontal,horizontal,vertical
1d,15,100239,1,40,40,20,M,NA,constant,homogeneous,3,present,0.797086000442505,1,vertical,vertical,1,0.929405996534559,green,3,1,558.892763222174,683.019879386575,992.450942956807,767.295052392579,992.450942956807,767.295052392579,848.656293821019,349.685068220846,558.892763222174,683.019879386575,NaN,NaN,NaN,NaN,NaN,NaN,0,0,4,NaN,NaN,NaN,vertical,vertical,vertical,none,none,none
1d,15,100239,1,41,41,20,M,NA,constant,homogeneous,4,present,0.886991024017334,0,vertical,horizontal,1,1.09410899480184,green,2,1,980.31222920257,419.68777079743,980.31222920257,780.31222920257,980.31222920257,780.31222920257,980.31222920257,419.68777079743,619.68777079743,419.68777079743,619.68777079743,780.31222920257,NaN,NaN,NaN,NaN,0,4,0,0,NaN,NaN,vertical,vertical,vertical,horizontal,none,none
1d,15,100239,1,42,42,20,M,NA,constant,homogeneous,3,absent,0.999274969100952,1,vertical,vertical,1,0.729409498638577,green,3,NaN,616.568350913644,422.862115532956,NaN,NaN,738.309916622085,847.425410200379,1045.12173246427,529.712474266665,616.568350913644,422.862115532956,NaN,NaN,NaN,NaN,NaN,NaN,0,0,4,NaN,NaN,NaN,vertical,vertical,vertical,none,none,none
1d,15,100239,1,43,43,20,M,NA,constant,homogeneous,5,absent,1.04420304298401,1,vertical,vertical,1,1.02352199554443,green,1,NaN,946.261991269517,808.883771293693,NaN,NaN,946.261991269517,808.883771293693,1043.85771277057,525.445215295702,804.450363641507,345.03883773512,558.892763222174,516.980120613425,646.537169096228,803.65205506206,NaN,NaN,4,0,0,0,0,NaN,vertical,horizontal,vertical,vertical,horizontal,none
1d,15,100239,1,44,44,20,M,NA,constant,homogeneous,5,present,1.45886588096619,1,horizontal,horizontal,1,0.68235149913364,green,4,5,764.510859255183,347.4816424709,548.874022981887,555.719714694933,680.284751489598,825.151636179026,977.137884467044,783.431649086356,1029.19248180629,488.215357568785,764.510859255183,347.4816424709,548.874022981887,555.719714694933,NaN,NaN,0,0,0,4,0,NaN,vertical,vertical,horizontal,horizontal,vertical,none
1d,15,100239,1,45,45,20,M,NA,constant,homogeneous,5,absent,NaN,0,vertical,none,0,0.788231998019748,green,3,NaN,970.628304621509,410.498069503264,NaN,NaN,773.345241866748,853.60308331891,1032.95409169886,703.717843984329,970.628304621509,410.498069503264,672.5,379.163522034968,550.57236181288,653.017481158529,NaN,NaN,0,0,4,0,0,NaN,vertical,horizontal,vertical,vertical,vertical,none
1d,15,100239,1,46,46,20,M,NA,constant,homogeneous,6,present,1.03403186798096,1,vertical,vertical,1,1.0823444949256,green,1,3,725.445215295702,843.857712770574,1048.46436652023,542.637481142314,725.445215295702,843.857712770574,973.909581815937,786.495193912888,1048.46436652023,542.637481142314,874.554784704298,356.142287229426,626.090418184063,413.504806087112,551.535633479765,657.362518857686,4,0,0,0,0,0,vertical,horizontal,horizontal,vertical,vertical,horizontal
1d,15,100239,1,47,47,20,M,NA,constant,homogeneous,4,absent,0.728640079498291,1,vertical,vertical,1,0.882347997029622,green,3,NaN,848.656293821019,349.685068220846,NaN,NaN,751.343706178981,850.314931779154,1050.31493177915,648.656293821019,848.656293821019,349.685068220846,549.685068220846,551.343706178981,NaN,NaN,NaN,NaN,0,0,4,0,NaN,NaN,horizontal,horizontal,vertical,horizontal,none,none
1d,15,100239,1,48,48,20,M,NA,constant,homogeneous,4,absent,0.866496086120605,1,vertical,vertical,1,0.752938498391045,green,4,NaN,545.03883773512,595.549636358493,NaN,NaN,795.549636358493,854.96116226488,1054.96116226488,604.450363641507,804.450363641507,345.03883773512,545.03883773512,595.549636358493,NaN,NaN,NaN,NaN,0,0,0,4,NaN,NaN,horizontal,vertical,horizontal,vertical,none,none
1d,15,100239,1,49,49,20,M,NA,constant,homogeneous,6,present,1.76504993438721,1,vertical,vertical,1,1.0470509952969,green,2,1,946.261991269517,808.883771293693,692.232343256122,831.108485694346,692.232343256122,831.108485694346,946.261991269517,808.883771293693,1054.0296480134,577.775285599347,907.767656743878,368.891514305654,653.738008730483,391.116228706307,545.970351986605,622.224714400653,0,4,0,0,0,0,vertical,vertical,vertical,vertical,horizontal,vertical
1d,15,100239,1,50,50,20,M,NA,constant,homogeneous,4,absent,1.32490801811218,1,vertical,vertical,1,0.823525497648451,green,2,NaN,1006.29933356561,749.885239334581,NaN,NaN,650.114760665419,806.299333565612,1006.29933356561,749.885239334581,949.885239334581,393.700666434388,593.700666434388,450.114760665419,NaN,NaN,NaN,NaN,0,4,0,0,NaN,NaN,vertical,vertical,horizontal,horizontal,none,none
1d,15,100239,1,51,51,20,M,NA,constant,homogeneous,4,present,0.713783979415894,1,horizontal,horizontal,1,0.705880498886108,green,2,4,1053.09926866854,568.923317431687,546.900731331463,631.076682568313,831.076682568313,853.099268668537,1053.09926866854,568.923317431687,768.923317431687,346.900731331463,546.900731331463,631.076682568313,NaN,NaN,NaN,NaN,0,4,0,0,NaN,NaN,horizontal,horizontal,horizontal,vertical,none,none
1d,15,100239,1,52,52,20,M,NA,constant,homogeneous,5,present,1.21019601821899,1,horizontal,horizontal,1,0.705880498886108,green,5,4,557.480588344736,521.200666434388,800,345,650.114760665419,806.299333565612,949.885239334581,806.299333565612,1042.51941165526,521.200666434388,800,345,557.480588344736,521.200666434388,NaN,NaN,0,0,0,0,4,NaN,horizontal,vertical,vertical,horizontal,horizontal,none
1d,15,100239,1,53,53,20,M,NA,constant,homogeneous,3,present,1.03192806243896,1,vertical,vertical,1,1.07057999504937,green,3,1,777.775285599347,345.970351986605,591.116228706307,746.261991269517,591.116228706307,746.261991269517,1031.10848569435,707.767656743878,777.775285599347,345.970351986605,NaN,NaN,NaN,NaN,NaN,NaN,0,0,4,NaN,NaN,NaN,vertical,horizontal,vertical,none,none,none
1d,15,100239,1,54,54,20,M,NA,constant,homogeneous,3,present,0.710384130477905,1,vertical,vertical,1,1.09410899480184,green,2,3,1045.12173246427,529.712474266665,616.568350913644,422.862115532956,738.309916622085,847.425410200379,1045.12173246427,529.712474266665,616.568350913644,422.862115532956,NaN,NaN,NaN,NaN,NaN,NaN,0,4,0,NaN,NaN,NaN,vertical,vertical,horizontal,none,none,none
1d,15,100239,1,55,55,20,M,NA,constant,homogeneous,6,present,1.49741506576538,0,vertical,horizontal,1,0.823525497648451,green,4,5,861.690083377915,352.574589799621,616.568350913644,422.862115532956,738.309916622085,847.425410200379,983.431649086356,777.137884467044,1045.12173246427,529.712474266665,861.690083377915,352.574589799621,616.568350913644,422.862115532956,554.878267535729,670.287525733335,0,0,0,4,0,0,vertical,vertical,horizontal,vertical,horizontal,horizontal
1d,15,100239,1,56,56,20,M,NA,constant,homogeneous,4,absent,0.708266019821167,1,horizontal,horizontal,1,1.03528649542067,green,2,NaN,1039.62161830041,687.215136548046,NaN,NaN,712.784863451954,839.621618300407,1039.62161830041,687.215136548046,887.215136548046,360.378381699593,560.378381699593,512.784863451954,NaN,NaN,NaN,NaN,0,4,0,0,NaN,NaN,vertical,horizontal,vertical,vertical,none,none
1d,15,100239,1,57,57,20,M,NA,constant,homogeneous,3,absent,0.674373149871826,1,horizontal,horizontal,1,0.988228495915731,green,1,NaN,782.212099195248,854.378832816255,NaN,NaN,782.212099195248,854.378832816255,1029.19248180629,488.215357568785,588.595418998464,457.40580961496,NaN,NaN,NaN,NaN,NaN,NaN,4,0,0,NaN,NaN,NaN,horizontal,vertical,vertical,none,none,none
1d,15,100239,1,58,58,20,M,NA,constant,homogeneous,6,absent,0.788290023803711,1,horizontal,horizontal,1,0.611764499876234,green,4,NaN,751.343706178981,349.685068220846,NaN,NaN,848.656293821019,850.314931779154,1041.10723677783,683.019879386575,992.450942956807,432.704947607421,751.343706178981,349.685068220846,558.892763222174,516.980120613425,607.549057043193,767.295052392579,0,0,0,4,0,0,horizontal,vertical,horizontal,horizontal,vertical,vertical
1d,15,100239,1,59,59,20,M,NA,constant,homogeneous,6,absent,1.35532402992249,1,vertical,vertical,1,0.952934996287028,green,3,NaN,960.476699717708,401.827779828472,NaN,NaN,891.383827134052,838.063008756786,1051.86052685176,639.890788585259,960.476699717708,401.827779828472,708.616172865948,361.936991243214,548.13947314824,560.109211414741,639.523300282292,798.172220171528,0,0,4,0,0,0,vertical,horizontal,vertical,horizontal,horizontal,vertical
1d,15,100239,1,60,60,20,M,NA,constant,homogeneous,3,absent,0.632233858108521,1,horizontal,horizontal,1,0.870583497153388,green,1,NaN,668.665290897936,818.577661679039,NaN,NaN,668.665290897936,818.577661679039,1054.96116226488,604.450363641507,676.373546837184,376.971974679454,NaN,NaN,NaN,NaN,NaN,NaN,4,0,0,NaN,NaN,NaN,horizontal,horizontal,horizontal,none,none,none
1d,15,100239,1,61,61,20,M,NA,constant,homogeneous,6,present,0.680749177932739,1,vertical,vertical,1,0.788231998019748,green,3,1,927.5,379.163522034968,927.5,820.836477965032,927.5,820.836477965032,1055,600,927.5,379.163522034968,672.5,379.163522034968,545,600,672.5,820.836477965032,0,0,4,0,0,0,vertical,vertical,vertical,vertical,horizontal,vertical
1d,15,100239,1,62,62,20,M,NA,constant,homogeneous,4,present,0.764191150665283,1,vertical,vertical,1,0.882347997029622,green,1,2,664.870587620533,816.252264519889,1016.25226451989,735.129412379467,664.870587620533,816.252264519889,1016.25226451989,735.129412379467,935.129412379467,383.747735480111,583.747735480111,464.870587620533,NaN,NaN,NaN,NaN,4,0,0,0,NaN,NaN,vertical,vertical,vertical,horizontal,none,none
1d,15,100239,1,63,63,20,M,NA,constant,homogeneous,6,absent,1.10342788696289,1,vertical,vertical,1,0.988228495915731,green,1,NaN,795.549636358493,854.96116226488,NaN,NaN,795.549636358493,854.96116226488,1018.57766167904,731.334709102064,1023.02802532055,476.373546837184,804.450363641507,345.03883773512,581.422338320961,468.665290897936,576.971974679454,723.626453162816,4,0,0,0,0,0,vertical,vertical,horizontal,vertical,horizontal,horizontal
1d,15,100239,1,64,64,20,M,NA,constant,homogeneous,4,present,0.789858102798462,1,horizontal,horizontal,1,0.623528999752469,green,3,4,716.980120613425,358.892763222174,558.892763222174,683.019879386575,883.019879386575,841.107236777826,1041.10723677783,516.980120613425,716.980120613425,358.892763222174,558.892763222174,683.019879386575,NaN,NaN,NaN,NaN,0,0,4,0,NaN,NaN,vertical,horizontal,horizontal,vertical,none,none
1d,15,100239,2,1,65,20,M,NA,constant,homogeneous,3,absent,0.993726015090942,1,vertical,vertical,1,0.76470299826728,green,2,NaN,938.882953928832,386.139005173917,NaN,NaN,915.767577433584,827.206663668034,938.882953928832,386.139005173917,545.349468637584,586.654331158049,NaN,NaN,NaN,NaN,NaN,NaN,0,4,0,NaN,NaN,NaN,vertical,vertical,horizontal,none,none,none
1d,15,100239,2,2,66,20,M,NA,constant,homogeneous,4,absent,0.549505949020386,1,vertical,vertical,1,0.988228495915731,green,2,NaN,1053.09926866854,568.923317431687,NaN,NaN,831.076682568313,853.099268668537,1053.09926866854,568.923317431687,768.923317431687,346.900731331463,546.900731331463,631.076682568313,NaN,NaN,NaN,NaN,0,4,0,0,NaN,NaN,horizontal,vertical,vertical,vertical,none,none
1d,15,100239,2,3,67,20,M,NA,constant,homogeneous,3,absent,1.04108500480652,1,vertical,vertical,1,0.611764499876234,green,1,NaN,661.117046071168,813.860994826083,NaN,NaN,661.117046071168,813.860994826083,1054.65053136242,613.345668841951,684.232422566416,372.793336331966,NaN,NaN,NaN,NaN,NaN,NaN,4,0,0,NaN,NaN,NaN,vertical,vertical,vertical,none,none,none
1d,15,100239,2,4,68,20,M,NA,constant,homogeneous,4,present,0.592854976654053,1,vertical,vertical,1,0.952934996287028,green,3,1,668.665290897936,381.422338320961,931.334709102064,818.577661679039,931.334709102064,818.577661679039,1018.57766167904,468.665290897936,668.665290897936,381.422338320961,581.422338320961,731.334709102064,NaN,NaN,NaN,NaN,0,0,4,0,NaN,NaN,vertical,vertical,vertical,horizontal,none,none
1d,15,100239,2,5,69,20,M,NA,constant,homogeneous,6,absent,0.490705966949463,1,vertical,vertical,1,1.09410899480184,green,4,NaN,808.899371659138,345.155339110131,NaN,NaN,791.100628340862,854.844660889869,1016.25226451989,735.129412379467,1025.15163617903,480.284751489598,808.899371659138,345.155339110131,583.747735480111,464.870587620533,574.848363820974,719.715248510402,0,0,0,4,0,0,horizontal,horizontal,vertical,vertical,horizontal,vertical
1d,15,100239,2,6,70,20,M,NA,constant,homogeneous,5,present,0.92607307434082,1,vertical,vertical,1,0.670586999257406,green,3,2,1036.43188291453,504.475318678942,963.910840470068,795.341332995339,664.870587620533,816.252264519889,963.910840470068,795.341332995339,1036.43188291453,504.475318678942,782.212099195248,345.621167183745,552.574589799621,538.309916622085,NaN,NaN,0,0,4,0,0,NaN,vertical,horizontal,vertical,vertical,horizontal,none
1d,15,100239,2,7,71,20,M,NA,constant,homogeneous,4,absent,0.543972015380859,1,vertical,vertical,1,0.76470299826728,green,2,NaN,1046.31108570371,665.998856501143,NaN,NaN,734.001143498857,846.311085703712,1046.31108570371,665.998856501143,865.998856501143,353.688914296288,553.688914296288,534.001143498857,NaN,NaN,NaN,NaN,0,4,0,0,NaN,NaN,vertical,vertical,horizontal,vertical,none,none
1d,15,100239,2,8,72,20,M,NA,constant,homogeneous,3,present,0.663933992385864,1,horizontal,horizontal,1,0.647057999504937,green,1,2,980.31222920257,780.31222920257,865.998856501143,353.688914296288,980.31222920257,780.31222920257,865.998856501143,353.688914296288,553.688914296288,665.998856501143,NaN,NaN,NaN,NaN,NaN,NaN,4,0,0,NaN,NaN,NaN,horizontal,horizontal,vertical,none,none,none
1d,15,100239,2,9,73,20,M,NA,constant,homogeneous,4,absent,0.799130916595459,1,horizontal,horizontal,1,0.882347997029622,green,3,NaN,835.489140744817,347.4816424709,NaN,NaN,764.510859255183,852.518357529101,1052.5183575291,635.489140744817,835.489140744817,347.4816424709,547.481642470899,564.510859255183,NaN,NaN,NaN,NaN,0,0,4,0,NaN,NaN,vertical,horizontal,horizontal,horizontal,none,none
1d,15,100239,2,10,74,20,M,NA,constant,homogeneous,6,absent,1.03020596504211,1,vertical,vertical,1,0.741173998514811,green,5,NaN,601.827779828472,439.523300282291,NaN,NaN,760.109211414741,851.86052685176,998.172220171528,760.476699717708,1038.06300875679,508.616172865948,839.890788585259,348.13947314824,601.827779828472,439.523300282291,561.936991243214,691.383827134052,0,0,0,0,4,0,vertical,horizontal,horizontal,horizontal,vertical,horizontal
1d,15,100239,2,11,75,20,M,NA,constant,homogeneous,3,absent,0.564368963241577,1,horizontal,horizontal,1,1.07057999504937,green,3,NaN,576.971974679454,723.626453162816,NaN,NaN,1018.57766167904,731.334709102064,804.450363641507,345.03883773512,576.971974679454,723.626453162816,NaN,NaN,NaN,NaN,NaN,NaN,0,0,4,NaN,NaN,NaN,horizontal,vertical,horizontal,none,none,none
1d,15,100239,2,12,76,20,M,NA,constant,homogeneous,3,absent,0.745593070983887,1,horizontal,horizontal,1,1.0823444949256,green,1,NaN,853.017481158529,849.42763818712,NaN,NaN,853.017481158529,849.42763818712,989.501930496736,429.371695378491,557.480588344736,521.200666434388,NaN,NaN,NaN,NaN,NaN,NaN,4,0,0,NaN,NaN,NaN,horizontal,horizontal,horizontal,none,none,none
1d,15,100239,2,13,77,20,M,NA,constant,homogeneous,6,absent,0.848941087722778,1,vertical,vertical,1,1.02352199554443,green,1,NaN,712.784863451954,839.621618300407,NaN,NaN,712.784863451954,839.621618300407,963.910840470068,795.341332995339,1051.12597701811,555.719714694933,887.215136548046,360.378381699593,636.089159529932,404.658667004661,548.874022981887,644.280285305067,4,0,0,0,0,0,vertical,vertical,horizontal,vertical,vertical,vertical
1d,15,100239,2,14,78,20,M,NA,constant,homogeneous,5,absent,0.585392951965332,1,vertical,vertical,1,0.941170496410794,green,4,NaN,586.139005173917,461.117046071168,NaN,NaN,891.383827134052,838.063008756786,1054.65053136242,586.654331158049,865.998856501143,353.688914296288,586.139005173917,461.117046071168,601.827779828472,760.476699717708,NaN,NaN,0,0,0,4,0,NaN,vertical,horizontal,vertical,vertical,horizontal,none
1d,15,100239,2,15,79,20,M,NA,constant,homogeneous,5,present,1.0388171672821,1,vertical,vertical,1,1.09410899480184,green,3,1,963.910840470068,404.658667004661,782.212099195248,854.378832816255,782.212099195248,854.378832816255,1036.43188291453,695.524681321058,963.910840470068,404.658667004661,664.870587620533,383.747735480111,552.574589799621,661.690083377915,NaN,NaN,0,0,4,0,0,NaN,horizontal,vertical,vertical,vertical,horizontal,none
1d,15,100239,2,16,80,20,M,NA,constant,homogeneous,5,present,1.02687096595764,0,vertical,horizontal,1,0.941170496410794,green,1,4,650.114760665419,806.299333565612,800,345,650.114760665419,806.299333565612,949.885239334581,806.299333565612,1042.51941165526,521.200666434388,800,345,557.480588344736,521.200666434388,NaN,NaN,4,0,0,0,0,NaN,vertical,horizontal,vertical,vertical,horizontal,none
1d,15,100239,2,17,81,20,M,NA,constant,homogeneous,6,absent,0.70006799697876,1,horizontal,horizontal,1,0.835289997524685,green,1,NaN,878.799333565612,842.519411655264,NaN,NaN,878.799333565612,842.519411655264,1049.42763818712,653.017481158529,970.628304621509,410.498069503264,721.200666434388,357.480588344736,550.57236181288,546.982518841471,629.371695378491,789.501930496736,4,0,0,0,0,0,horizontal,vertical,horizontal,horizontal,horizontal,horizontal
1d,15,100239,2,18,82,20,M,NA,constant,homogeneous,3,present,0.639634132385254,0,vertical,horizontal,1,0.858818997277154,green,1,3,956.993676208043,800.942742169714,547.481642470899,635.489140744817,956.993676208043,800.942742169714,895.524681321058,363.568117085469,547.481642470899,635.489140744817,NaN,NaN,NaN,NaN,NaN,NaN,4,0,0,NaN,NaN,NaN,vertical,vertical,vertical,none,none,none
1d,15,100239,2,19,83,20,M,NA,constant,homogeneous,6,absent,1.95745801925659,1,horizontal,horizontal,1,0.858818997277154,green,4,NaN,764.510859255183,347.4816424709,NaN,NaN,835.489140744817,852.518357529101,1036.43188291453,695.524681321058,1000.94274216971,443.006323791957,764.510859255183,347.4816424709,563.568117085469,504.475318678942,599.057257830286,756.993676208043,0,0,0,4,0,0,horizontal,horizontal,vertical,horizontal,vertical,horizontal
1d,15,100239,2,20,84,20,M,NA,constant,homogeneous,6,present,1.22440600395203,1,horizontal,horizontal,1,0.976463996039497,green,1,5,680.284751489598,825.151636179026,664.870587620533,383.747735480111,680.284751489598,825.151636179026,935.129412379467,816.252264519889,1054.84466088987,591.100628340862,919.715248510402,374.848363820974,664.870587620533,383.747735480111,545.155339110131,608.899371659138,4,0,0,0,0,0,horizontal,vertical,horizontal,vertical,vertical,vertical
1d,15,100239,2,21,85,20,M,NA,constant,homogeneous,5,present,0.733614921569824,1,vertical,vertical,1,1.02352199554443,green,2,5,1045.12173246427,529.712474266665,643.006323791957,800.942742169714,942.594190385041,811.404581001536,1045.12173246427,529.712474266665,808.899371659138,345.155339110131,560.378381699593,512.784863451954,643.006323791957,800.942742169714,NaN,NaN,0,4,0,0,0,NaN,horizontal,vertical,vertical,vertical,vertical,none
1d,15,100239,2,22,86,20,M,NA,constant,homogeneous,5,present,1.14831280708313,1,horizontal,horizontal,1,0.988228495915731,green,2,1,1034.72873763037,699.636437764765,777.775285599347,854.029648013395,777.775285599347,854.029648013395,1034.72873763037,699.636437764765,967.295052392579,407.549057043193,668.665290897936,381.422338320961,551.535633479765,657.362518857686,NaN,NaN,0,4,0,0,0,NaN,horizontal,horizontal,horizontal,horizontal,vertical,none
1d,15,100239,2,23,87,20,M,NA,constant,homogeneous,4,absent,NaN,0,horizontal,none,0,0.894112496905857,green,3,NaN,721.200666434388,357.480588344736,NaN,NaN,878.799333565612,842.519411655264,1042.51941165526,521.200666434388,721.200666434388,357.480588344736,557.480588344736,678.799333565612,NaN,NaN,NaN,NaN,0,0,4,0,NaN,NaN,vertical,vertical,horizontal,horizontal,none,none
1d,15,100239,2,24,88,20,M,NA,constant,homogeneous,4,present,NaN,0,horizontal,none,0,0.694115999009874,green,4,3,548.13947314824,560.109211414741,839.890788585259,348.13947314824,760.109211414741,851.86052685176,1051.86052685176,639.890788585259,839.890788585259,348.13947314824,548.13947314824,560.109211414741,NaN,NaN,NaN,NaN,0,0,0,4,NaN,NaN,horizontal,vertical,vertical,horizontal,none,none
1d,15,100239,2,25,89,20,M,NA,constant,homogeneous,3,absent,1.26136994361877,1,horizontal,horizontal,1,0.882347997029622,green,3,NaN,563.568117085469,504.475318678942,NaN,NaN,835.489140744817,852.518357529101,1000.94274216971,443.006323791957,563.568117085469,504.475318678942,NaN,NaN,NaN,NaN,NaN,NaN,0,0,4,NaN,NaN,NaN,vertical,vertical,horizontal,none,none,none
1d,15,100239,2,26,90,20,M,NA,constant,homogeneous,6,present,0.802167892456055,1,vertical,vertical,1,0.76470299826728,green,4,3,874.554784704298,356.142287229426,1048.46436652023,542.637481142314,725.445215295702,843.857712770574,973.909581815937,786.495193912888,1048.46436652023,542.637481142314,874.554784704298,356.142287229426,626.090418184063,413.504806087112,551.535633479765,657.362518857686,0,0,0,4,0,0,vertical,vertical,vertical,vertical,vertical,vertical
1d,15,100239,2,27,91,20,M,NA,constant,homogeneous,5,absent,0.738567113876343,1,horizontal,horizontal,1,1.0117574956682,green,4,NaN,567.045908301137,496.282156015671,NaN,NaN,927.5,820.836477965032,1049.42763818712,546.982518841471,826.654758133252,346.39691668109,567.045908301137,496.282156015671,629.371695378491,789.501930496736,NaN,NaN,0,0,0,4,0,NaN,vertical,horizontal,horizontal,horizontal,horizontal,none
1d,15,100239,2,28,92,20,M,NA,constant,homogeneous,5,absent,0.626660108566284,1,horizontal,horizontal,1,1.05881549517314,green,4,NaN,629.371695378491,410.498069503264,NaN,NaN,826.654758133252,853.60308331891,1049.42763818712,653.017481158529,927.5,379.163522034968,629.371695378491,410.498069503264,567.045908301137,703.717843984329,NaN,NaN,0,0,0,4,0,NaN,vertical,horizontal,vertical,horizontal,vertical,none
1d,15,100239,2,29,93,20,M,NA,constant,homogeneous,5,present,1.59045195579529,1,horizontal,horizontal,1,0.752938498391045,green,3,2,919.715248510402,374.848363820974,1051.12597701811,644.280285305067,835.489140744817,852.518357529101,1051.12597701811,644.280285305067,919.715248510402,374.848363820974,622.862115532956,416.568350913644,570.807518193712,711.784642431215,NaN,NaN,0,0,4,0,0,NaN,vertical,horizontal,horizontal,vertical,horizontal,none
1d,15,100239,2,30,94,20,M,NA,constant,homogeneous,5,present,1.83679914474487,1,horizontal,horizontal,1,0.705880498886108,green,4,5,786.654331158049,345.349468637584,553.688914296288,534.001143498857,661.117046071168,813.860994826083,960.476699717708,798.172220171528,1038.06300875679,508.616172865948,786.654331158049,345.349468637584,553.688914296288,534.001143498857,NaN,NaN,0,0,0,4,0,NaN,horizontal,horizontal,horizontal,horizontal,horizontal,none
1d,15,100239,2,31,95,20,M,NA,constant,homogeneous,6,absent,NaN,0,horizontal,none,0,0.917641496658325,green,3,NaN,963.910840470068,404.658667004661,NaN,NaN,887.215136548046,839.621618300407,1051.12597701811,644.280285305067,963.910840470068,404.658667004661,712.784863451954,360.378381699593,548.874022981887,555.719714694933,636.089159529932,795.341332995339,0,0,4,0,0,0,horizontal,horizontal,horizontal,vertical,horizontal,vertical
1d,15,100239,2,32,96,20,M,NA,constant,homogeneous,4,absent,NaN,0,horizontal,none,0,0.717644998762343,green,1,NaN,742.637481142314,848.464366520235,NaN,NaN,742.637481142314,848.464366520235,1048.46436652023,657.362518857686,857.362518857686,351.535633479765,551.535633479765,542.637481142314,NaN,NaN,NaN,NaN,4,0,0,0,NaN,NaN,horizontal,horizontal,vertical,vertical,none,none
1d,15,100239,2,33,97,20,M,NA,constant,homogeneous,6,present,1.20559310913086,1,horizontal,horizontal,1,0.941170496410794,green,1,3,853.017481158529,849.42763818712,989.501930496736,429.371695378491,853.017481158529,849.42763818712,1042.51941165526,678.799333565612,989.501930496736,429.371695378491,746.982518841471,350.57236181288,557.480588344736,521.200666434388,610.498069503264,770.628304621509,4,0,0,0,0,0,horizontal,vertical,vertical,vertical,vertical,vertical
1d,15,100239,2,34,98,20,M,NA,constant,homogeneous,6,present,0.563849925994873,1,vertical,vertical,1,0.694115999009874,green,1,6,782.212099195248,854.378832816255,570.807518193712,711.784642431215,782.212099195248,854.378832816255,1011.40458100154,742.594190385041,1029.19248180629,488.215357568785,817.787900804752,345.621167183745,588.595418998464,457.40580961496,570.807518193712,711.784642431215,4,0,0,0,0,0,vertical,horizontal,horizontal,horizontal,horizontal,vertical
1d,15,100239,2,35,99,20,M,NA,constant,homogeneous,6,present,0.650990009307861,1,horizontal,horizontal,1,0.776467498143514,green,4,5,878.799333565612,357.480588344736,629.371695378491,410.498069503264,721.200666434388,842.519411655264,970.628304621509,789.501930496736,1049.42763818712,546.982518841471,878.799333565612,357.480588344736,629.371695378491,410.498069503264,550.57236181288,653.017481158529,0,0,0,4,0,0,horizontal,horizontal,horizontal,horizontal,horizontal,vertical
1d,15,100239,2,36,100,20,M,NA,constant,homogeneous,4,present,0.666938066482544,1,vertical,vertical,1,0.741173998514811,green,1,2,865.998856501143,846.311085703712,1046.31108570371,534.001143498857,865.998856501143,846.311085703712,1046.31108570371,534.001143498857,734.001143498857,353.688914296288,553.688914296288,665.998856501143,NaN,NaN,NaN,NaN,4,0,0,0,NaN,NaN,vertical,horizontal,vertical,vertical,none,none
1d,15,100239,2,37,101,20,M,NA,constant,homogeneous,4,absent,0.610387086868286,1,horizontal,horizontal,1,0.905876996782091,green,1,NaN,817.787900804752,854.378832816255,NaN,NaN,817.787900804752,854.378832816255,1054.37883281626,582.212099195248,782.212099195248,345.621167183745,545.621167183745,617.787900804752,NaN,NaN,NaN,NaN,4,0,0,0,NaN,NaN,horizontal,horizontal,horizontal,vertical,none,none
1d,15,100239,2,38,102,20,M,NA,constant,homogeneous,4,present,0.490467071533203,1,horizontal,horizontal,1,0.776467498143514,green,1,3,668.665290897936,818.577661679039,931.334709102064,381.422338320961,668.665290897936,818.577661679039,1018.57766167904,731.334709102064,931.334709102064,381.422338320961,581.422338320961,468.665290897936,NaN,NaN,NaN,NaN,4,0,0,0,NaN,NaN,horizontal,horizontal,horizontal,horizontal,none,none
1d,15,100239,2,39,103,20,M,NA,constant,homogeneous,4,present,0.561644077301025,1,horizontal,horizontal,1,0.658822499381171,green,1,4,865.998856501143,846.311085703712,553.688914296288,665.998856501143,865.998856501143,846.311085703712,1046.31108570371,534.001143498857,734.001143498857,353.688914296288,553.688914296288,665.998856501143,NaN,NaN,NaN,NaN,4,0,0,0,NaN,NaN,horizontal,vertical,horizontal,horizontal,none,none
1d,15,100239,2,40,104,20,M,NA,constant,homogeneous,3,absent,0.474545001983643,1,horizontal,horizontal,1,0.68235149913364,green,1,NaN,680.284751489598,825.151636179026,NaN,NaN,680.284751489598,825.151636179026,1054.84466088987,591.100628340862,664.870587620533,383.747735480111,NaN,NaN,NaN,NaN,NaN,NaN,4,0,0,NaN,NaN,NaN,horizontal,horizontal,vertical,none,none,none
1d,15,100239,2,41,105,20,M,NA,constant,homogeneous,4,present,0.581048011779785,1,vertical,vertical,1,0.635293499628703,green,2,1,1023.02802532055,476.373546837184,923.626453162816,823.028025320546,923.626453162816,823.028025320546,1023.02802532055,476.373546837184,676.373546837184,376.971974679454,576.971974679454,723.626453162816,NaN,NaN,NaN,NaN,0,4,0,0,NaN,NaN,horizontal,vertical,horizontal,horizontal,none,none
1d,15,100239,2,42,106,20,M,NA,constant,homogeneous,5,absent,0.593471050262451,1,vertical,vertical,1,1.0470509952969,green,3,NaN,1020.83647796503,472.5,NaN,NaN,696.282156015671,832.954091698863,989.501930496736,770.628304621509,1020.83647796503,472.5,746.982518841471,350.57236181288,546.39691668109,573.345241866748,NaN,NaN,0,0,4,0,0,NaN,vertical,horizontal,vertical,vertical,vertical,none
1d,15,100239,2,43,107,20,M,NA,constant,homogeneous,3,absent,0.49911093711853,0,vertical,horizontal,1,0.870583497153388,green,3,NaN,721.200666434388,357.480588344736,NaN,NaN,629.371695378491,789.501930496736,1049.42763818712,653.017481158529,721.200666434388,357.480588344736,NaN,NaN,NaN,NaN,NaN,NaN,0,0,4,NaN,NaN,NaN,horizontal,vertical,vertical,none,none,none
1d,15,100239,2,44,108,20,M,NA,constant,homogeneous,6,present,0.899945020675659,1,horizontal,horizontal,1,0.741173998514811,green,1,4,911.784642431215,829.192481806288,688.215357568785,370.807518193712,911.784642431215,829.192481806288,1054.37883281626,617.787900804752,942.594190385041,388.595418998464,688.215357568785,370.807518193712,545.621167183745,582.212099195248,657.405809614959,811.404581001536,4,0,0,0,0,0,horizontal,vertical,vertical,vertical,horizontal,vertical
1d,15,100239,2,45,109,20,M,NA,constant,homogeneous,3,present,0.924044132232666,1,horizontal,horizontal,1,1.09410899480184,green,3,2,557.480588344736,678.799333565612,853.017481158529,350.57236181288,989.501930496736,770.628304621509,853.017481158529,350.57236181288,557.480588344736,678.799333565612,NaN,NaN,NaN,NaN,NaN,NaN,0,0,4,NaN,NaN,NaN,vertical,horizontal,horizontal,none,none,none
1d,15,100239,2,46,110,20,M,NA,constant,homogeneous,3,absent,0.460099935531616,1,vertical,vertical,1,0.670586999257406,green,2,NaN,1016.25226451989,464.870587620533,NaN,NaN,808.899371659138,854.844660889869,1016.25226451989,464.870587620533,574.848363820974,480.284751489598,NaN,NaN,NaN,NaN,NaN,NaN,0,4,0,NaN,NaN,NaN,vertical,vertical,vertical,none,none,none
1d,15,100239,2,47,111,20,M,NA,constant,homogeneous,4,present,0.884857892990112,1,horizontal,horizontal,1,0.776467498143514,green,3,2,661.117046071168,386.139005173917,1013.86099482608,461.117046071168,938.882953928832,813.860994826083,1013.86099482608,461.117046071168,661.117046071168,386.139005173917,586.139005173917,738.882953928832,NaN,NaN,NaN,NaN,0,0,4,0,NaN,NaN,horizontal,vertical,horizontal,vertical,none,none
1d,15,100239,2,48,112,20,M,NA,constant,homogeneous,5,present,1.07621717453003,1,horizontal,horizontal,1,1.05881549517314,green,5,4,565.271262369628,699.636437764765,632.704947607421,407.549057043193,822.224714400653,854.029648013395,1048.46436652023,657.362518857686,931.334709102064,381.422338320961,632.704947607421,407.549057043193,565.271262369628,699.636437764765,NaN,NaN,0,0,0,0,4,NaN,horizontal,vertical,vertical,vertical,horizontal,none
1d,15,100239,2,49,113,20,M,NA,constant,homogeneous,4,present,0.710983991622925,1,vertical,vertical,1,1.05881549517314,green,1,2,636.089159529932,795.341332995339,995.341332995339,763.910840470068,636.089159529932,795.341332995339,995.341332995339,763.910840470068,963.910840470068,404.658667004661,604.658667004661,436.089159529932,NaN,NaN,NaN,NaN,4,0,0,0,NaN,NaN,vertical,vertical,horizontal,vertical,none,none
1d,15,100239,2,50,114,20,M,NA,constant,homogeneous,6,absent,1.47358894348145,0,vertical,horizontal,1,0.799996497895982,green,5,NaN,588.595418998464,457.40580961496,NaN,NaN,782.212099195248,854.378832816255,1011.40458100154,742.594190385041,1029.19248180629,488.215357568785,817.787900804752,345.621167183745,588.595418998464,457.40580961496,570.807518193712,711.784642431215,0,0,0,0,4,0,vertical,horizontal,vertical,horizontal,vertical,horizontal
1d,15,100239,2,51,115,20,M,NA,constant,homogeneous,5,absent,1.02503299713135,1,vertical,vertical,1,1.09410899480184,green,3,NaN,874.554784704298,356.142287229426,NaN,NaN,883.019879386575,841.107236777826,1054.96116226488,595.549636358493,874.554784704298,356.142287229426,591.116228706307,453.738008730483,596.34794493794,753.462830903772,NaN,NaN,0,0,4,0,0,NaN,horizontal,horizontal,vertical,vertical,horizontal,none
1d,15,100239,2,52,116,20,M,NA,constant,homogeneous,4,absent,0.5835280418396,1,vertical,vertical,1,0.694115999009874,green,1,NaN,919.715248510402,825.151636179026,NaN,NaN,919.715248510402,825.151636179026,1025.15163617903,480.284751489598,680.284751489598,374.848363820974,574.848363820974,719.715248510402,NaN,NaN,NaN,NaN,4,0,0,0,NaN,NaN,vertical,horizontal,horizontal,vertical,none,none
1d,15,100239,2,53,117,20,M,NA,constant,homogeneous,4,absent,1.15665006637573,1,vertical,vertical,1,1.07057999504937,green,2,NaN,1043.85771277057,525.445215295702,NaN,NaN,874.554784704298,843.857712770574,1043.85771277057,525.445215295702,725.445215295702,356.142287229426,556.142287229426,674.554784704298,NaN,NaN,NaN,NaN,0,4,0,0,NaN,NaN,horizontal,vertical,horizontal,vertical,none,none
1d,15,100239,2,54,118,20,M,NA,constant,homogeneous,5,absent,0.648555040359497,1,horizontal,horizontal,1,0.623528999752469,green,3,NaN,1042.51941165526,521.200666434388,NaN,NaN,650.114760665419,806.299333565612,949.885239334581,806.299333565612,1042.51941165526,521.200666434388,800,345,557.480588344736,521.200666434388,NaN,NaN,0,0,4,0,0,NaN,vertical,horizontal,horizontal,horizontal,vertical,none
1d,15,100239,2,55,119,20,M,NA,constant,homogeneous,3,present,0.775264024734497,1,vertical,vertical,1,0.670586999257406,green,2,1,903.717843984329,367.045908301137,949.885239334581,806.299333565612,949.885239334581,806.299333565612,903.717843984329,367.045908301137,546.39691668109,626.654758133252,NaN,NaN,NaN,NaN,NaN,NaN,0,4,0,NaN,NaN,NaN,horizontal,vertical,vertical,none,none,none
1d,15,100239,2,56,120,20,M,NA,constant,homogeneous,6,absent,1.91683101654053,1,horizontal,horizontal,1,1.09410899480184,green,6,NaN,629.371695378491,789.501930496736,NaN,NaN,878.799333565612,842.519411655264,1049.42763818712,653.017481158529,970.628304621509,410.498069503264,721.200666434388,357.480588344736,550.57236181288,546.982518841471,629.371695378491,789.501930496736,0,0,0,0,0,4,vertical,horizontal,vertical,horizontal,vertical,horizontal
1d,15,100239,2,57,121,20,M,NA,constant,homogeneous,6,present,0.779144048690796,1,vertical,vertical,1,0.976463996039497,green,4,6,800,345,579.163522034968,727.5,800,855,1020.83647796503,727.5,1020.83647796503,472.5,800,345,579.163522034968,472.5,579.163522034968,727.5,0,0,0,4,0,0,horizontal,vertical,vertical,vertical,horizontal,vertical
1d,15,100239,2,58,122,20,M,NA,constant,homogeneous,3,present,0.607326030731201,1,horizontal,horizontal,1,1.02352199554443,green,1,3,931.334709102064,818.577661679039,545.03883773512,604.450363641507,931.334709102064,818.577661679039,923.626453162816,376.971974679454,545.03883773512,604.450363641507,NaN,NaN,NaN,NaN,NaN,NaN,4,0,0,NaN,NaN,NaN,horizontal,horizontal,horizontal,none,none,none
1d,15,100239,2,59,123,20,M,NA,constant,homogeneous,5,absent,0.645519971847534,1,vertical,vertical,1,1.09410899480184,green,3,NaN,989.501930496736,429.371695378491,NaN,NaN,746.982518841471,849.42763818712,1020.83647796503,727.5,989.501930496736,429.371695378491,696.282156015671,367.045908301137,546.39691668109,626.654758133252,NaN,NaN,0,0,4,0,0,NaN,vertical,vertical,vertical,vertical,horizontal,none
1d,15,100239,2,60,124,20,M,NA,constant,homogeneous,3,present,0.582809925079346,0,vertical,horizontal,1,0.623528999752469,green,1,3,760.109211414741,851.86052685176,601.827779828472,439.523300282291,760.109211414741,851.86052685176,1038.06300875679,508.616172865948,601.827779828472,439.523300282291,NaN,NaN,NaN,NaN,NaN,NaN,4,0,0,NaN,NaN,NaN,vertical,horizontal,horizontal,none,none,none
1d,15,100239,2,61,125,20,M,NA,constant,homogeneous,5,absent,0.919495105743408,1,horizontal,horizontal,1,0.835289997524685,green,3,NaN,1003.65205506206,446.537169096228,NaN,NaN,725.445215295702,843.857712770574,1008.88377129369,746.261991269517,1003.65205506206,446.537169096228,716.980120613425,358.892763222174,545.03883773512,604.450363641507,NaN,NaN,0,0,4,0,0,NaN,horizontal,vertical,horizontal,horizontal,vertical,none
1d,15,100239,2,62,126,20,M,NA,constant,homogeneous,6,present,0.613036155700684,1,vertical,vertical,1,0.952934996287028,green,4,2,874.554784704298,356.142287229426,973.909581815937,786.495193912888,725.445215295702,843.857712770574,973.909581815937,786.495193912888,1048.46436652023,542.637481142314,874.554784704298,356.142287229426,626.090418184063,413.504806087112,551.535633479765,657.362518857686,0,0,0,4,0,0,horizontal,horizontal,horizontal,vertical,horizontal,vertical
1d,15,100239,2,63,127,20,M,NA,constant,homogeneous,3,present,0.606997013092041,1,horizontal,horizontal,1,0.870583497153388,green,3,2,553.688914296288,665.998856501143,865.998856501143,353.688914296288,980.31222920257,780.31222920257,865.998856501143,353.688914296288,553.688914296288,665.998856501143,NaN,NaN,NaN,NaN,NaN,NaN,0,0,4,NaN,NaN,NaN,vertical,vertical,horizontal,none,none,none
1d,15,100239,2,64,128,20,M,NA,constant,homogeneous,3,present,0.65219783782959,1,vertical,vertical,1,1.0470509952969,green,2,1,973.909581815937,413.504806087112,874.554784704298,843.857712770574,874.554784704298,843.857712770574,973.909581815937,413.504806087112,551.535633479765,542.637481142314,NaN,NaN,NaN,NaN,NaN,NaN,0,4,0,NaN,NaN,NaN,horizontal,vertical,vertical,none,none,none
1d,15,100239,3,1,129,20,M,NA,constant,homogeneous,4,absent,0.888440847396851,1,horizontal,horizontal,1,0.635293499628703,green,2,NaN,1045.12173246427,529.712474266665,NaN,NaN,870.287525733335,845.121732464271,1045.12173246427,529.712474266665,729.712474266665,354.878267535729,554.878267535729,670.287525733335,NaN,NaN,NaN,NaN,0,4,0,0,NaN,NaN,horizontal,horizontal,vertical,vertical,none,none
1d,15,100239,3,2,130,20,M,NA,constant,homogeneous,5,absent,0.558659076690674,1,vertical,vertical,1,0.635293499628703,green,3,NaN,995.341332995339,436.089159529932,NaN,NaN,738.309916622085,847.425410200379,1016.25226451989,735.129412379467,995.341332995339,436.089159529932,704.475318678942,363.568117085469,545.621167183745,617.787900804752,NaN,NaN,0,0,4,0,0,NaN,horizontal,horizontal,vertical,vertical,horizontal,none
1d,15,100239,3,3,131,20,M,NA,constant,homogeneous,5,absent,1.02448010444641,1,horizontal,horizontal,1,0.929405996534559,green,1,NaN,899.636437764765,834.728737630372,NaN,NaN,899.636437764765,834.728737630372,1054.0296480134,577.775285599347,857.362518857686,351.535633479765,581.422338320961,468.665290897936,607.549057043193,767.295052392579,NaN,NaN,4,0,0,0,0,NaN,horizontal,horizontal,horizontal,vertical,vertical,none
1d,15,100239,3,4,132,20,M,NA,constant,homogeneous,6,present,0.61628794670105,1,horizontal,horizontal,1,0.741173998514811,green,2,4,1025.15163617903,719.715248510402,791.100628340862,345.155339110131,808.899371659138,854.844660889869,1025.15163617903,719.715248510402,1016.25226451989,464.870587620533,791.100628340862,345.155339110131,574.848363820974,480.284751489598,583.747735480111,735.129412379467,0,4,0,0,0,0,horizontal,horizontal,vertical,horizontal,horizontal,vertical
1d,15,100239,3,5,133,20,M,NA,constant,homogeneous,4,present,0.599436044692993,1,vertical,vertical,1,0.729409498638577,green,2,3,1038.06300875679,508.616172865948,708.616172865948,361.936991243214,891.383827134052,838.063008756786,1038.06300875679,508.616172865948,708.616172865948,361.936991243214,561.936991243214,691.383827134052,NaN,NaN,NaN,NaN,0,4,0,0,NaN,NaN,horizontal,vertical,vertical,horizontal,none,none
1d,15,100239,3,6,134,20,M,NA,constant,homogeneous,5,present,0.660727977752686,1,vertical,vertical,1,0.870583497153388,green,1,2,734.001143498857,846.311085703712,1013.86099482608,738.882953928832,734.001143498857,846.311085703712,1013.86099482608,738.882953928832,998.172220171528,439.523300282291,708.616172865948,361.936991243214,545.349468637584,613.345668841951,NaN,NaN,4,0,0,0,0,NaN,vertical,horizontal,horizontal,vertical,horizontal,none
1d,15,100239,3,7,135,20,M,NA,constant,homogeneous,3,present,0.64507794380188,1,vertical,vertical,1,0.729409498638577,green,3,2,742.637481142314,351.535633479765,1043.85771277057,674.554784704298,613.504806087112,773.909581815937,1043.85771277057,674.554784704298,742.637481142314,351.535633479765,NaN,NaN,NaN,NaN,NaN,NaN,0,0,4,NaN,NaN,NaN,vertical,horizontal,vertical,none,none,none
1d,15,100239,3,8,136,20,M,NA,constant,homogeneous,6,present,0.638792991638184,1,horizontal,horizontal,1,0.647057999504937,green,6,3,545.349468637584,613.345668841951,1054.65053136242,586.654331158049,684.232422566416,827.206663668034,938.882953928832,813.860994826083,1054.65053136242,586.654331158049,915.767577433584,372.793336331966,661.117046071168,386.139005173917,545.349468637584,613.345668841951,0,0,0,0,0,4,horizontal,vertical,horizontal,vertical,horizontal,horizontal
1d,15,100239,3,9,137,20,M,NA,constant,homogeneous,6,present,0.817509174346924,1,horizontal,horizontal,1,0.894112496905857,green,5,6,599.057257830286,443.006323791957,563.568117085469,695.524681321058,764.510859255183,852.518357529101,1000.94274216971,756.993676208043,1036.43188291453,504.475318678942,835.489140744817,347.4816424709,599.057257830286,443.006323791957,563.568117085469,695.524681321058,0,0,0,0,4,0,vertical,horizontal,vertical,vertical,horizontal,vertical
1d,15,100239,3,10,138,20,M,NA,constant,homogeneous,3,absent,0.667634963989258,1,horizontal,horizontal,1,0.870583497153388,green,3,NaN,653.738008730483,391.116228706307,NaN,NaN,692.232343256122,831.108485694346,1054.0296480134,577.775285599347,653.738008730483,391.116228706307,NaN,NaN,NaN,NaN,NaN,NaN,0,0,4,NaN,NaN,NaN,horizontal,horizontal,horizontal,none,none,none
1d,15,100239,3,11,139,20,M,NA,constant,homogeneous,6,present,0.746307134628296,1,vertical,vertical,1,0.658822499381171,green,2,1,1039.62161830041,687.215136548046,844.280285305067,851.125977018113,844.280285305067,851.125977018113,1039.62161830041,687.215136548046,995.341332995339,436.089159529932,755.719714694933,348.874022981887,560.378381699593,512.784863451954,604.658667004661,763.910840470068,0,4,0,0,0,0,vertical,vertical,vertical,vertical,horizontal,vertical
1d,15,100239,3,12,140,20,M,NA,constant,homogeneous,3,present,0.627648115158081,1,horizontal,horizontal,1,0.717644998762343,green,2,3,1038.06300875679,508.616172865948,601.827779828472,439.523300282291,760.109211414741,851.86052685176,1038.06300875679,508.616172865948,601.827779828472,439.523300282291,NaN,NaN,NaN,NaN,NaN,NaN,0,4,0,NaN,NaN,NaN,vertical,horizontal,horizontal,none,none,none
1d,15,100239,3,13,141,20,M,NA,constant,homogeneous,6,absent,0.87365984916687,1,vertical,vertical,1,0.870583497153388,green,1,NaN,696.282156015671,832.954091698863,NaN,NaN,696.282156015671,832.954091698863,949.885239334581,806.299333565612,1053.60308331891,573.345241866748,903.717843984329,367.045908301137,650.114760665419,393.700666434388,546.39691668109,626.654758133252,4,0,0,0,0,0,vertical,horizontal,horizontal,vertical,horizontal,vertical
1d,15,100239,3,14,142,20,M,NA,constant,homogeneous,5,present,0.693629026412964,1,vertical,vertical,1,0.705880498886108,green,1,3,895.524681321058,836.431882914531,861.690083377915,352.574589799621,895.524681321058,836.431882914531,1054.37883281626,582.212099195248,861.690083377915,352.574589799621,583.747735480111,464.870587620533,604.658667004661,763.910840470068,NaN,NaN,4,0,0,0,0,NaN,vertical,horizontal,vertical,vertical,horizontal,none
1d,15,100239,3,15,143,20,M,NA,constant,homogeneous,4,present,0.563616991043091,1,horizontal,horizontal,1,0.999992995791965,green,2,3,1051.12597701811,644.280285305067,844.280285305067,348.874022981887,755.719714694933,851.125977018113,1051.12597701811,644.280285305067,844.280285305067,348.874022981887,548.874022981887,555.719714694933,NaN,NaN,NaN,NaN,0,4,0,0,NaN,NaN,vertical,horizontal,horizontal,vertical,none,none
1d,15,100239,3,16,144,20,M,NA,constant,homogeneous,3,present,0.873472929000854,1,vertical,vertical,1,0.905876996782091,green,3,2,572.793336331966,715.767577433584,813.345668841951,345.349468637584,1013.86099482608,738.882953928832,813.345668841951,345.349468637584,572.793336331966,715.767577433584,NaN,NaN,NaN,NaN,NaN,NaN,0,0,4,NaN,NaN,NaN,vertical,vertical,vertical,none,none,none
1d,15,100239,3,17,145,20,M,NA,constant,homogeneous,3,absent,0.592933893203735,1,vertical,vertical,1,0.894112496905857,green,1,NaN,946.261991269517,808.883771293693,NaN,NaN,946.261991269517,808.883771293693,907.767656743878,368.891514305654,545.970351986605,622.224714400653,NaN,NaN,NaN,NaN,NaN,NaN,4,0,0,NaN,NaN,NaN,vertical,vertical,horizontal,none,none,none
1d,15,100239,3,18,146,20,M,NA,constant,homogeneous,5,present,0.768115043640137,1,vertical,vertical,1,0.752938498391045,green,1,5,684.232422566416,827.206663668034,548.13947314824,560.109211414741,684.232422566416,827.206663668034,980.31222920257,780.31222920257,1027.20666366803,484.232422566416,760.109211414741,348.13947314824,548.13947314824,560.109211414741,NaN,NaN,4,0,0,0,0,NaN,vertical,horizontal,horizontal,horizontal,horizontal,none
1d,15,100239,3,19,147,20,M,NA,constant,homogeneous,6,present,1.39900207519531,1,vertical,vertical,1,0.776467498143514,green,6,4,554.878267535729,670.287525733335,861.690083377915,352.574589799621,738.309916622085,847.425410200379,983.431649086356,777.137884467044,1045.12173246427,529.712474266665,861.690083377915,352.574589799621,616.568350913644,422.862115532956,554.878267535729,670.287525733335,0,0,0,0,0,4,horizontal,vertical,vertical,vertical,horizontal,vertical
1d,15,100239,3,20,148,20,M,NA,constant,homogeneous,6,absent,0.653832197189331,1,vertical,vertical,1,0.717644998762343,green,2,NaN,1016.25226451989,735.129412379467,NaN,NaN,791.100628340862,854.844660889869,1016.25226451989,735.129412379467,1025.15163617903,480.284751489598,808.899371659138,345.155339110131,583.747735480111,464.870587620533,574.848363820974,719.715248510402,0,4,0,0,0,0,horizontal,vertical,horizontal,vertical,vertical,horizontal
1d,15,100239,3,21,149,20,M,NA,constant,homogeneous,5,absent,0.64347505569458,1,horizontal,horizontal,1,0.623528999752469,green,5,NaN,545.155339110131,608.899371659138,NaN,NaN,729.712474266665,845.121732464271,1011.40458100154,742.594190385041,1000.94274216971,443.006323791957,712.784863451954,360.378381699593,545.155339110131,608.899371659138,NaN,NaN,0,0,0,0,4,NaN,horizontal,horizontal,horizontal,vertical,horizontal,none
1d,15,100239,3,22,150,20,M,NA,constant,homogeneous,6,present,0.881438016891479,1,vertical,vertical,1,0.658822499381171,green,3,4,992.450942956807,432.704947607421,751.343706178981,349.685068220846,848.656293821019,850.314931779154,1041.10723677783,683.019879386575,992.450942956807,432.704947607421,751.343706178981,349.685068220846,558.892763222174,516.980120613425,607.549057043193,767.295052392579,0,0,4,0,0,0,vertical,horizontal,vertical,horizontal,vertical,vertical
1d,15,100239,3,23,151,20,M,NA,constant,homogeneous,5,present,0.992195129394531,1,horizontal,horizontal,1,0.835289997524685,green,3,1,1018.57766167904,468.665290897936,700.363562235235,834.728737630372,700.363562235235,834.728737630372,992.450942956807,767.295052392579,1018.57766167904,468.665290897936,742.637481142314,351.535633479765,545.970351986605,577.775285599347,NaN,NaN,0,0,4,0,0,NaN,vertical,horizontal,horizontal,horizontal,vertical,none
1d,15,100239,3,24,152,20,M,NA,constant,homogeneous,4,present,1.15970897674561,1,vertical,vertical,1,0.976463996039497,green,3,4,684.232422566416,372.793336331966,572.793336331966,715.767577433584,915.767577433584,827.206663668034,1027.20666366803,484.232422566416,684.232422566416,372.793336331966,572.793336331966,715.767577433584,NaN,NaN,NaN,NaN,0,0,4,0,NaN,NaN,horizontal,vertical,vertical,horizontal,none,none
1d,15,100239,3,25,153,20,M,NA,constant,homogeneous,4,absent,0.800684928894043,1,horizontal,horizontal,1,1.0823444949256,green,2,NaN,1008.88377129369,746.261991269517,NaN,NaN,653.738008730483,808.883771293693,1008.88377129369,746.261991269517,946.261991269517,391.116228706307,591.116228706307,453.738008730483,NaN,NaN,NaN,NaN,0,4,0,0,NaN,NaN,vertical,horizontal,vertical,horizontal,none,none
1d,15,100239,3,26,154,20,M,NA,constant,homogeneous,4,absent,1.041748046875,1,horizontal,horizontal,1,0.835289997524685,green,2,NaN,1025.15163617903,480.284751489598,NaN,NaN,919.715248510402,825.151636179026,1025.15163617903,480.284751489598,680.284751489598,374.848363820974,574.848363820974,719.715248510402,NaN,NaN,NaN,NaN,0,4,0,0,NaN,NaN,horizontal,horizontal,horizontal,vertical,none,none
1d,15,100239,3,27,155,20,M,NA,constant,homogeneous,5,present,1.22920703887939,1,horizontal,horizontal,1,0.917641496658325,green,4,5,692.232343256122,368.891514305654,546.900731331463,631.076682568313,751.343706178981,850.314931779154,1023.02802532055,723.626453162816,986.495193912888,426.090418184063,692.232343256122,368.891514305654,546.900731331463,631.076682568313,NaN,NaN,0,0,0,4,0,NaN,horizontal,horizontal,horizontal,horizontal,horizontal,none
1d,15,100239,3,28,156,20,M,NA,constant,homogeneous,4,present,0.505640983581543,1,horizontal,horizontal,1,0.999992995791965,green,3,2,629.371695378491,410.498069503264,989.501930496736,429.371695378491,970.628304621509,789.501930496736,989.501930496736,429.371695378491,629.371695378491,410.498069503264,610.498069503264,770.628304621509,NaN,NaN,NaN,NaN,0,0,4,0,NaN,NaN,horizontal,vertical,horizontal,horizontal,none,none
1d,15,100239,3,29,157,20,M,NA,constant,homogeneous,6,present,0.738219976425171,1,vertical,vertical,1,0.905876996782091,green,4,2,704.475318678942,363.568117085469,1052.5183575291,635.489140744817,895.524681321058,836.431882914531,1052.5183575291,635.489140744817,956.993676208043,399.057257830286,704.475318678942,363.568117085469,547.481642470899,564.510859255183,643.006323791957,800.942742169714,0,0,0,4,0,0,horizontal,horizontal,vertical,vertical,horizontal,horizontal
1d,15,100239,3,30,158,20,M,NA,constant,homogeneous,5,absent,1.58442997932434,1,vertical,vertical,1,0.76470299826728,green,1,NaN,826.654758133252,853.60308331891,NaN,NaN,826.654758133252,853.60308331891,1049.42763818712,653.017481158529,927.5,379.163522034968,629.371695378491,410.498069503264,567.045908301137,703.717843984329,NaN,NaN,4,0,0,0,0,NaN,vertical,horizontal,vertical,vertical,vertical,none
1d,15,100239,3,31,159,20,M,NA,constant,homogeneous,6,absent,0.577379941940308,1,vertical,vertical,1,1.05881549517314,green,5,NaN,547.481642470899,564.510859255183,NaN,NaN,895.524681321058,836.431882914531,1052.5183575291,635.489140744817,956.993676208043,399.057257830286,704.475318678942,363.568117085469,547.481642470899,564.510859255183,643.006323791957,800.942742169714,0,0,0,0,4,0,horizontal,vertical,horizontal,vertical,vertical,vertical
1d,15,100239,3,32,160,20,M,NA,constant,homogeneous,6,absent,1.25044703483582,1,horizontal,horizontal,1,1.05881549517314,green,4,NaN,853.017481158529,350.57236181288,NaN,NaN,746.982518841471,849.42763818712,989.501930496736,770.628304621509,1042.51941165526,521.200666434388,853.017481158529,350.57236181288,610.498069503264,429.371695378491,557.480588344736,678.799333565612,0,0,0,4,0,0,vertical,vertical,vertical,horizontal,horizontal,vertical
1d,15,100239,3,33,161,20,M,NA,constant,homogeneous,4,absent,0.632154941558838,1,horizontal,horizontal,1,0.823525497648451,green,3,NaN,822.224714400653,345.970351986605,NaN,NaN,777.775285599347,854.029648013395,1054.0296480134,622.224714400653,822.224714400653,345.970351986605,545.970351986605,577.775285599347,NaN,NaN,NaN,NaN,0,0,4,0,NaN,NaN,vertical,horizontal,horizontal,horizontal,none,none
1d,15,100239,3,34,162,20,M,NA,constant,homogeneous,3,present,0.831540107727051,1,vertical,vertical,1,0.741173998514811,green,2,3,899.636437764765,365.271262369628,546.900731331463,631.076682568313,953.462830903772,803.65205506206,899.636437764765,365.271262369628,546.900731331463,631.076682568313,NaN,NaN,NaN,NaN,NaN,NaN,0,4,0,NaN,NaN,NaN,vertical,vertical,vertical,none,none,none
1d,15,100239,3,35,163,20,M,NA,constant,homogeneous,3,absent,0.57240104675293,1,vertical,vertical,1,0.6,green,1,NaN,1008.88377129369,746.261991269517,NaN,NaN,1008.88377129369,746.261991269517,822.224714400653,345.970351986605,568.891514305654,707.767656743878,NaN,NaN,NaN,NaN,NaN,NaN,4,0,0,NaN,NaN,NaN,vertical,vertical,horizontal,none,none,none
1d,15,100239,3,36,164,20,M,NA,constant,homogeneous,4,absent,0.568295001983643,1,vertical,vertical,1,0.811760997772217,green,4,NaN,591.116228706307,453.738008730483,NaN,NaN,653.738008730483,808.883771293693,1008.88377129369,746.261991269517,946.261991269517,391.116228706307,591.116228706307,453.738008730483,NaN,NaN,NaN,NaN,0,0,0,4,NaN,NaN,horizontal,horizontal,vertical,vertical,none,none
1d,15,100239,3,37,165,20,M,NA,constant,homogeneous,6,absent,1.07361698150635,1,horizontal,horizontal,1,0.694115999009874,green,4,NaN,835.489140744817,347.4816424709,NaN,NaN,764.510859255183,852.518357529101,1000.94274216971,756.993676208043,1036.43188291453,504.475318678942,835.489140744817,347.4816424709,599.057257830286,443.006323791957,563.568117085469,695.524681321058,0,0,0,4,0,0,horizontal,horizontal,vertical,horizontal,horizontal,horizontal
1d,15,100239,3,38,166,20,M,NA,constant,homogeneous,4,present,0.933365106582642,1,vertical,vertical,1,0.905876996782091,green,4,3,570.807518193712,711.784642431215,688.215357568785,370.807518193712,911.784642431215,829.192481806288,1029.19248180629,488.215357568785,688.215357568785,370.807518193712,570.807518193712,711.784642431215,NaN,NaN,NaN,NaN,0,0,0,4,NaN,NaN,vertical,vertical,horizontal,vertical,none,none
1d,15,100239,3,39,167,20,M,NA,constant,homogeneous,5,absent,0.825669050216675,1,vertical,vertical,1,1.07057999504937,green,2,NaN,1000.94274216971,756.993676208043,NaN,NaN,712.784863451954,839.621618300407,1000.94274216971,756.993676208043,1011.40458100154,457.40580961496,729.712474266665,354.878267535729,545.155339110131,591.100628340862,NaN,NaN,0,4,0,0,0,NaN,horizontal,vertical,horizontal,horizontal,horizontal,none
1d,15,100239,3,40,168,20,M,NA,constant,homogeneous,5,present,0.897239208221436,1,horizontal,horizontal,1,0.741173998514811,green,2,4,1055,600,593.700666434388,450.114760665419,878.799333565612,842.519411655264,1055,600,878.799333565612,357.480588344736,593.700666434388,450.114760665419,593.700666434388,749.885239334581,NaN,NaN,0,4,0,0,0,NaN,vertical,horizontal,horizontal,vertical,vertical,none
1d,15,100239,3,41,169,20,M,NA,constant,homogeneous,6,present,0.628570079803467,1,horizontal,horizontal,1,1.05881549517314,green,5,2,548.874022981887,555.719714694933,1051.12597701811,644.280285305067,887.215136548046,839.621618300407,1051.12597701811,644.280285305067,963.910840470068,404.658667004661,712.784863451954,360.378381699593,548.874022981887,555.719714694933,636.089159529932,795.341332995339,0,0,0,0,4,0,vertical,horizontal,horizontal,horizontal,horizontal,vertical
1d,15,100239,3,42,170,20,M,NA,constant,homogeneous,3,absent,0.758948087692261,0,vertical,horizontal,1,1.0823444949256,green,1,NaN,672.5,820.836477965032,NaN,NaN,672.5,820.836477965032,1055,600,672.5,379.163522034968,NaN,NaN,NaN,NaN,NaN,NaN,4,0,0,NaN,NaN,NaN,vertical,horizontal,horizontal,none,none,none
1d,15,100239,3,43,171,20,M,NA,constant,homogeneous,3,present,0.684626817703247,1,horizontal,horizontal,1,0.717644998762343,green,1,2,804.450363641507,854.96116226488,1018.57766167904,468.665290897936,804.450363641507,854.96116226488,1018.57766167904,468.665290897936,576.971974679454,476.373546837184,NaN,NaN,NaN,NaN,NaN,NaN,4,0,0,NaN,NaN,NaN,horizontal,horizontal,vertical,none,none,none
1d,15,100239,3,44,172,20,M,NA,constant,homogeneous,5,absent,1.15445017814636,1,horizontal,horizontal,1,0.988228495915731,green,2,NaN,1054.0296480134,622.224714400653,NaN,NaN,857.362518857686,848.464366520235,1054.0296480134,622.224714400653,899.636437764765,365.271262369628,607.549057043193,432.704947607421,581.422338320961,731.334709102064,NaN,NaN,0,4,0,0,0,NaN,vertical,horizontal,vertical,vertical,horizontal,none
1d,15,100239,3,45,173,20,M,NA,constant,homogeneous,4,absent,0.658339023590088,1,vertical,vertical,1,0.635293499628703,green,3,NaN,768.923317431687,346.900731331463,NaN,NaN,831.076682568313,853.099268668537,1053.09926866854,568.923317431687,768.923317431687,346.900731331463,546.900731331463,631.076682568313,NaN,NaN,NaN,NaN,0,0,4,0,NaN,NaN,horizontal,horizontal,vertical,horizontal,none,none
1d,15,100239,3,46,174,20,M,NA,constant,homogeneous,3,present,0.565654993057251,1,vertical,vertical,1,0.894112496905857,green,2,1,800,345,1020.83647796503,727.5,1020.83647796503,727.5,800,345,579.163522034968,727.5,NaN,NaN,NaN,NaN,NaN,NaN,0,4,0,NaN,NaN,NaN,vertical,vertical,vertical,none,none,none
1d,15,100239,3,47,175,20,M,NA,constant,homogeneous,3,absent,0.737668991088867,1,horizontal,horizontal,1,1.03528649542067,green,1,NaN,616.568350913644,777.137884467044,NaN,NaN,616.568350913644,777.137884467044,1045.12173246427,670.287525733335,738.309916622085,352.574589799621,NaN,NaN,NaN,NaN,NaN,NaN,4,0,0,NaN,NaN,NaN,horizontal,vertical,vertical,none,none,none
1d,15,100239,3,48,176,20,M,NA,constant,homogeneous,6,absent,0.960991859436035,1,horizontal,horizontal,1,0.811760997772217,green,1,NaN,878.799333565612,842.519411655264,NaN,NaN,878.799333565612,842.519411655264,1049.42763818712,653.017481158529,970.628304621509,410.498069503264,721.200666434388,357.480588344736,550.57236181288,546.982518841471,629.371695378491,789.501930496736,4,0,0,0,0,0,horizontal,horizontal,vertical,horizontal,vertical,horizontal
1d,15,100239,3,49,177,20,M,NA,constant,homogeneous,4,present,0.628830909729004,1,horizontal,horizontal,1,0.823525497648451,green,4,3,558.892763222174,516.980120613425,883.019879386575,358.892763222174,716.980120613425,841.107236777826,1041.10723677783,683.019879386575,883.019879386575,358.892763222174,558.892763222174,516.980120613425,NaN,NaN,NaN,NaN,0,0,0,4,NaN,NaN,vertical,vertical,horizontal,horizontal,none,none
1d,15,100239,3,50,178,20,M,NA,constant,homogeneous,3,absent,0.971403121948242,1,horizontal,horizontal,1,0.694115999009874,green,1,NaN,712.784863451954,839.621618300407,NaN,NaN,712.784863451954,839.621618300407,1051.12597701811,555.719714694933,636.089159529932,404.658667004661,NaN,NaN,NaN,NaN,NaN,NaN,4,0,0,NaN,NaN,NaN,horizontal,horizontal,horizontal,none,none,none
1d,15,100239,3,51,179,20,M,NA,constant,homogeneous,5,absent,0.696167945861816,1,horizontal,horizontal,1,0.658822499381171,green,4,NaN,725.445215295702,356.142287229426,NaN,NaN,716.980120613425,841.107236777826,1003.65205506206,753.462830903772,1008.88377129369,453.738008730483,725.445215295702,356.142287229426,545.03883773512,595.549636358493,NaN,NaN,0,0,0,4,0,NaN,horizontal,horizontal,horizontal,horizontal,horizontal,none
1d,15,100239,3,52,180,20,M,NA,constant,homogeneous,3,present,0.622764825820923,1,horizontal,horizontal,1,1.02352199554443,green,3,2,746.982518841471,350.57236181288,1042.51941165526,678.799333565612,610.498069503264,770.628304621509,1042.51941165526,678.799333565612,746.982518841471,350.57236181288,NaN,NaN,NaN,NaN,NaN,NaN,0,0,4,NaN,NaN,NaN,vertical,horizontal,horizontal,none,none,none
1d,15,100239,3,53,181,20,M,NA,constant,homogeneous,4,present,0.439713001251221,1,horizontal,horizontal,1,0.811760997772217,green,3,1,708.616172865948,361.936991243214,891.383827134052,838.063008756786,891.383827134052,838.063008756786,1038.06300875679,508.616172865948,708.616172865948,361.936991243214,561.936991243214,691.383827134052,NaN,NaN,NaN,NaN,0,0,4,0,NaN,NaN,vertical,horizontal,horizontal,vertical,none,none
1d,15,100239,3,54,182,20,M,NA,constant,homogeneous,6,absent,1.84670901298523,1,vertical,vertical,1,0.705880498886108,green,3,NaN,1041.10723677783,516.980120613425,NaN,NaN,751.343706178981,850.314931779154,992.450942956807,767.295052392579,1041.10723677783,516.980120613425,848.656293821019,349.685068220846,607.549057043193,432.704947607421,558.892763222174,683.019879386575,0,0,4,0,0,0,horizontal,horizontal,vertical,vertical,horizontal,vertical
1d,15,100239,3,55,183,20,M,NA,constant,homogeneous,5,present,0.483582019805908,1,vertical,vertical,1,0.976463996039497,green,3,2,1008.88377129369,453.738008730483,1003.65205506206,753.462830903772,716.980120613425,841.107236777826,1003.65205506206,753.462830903772,1008.88377129369,453.738008730483,725.445215295702,356.142287229426,545.03883773512,595.549636358493,NaN,NaN,0,0,4,0,0,NaN,vertical,horizontal,vertical,horizontal,vertical,none
1d,15,100239,3,56,184,20,M,NA,constant,homogeneous,5,absent,0.89348292350769,1,vertical,vertical,1,0.6,green,3,NaN,804.450363641507,345.03883773512,NaN,NaN,946.261991269517,808.883771293693,1043.85771277057,525.445215295702,804.450363641507,345.03883773512,558.892763222174,516.980120613425,646.537169096228,803.65205506206,NaN,NaN,0,0,4,0,0,NaN,horizontal,vertical,vertical,vertical,vertical,none
1d,15,100239,3,57,185,20,M,NA,constant,homogeneous,4,absent,0.426789045333862,1,vertical,vertical,1,0.952934996287028,green,3,NaN,831.076682568313,346.900731331463,NaN,NaN,768.923317431687,853.099268668537,1053.09926866854,631.076682568313,831.076682568313,346.900731331463,546.900731331463,568.923317431687,NaN,NaN,NaN,NaN,0,0,4,0,NaN,NaN,horizontal,horizontal,vertical,horizontal,none,none
1d,15,100239,3,58,186,20,M,NA,constant,homogeneous,4,absent,1.1661229133606,1,vertical,vertical,1,0.729409498638577,green,4,NaN,545.155339110131,591.100628340862,NaN,NaN,791.100628340862,854.844660889869,1054.84466088987,608.899371659138,808.899371659138,345.155339110131,545.155339110131,591.100628340862,NaN,NaN,NaN,NaN,0,0,0,4,NaN,NaN,horizontal,horizontal,horizontal,vertical,none,none
1d,15,100239,3,59,187,20,M,NA,constant,homogeneous,4,present,0.975592851638794,1,vertical,vertical,1,0.694115999009874,green,1,4,960.476699717708,798.172220171528,601.827779828472,760.476699717708,960.476699717708,798.172220171528,998.172220171528,439.523300282291,639.523300282292,401.827779828472,601.827779828472,760.476699717708,NaN,NaN,NaN,NaN,4,0,0,0,NaN,NaN,vertical,vertical,vertical,horizontal,none,none
1d,15,100239,3,60,188,20,M,NA,constant,homogeneous,5,present,1.30157995223999,1,horizontal,horizontal,1,0.917641496658325,green,4,5,588.595418998464,457.40580961496,599.057257830286,756.993676208043,887.215136548046,839.621618300407,1054.84466088987,591.100628340862,870.287525733335,354.878267535729,588.595418998464,457.40580961496,599.057257830286,756.993676208043,NaN,NaN,0,0,0,4,0,NaN,horizontal,vertical,horizontal,horizontal,horizontal,none
1d,15,100239,3,61,189,20,M,NA,constant,homogeneous,6,absent,1.26253986358643,1,horizontal,horizontal,1,0.741173998514811,green,3,NaN,1029.19248180629,488.215357568785,NaN,NaN,782.212099195248,854.378832816255,1011.40458100154,742.594190385041,1029.19248180629,488.215357568785,817.787900804752,345.621167183745,588.595418998464,457.40580961496,570.807518193712,711.784642431215,0,0,4,0,0,0,horizontal,vertical,horizontal,vertical,horizontal,vertical
1d,15,100239,3,62,190,20,M,NA,constant,homogeneous,3,present,0.786357879638672,1,horizontal,horizontal,1,0.717644998762343,green,3,2,643.006323791957,399.057257830286,1052.5183575291,564.510859255183,704.475318678942,836.431882914531,1052.5183575291,564.510859255183,643.006323791957,399.057257830286,NaN,NaN,NaN,NaN,NaN,NaN,0,0,4,NaN,NaN,NaN,vertical,vertical,horizontal,none,none,none
1d,15,100239,3,63,191,20,M,NA,constant,homogeneous,3,absent,0.807055950164795,1,horizontal,horizontal,1,0.84705449740092,green,3,NaN,579.163522034968,472.5,NaN,NaN,800,855,1020.83647796503,472.5,579.163522034968,472.5,NaN,NaN,NaN,NaN,NaN,NaN,0,0,4,NaN,NaN,NaN,vertical,vertical,horizontal,none,none,none
1d,15,100239,3,64,192,20,M,NA,constant,homogeneous,3,absent,0.818420171737671,1,vertical,vertical,1,0.952934996287028,green,1,NaN,1008.88377129369,746.261991269517,NaN,NaN,1008.88377129369,746.261991269517,822.224714400653,345.970351986605,568.891514305654,707.767656743878,NaN,NaN,NaN,NaN,NaN,NaN,4,0,0,NaN,NaN,NaN,vertical,horizontal,horizontal,none,none,none
1d,15,100239,4,1,193,20,M,NA,constant,homogeneous,5,absent,1.15950679779053,1,horizontal,horizontal,1,0.635293499628703,green,5,NaN,601.827779828472,760.476699717708,NaN,NaN,891.383827134052,838.063008756786,1054.65053136242,586.654331158049,865.998856501143,353.688914296288,586.139005173917,461.117046071168,601.827779828472,760.476699717708,NaN,NaN,0,0,0,0,4,NaN,vertical,horizontal,horizontal,vertical,horizontal,none
1d,15,100239,4,2,194,20,M,NA,constant,homogeneous,5,present,0.729161977767944,1,vertical,vertical,1,0.929405996534559,green,3,5,935.129412379467,383.747735480111,563.568117085469,695.524681321058,817.787900804752,854.378832816255,1047.42541020038,661.690083377915,935.129412379467,383.747735480111,636.089159529932,404.658667004661,563.568117085469,695.524681321058,NaN,NaN,0,0,4,0,0,NaN,vertical,vertical,vertical,vertical,horizontal,none
1d,15,100239,4,3,195,20,M,NA,constant,homogeneous,5,present,0.676934003829956,1,horizontal,horizontal,1,0.647057999504937,green,1,4,813.345668841951,854.650531362416,639.523300282292,401.827779828472,813.345668841951,854.650531362416,1046.31108570371,665.998856501143,938.882953928832,386.139005173917,639.523300282292,401.827779828472,561.936991243214,691.383827134052,NaN,NaN,4,0,0,0,0,NaN,horizontal,vertical,vertical,horizontal,horizontal,none
1d,15,100239,4,4,196,20,M,NA,constant,homogeneous,5,absent,0.883129835128784,1,vertical,vertical,1,0.623528999752469,green,2,NaN,1029.19248180629,711.784642431215,NaN,NaN,764.510859255183,852.518357529101,1029.19248180629,711.784642431215,977.137884467044,416.568350913644,680.284751489598,374.848363820974,548.874022981887,644.280285305067,NaN,NaN,0,4,0,0,0,NaN,horizontal,vertical,vertical,vertical,horizontal,none
1d,15,100239,4,5,197,20,M,NA,constant,homogeneous,4,present,0.639873027801514,1,horizontal,horizontal,1,0.941170496410794,green,3,2,973.909581815937,413.504806087112,986.495193912888,773.909581815937,626.090418184063,786.495193912888,986.495193912888,773.909581815937,973.909581815937,413.504806087112,613.504806087112,426.090418184063,NaN,NaN,NaN,NaN,0,0,4,0,NaN,NaN,horizontal,horizontal,horizontal,vertical,none,none
1d,15,100239,4,6,198,20,M,NA,constant,homogeneous,3,absent,0.581057786941528,1,vertical,vertical,1,0.611764499876234,green,1,NaN,639.523300282292,798.172220171528,NaN,NaN,639.523300282292,798.172220171528,1051.86052685176,639.890788585259,708.616172865948,361.936991243214,NaN,NaN,NaN,NaN,NaN,NaN,4,0,0,NaN,NaN,NaN,vertical,horizontal,vertical,none,none,none
1d,15,100239,4,7,199,20,M,NA,constant,homogeneous,5,present,0.771672010421753,1,vertical,vertical,1,0.741173998514811,green,2,5,1048.46436652023,542.637481142314,632.704947607421,792.450942956807,931.334709102064,818.577661679039,1048.46436652023,542.637481142314,822.224714400653,345.970351986605,565.271262369628,500.363562235235,632.704947607421,792.450942956807,NaN,NaN,0,4,0,0,0,NaN,vertical,vertical,vertical,vertical,horizontal,none
1d,15,100239,4,8,200,20,M,NA,constant,homogeneous,5,absent,0.832051992416382,1,horizontal,horizontal,1,0.635293499628703,green,2,NaN,1054.84466088987,608.899371659138,NaN,NaN,870.287525733335,845.121732464271,1054.84466088987,608.899371659138,887.215136548046,360.378381699593,599.057257830286,443.006323791957,588.595418998464,742.594190385041,NaN,NaN,0,4,0,0,0,NaN,vertical,horizontal,horizontal,vertical,vertical,none
1d,15,100239,4,9,201,20,M,NA,constant,homogeneous,3,present,0.65395188331604,1,vertical,vertical,1,1.07057999504937,green,3,1,576.971974679454,476.373546837184,804.450363641507,854.96116226488,804.450363641507,854.96116226488,1018.57766167904,468.665290897936,576.971974679454,476.373546837184,NaN,NaN,NaN,NaN,NaN,NaN,0,0,4,NaN,NaN,NaN,horizontal,vertical,vertical,none,none,none
1d,15,100239,4,10,202,20,M,NA,constant,homogeneous,6,present,0.676610946655273,1,vertical,vertical,1,0.670586999257406,green,2,1,1054.0296480134,622.224714400653,907.767656743878,831.108485694346,907.767656743878,831.108485694346,1054.0296480134,622.224714400653,946.261991269517,391.116228706307,692.232343256122,368.891514305654,545.970351986605,577.775285599347,653.738008730483,808.883771293693,0,4,0,0,0,0,vertical,vertical,horizontal,vertical,horizontal,horizontal
1d,15,100239,4,11,203,20,M,NA,constant,homogeneous,6,absent,0.751477003097534,1,horizontal,horizontal,1,0.858818997277154,green,6,NaN,672.5,820.836477965032,NaN,NaN,927.5,820.836477965032,1055,600,927.5,379.163522034968,672.5,379.163522034968,545,600,672.5,820.836477965032,0,0,0,0,0,4,vertical,horizontal,horizontal,horizontal,horizontal,horizontal
1d,15,100239,4,12,204,20,M,NA,constant,homogeneous,6,present,0.591387987136841,0,vertical,horizontal,1,0.84705449740092,green,5,1,548.13947314824,560.109211414741,891.383827134052,838.063008756786,891.383827134052,838.063008756786,1051.86052685176,639.890788585259,960.476699717708,401.827779828472,708.616172865948,361.936991243214,548.13947314824,560.109211414741,639.523300282292,798.172220171528,0,0,0,0,4,0,horizontal,horizontal,horizontal,vertical,vertical,horizontal
1d,15,100239,4,13,205,20,M,NA,constant,homogeneous,6,absent,1.23481106758118,1,horizontal,horizontal,1,0.964699496163262,green,3,NaN,1003.65205506206,446.537169096228,NaN,NaN,831.076682568313,853.099268668537,1034.72873763037,699.636437764765,1003.65205506206,446.537169096228,768.923317431687,346.900731331463,565.271262369628,500.363562235235,596.34794493794,753.462830903772,0,0,4,0,0,0,horizontal,vertical,horizontal,horizontal,horizontal,vertical
1d,15,100239,4,14,206,20,M,NA,constant,homogeneous,4,absent,0.682735919952393,0,horizontal,vertical,1,0.729409498638577,green,1,NaN,967.295052392579,792.450942956807,NaN,NaN,967.295052392579,792.450942956807,992.450942956807,432.704947607421,632.704947607421,407.549057043193,607.549057043193,767.295052392579,NaN,NaN,NaN,NaN,4,0,0,0,NaN,NaN,horizontal,horizontal,horizontal,horizontal,none,none
1d,15,100239,4,15,207,20,M,NA,constant,homogeneous,6,absent,0.93330192565918,1,horizontal,horizontal,1,0.84705449740092,green,6,NaN,664.870587620533,816.252264519889,NaN,NaN,919.715248510402,825.151636179026,1054.84466088987,608.899371659138,935.129412379467,383.747735480111,680.284751489598,374.848363820974,545.155339110131,591.100628340862,664.870587620533,816.252264519889,0,0,0,0,0,4,vertical,horizontal,vertical,vertical,vertical,horizontal
1d,15,100239,4,16,208,20,M,NA,constant,homogeneous,5,absent,0.874053955078125,1,horizontal,horizontal,1,1.09410899480184,green,5,NaN,613.504806087112,773.909581815937,NaN,NaN,907.767656743878,831.108485694346,1053.09926866854,568.923317431687,848.656293821019,349.685068220846,576.971974679454,476.373546837184,613.504806087112,773.909581815937,NaN,NaN,0,0,0,0,4,NaN,vertical,vertical,horizontal,vertical,horizontal,none
1d,15,100239,4,17,209,20,M,NA,constant,homogeneous,4,absent,1.52722787857056,1,horizontal,horizontal,1,0.976463996039497,green,2,NaN,1011.40458100154,742.594190385041,NaN,NaN,657.405809614959,811.404581001536,1011.40458100154,742.594190385041,942.594190385041,388.595418998464,588.595418998464,457.40580961496,NaN,NaN,NaN,NaN,0,4,0,0,NaN,NaN,vertical,horizontal,vertical,horizontal,none,none
1d,15,100239,4,18,210,20,M,NA,constant,homogeneous,6,absent,0.92626690864563,1,vertical,vertical,1,0.623528999752469,green,5,NaN,548.13947314824,560.109211414741,NaN,NaN,891.383827134052,838.063008756786,1051.86052685176,639.890788585259,960.476699717708,401.827779828472,708.616172865948,361.936991243214,548.13947314824,560.109211414741,639.523300282292,798.172220171528,0,0,0,0,4,0,horizontal,horizontal,vertical,horizontal,vertical,horizontal
1d,15,100239,4,19,211,20,M,NA,constant,homogeneous,4,present,0.650683879852295,1,vertical,vertical,1,0.882347997029622,green,3,1,946.261991269517,391.116228706307,653.738008730483,808.883771293693,653.738008730483,808.883771293693,1008.88377129369,746.261991269517,946.261991269517,391.116228706307,591.116228706307,453.738008730483,NaN,NaN,NaN,NaN,0,0,4,0,NaN,NaN,horizontal,horizontal,vertical,vertical,none,none
1d,15,100239,4,20,212,20,M,NA,constant,homogeneous,3,absent,0.699006080627441,1,vertical,vertical,1,0.76470299826728,green,2,NaN,1041.10723677783,683.019879386575,NaN,NaN,607.549057043193,767.295052392579,1041.10723677783,683.019879386575,751.343706178981,349.685068220846,NaN,NaN,NaN,NaN,NaN,NaN,0,4,0,NaN,NaN,NaN,horizontal,vertical,horizontal,none,none,none
1d,15,100239,4,21,213,20,M,NA,constant,homogeneous,6,absent,0.799376010894775,1,vertical,vertical,1,0.905876996782091,green,6,NaN,545,600,NaN,NaN,672.5,820.836477965032,927.5,820.836477965032,1055,600,927.5,379.163522034968,672.5,379.163522034968,545,600,0,0,0,0,0,4,horizontal,vertical,horizontal,vertical,vertical,vertical
1d,15,100239,4,22,214,20,M,NA,constant,homogeneous,6,absent,0.661435127258301,1,vertical,vertical,1,0.694115999009874,green,1,NaN,919.715248510402,825.151636179026,NaN,NaN,919.715248510402,825.151636179026,1054.84466088987,608.899371659138,935.129412379467,383.747735480111,680.284751489598,374.848363820974,545.155339110131,591.100628340862,664.870587620533,816.252264519889,4,0,0,0,0,0,vertical,vertical,vertical,horizontal,horizontal,horizontal
1d,15,100239,4,23,215,20,M,NA,constant,homogeneous,5,present,0.69257378578186,1,vertical,vertical,1,0.68235149913364,green,2,3,953.462830903772,803.65205506206,1041.10723677783,516.980120613425,653.738008730483,808.883771293693,953.462830903772,803.65205506206,1041.10723677783,516.980120613425,795.549636358493,345.03883773512,556.142287229426,525.445215295702,NaN,NaN,0,4,0,0,0,NaN,horizontal,vertical,horizontal,vertical,vertical,none
1d,15,100239,4,24,216,20,M,NA,constant,homogeneous,5,absent,0.92273998260498,1,vertical,vertical,1,0.811760997772217,green,5,NaN,546.39691668109,573.345241866748,NaN,NaN,696.282156015671,832.954091698863,989.501930496736,770.628304621509,1020.83647796503,472.5,746.982518841471,350.57236181288,546.39691668109,573.345241866748,NaN,NaN,0,0,0,0,4,NaN,vertical,horizontal,horizontal,vertical,vertical,none
1d,15,100239,4,25,217,20,M,NA,constant,homogeneous,6,present,1.16607809066772,1,horizontal,horizontal,1,0.635293499628703,green,2,5,942.594190385041,811.404581001536,657.405809614959,388.595418998464,688.215357568785,829.192481806288,942.594190385041,811.404581001536,1054.37883281626,582.212099195248,911.784642431215,370.807518193712,657.405809614959,388.595418998464,545.621167183745,617.787900804752,0,4,0,0,0,0,horizontal,horizontal,horizontal,vertical,horizontal,vertical
1d,15,100239,4,26,218,20,M,NA,constant,homogeneous,6,present,1.07632493972778,1,vertical,vertical,1,0.929405996534559,green,3,2,1048.46436652023,542.637481142314,973.909581815937,786.495193912888,725.445215295702,843.857712770574,973.909581815937,786.495193912888,1048.46436652023,542.637481142314,874.554784704298,356.142287229426,626.090418184063,413.504806087112,551.535633479765,657.362518857686,0,0,4,0,0,0,horizontal,vertical,vertical,horizontal,vertical,vertical
1d,15,100239,4,27,219,20,M,NA,constant,homogeneous,6,present,1.24992394447327,1,horizontal,horizontal,1,0.999992995791965,green,3,1,946.261991269517,391.116228706307,907.767656743878,831.108485694346,907.767656743878,831.108485694346,1054.0296480134,622.224714400653,946.261991269517,391.116228706307,692.232343256122,368.891514305654,545.970351986605,577.775285599347,653.738008730483,808.883771293693,0,0,4,0,0,0,horizontal,horizontal,horizontal,vertical,vertical,vertical
1d,15,100239,4,28,220,20,M,NA,constant,homogeneous,4,present,0.704571008682251,1,horizontal,horizontal,1,0.870583497153388,green,3,2,977.137884467044,416.568350913644,983.431649086356,777.137884467044,622.862115532956,783.431649086356,983.431649086356,777.137884467044,977.137884467044,416.568350913644,616.568350913644,422.862115532956,NaN,NaN,NaN,NaN,0,0,4,0,NaN,NaN,vertical,vertical,horizontal,horizontal,none,none
1d,15,100239,4,29,221,20,M,NA,constant,homogeneous,4,absent,0.910665035247803,1,vertical,vertical,1,0.988228495915731,green,3,NaN,639.523300282292,401.827779828472,NaN,NaN,960.476699717708,798.172220171528,998.172220171528,439.523300282291,639.523300282292,401.827779828472,601.827779828472,760.476699717708,NaN,NaN,NaN,NaN,0,0,4,0,NaN,NaN,vertical,vertical,vertical,vertical,none,none
1d,15,100239,4,30,222,20,M,NA,constant,homogeneous,5,present,0.757603883743286,1,vertical,vertical,1,0.635293499628703,green,3,2,1034.72873763037,500.363562235235,967.295052392579,792.450942956807,668.665290897936,818.577661679039,967.295052392579,792.450942956807,1034.72873763037,500.363562235235,777.775285599347,345.970351986605,551.535633479765,542.637481142314,NaN,NaN,0,0,4,0,0,NaN,vertical,vertical,vertical,horizontal,vertical,none
1d,15,100239,4,31,223,20,M,NA,constant,homogeneous,4,absent,0.560543060302734,1,vertical,vertical,1,0.976463996039497,green,2,NaN,1053.60308331891,626.654758133252,NaN,NaN,773.345241866748,853.60308331891,1053.60308331891,626.654758133252,826.654758133252,346.39691668109,546.39691668109,573.345241866748,NaN,NaN,NaN,NaN,0,4,0,0,NaN,NaN,vertical,vertical,vertical,vertical,none,none
1d,15,100239,4,32,224,20,M,NA,constant,homogeneous,6,present,0.880074024200439,1,horizontal,horizontal,1,0.611764499876234,green,3,6,970.628304621509,410.498069503264,629.371695378491,789.501930496736,878.799333565612,842.519411655264,1049.42763818712,653.017481158529,970.628304621509,410.498069503264,721.200666434388,357.480588344736,550.57236181288,546.982518841471,629.371695378491,789.501930496736,0,0,4,0,0,0,horizontal,horizontal,horizontal,vertical,horizontal,horizontal
1d,15,100239,4,33,225,20,M,NA,constant,homogeneous,3,present,0.974370956420898,1,horizontal,horizontal,1,1.02352199554443,green,1,2,878.799333565612,842.519411655264,970.628304621509,410.498069503264,878.799333565612,842.519411655264,970.628304621509,410.498069503264,550.57236181288,546.982518841471,NaN,NaN,NaN,NaN,NaN,NaN,4,0,0,NaN,NaN,NaN,horizontal,vertical,horizontal,none,none,none
1d,15,100239,4,34,226,20,M,NA,constant,homogeneous,6,present,0.662395000457764,1,horizontal,horizontal,1,0.823525497648451,green,5,1,552.574589799621,538.309916622085,870.287525733335,845.121732464271,870.287525733335,845.121732464271,1047.42541020038,661.690083377915,977.137884467044,416.568350913644,729.712474266665,354.878267535729,552.574589799621,538.309916622085,622.862115532956,783.431649086356,0,0,0,0,4,0,horizontal,horizontal,vertical,horizontal,horizontal,vertical
1d,15,100239,4,35,227,20,M,NA,constant,homogeneous,3,present,0.675766944885254,1,horizontal,horizontal,1,0.788231998019748,green,2,3,1034.72873763037,699.636437764765,768.923317431687,346.900731331463,596.34794493794,753.462830903772,1034.72873763037,699.636437764765,768.923317431687,346.900731331463,NaN,NaN,NaN,NaN,NaN,NaN,0,4,0,NaN,NaN,NaN,horizontal,horizontal,horizontal,none,none,none
1d,15,100239,4,36,228,20,M,NA,constant,homogeneous,6,present,1.08066010475159,1,vertical,vertical,1,0.976463996039497,green,3,2,1046.31108570371,534.001143498857,980.31222920257,780.31222920257,734.001143498857,846.311085703712,980.31222920257,780.31222920257,1046.31108570371,534.001143498857,865.998856501143,353.688914296288,619.68777079743,419.68777079743,553.688914296288,665.998856501143,0,0,4,0,0,0,horizontal,horizontal,vertical,vertical,horizontal,horizontal
1d,15,100239,4,37,229,20,M,NA,constant,homogeneous,3,present,0.702844858169556,1,horizontal,horizontal,1,0.823525497648451,green,1,3,995.341332995339,763.910840470068,560.378381699593,687.215136548046,995.341332995339,763.910840470068,844.280285305067,348.874022981887,560.378381699593,687.215136548046,NaN,NaN,NaN,NaN,NaN,NaN,4,0,0,NaN,NaN,NaN,horizontal,horizontal,vertical,none,none,none
1d,15,100239,4,38,230,20,M,NA,constant,homogeneous,4,absent,1.12916111946106,1,horizontal,horizontal,1,0.788231998019748,green,1,NaN,643.006323791957,800.942742169714,NaN,NaN,643.006323791957,800.942742169714,1000.94274216971,756.993676208043,956.993676208043,399.057257830286,599.057257830286,443.006323791957,NaN,NaN,NaN,NaN,4,0,0,0,NaN,NaN,horizontal,vertical,vertical,vertical,none,none
1d,15,100239,4,39,231,20,M,NA,constant,homogeneous,4,absent,0.770717144012451,1,horizontal,horizontal,1,0.952934996287028,green,2,NaN,1043.85771277057,674.554784704298,NaN,NaN,725.445215295702,843.857712770574,1043.85771277057,674.554784704298,874.554784704298,356.142287229426,556.142287229426,525.445215295702,NaN,NaN,NaN,NaN,0,4,0,0,NaN,NaN,horizontal,horizontal,horizontal,horizontal,none,none
1d,15,100239,4,40,232,20,M,NA,constant,homogeneous,5,absent,1.73036980628967,1,vertical,vertical,1,0.999992995791965,green,4,NaN,653.738008730483,391.116228706307,NaN,NaN,795.549636358493,854.96116226488,1041.10723677783,683.019879386575,953.462830903772,396.34794493794,653.738008730483,391.116228706307,556.142287229426,674.554784704298,NaN,NaN,0,0,0,4,0,NaN,horizontal,vertical,horizontal,vertical,vertical,none
1d,15,100239,4,41,233,20,M,NA,constant,homogeneous,4,present,0.797600030899048,1,horizontal,horizontal,1,1.02352199554443,green,4,2,545.349468637584,586.654331158049,1054.65053136242,613.345668841951,786.654331158049,854.650531362416,1054.65053136242,613.345668841951,813.345668841951,345.349468637584,545.349468637584,586.654331158049,NaN,NaN,NaN,NaN,0,0,0,4,NaN,NaN,horizontal,horizontal,horizontal,horizontal,none,none
1d,15,100239,4,42,234,20,M,NA,constant,homogeneous,6,absent,1.32334804534912,1,horizontal,horizontal,1,1.0823444949256,green,5,NaN,672.5,379.163522034968,NaN,NaN,672.5,820.836477965032,927.5,820.836477965032,1055,600,927.5,379.163522034968,672.5,379.163522034968,545,600,0,0,0,0,4,0,horizontal,vertical,vertical,vertical,horizontal,horizontal
1d,15,100239,4,43,235,20,M,NA,constant,homogeneous,3,absent,0.669301986694336,1,vertical,vertical,1,0.76470299826728,green,1,NaN,786.654331158049,854.650531362416,NaN,NaN,786.654331158049,854.650531362416,1027.20666366803,484.232422566416,586.139005173917,461.117046071168,NaN,NaN,NaN,NaN,NaN,NaN,4,0,0,NaN,NaN,NaN,vertical,horizontal,vertical,none,none,none
1d,15,100239,4,44,236,20,M,NA,constant,homogeneous,3,present,0.621747016906738,1,vertical,vertical,1,0.741173998514811,green,1,3,800,855,579.163522034968,472.5,800,855,1020.83647796503,472.5,579.163522034968,472.5,NaN,NaN,NaN,NaN,NaN,NaN,4,0,0,NaN,NaN,NaN,vertical,vertical,vertical,none,none,none
1d,15,100239,4,45,237,20,M,NA,constant,homogeneous,5,absent,0.930000066757202,1,vertical,vertical,1,1.0117574956682,green,2,NaN,1051.86052685176,639.890788585259,NaN,NaN,839.890788585259,851.86052685176,1051.86052685176,639.890788585259,915.767577433584,372.793336331966,619.68777079743,419.68777079743,572.793336331966,715.767577433584,NaN,NaN,0,4,0,0,0,NaN,vertical,vertical,vertical,horizontal,horizontal,none
1d,15,100239,4,46,238,20,M,NA,constant,homogeneous,5,absent,1.15916395187378,1,horizontal,horizontal,1,0.894112496905857,green,2,NaN,949.885239334581,806.299333565612,NaN,NaN,650.114760665419,806.299333565612,949.885239334581,806.299333565612,1042.51941165526,521.200666434388,800,345,557.480588344736,521.200666434388,NaN,NaN,0,4,0,0,0,NaN,horizontal,horizontal,horizontal,vertical,horizontal,none
1d,15,100239,4,47,239,20,M,NA,constant,homogeneous,4,absent,0.899868965148926,1,vertical,vertical,1,1.07057999504937,green,2,NaN,992.450942956807,767.295052392579,NaN,NaN,632.704947607421,792.450942956807,992.450942956807,767.295052392579,967.295052392579,407.549057043193,607.549057043193,432.704947607421,NaN,NaN,NaN,NaN,0,4,0,0,NaN,NaN,vertical,vertical,vertical,vertical,none,none
1d,15,100239,4,48,240,20,M,NA,constant,homogeneous,3,absent,0.871850967407227,1,horizontal,horizontal,1,0.882347997029622,green,2,NaN,1023.02802532055,723.626453162816,NaN,NaN,581.422338320961,731.334709102064,1023.02802532055,723.626453162816,795.549636358493,345.03883773512,NaN,NaN,NaN,NaN,NaN,NaN,0,4,0,NaN,NaN,NaN,vertical,horizontal,horizontal,none,none,none
1d,15,100239,4,49,241,20,M,NA,constant,homogeneous,3,absent,0.972990989685059,1,horizontal,horizontal,1,0.776467498143514,green,2,NaN,1008.88377129369,453.738008730483,NaN,NaN,822.224714400653,854.029648013395,1008.88377129369,453.738008730483,568.891514305654,492.232343256122,NaN,NaN,NaN,NaN,NaN,NaN,0,4,0,NaN,NaN,NaN,vertical,horizontal,horizontal,none,none,none
