experiment,subject,uniqueID,block,trial,trial_cumulative,age,gender,color_cond_blocking,color_history,shape_type,set_size,distractor,rt,acc,target_orient,response_key,response_made,iti,target_color,target_item,distractor_item,target_X,target_Y,distractor_X,distractor_Y,item1_X,item1_Y,item2_X,item2_Y,item3_X,item3_Y,item4_X,item4_Y,item5_X,item5_Y,item6_X,item6_Y,item1_shape,item2_shape,item3_shape,item4_shape,item5_shape,item6_shape,item1_line,item2_line,item3_line,item4_line,item5_line,item6_line
1d,16,100238,1,1,1,21,F,NA,constant,homogeneous,4,present,1.17812895774841,1,vertical,vertical,1,0.999991626739502,red,3,2,878.799333565612,357.480588344736,1042.51941165526,678.799333565612,721.200666434388,842.519411655264,1042.51941165526,678.799333565612,878.799333565612,357.480588344736,557.480588344736,521.200666434388,NaN,NaN,NaN,NaN,0,0,4,0,NaN,NaN,vertical,vertical,vertical,vertical,none,none
1d,16,100238,1,2,2,21,F,NA,constant,homogeneous,6,absent,NaN,0,vertical,none,0,0.670586757659912,red,3,NaN,1053.09926866854,568.923317431687,NaN,NaN,700.363562235235,834.728737630372,953.462830903772,803.65205506206,1053.09926866854,568.923317431687,899.636437764765,365.271262369628,646.537169096228,396.34794493794,546.900731331463,631.076682568313,0,0,4,0,0,0,horizontal,horizontal,vertical,vertical,horizontal,horizontal
1d,16,100238,1,3,3,21,F,NA,constant,homogeneous,5,present,1.85726809501648,1,vertical,vertical,1,0.905875949859619,red,1,2,891.383827134052,838.063008756786,1054.65053136242,586.654331158049,891.383827134052,838.063008756786,1054.65053136242,586.654331158049,865.998856501143,353.688914296288,586.139005173917,461.117046071168,601.827779828472,760.476699717708,NaN,NaN,4,0,0,0,0,NaN,vertical,vertical,horizontal,horizontal,horizontal,none
1d,16,100238,1,4,4,21,F,NA,constant,homogeneous,5,absent,1.70775699615479,1,horizontal,horizontal,1,0.647057838439941,red,3,NaN,1032.95409169886,496.282156015671,NaN,NaN,672.5,820.836477965032,970.628304621509,789.501930496736,1032.95409169886,496.282156015671,773.345241866748,346.39691668109,550.57236181288,546.982518841471,NaN,NaN,0,0,4,0,0,NaN,horizontal,horizontal,horizontal,horizontal,vertical,none
1d,16,100238,1,5,5,21,F,NA,constant,homogeneous,3,present,0.80121898651123,1,horizontal,horizontal,1,0.964698247909546,red,1,3,742.637481142314,848.464366520235,613.504806087112,426.090418184063,742.637481142314,848.464366520235,1043.85771277057,525.445215295702,613.504806087112,426.090418184063,NaN,NaN,NaN,NaN,NaN,NaN,4,0,0,NaN,NaN,NaN,horizontal,vertical,horizontal,none,none,none
1d,16,100238,1,6,6,21,F,NA,constant,homogeneous,5,absent,1.20777988433838,1,vertical,vertical,1,0.717644596099854,red,3,NaN,1027.20666366803,484.232422566416,NaN,NaN,684.232422566416,827.206663668034,980.31222920257,780.31222920257,1027.20666366803,484.232422566416,760.109211414741,348.13947314824,548.13947314824,560.109211414741,NaN,NaN,0,0,4,0,0,NaN,vertical,horizontal,vertical,vertical,horizontal,none
1d,16,100238,1,7,7,21,F,NA,constant,homogeneous,3,absent,1.20891690254211,1,vertical,vertical,1,0.835289192199707,red,3,NaN,613.504806087112,426.090418184063,NaN,NaN,742.637481142314,848.464366520235,1043.85771277057,525.445215295702,613.504806087112,426.090418184063,NaN,NaN,NaN,NaN,NaN,NaN,0,0,4,NaN,NaN,NaN,vertical,vertical,vertical,none,none,none
1d,16,100238,1,8,8,21,F,NA,constant,homogeneous,5,absent,1.02260899543762,1,horizontal,horizontal,1,1.07057838439941,red,5,NaN,610.498069503264,770.628304621509,NaN,NaN,903.717843984329,832.954091698863,1053.60308331891,573.345241866748,853.017481158529,350.57236181288,579.163522034968,472.5,610.498069503264,770.628304621509,NaN,NaN,0,0,0,0,4,NaN,horizontal,vertical,vertical,horizontal,horizontal,none
1d,16,100238,1,9,9,21,F,NA,constant,homogeneous,6,present,1.142657995224,1,vertical,vertical,1,0.764702434539795,red,6,1,593.700666434388,749.885239334581,826.654758133252,853.60308331891,826.654758133252,853.60308331891,1032.95409169886,703.717843984329,1006.29933356561,450.114760665419,773.345241866748,346.39691668109,567.045908301137,496.282156015671,593.700666434388,749.885239334581,0,0,0,0,0,4,horizontal,vertical,horizontal,horizontal,horizontal,vertical
1d,16,100238,1,10,10,21,F,NA,constant,homogeneous,5,absent,0.76199197769165,1,vertical,vertical,1,0.811760272979736,red,1,NaN,700.363562235235,834.728737630372,NaN,NaN,700.363562235235,834.728737630372,992.450942956807,767.295052392579,1018.57766167904,468.665290897936,742.637481142314,351.535633479765,545.970351986605,577.775285599347,NaN,NaN,4,0,0,0,0,NaN,vertical,vertical,vertical,vertical,vertical,none
1d,16,100238,1,11,11,21,F,NA,constant,homogeneous,4,absent,0.83489990234375,1,horizontal,horizontal,1,0.682351217269897,red,3,NaN,927.5,379.163522034968,NaN,NaN,672.5,820.836477965032,1020.83647796503,727.5,927.5,379.163522034968,579.163522034968,472.5,NaN,NaN,NaN,NaN,0,0,4,0,NaN,NaN,horizontal,horizontal,horizontal,vertical,none,none
1d,16,100238,1,12,12,21,F,NA,constant,homogeneous,4,present,1.264652967453,1,vertical,vertical,1,0.835289192199707,red,3,1,760.109211414741,348.13947314824,839.890788585259,851.86052685176,839.890788585259,851.86052685176,1051.86052685176,560.109211414741,760.109211414741,348.13947314824,548.13947314824,639.890788585259,NaN,NaN,NaN,NaN,0,0,4,0,NaN,NaN,horizontal,horizontal,vertical,horizontal,none,none
1d,16,100238,1,13,13,21,F,NA,constant,homogeneous,4,absent,1.80282092094421,1,vertical,vertical,1,1.02352054595947,red,2,NaN,1055,600,NaN,NaN,800,855,1055,600,800,345,545,600,NaN,NaN,NaN,NaN,0,4,0,0,NaN,NaN,horizontal,vertical,horizontal,horizontal,none,none
1d,16,100238,1,14,14,21,F,NA,constant,homogeneous,4,present,1.85599207878113,1,horizontal,horizontal,1,1.04704946517944,red,3,4,835.489140744817,347.4816424709,547.481642470899,564.510859255183,764.510859255183,852.518357529101,1052.5183575291,635.489140744817,835.489140744817,347.4816424709,547.481642470899,564.510859255183,NaN,NaN,NaN,NaN,0,0,4,0,NaN,NaN,vertical,horizontal,horizontal,vertical,none,none
1d,16,100238,1,15,15,21,F,NA,constant,homogeneous,6,present,0.831418991088867,1,horizontal,horizontal,1,0.717644596099854,red,3,1,1054.65053136242,586.654331158049,684.232422566416,827.206663668034,684.232422566416,827.206663668034,938.882953928832,813.860994826083,1054.65053136242,586.654331158049,915.767577433584,372.793336331966,661.117046071168,386.139005173917,545.349468637584,613.345668841951,0,0,4,0,0,0,horizontal,vertical,horizontal,vertical,horizontal,vertical
1d,16,100238,1,16,16,21,F,NA,constant,homogeneous,5,present,0.954509019851685,1,horizontal,horizontal,1,0.705880136489868,red,1,2,795.549636358493,854.96116226488,1041.10723677783,683.019879386575,795.549636358493,854.96116226488,1041.10723677783,683.019879386575,953.462830903772,396.34794493794,653.738008730483,391.116228706307,556.142287229426,674.554784704298,NaN,NaN,4,0,0,0,0,NaN,horizontal,vertical,horizontal,vertical,horizontal,none
1d,16,100238,1,17,17,21,F,NA,constant,homogeneous,5,absent,0.838314056396484,1,vertical,vertical,1,0.623528919219971,red,2,NaN,986.495193912888,773.909581815937,NaN,NaN,692.232343256122,831.108485694346,986.495193912888,773.909581815937,1023.02802532055,476.373546837184,751.343706178981,349.685068220846,546.900731331463,568.923317431687,NaN,NaN,0,4,0,0,0,NaN,horizontal,vertical,horizontal,vertical,horizontal,none
1d,16,100238,1,18,18,21,F,NA,constant,homogeneous,6,absent,0.84473991394043,0,vertical,horizontal,1,1.0823428440094,red,4,NaN,795.549636358493,345.03883773512,NaN,NaN,804.450363641507,854.96116226488,1023.02802532055,723.626453162816,1018.57766167904,468.665290897936,795.549636358493,345.03883773512,576.971974679454,476.373546837184,581.422338320961,731.334709102064,0,0,0,4,0,0,vertical,vertical,vertical,vertical,vertical,horizontal
1d,16,100238,1,19,19,21,F,NA,constant,homogeneous,6,present,1.05771684646606,1,vertical,vertical,1,0.988227167129517,red,1,5,729.712474266665,845.121732464271,622.862115532956,416.568350913644,729.712474266665,845.121732464271,977.137884467044,783.431649086356,1047.42541020038,538.309916622085,870.287525733335,354.878267535729,622.862115532956,416.568350913644,552.574589799621,661.690083377915,4,0,0,0,0,0,vertical,horizontal,horizontal,horizontal,horizontal,vertical
1d,16,100238,1,20,20,21,F,NA,constant,homogeneous,3,absent,1.00528597831726,1,horizontal,horizontal,1,0.917640409469604,red,2,NaN,835.489140744817,347.4816424709,NaN,NaN,1000.94274216971,756.993676208043,835.489140744817,347.4816424709,563.568117085469,695.524681321058,NaN,NaN,NaN,NaN,NaN,NaN,0,4,0,NaN,NaN,NaN,vertical,horizontal,vertical,none,none,none
1d,16,100238,1,21,21,21,F,NA,constant,homogeneous,4,absent,0.913336992263794,1,vertical,vertical,1,0.999991626739502,red,4,NaN,552.574589799621,538.309916622085,NaN,NaN,738.309916622085,847.425410200379,1047.42541020038,661.690083377915,861.690083377915,352.574589799621,552.574589799621,538.309916622085,NaN,NaN,NaN,NaN,0,0,0,4,NaN,NaN,vertical,horizontal,horizontal,vertical,none,none
1d,16,100238,1,22,22,21,F,NA,constant,homogeneous,4,present,0.773778915405273,1,vertical,vertical,1,1.09410730361938,red,2,4,1025.15163617903,719.715248510402,574.848363820974,480.284751489598,680.284751489598,825.151636179026,1025.15163617903,719.715248510402,919.715248510402,374.848363820974,574.848363820974,480.284751489598,NaN,NaN,NaN,NaN,0,4,0,0,NaN,NaN,vertical,vertical,horizontal,vertical,none,none
1d,16,100238,1,23,23,21,F,NA,constant,homogeneous,4,absent,0.604017019271851,1,vertical,vertical,1,0.92940486907959,red,3,NaN,664.870587620533,383.747735480111,NaN,NaN,935.129412379467,816.252264519889,1016.25226451989,464.870587620533,664.870587620533,383.747735480111,583.747735480111,735.129412379467,NaN,NaN,NaN,NaN,0,0,4,0,NaN,NaN,vertical,horizontal,vertical,vertical,none,none
1d,16,100238,1,24,24,21,F,NA,constant,homogeneous,4,present,0.545209884643555,1,vertical,vertical,1,1.04704946517944,red,2,3,1042.51941165526,678.799333565612,878.799333565612,357.480588344736,721.200666434388,842.519411655264,1042.51941165526,678.799333565612,878.799333565612,357.480588344736,557.480588344736,521.200666434388,NaN,NaN,NaN,NaN,0,4,0,0,NaN,NaN,vertical,vertical,vertical,horizontal,none,none
1d,16,100238,1,25,25,21,F,NA,constant,homogeneous,4,absent,0.820278882980347,1,horizontal,horizontal,1,1.01175608634949,red,1,NaN,755.719714694933,851.125977018113,NaN,NaN,755.719714694933,851.125977018113,1051.12597701811,644.280285305067,844.280285305067,348.874022981887,548.874022981887,555.719714694933,NaN,NaN,NaN,NaN,4,0,0,0,NaN,NaN,horizontal,vertical,horizontal,horizontal,none,none
1d,16,100238,1,26,26,21,F,NA,constant,homogeneous,6,absent,0.555254936218262,1,horizontal,horizontal,1,0.705880136489868,red,3,NaN,1055,600,NaN,NaN,672.5,820.836477965032,927.5,820.836477965032,1055,600,927.5,379.163522034968,672.5,379.163522034968,545,600,0,0,4,0,0,0,horizontal,vertical,horizontal,vertical,horizontal,horizontal
1d,16,100238,1,27,27,21,F,NA,constant,homogeneous,6,present,0.857300996780396,1,horizontal,horizontal,1,0.941169328689575,red,1,5,839.890788585259,851.86052685176,561.936991243214,508.616172865948,839.890788585259,851.86052685176,1038.06300875679,691.383827134052,998.172220171528,439.523300282291,760.109211414741,348.13947314824,561.936991243214,508.616172865948,601.827779828472,760.476699717708,4,0,0,0,0,0,horizontal,vertical,horizontal,horizontal,horizontal,vertical
1d,16,100238,1,28,28,21,F,NA,constant,homogeneous,6,present,0.719247102737427,0,vertical,horizontal,1,0.623528919219971,red,5,4,545,600,672.5,379.163522034968,927.5,820.836477965032,1055,600,927.5,379.163522034968,672.5,379.163522034968,545,600,672.5,820.836477965032,0,0,0,0,4,0,vertical,horizontal,horizontal,horizontal,vertical,horizontal
1d,16,100238,1,29,29,21,F,NA,constant,homogeneous,6,absent,0.999476909637451,1,vertical,vertical,1,0.894111490249634,red,3,NaN,960.476699717708,401.827779828472,NaN,NaN,891.383827134052,838.063008756786,1051.86052685176,639.890788585259,960.476699717708,401.827779828472,708.616172865948,361.936991243214,548.13947314824,560.109211414741,639.523300282292,798.172220171528,0,0,4,0,0,0,horizontal,horizontal,vertical,horizontal,horizontal,horizontal
1d,16,100238,1,30,30,21,F,NA,constant,homogeneous,6,present,1.18825197219849,1,horizontal,horizontal,1,1.02352054595947,red,1,4,768.923317431687,853.099268668537,831.076682568313,346.900731331463,768.923317431687,853.099268668537,1003.65205506206,753.462830903772,1034.72873763037,500.363562235235,831.076682568313,346.900731331463,596.34794493794,446.537169096228,565.271262369628,699.636437764765,4,0,0,0,0,0,horizontal,horizontal,horizontal,vertical,horizontal,horizontal
1d,16,100238,1,31,31,21,F,NA,constant,homogeneous,3,present,1.04618787765503,1,vertical,vertical,1,0.894111490249634,red,3,2,558.892763222174,683.019879386575,848.656293821019,349.685068220846,992.450942956807,767.295052392579,848.656293821019,349.685068220846,558.892763222174,683.019879386575,NaN,NaN,NaN,NaN,NaN,NaN,0,0,4,NaN,NaN,NaN,horizontal,horizontal,vertical,none,none,none
1d,16,100238,1,32,32,21,F,NA,constant,homogeneous,3,absent,0.889063835144043,1,horizontal,horizontal,1,1.0823428440094,red,1,NaN,887.215136548046,839.621618300407,NaN,NaN,887.215136548046,839.621618300407,963.910840470068,404.658667004661,548.874022981887,555.719714694933,NaN,NaN,NaN,NaN,NaN,NaN,4,0,0,NaN,NaN,NaN,horizontal,vertical,vertical,none,none,none
1d,16,100238,1,33,33,21,F,NA,constant,homogeneous,5,absent,0.821333169937134,1,horizontal,horizontal,1,0.917640409469604,red,3,NaN,938.882953928832,386.139005173917,NaN,NaN,813.345668841951,854.650531362416,1046.31108570371,665.998856501143,938.882953928832,386.139005173917,639.523300282292,401.827779828472,561.936991243214,691.383827134052,NaN,NaN,0,0,4,0,0,NaN,vertical,vertical,horizontal,horizontal,horizontal,none
1d,16,100238,1,34,34,21,F,NA,constant,homogeneous,3,absent,0.763092994689941,1,horizontal,horizontal,1,0.658822298049927,red,1,NaN,716.980120613425,841.107236777826,NaN,NaN,716.980120613425,841.107236777826,1050.31493177915,551.343706178981,632.704947607421,407.549057043193,NaN,NaN,NaN,NaN,NaN,NaN,4,0,0,NaN,NaN,NaN,horizontal,horizontal,vertical,none,none,none
1d,16,100238,1,35,35,21,F,NA,constant,homogeneous,4,absent,0.662832975387573,1,horizontal,horizontal,1,0.823524732589722,red,4,NaN,548.874022981887,555.719714694933,NaN,NaN,755.719714694933,851.125977018113,1051.12597701811,644.280285305067,844.280285305067,348.874022981887,548.874022981887,555.719714694933,NaN,NaN,NaN,NaN,0,0,0,4,NaN,NaN,horizontal,vertical,horizontal,horizontal,none,none
1d,16,100238,1,36,36,21,F,NA,constant,homogeneous,5,present,0.825212955474854,1,horizontal,horizontal,1,0.847053651809692,red,4,1,622.862115532956,416.568350913644,835.489140744817,852.518357529101,835.489140744817,852.518357529101,1051.12597701811,644.280285305067,919.715248510402,374.848363820974,622.862115532956,416.568350913644,570.807518193712,711.784642431215,NaN,NaN,0,0,0,4,0,NaN,vertical,horizontal,vertical,horizontal,vertical,none
1d,16,100238,1,37,37,21,F,NA,constant,homogeneous,3,absent,0.660429000854492,1,horizontal,horizontal,1,0.92940486907959,red,2,NaN,956.993676208043,399.057257830286,NaN,NaN,895.524681321058,836.431882914531,956.993676208043,399.057257830286,547.481642470899,564.510859255183,NaN,NaN,NaN,NaN,NaN,NaN,0,4,0,NaN,NaN,NaN,vertical,horizontal,vertical,none,none,none
1d,16,100238,1,38,38,21,F,NA,constant,homogeneous,3,present,0.72508692741394,1,vertical,vertical,1,0.75293797492981,red,3,2,545.621167183745,617.787900804752,911.784642431215,370.807518193712,942.594190385041,811.404581001536,911.784642431215,370.807518193712,545.621167183745,617.787900804752,NaN,NaN,NaN,NaN,NaN,NaN,0,0,4,NaN,NaN,NaN,vertical,horizontal,vertical,none,none,none
1d,16,100238,1,39,39,21,F,NA,constant,homogeneous,6,absent,0.872611045837402,1,vertical,vertical,1,0.835289192199707,red,1,NaN,835.489140744817,852.518357529101,NaN,NaN,835.489140744817,852.518357529101,1036.43188291453,695.524681321058,1000.94274216971,443.006323791957,764.510859255183,347.4816424709,563.568117085469,504.475318678942,599.057257830286,756.993676208043,4,0,0,0,0,0,vertical,horizontal,horizontal,horizontal,vertical,vertical
1d,16,100238,1,40,40,21,F,NA,constant,homogeneous,5,present,0.6767258644104,1,horizontal,horizontal,1,0.92940486907959,red,3,5,919.715248510402,374.848363820974,570.807518193712,711.784642431215,835.489140744817,852.518357529101,1051.12597701811,644.280285305067,919.715248510402,374.848363820974,622.862115532956,416.568350913644,570.807518193712,711.784642431215,NaN,NaN,0,0,4,0,0,NaN,vertical,vertical,horizontal,vertical,vertical,none
1d,16,100238,1,41,41,21,F,NA,constant,homogeneous,3,absent,0.726516962051392,1,vertical,vertical,1,1.01175608634949,red,3,NaN,768.923317431687,346.900731331463,NaN,NaN,596.34794493794,753.462830903772,1034.72873763037,699.636437764765,768.923317431687,346.900731331463,NaN,NaN,NaN,NaN,NaN,NaN,0,0,4,NaN,NaN,NaN,horizontal,vertical,vertical,none,none,none
1d,16,100238,1,42,42,21,F,NA,constant,homogeneous,3,present,1.13980603218079,1,vertical,vertical,1,0.729409055709839,red,2,3,1023.02802532055,476.373546837184,581.422338320961,468.665290897936,795.549636358493,854.96116226488,1023.02802532055,476.373546837184,581.422338320961,468.665290897936,NaN,NaN,NaN,NaN,NaN,NaN,0,4,0,NaN,NaN,NaN,vertical,vertical,horizontal,none,none,none
1d,16,100238,1,43,43,21,F,NA,constant,homogeneous,3,present,1.41046690940857,1,horizontal,horizontal,1,0.976462707519531,red,3,2,604.658667004661,436.089159529932,1039.62161830041,512.784863451954,755.719714694933,851.125977018113,1039.62161830041,512.784863451954,604.658667004661,436.089159529932,NaN,NaN,NaN,NaN,NaN,NaN,0,0,4,NaN,NaN,NaN,vertical,vertical,horizontal,none,none,none
1d,16,100238,1,44,44,21,F,NA,constant,homogeneous,5,absent,0.796903848648071,1,vertical,vertical,1,0.694115676879883,red,3,NaN,967.295052392579,407.549057043193,NaN,NaN,777.775285599347,854.029648013395,1034.72873763037,699.636437764765,967.295052392579,407.549057043193,668.665290897936,381.422338320961,551.535633479765,657.362518857686,NaN,NaN,0,0,4,0,0,NaN,horizontal,horizontal,vertical,vertical,vertical,none
1d,16,100238,1,45,45,21,F,NA,constant,homogeneous,5,absent,0.915451049804688,1,horizontal,horizontal,1,0.729409055709839,red,5,NaN,607.549057043193,767.295052392579,NaN,NaN,899.636437764765,834.728737630372,1054.0296480134,577.775285599347,857.362518857686,351.535633479765,581.422338320961,468.665290897936,607.549057043193,767.295052392579,NaN,NaN,0,0,0,0,4,NaN,horizontal,vertical,horizontal,vertical,horizontal,none
1d,16,100238,1,46,46,21,F,NA,constant,homogeneous,3,absent,0.977525949478149,1,vertical,vertical,1,0.988227167129517,red,2,NaN,1023.02802532055,723.626453162816,NaN,NaN,581.422338320961,731.334709102064,1023.02802532055,723.626453162816,795.549636358493,345.03883773512,NaN,NaN,NaN,NaN,NaN,NaN,0,4,0,NaN,NaN,NaN,horizontal,vertical,vertical,none,none,none
1d,16,100238,1,47,47,21,F,NA,constant,homogeneous,6,present,0.675872087478638,1,horizontal,horizontal,1,0.705880136489868,red,4,1,742.637481142314,351.535633479765,857.362518857686,848.464366520235,857.362518857686,848.464366520235,1043.85771277057,674.554784704298,986.495193912888,426.090418184063,742.637481142314,351.535633479765,556.142287229426,525.445215295702,613.504806087112,773.909581815937,0,0,0,4,0,0,vertical,horizontal,horizontal,horizontal,vertical,horizontal
1d,16,100238,1,48,48,21,F,NA,constant,homogeneous,3,present,0.652040004730225,1,vertical,vertical,1,0.941169328689575,red,3,2,664.870587620533,383.747735480111,1054.84466088987,591.100628340862,680.284751489598,825.151636179026,1054.84466088987,591.100628340862,664.870587620533,383.747735480111,NaN,NaN,NaN,NaN,NaN,NaN,0,0,4,NaN,NaN,NaN,vertical,horizontal,vertical,none,none,none
1d,16,100238,1,49,49,21,F,NA,constant,homogeneous,5,present,1.52054595947266,0,horizontal,vertical,1,0.952933788299561,red,1,5,650.114760665419,806.299333565612,557.480588344736,521.200666434388,650.114760665419,806.299333565612,949.885239334581,806.299333565612,1042.51941165526,521.200666434388,800,345,557.480588344736,521.200666434388,NaN,NaN,4,0,0,0,0,NaN,horizontal,horizontal,horizontal,horizontal,horizontal,none
1d,16,100238,1,50,50,21,F,NA,constant,homogeneous,3,present,0.905568838119507,1,horizontal,horizontal,1,0.941169328689575,red,2,1,1036.43188291453,695.524681321058,599.057257830286,756.993676208043,599.057257830286,756.993676208043,1036.43188291453,695.524681321058,764.510859255183,347.4816424709,NaN,NaN,NaN,NaN,NaN,NaN,0,4,0,NaN,NaN,NaN,vertical,horizontal,horizontal,none,none,none
1d,16,100238,1,51,51,21,F,NA,constant,homogeneous,4,present,0.790596961975098,1,horizontal,horizontal,1,0.717644596099854,red,4,3,565.271262369628,500.363562235235,899.636437764765,365.271262369628,700.363562235235,834.728737630372,1034.72873763037,699.636437764765,899.636437764765,365.271262369628,565.271262369628,500.363562235235,NaN,NaN,NaN,NaN,0,0,0,4,NaN,NaN,horizontal,horizontal,vertical,horizontal,none,none
1d,16,100238,1,52,52,21,F,NA,constant,homogeneous,3,absent,1.20980310440063,0,vertical,horizontal,1,0.764702434539795,red,2,NaN,804.450363641507,345.03883773512,NaN,NaN,1018.57766167904,731.334709102064,804.450363641507,345.03883773512,576.971974679454,723.626453162816,NaN,NaN,NaN,NaN,NaN,NaN,0,4,0,NaN,NaN,NaN,horizontal,vertical,horizontal,none,none,none
1d,16,100238,1,53,53,21,F,NA,constant,homogeneous,4,present,1.39484286308289,1,horizontal,horizontal,1,1.03528500556946,red,3,4,826.654758133252,346.39691668109,546.39691668109,573.345241866748,773.345241866748,853.60308331891,1053.60308331891,626.654758133252,826.654758133252,346.39691668109,546.39691668109,573.345241866748,NaN,NaN,NaN,NaN,0,0,4,0,NaN,NaN,horizontal,vertical,horizontal,vertical,none,none
1d,16,100238,1,54,54,21,F,NA,constant,homogeneous,6,present,0.588445901870728,1,vertical,vertical,1,1.07057838439941,red,5,6,561.936991243214,508.616172865948,601.827779828472,760.476699717708,839.890788585259,851.86052685176,1038.06300875679,691.383827134052,998.172220171528,439.523300282291,760.109211414741,348.13947314824,561.936991243214,508.616172865948,601.827779828472,760.476699717708,0,0,0,0,4,0,vertical,horizontal,horizontal,vertical,vertical,horizontal
1d,16,100238,1,55,55,21,F,NA,constant,homogeneous,6,absent,NaN,0,horizontal,none,0,1.05881392478943,red,2,NaN,1051.12597701811,644.280285305067,NaN,NaN,887.215136548046,839.621618300407,1051.12597701811,644.280285305067,963.910840470068,404.658667004661,712.784863451954,360.378381699593,548.874022981887,555.719714694933,636.089159529932,795.341332995339,0,4,0,0,0,0,horizontal,horizontal,vertical,horizontal,horizontal,vertical
1d,16,100238,1,56,56,21,F,NA,constant,homogeneous,4,absent,0.378468990325928,0,vertical,horizontal,1,1.03528500556946,red,2,NaN,1046.31108570371,534.001143498857,NaN,NaN,865.998856501143,846.311085703712,1046.31108570371,534.001143498857,734.001143498857,353.688914296288,553.688914296288,665.998856501143,NaN,NaN,NaN,NaN,0,4,0,0,NaN,NaN,vertical,vertical,vertical,horizontal,none,none
1d,16,100238,1,57,57,21,F,NA,constant,homogeneous,3,present,0.643554925918579,1,horizontal,horizontal,1,0.658822298049927,red,2,3,1053.09926866854,568.923317431687,646.537169096228,396.34794493794,700.363562235235,834.728737630372,1053.09926866854,568.923317431687,646.537169096228,396.34794493794,NaN,NaN,NaN,NaN,NaN,NaN,0,4,0,NaN,NaN,NaN,vertical,horizontal,horizontal,none,none,none
1d,16,100238,1,58,58,21,F,NA,constant,homogeneous,5,present,0.760535955429077,1,vertical,vertical,1,1.01175608634949,red,1,2,676.373546837184,823.028025320546,973.909581815937,786.495193912888,676.373546837184,823.028025320546,973.909581815937,786.495193912888,1031.10848569435,492.232343256122,768.923317431687,346.900731331463,549.685068220846,551.343706178981,NaN,NaN,4,0,0,0,0,NaN,vertical,horizontal,horizontal,vertical,horizontal,none
1d,16,100238,1,59,59,21,F,NA,constant,homogeneous,5,present,1.123202085495,1,vertical,vertical,1,0.952933788299561,red,5,1,546.900731331463,631.076682568313,751.343706178981,850.314931779154,751.343706178981,850.314931779154,1023.02802532055,723.626453162816,986.495193912888,426.090418184063,692.232343256122,368.891514305654,546.900731331463,631.076682568313,NaN,NaN,0,0,0,0,4,NaN,vertical,horizontal,horizontal,horizontal,vertical,none
1d,16,100238,1,60,60,21,F,NA,constant,homogeneous,5,present,0.823220014572144,0,vertical,horizontal,1,1.05881392478943,red,2,3,1041.10723677783,683.019879386575,953.462830903772,396.34794493794,795.549636358493,854.96116226488,1041.10723677783,683.019879386575,953.462830903772,396.34794493794,653.738008730483,391.116228706307,556.142287229426,674.554784704298,NaN,NaN,0,4,0,0,0,NaN,horizontal,vertical,vertical,vertical,vertical,none
1d,16,100238,1,61,61,21,F,NA,constant,homogeneous,6,absent,1.25587296485901,1,horizontal,horizontal,1,0.811760272979736,red,1,NaN,734.001143498857,846.311085703712,NaN,NaN,734.001143498857,846.311085703712,980.31222920257,780.31222920257,1046.31108570371,534.001143498857,865.998856501143,353.688914296288,619.68777079743,419.68777079743,553.688914296288,665.998856501143,4,0,0,0,0,0,horizontal,horizontal,horizontal,vertical,vertical,horizontal
1d,16,100238,1,62,62,21,F,NA,constant,homogeneous,6,absent,NaN,0,horizontal,none,0,0.788231353759766,red,3,NaN,1054.37883281626,582.212099195248,NaN,NaN,688.215357568785,829.192481806288,942.594190385041,811.404581001536,1054.37883281626,582.212099195248,911.784642431215,370.807518193712,657.405809614959,388.595418998464,545.621167183745,617.787900804752,0,0,4,0,0,0,horizontal,horizontal,horizontal,horizontal,horizontal,horizontal
1d,16,100238,1,63,63,21,F,NA,constant,homogeneous,4,present,0.592083215713501,1,horizontal,horizontal,1,0.941169328689575,red,2,4,1048.46436652023,657.362518857686,551.535633479765,542.637481142314,742.637481142314,848.464366520235,1048.46436652023,657.362518857686,857.362518857686,351.535633479765,551.535633479765,542.637481142314,NaN,NaN,NaN,NaN,0,4,0,0,NaN,NaN,horizontal,horizontal,vertical,horizontal,none,none
1d,16,100238,1,64,64,21,F,NA,constant,homogeneous,4,absent,0.676444053649902,1,horizontal,horizontal,1,0.611764459609985,red,2,NaN,1003.65205506206,446.537169096228,NaN,NaN,953.462830903772,803.65205506206,1003.65205506206,446.537169096228,646.537169096228,396.34794493794,596.34794493794,753.462830903772,NaN,NaN,NaN,NaN,0,4,0,0,NaN,NaN,vertical,horizontal,horizontal,vertical,none,none
1d,16,100238,2,1,65,21,F,NA,constant,homogeneous,4,present,0.640860080718994,1,vertical,vertical,1,0.870582571029663,red,2,1,1027.20666366803,484.232422566416,915.767577433584,827.206663668034,915.767577433584,827.206663668034,1027.20666366803,484.232422566416,684.232422566416,372.793336331966,572.793336331966,715.767577433584,NaN,NaN,NaN,NaN,0,4,0,0,NaN,NaN,vertical,vertical,horizontal,horizontal,none,none
1d,16,100238,2,2,66,21,F,NA,constant,homogeneous,5,present,0.726555109024048,1,vertical,vertical,1,0.835289192199707,red,2,1,1054.84466088987,608.899371659138,870.287525733335,845.121732464271,870.287525733335,845.121732464271,1054.84466088987,608.899371659138,887.215136548046,360.378381699593,599.057257830286,443.006323791957,588.595418998464,742.594190385041,NaN,NaN,0,4,0,0,0,NaN,horizontal,vertical,vertical,vertical,horizontal,none
1d,16,100238,2,3,67,21,F,NA,constant,homogeneous,4,absent,0.580798149108887,1,horizontal,horizontal,1,0.77646689414978,red,3,NaN,626.090418184063,413.504806087112,NaN,NaN,973.909581815937,786.495193912888,986.495193912888,426.090418184063,626.090418184063,413.504806087112,613.504806087112,773.909581815937,NaN,NaN,NaN,NaN,0,0,4,0,NaN,NaN,horizontal,horizontal,horizontal,vertical,none,none
1d,16,100238,2,4,68,21,F,NA,constant,homogeneous,3,absent,1.45004105567932,1,vertical,vertical,1,1.07057838439941,red,1,NaN,650.114760665419,806.299333565612,NaN,NaN,650.114760665419,806.299333565612,1053.60308331891,626.654758133252,696.282156015671,367.045908301137,NaN,NaN,NaN,NaN,NaN,NaN,4,0,0,NaN,NaN,NaN,vertical,vertical,vertical,none,none,none
1d,16,100238,2,5,69,21,F,NA,constant,homogeneous,5,absent,1.19910788536072,1,vertical,vertical,1,0.6,red,5,NaN,548.874022981887,555.719714694933,NaN,NaN,680.284751489598,825.151636179026,977.137884467044,783.431649086356,1029.19248180629,488.215357568785,764.510859255183,347.4816424709,548.874022981887,555.719714694933,NaN,NaN,0,0,0,0,4,NaN,vertical,horizontal,horizontal,horizontal,vertical,none
1d,16,100238,2,6,70,21,F,NA,constant,homogeneous,4,present,0.627560138702393,1,vertical,vertical,1,0.799995813369751,red,2,1,1053.60308331891,573.345241866748,826.654758133252,853.60308331891,826.654758133252,853.60308331891,1053.60308331891,573.345241866748,773.345241866748,346.39691668109,546.39691668109,626.654758133252,NaN,NaN,NaN,NaN,0,4,0,0,NaN,NaN,vertical,vertical,horizontal,vertical,none,none
1d,16,100238,2,7,71,21,F,NA,constant,homogeneous,5,absent,0.685441970825195,1,horizontal,horizontal,1,0.858818111419678,red,5,NaN,636.089159529932,795.341332995339,NaN,NaN,935.129412379467,816.252264519889,1047.42541020038,538.309916622085,817.787900804752,345.621167183745,563.568117085469,504.475318678942,636.089159529932,795.341332995339,NaN,NaN,0,0,0,0,4,NaN,horizontal,vertical,vertical,vertical,horizontal,none
1d,16,100238,2,8,72,21,F,NA,constant,homogeneous,6,absent,0.922220945358276,1,vertical,vertical,1,0.941169328689575,red,2,NaN,946.261991269517,808.883771293693,NaN,NaN,692.232343256122,831.108485694346,946.261991269517,808.883771293693,1054.0296480134,577.775285599347,907.767656743878,368.891514305654,653.738008730483,391.116228706307,545.970351986605,622.224714400653,0,4,0,0,0,0,horizontal,vertical,vertical,vertical,horizontal,vertical
1d,16,100238,2,9,73,21,F,NA,constant,homogeneous,6,absent,1.16084909439087,1,horizontal,horizontal,1,0.799995813369751,red,3,NaN,1043.85771277057,525.445215295702,NaN,NaN,742.637481142314,848.464366520235,986.495193912888,773.909581815937,1043.85771277057,525.445215295702,857.362518857686,351.535633479765,613.504806087112,426.090418184063,556.142287229426,674.554784704298,0,0,4,0,0,0,horizontal,vertical,horizontal,horizontal,vertical,horizontal
1d,16,100238,2,10,74,21,F,NA,constant,homogeneous,4,absent,0.82008695602417,1,vertical,vertical,1,0.6,red,1,NaN,725.445215295702,843.857712770574,NaN,NaN,725.445215295702,843.857712770574,1043.85771277057,674.554784704298,874.554784704298,356.142287229426,556.142287229426,525.445215295702,NaN,NaN,NaN,NaN,4,0,0,0,NaN,NaN,vertical,vertical,horizontal,horizontal,none,none
1d,16,100238,2,11,75,21,F,NA,constant,homogeneous,4,absent,1.08278393745422,1,horizontal,horizontal,1,0.705880136489868,red,2,NaN,1054.37883281626,582.212099195248,NaN,NaN,817.787900804752,854.378832816255,1054.37883281626,582.212099195248,782.212099195248,345.621167183745,545.621167183745,617.787900804752,NaN,NaN,NaN,NaN,0,4,0,0,NaN,NaN,horizontal,horizontal,vertical,horizontal,none,none
1d,16,100238,2,12,76,21,F,NA,constant,homogeneous,6,present,0.797086954116821,1,horizontal,horizontal,1,0.823524732589722,red,5,3,556.142287229426,525.445215295702,986.495193912888,426.090418184063,857.362518857686,848.464366520235,1043.85771277057,674.554784704298,986.495193912888,426.090418184063,742.637481142314,351.535633479765,556.142287229426,525.445215295702,613.504806087112,773.909581815937,0,0,0,0,4,0,horizontal,horizontal,horizontal,horizontal,horizontal,vertical
1d,16,100238,2,13,77,21,F,NA,constant,homogeneous,3,absent,0.779339075088501,1,horizontal,horizontal,1,0.705880136489868,red,1,NaN,899.636437764765,834.728737630372,NaN,NaN,899.636437764765,834.728737630372,953.462830903772,396.34794493794,546.900731331463,568.923317431687,NaN,NaN,NaN,NaN,NaN,NaN,4,0,0,NaN,NaN,NaN,horizontal,horizontal,horizontal,none,none,none
1d,16,100238,2,14,78,21,F,NA,constant,homogeneous,3,absent,0.759954929351807,1,vertical,vertical,1,0.847053651809692,red,1,NaN,607.549057043193,767.295052392579,NaN,NaN,607.549057043193,767.295052392579,1041.10723677783,683.019879386575,751.343706178981,349.685068220846,NaN,NaN,NaN,NaN,NaN,NaN,4,0,0,NaN,NaN,NaN,vertical,horizontal,vertical,none,none,none
1d,16,100238,2,15,79,21,F,NA,constant,homogeneous,3,present,0.738009929656982,1,horizontal,horizontal,1,0.729409055709839,red,3,2,572.793336331966,715.767577433584,813.345668841951,345.349468637584,1013.86099482608,738.882953928832,813.345668841951,345.349468637584,572.793336331966,715.767577433584,NaN,NaN,NaN,NaN,NaN,NaN,0,0,4,NaN,NaN,NaN,vertical,horizontal,horizontal,none,none,none
1d,16,100238,2,16,80,21,F,NA,constant,homogeneous,6,present,0.716516017913818,0,vertical,horizontal,1,0.976462707519531,red,1,6,742.637481142314,848.464366520235,556.142287229426,674.554784704298,742.637481142314,848.464366520235,986.495193912888,773.909581815937,1043.85771277057,525.445215295702,857.362518857686,351.535633479765,613.504806087112,426.090418184063,556.142287229426,674.554784704298,4,0,0,0,0,0,vertical,vertical,horizontal,horizontal,horizontal,vertical
1d,16,100238,2,17,81,21,F,NA,constant,homogeneous,3,present,0.723403930664062,1,vertical,vertical,1,1.02352054595947,red,3,1,545.349468637584,613.345668841951,938.882953928832,813.860994826083,938.882953928832,813.860994826083,915.767577433584,372.793336331966,545.349468637584,613.345668841951,NaN,NaN,NaN,NaN,NaN,NaN,0,0,4,NaN,NaN,NaN,horizontal,horizontal,vertical,none,none,none
1d,16,100238,2,18,82,21,F,NA,constant,homogeneous,3,absent,0.927299022674561,1,horizontal,horizontal,1,0.858818111419678,red,1,NaN,946.261991269517,808.883771293693,NaN,NaN,946.261991269517,808.883771293693,907.767656743878,368.891514305654,545.970351986605,622.224714400653,NaN,NaN,NaN,NaN,NaN,NaN,4,0,0,NaN,NaN,NaN,horizontal,horizontal,vertical,none,none,none
1d,16,100238,2,19,83,21,F,NA,constant,homogeneous,6,present,1.26762890815735,1,vertical,vertical,1,1.0823428440094,red,6,3,546.900731331463,631.076682568313,1053.09926866854,568.923317431687,700.363562235235,834.728737630372,953.462830903772,803.65205506206,1053.09926866854,568.923317431687,899.636437764765,365.271262369628,646.537169096228,396.34794493794,546.900731331463,631.076682568313,0,0,0,0,0,4,vertical,vertical,vertical,horizontal,horizontal,vertical
1d,16,100238,2,20,84,21,F,NA,constant,homogeneous,6,absent,1.15047717094421,1,horizontal,horizontal,1,0.670586757659912,red,1,NaN,795.549636358493,854.96116226488,NaN,NaN,795.549636358493,854.96116226488,1018.57766167904,731.334709102064,1023.02802532055,476.373546837184,804.450363641507,345.03883773512,581.422338320961,468.665290897936,576.971974679454,723.626453162816,4,0,0,0,0,0,horizontal,horizontal,vertical,horizontal,vertical,horizontal
1d,16,100238,2,21,85,21,F,NA,constant,homogeneous,4,present,0.7062828540802,1,vertical,vertical,1,0.635293378829956,red,1,2,800,855,1055,600,800,855,1055,600,800,345,545,600,NaN,NaN,NaN,NaN,4,0,0,0,NaN,NaN,vertical,vertical,vertical,horizontal,none,none
1d,16,100238,2,22,86,21,F,NA,constant,homogeneous,5,absent,0.840015888214111,1,horizontal,horizontal,1,0.764702434539795,red,4,NaN,619.68777079743,419.68777079743,NaN,NaN,839.890788585259,851.86052685176,1051.86052685176,639.890788585259,915.767577433584,372.793336331966,619.68777079743,419.68777079743,572.793336331966,715.767577433584,NaN,NaN,0,0,0,4,0,NaN,vertical,horizontal,vertical,horizontal,horizontal,none
1d,16,100238,2,23,87,21,F,NA,constant,homogeneous,6,present,0.60605001449585,1,horizontal,horizontal,1,0.858818111419678,red,1,2,800,855,1020.83647796503,727.5,800,855,1020.83647796503,727.5,1020.83647796503,472.5,800,345,579.163522034968,472.5,579.163522034968,727.5,4,0,0,0,0,0,horizontal,vertical,horizontal,horizontal,horizontal,vertical
1d,16,100238,2,24,88,21,F,NA,constant,homogeneous,6,present,0.63937783241272,1,vertical,vertical,1,0.635293378829956,red,5,3,639.523300282292,401.827779828472,1051.86052685176,560.109211414741,708.616172865948,838.063008756786,960.476699717708,798.172220171528,1051.86052685176,560.109211414741,891.383827134052,361.936991243214,639.523300282292,401.827779828472,548.13947314824,639.890788585259,0,0,0,0,4,0,vertical,vertical,vertical,vertical,vertical,horizontal
1d,16,100238,2,25,89,21,F,NA,constant,homogeneous,5,absent,0.610924005508423,1,horizontal,horizontal,1,0.741173515319824,red,2,NaN,1029.19248180629,711.784642431215,NaN,NaN,764.510859255183,852.518357529101,1029.19248180629,711.784642431215,977.137884467044,416.568350913644,680.284751489598,374.848363820974,548.874022981887,644.280285305067,NaN,NaN,0,4,0,0,0,NaN,horizontal,horizontal,vertical,vertical,horizontal,none
1d,16,100238,2,26,90,21,F,NA,constant,homogeneous,3,present,0.848640918731689,1,vertical,vertical,1,1.05881392478943,red,3,1,546.900731331463,631.076682568313,953.462830903772,803.65205506206,953.462830903772,803.65205506206,899.636437764765,365.271262369628,546.900731331463,631.076682568313,NaN,NaN,NaN,NaN,NaN,NaN,0,0,4,NaN,NaN,NaN,vertical,vertical,vertical,none,none,none
1d,16,100238,2,27,91,21,F,NA,constant,homogeneous,6,absent,0.577600002288818,1,horizontal,horizontal,1,0.788231353759766,red,5,NaN,557.480588344736,521.200666434388,NaN,NaN,853.017481158529,849.42763818712,1042.51941165526,678.799333565612,989.501930496736,429.371695378491,746.982518841471,350.57236181288,557.480588344736,521.200666434388,610.498069503264,770.628304621509,0,0,0,0,4,0,vertical,horizontal,vertical,horizontal,horizontal,horizontal
1d,16,100238,2,28,92,21,F,NA,constant,homogeneous,3,absent,0.772484064102173,1,horizontal,horizontal,1,0.75293797492981,red,2,NaN,1042.51941165526,678.799333565612,NaN,NaN,610.498069503264,770.628304621509,1042.51941165526,678.799333565612,746.982518841471,350.57236181288,NaN,NaN,NaN,NaN,NaN,NaN,0,4,0,NaN,NaN,NaN,vertical,horizontal,vertical,none,none,none
1d,16,100238,2,29,93,21,F,NA,constant,homogeneous,3,present,0.612981081008911,1,vertical,vertical,1,0.647057838439941,red,3,2,545.970351986605,622.224714400653,907.767656743878,368.891514305654,946.261991269517,808.883771293693,907.767656743878,368.891514305654,545.970351986605,622.224714400653,NaN,NaN,NaN,NaN,NaN,NaN,0,0,4,NaN,NaN,NaN,horizontal,horizontal,vertical,none,none,none
1d,16,100238,2,30,94,21,F,NA,constant,homogeneous,5,present,0.490118980407715,1,horizontal,horizontal,1,0.635293378829956,red,5,4,561.936991243214,691.383827134052,639.523300282292,401.827779828472,813.345668841951,854.650531362416,1046.31108570371,665.998856501143,938.882953928832,386.139005173917,639.523300282292,401.827779828472,561.936991243214,691.383827134052,NaN,NaN,0,0,0,0,4,NaN,vertical,horizontal,vertical,vertical,horizontal,none
1d,16,100238,2,31,95,21,F,NA,constant,homogeneous,5,present,0.723166942596436,1,vertical,vertical,1,0.952933788299561,red,4,3,560.378381699593,512.784863451954,808.899371659138,345.155339110131,942.594190385041,811.404581001536,1045.12173246427,529.712474266665,808.899371659138,345.155339110131,560.378381699593,512.784863451954,643.006323791957,800.942742169714,NaN,NaN,0,0,0,4,0,NaN,vertical,horizontal,horizontal,vertical,horizontal,none
1d,16,100238,2,32,96,21,F,NA,constant,homogeneous,3,absent,0.90861701965332,0,vertical,horizontal,1,0.941169328689575,red,1,NaN,676.373546837184,823.028025320546,NaN,NaN,676.373546837184,823.028025320546,1054.96116226488,595.549636358493,668.665290897936,381.422338320961,NaN,NaN,NaN,NaN,NaN,NaN,4,0,0,NaN,NaN,NaN,vertical,horizontal,horizontal,none,none,none
1d,16,100238,2,33,97,21,F,NA,constant,homogeneous,4,absent,0.47147011756897,0,vertical,horizontal,1,1.02352054595947,red,1,NaN,883.019879386575,841.107236777826,NaN,NaN,883.019879386575,841.107236777826,1041.10723677783,516.980120613425,716.980120613425,358.892763222174,558.892763222174,683.019879386575,NaN,NaN,NaN,NaN,4,0,0,0,NaN,NaN,vertical,vertical,horizontal,horizontal,none,none
1d,16,100238,2,34,98,21,F,NA,constant,homogeneous,6,present,0.861195087432861,1,vertical,vertical,1,0.999991626739502,red,4,2,725.445215295702,356.142287229426,1048.46436652023,657.362518857686,874.554784704298,843.857712770574,1048.46436652023,657.362518857686,973.909581815937,413.504806087112,725.445215295702,356.142287229426,551.535633479765,542.637481142314,626.090418184063,786.495193912888,0,0,0,4,0,0,vertical,horizontal,vertical,vertical,horizontal,horizontal
1d,16,100238,2,35,99,21,F,NA,constant,homogeneous,4,present,0.713721990585327,1,vertical,vertical,1,0.764702434539795,red,4,2,545.155339110131,591.100628340862,1054.84466088987,608.899371659138,791.100628340862,854.844660889869,1054.84466088987,608.899371659138,808.899371659138,345.155339110131,545.155339110131,591.100628340862,NaN,NaN,NaN,NaN,0,0,0,4,NaN,NaN,horizontal,horizontal,horizontal,vertical,none,none
1d,16,100238,2,36,100,21,F,NA,constant,homogeneous,6,present,1.0374698638916,1,horizontal,horizontal,1,1.07057838439941,red,2,3,1013.86099482608,738.882953928832,1027.20666366803,484.232422566416,786.654331158049,854.650531362416,1013.86099482608,738.882953928832,1027.20666366803,484.232422566416,813.345668841951,345.349468637584,586.139005173917,461.117046071168,572.793336331966,715.767577433584,0,4,0,0,0,0,horizontal,horizontal,horizontal,vertical,horizontal,horizontal
1d,16,100238,2,37,101,21,F,NA,constant,homogeneous,4,present,0.808084964752197,1,horizontal,horizontal,1,0.670586757659912,red,1,4,668.665290897936,818.577661679039,581.422338320961,468.665290897936,668.665290897936,818.577661679039,1018.57766167904,731.334709102064,931.334709102064,381.422338320961,581.422338320961,468.665290897936,NaN,NaN,NaN,NaN,4,0,0,0,NaN,NaN,horizontal,vertical,horizontal,vertical,none,none
1d,16,100238,2,38,102,21,F,NA,constant,homogeneous,5,absent,0.640102863311768,1,vertical,vertical,1,0.988227167129517,red,3,NaN,915.767577433584,372.793336331966,NaN,NaN,839.890788585259,851.86052685176,1051.86052685176,639.890788585259,915.767577433584,372.793336331966,619.68777079743,419.68777079743,572.793336331966,715.767577433584,NaN,NaN,0,0,4,0,0,NaN,horizontal,horizontal,vertical,vertical,horizontal,none
1d,16,100238,2,39,103,21,F,NA,constant,homogeneous,5,present,0.977936983108521,1,horizontal,horizontal,1,1.04704946517944,red,1,2,729.712474266665,845.121732464271,1011.40458100154,742.594190385041,729.712474266665,845.121732464271,1011.40458100154,742.594190385041,1000.94274216971,443.006323791957,712.784863451954,360.378381699593,545.155339110131,608.899371659138,NaN,NaN,4,0,0,0,0,NaN,horizontal,vertical,horizontal,vertical,horizontal,none
1d,16,100238,2,40,104,21,F,NA,constant,homogeneous,5,present,0.666537046432495,1,vertical,vertical,1,0.635293378829956,red,5,4,607.549057043193,767.295052392579,581.422338320961,468.665290897936,899.636437764765,834.728737630372,1054.0296480134,577.775285599347,857.362518857686,351.535633479765,581.422338320961,468.665290897936,607.549057043193,767.295052392579,NaN,NaN,0,0,0,0,4,NaN,vertical,vertical,vertical,vertical,vertical,none
1d,16,100238,2,41,105,21,F,NA,constant,homogeneous,4,present,0.848850965499878,1,horizontal,horizontal,1,0.635293378829956,red,1,3,946.261991269517,808.883771293693,653.738008730483,391.116228706307,946.261991269517,808.883771293693,1008.88377129369,453.738008730483,653.738008730483,391.116228706307,591.116228706307,746.261991269517,NaN,NaN,NaN,NaN,4,0,0,0,NaN,NaN,horizontal,vertical,vertical,vertical,none,none
1d,16,100238,2,42,106,21,F,NA,constant,homogeneous,5,present,0.681721925735474,1,horizontal,horizontal,1,0.988227167129517,red,2,1,1016.25226451989,735.129412379467,738.309916622085,847.425410200379,738.309916622085,847.425410200379,1016.25226451989,735.129412379467,995.341332995339,436.089159529932,704.475318678942,363.568117085469,545.621167183745,617.787900804752,NaN,NaN,0,4,0,0,0,NaN,vertical,horizontal,vertical,vertical,vertical,none
1d,16,100238,2,43,107,21,F,NA,constant,homogeneous,4,present,0.692559003829956,1,horizontal,horizontal,1,0.847053651809692,red,1,3,664.870587620533,816.252264519889,935.129412379467,383.747735480111,664.870587620533,816.252264519889,1016.25226451989,735.129412379467,935.129412379467,383.747735480111,583.747735480111,464.870587620533,NaN,NaN,NaN,NaN,4,0,0,0,NaN,NaN,horizontal,vertical,vertical,vertical,none,none
1d,16,100238,2,44,108,21,F,NA,constant,homogeneous,5,absent,0.648338079452515,1,vertical,vertical,1,1.09410730361938,red,2,NaN,1054.65053136242,586.654331158049,NaN,NaN,891.383827134052,838.063008756786,1054.65053136242,586.654331158049,865.998856501143,353.688914296288,586.139005173917,461.117046071168,601.827779828472,760.476699717708,NaN,NaN,0,4,0,0,0,NaN,vertical,vertical,horizontal,vertical,vertical,none
1d,16,100238,2,45,109,21,F,NA,constant,homogeneous,6,absent,1.04608392715454,1,vertical,vertical,1,1.02352054595947,red,2,NaN,1016.25226451989,735.129412379467,NaN,NaN,791.100628340862,854.844660889869,1016.25226451989,735.129412379467,1025.15163617903,480.284751489598,808.899371659138,345.155339110131,583.747735480111,464.870587620533,574.848363820974,719.715248510402,0,4,0,0,0,0,horizontal,vertical,vertical,horizontal,vertical,vertical
1d,16,100238,2,46,110,21,F,NA,constant,homogeneous,3,present,0.891263961791992,0,horizontal,vertical,1,0.6,red,1,2,895.524681321058,836.431882914531,956.993676208043,399.057257830286,895.524681321058,836.431882914531,956.993676208043,399.057257830286,547.481642470899,564.510859255183,NaN,NaN,NaN,NaN,NaN,NaN,4,0,0,NaN,NaN,NaN,horizontal,horizontal,horizontal,none,none,none
1d,16,100238,2,47,111,21,F,NA,constant,homogeneous,3,present,0.5849449634552,1,horizontal,horizontal,1,0.788231353759766,red,1,2,949.885239334581,806.299333565612,903.717843984329,367.045908301137,949.885239334581,806.299333565612,903.717843984329,367.045908301137,546.39691668109,626.654758133252,NaN,NaN,NaN,NaN,NaN,NaN,4,0,0,NaN,NaN,NaN,horizontal,horizontal,vertical,none,none,none
1d,16,100238,2,48,112,21,F,NA,constant,homogeneous,5,absent,0.646569013595581,1,horizontal,horizontal,1,0.694115676879883,red,1,NaN,899.636437764765,834.728737630372,NaN,NaN,899.636437764765,834.728737630372,1054.0296480134,577.775285599347,857.362518857686,351.535633479765,581.422338320961,468.665290897936,607.549057043193,767.295052392579,NaN,NaN,4,0,0,0,0,NaN,horizontal,horizontal,vertical,horizontal,horizontal,none
1d,16,100238,2,49,113,21,F,NA,constant,homogeneous,6,absent,0.993470907211304,1,vertical,vertical,1,0.882347030639648,red,4,NaN,676.373546837184,376.971974679454,NaN,NaN,923.626453162816,823.028025320546,1054.96116226488,604.450363641507,931.334709102064,381.422338320961,676.373546837184,376.971974679454,545.03883773512,595.549636358493,668.665290897936,818.577661679039,0,0,0,4,0,0,vertical,horizontal,vertical,vertical,horizontal,vertical
1d,16,100238,2,50,114,21,F,NA,constant,homogeneous,4,absent,0.611262083053589,1,horizontal,horizontal,1,1.09410730361938,red,4,NaN,563.568117085469,504.475318678942,NaN,NaN,704.475318678942,836.431882914531,1036.43188291453,695.524681321058,895.524681321058,363.568117085469,563.568117085469,504.475318678942,NaN,NaN,NaN,NaN,0,0,0,4,NaN,NaN,vertical,vertical,horizontal,horizontal,none,none
1d,16,100238,2,51,115,21,F,NA,constant,homogeneous,6,absent,0.784000873565674,1,horizontal,horizontal,1,0.611764459609985,red,1,NaN,857.362518857686,848.464366520235,NaN,NaN,857.362518857686,848.464366520235,1043.85771277057,674.554784704298,986.495193912888,426.090418184063,742.637481142314,351.535633479765,556.142287229426,525.445215295702,613.504806087112,773.909581815937,4,0,0,0,0,0,horizontal,horizontal,vertical,horizontal,vertical,horizontal
1d,16,100238,2,52,116,21,F,NA,constant,homogeneous,5,present,1.02104616165161,1,horizontal,horizontal,1,0.847053651809692,red,3,5,874.554784704298,356.142287229426,596.34794493794,753.462830903772,883.019879386575,841.107236777826,1054.96116226488,595.549636358493,874.554784704298,356.142287229426,591.116228706307,453.738008730483,596.34794493794,753.462830903772,NaN,NaN,0,0,4,0,0,NaN,vertical,horizontal,horizontal,horizontal,horizontal,none
1d,16,100238,2,53,117,21,F,NA,constant,homogeneous,3,present,0.61207389831543,1,horizontal,horizontal,1,0.952933788299561,red,3,2,755.719714694933,348.874022981887,1039.62161830041,687.215136548046,604.658667004661,763.910840470068,1039.62161830041,687.215136548046,755.719714694933,348.874022981887,NaN,NaN,NaN,NaN,NaN,NaN,0,0,4,NaN,NaN,NaN,horizontal,vertical,horizontal,none,none,none
1d,16,100238,2,54,118,21,F,NA,constant,homogeneous,4,absent,0.834061145782471,1,horizontal,horizontal,1,0.658822298049927,red,1,NaN,844.280285305067,851.125977018113,NaN,NaN,844.280285305067,851.125977018113,1051.12597701811,555.719714694933,755.719714694933,348.874022981887,548.874022981887,644.280285305067,NaN,NaN,NaN,NaN,4,0,0,0,NaN,NaN,horizontal,horizontal,horizontal,vertical,none,none
1d,16,100238,2,55,119,21,F,NA,constant,homogeneous,3,present,1.19839406013489,1,vertical,vertical,1,0.964698247909546,red,3,1,676.373546837184,376.971974679454,668.665290897936,818.577661679039,668.665290897936,818.577661679039,1054.96116226488,604.450363641507,676.373546837184,376.971974679454,NaN,NaN,NaN,NaN,NaN,NaN,0,0,4,NaN,NaN,NaN,horizontal,horizontal,vertical,none,none,none
1d,16,100238,2,56,120,21,F,NA,constant,homogeneous,5,present,NaN,0,vertical,none,0,1.07057838439941,red,5,3,636.089159529932,795.341332995339,817.787900804752,345.621167183745,935.129412379467,816.252264519889,1047.42541020038,538.309916622085,817.787900804752,345.621167183745,563.568117085469,504.475318678942,636.089159529932,795.341332995339,NaN,NaN,0,0,0,0,4,NaN,vertical,vertical,vertical,vertical,vertical,none
1d,16,100238,2,57,121,21,F,NA,constant,homogeneous,3,absent,0.914378881454468,1,horizontal,horizontal,1,0.705880136489868,red,2,NaN,1025.15163617903,719.715248510402,NaN,NaN,583.747735480111,735.129412379467,1025.15163617903,719.715248510402,791.100628340862,345.155339110131,NaN,NaN,NaN,NaN,NaN,NaN,0,4,0,NaN,NaN,NaN,vertical,horizontal,vertical,none,none,none
1d,16,100238,2,58,122,21,F,NA,constant,homogeneous,4,absent,0.753470897674561,1,vertical,vertical,1,1.03528500556946,red,2,NaN,1053.60308331891,626.654758133252,NaN,NaN,773.345241866748,853.60308331891,1053.60308331891,626.654758133252,826.654758133252,346.39691668109,546.39691668109,573.345241866748,NaN,NaN,NaN,NaN,0,4,0,0,NaN,NaN,vertical,vertical,horizontal,horizontal,none,none
1d,16,100238,2,59,123,21,F,NA,constant,homogeneous,6,present,1.02934885025024,1,horizontal,horizontal,1,1.02352054595947,red,6,4,613.504806087112,773.909581815937,742.637481142314,351.535633479765,857.362518857686,848.464366520235,1043.85771277057,674.554784704298,986.495193912888,426.090418184063,742.637481142314,351.535633479765,556.142287229426,525.445215295702,613.504806087112,773.909581815937,0,0,0,0,0,4,vertical,horizontal,vertical,vertical,vertical,horizontal
1d,16,100238,2,60,124,21,F,NA,constant,homogeneous,4,absent,1.13360810279846,1,vertical,vertical,1,0.988227167129517,red,3,NaN,646.537169096228,396.34794493794,NaN,NaN,953.462830903772,803.65205506206,1003.65205506206,446.537169096228,646.537169096228,396.34794493794,596.34794493794,753.462830903772,NaN,NaN,NaN,NaN,0,0,4,0,NaN,NaN,horizontal,vertical,vertical,vertical,none,none
1d,16,100238,2,61,125,21,F,NA,constant,homogeneous,5,absent,1.08108305931091,1,vertical,vertical,1,1.02352054595947,red,3,NaN,887.215136548046,360.378381699593,NaN,NaN,870.287525733335,845.121732464271,1054.84466088987,608.899371659138,887.215136548046,360.378381699593,599.057257830286,443.006323791957,588.595418998464,742.594190385041,NaN,NaN,0,0,4,0,0,NaN,vertical,vertical,vertical,horizontal,vertical,none
1d,16,100238,2,62,126,21,F,NA,constant,homogeneous,6,absent,0.645804166793823,1,vertical,vertical,1,0.941169328689575,red,5,NaN,596.34794493794,446.537169096228,NaN,NaN,768.923317431687,853.099268668537,1003.65205506206,753.462830903772,1034.72873763037,500.363562235235,831.076682568313,346.900731331463,596.34794493794,446.537169096228,565.271262369628,699.636437764765,0,0,0,0,4,0,horizontal,vertical,vertical,vertical,vertical,vertical
1d,16,100238,2,63,127,21,F,NA,constant,homogeneous,4,present,0.68162202835083,1,horizontal,horizontal,1,0.729409055709839,red,1,4,804.450363641507,854.96116226488,545.03883773512,604.450363641507,804.450363641507,854.96116226488,1054.96116226488,595.549636358493,795.549636358493,345.03883773512,545.03883773512,604.450363641507,NaN,NaN,NaN,NaN,4,0,0,0,NaN,NaN,horizontal,vertical,horizontal,horizontal,none,none
1d,16,100238,2,64,128,21,F,NA,constant,homogeneous,3,absent,0.620544195175171,1,vertical,vertical,1,0.647057838439941,red,2,NaN,980.31222920257,419.68777079743,NaN,NaN,865.998856501143,846.311085703712,980.31222920257,419.68777079743,553.688914296288,534.001143498857,NaN,NaN,NaN,NaN,NaN,NaN,0,4,0,NaN,NaN,NaN,vertical,vertical,vertical,none,none,none
1d,16,100238,3,1,129,21,F,NA,constant,homogeneous,3,present,0.952236890792847,1,vertical,vertical,1,0.811760272979736,red,2,3,861.690083377915,352.574589799621,554.878267535729,670.287525733335,983.431649086356,777.137884467044,861.690083377915,352.574589799621,554.878267535729,670.287525733335,NaN,NaN,NaN,NaN,NaN,NaN,0,4,0,NaN,NaN,NaN,vertical,vertical,vertical,none,none,none
1d,16,100238,3,2,130,21,F,NA,constant,homogeneous,4,absent,0.857528924942017,1,horizontal,horizontal,1,0.905875949859619,red,1,NaN,835.489140744817,852.518357529101,NaN,NaN,835.489140744817,852.518357529101,1052.5183575291,564.510859255183,764.510859255183,347.4816424709,547.481642470899,635.489140744817,NaN,NaN,NaN,NaN,4,0,0,0,NaN,NaN,horizontal,vertical,vertical,vertical,none,none
1d,16,100238,3,3,131,21,F,NA,constant,homogeneous,3,absent,0.697360038757324,1,horizontal,horizontal,1,0.905875949859619,red,2,NaN,1054.96116226488,604.450363641507,NaN,NaN,668.665290897936,818.577661679039,1054.96116226488,604.450363641507,676.373546837184,376.971974679454,NaN,NaN,NaN,NaN,NaN,NaN,0,4,0,NaN,NaN,NaN,vertical,horizontal,horizontal,none,none,none
1d,16,100238,3,4,132,21,F,NA,constant,homogeneous,5,present,0.675773859024048,1,vertical,vertical,1,0.611764459609985,red,4,5,738.309916622085,352.574589799621,545.621167183745,582.212099195248,704.475318678942,836.431882914531,995.341332995339,763.910840470068,1016.25226451989,464.870587620533,738.309916622085,352.574589799621,545.621167183745,582.212099195248,NaN,NaN,0,0,0,4,0,NaN,vertical,horizontal,horizontal,vertical,vertical,none
1d,16,100238,3,5,133,21,F,NA,constant,homogeneous,5,absent,0.741679906845093,1,vertical,vertical,1,0.611764459609985,red,2,NaN,1011.40458100154,742.594190385041,NaN,NaN,729.712474266665,845.121732464271,1011.40458100154,742.594190385041,1000.94274216971,443.006323791957,712.784863451954,360.378381699593,545.155339110131,608.899371659138,NaN,NaN,0,4,0,0,0,NaN,horizontal,vertical,horizontal,vertical,vertical,none
1d,16,100238,3,6,134,21,F,NA,constant,homogeneous,4,present,0.666247844696045,1,vertical,vertical,1,0.682351217269897,red,4,2,599.057257830286,443.006323791957,1000.94274216971,756.993676208043,643.006323791957,800.942742169714,1000.94274216971,756.993676208043,956.993676208043,399.057257830286,599.057257830286,443.006323791957,NaN,NaN,NaN,NaN,0,0,0,4,NaN,NaN,horizontal,horizontal,horizontal,vertical,none,none
1d,16,100238,3,7,135,21,F,NA,constant,homogeneous,3,absent,0.552593946456909,1,vertical,vertical,1,0.835289192199707,red,1,NaN,804.450363641507,854.96116226488,NaN,NaN,804.450363641507,854.96116226488,1018.57766167904,468.665290897936,576.971974679454,476.373546837184,NaN,NaN,NaN,NaN,NaN,NaN,4,0,0,NaN,NaN,NaN,vertical,vertical,vertical,none,none,none
1d,16,100238,3,8,136,21,F,NA,constant,homogeneous,5,absent,0.714389085769653,0,horizontal,vertical,1,0.729409055709839,red,2,NaN,1047.42541020038,538.309916622085,NaN,NaN,935.129412379467,816.252264519889,1047.42541020038,538.309916622085,817.787900804752,345.621167183745,563.568117085469,504.475318678942,636.089159529932,795.341332995339,NaN,NaN,0,4,0,0,0,NaN,vertical,horizontal,vertical,horizontal,horizontal,none
1d,16,100238,3,9,137,21,F,NA,constant,homogeneous,6,present,1.44521594047546,1,vertical,vertical,1,0.823524732589722,red,2,6,989.501930496736,770.628304621509,557.480588344736,678.799333565612,746.982518841471,849.42763818712,989.501930496736,770.628304621509,1042.51941165526,521.200666434388,853.017481158529,350.57236181288,610.498069503264,429.371695378491,557.480588344736,678.799333565612,0,4,0,0,0,0,vertical,vertical,vertical,horizontal,horizontal,vertical
1d,16,100238,3,10,138,21,F,NA,constant,homogeneous,4,present,0.547891855239868,1,horizontal,horizontal,1,0.682351217269897,red,4,1,553.688914296288,665.998856501143,865.998856501143,846.311085703712,865.998856501143,846.311085703712,1046.31108570371,534.001143498857,734.001143498857,353.688914296288,553.688914296288,665.998856501143,NaN,NaN,NaN,NaN,0,0,0,4,NaN,NaN,horizontal,vertical,horizontal,horizontal,none,none
1d,16,100238,3,11,139,21,F,NA,constant,homogeneous,5,absent,0.691521883010864,1,vertical,vertical,1,0.823524732589722,red,2,NaN,1055,600,NaN,NaN,878.799333565612,842.519411655264,1055,600,878.799333565612,357.480588344736,593.700666434388,450.114760665419,593.700666434388,749.885239334581,NaN,NaN,0,4,0,0,0,NaN,horizontal,vertical,vertical,vertical,vertical,none
1d,16,100238,3,12,140,21,F,NA,constant,homogeneous,4,present,0.552718877792358,1,vertical,vertical,1,0.964698247909546,red,3,2,967.295052392579,407.549057043193,992.450942956807,767.295052392579,632.704947607421,792.450942956807,992.450942956807,767.295052392579,967.295052392579,407.549057043193,607.549057043193,432.704947607421,NaN,NaN,NaN,NaN,0,0,4,0,NaN,NaN,horizontal,vertical,vertical,horizontal,none,none
1d,16,100238,3,13,141,21,F,NA,constant,homogeneous,4,present,0.717046976089478,1,horizontal,horizontal,1,1.04704946517944,red,3,1,800,345,800,855,800,855,1055,600,800,345,545,600,NaN,NaN,NaN,NaN,0,0,4,0,NaN,NaN,horizontal,vertical,horizontal,vertical,none,none
1d,16,100238,3,14,142,21,F,NA,constant,homogeneous,3,absent,1.07562208175659,1,vertical,vertical,1,0.799995813369751,red,3,NaN,632.704947607421,407.549057043193,NaN,NaN,716.980120613425,841.107236777826,1050.31493177915,551.343706178981,632.704947607421,407.549057043193,NaN,NaN,NaN,NaN,NaN,NaN,0,0,4,NaN,NaN,NaN,horizontal,horizontal,vertical,none,none,none
1d,16,100238,3,15,143,21,F,NA,constant,homogeneous,4,absent,0.990545988082886,1,vertical,vertical,1,0.858818111419678,red,3,NaN,746.982518841471,350.57236181288,NaN,NaN,853.017481158529,849.42763818712,1049.42763818712,546.982518841471,746.982518841471,350.57236181288,550.57236181288,653.017481158529,NaN,NaN,NaN,NaN,0,0,4,0,NaN,NaN,vertical,horizontal,vertical,horizontal,none,none
1d,16,100238,3,16,144,21,F,NA,constant,homogeneous,3,present,0.619256973266602,1,horizontal,horizontal,1,0.635293378829956,red,2,3,895.524681321058,363.568117085469,547.481642470899,635.489140744817,956.993676208043,800.942742169714,895.524681321058,363.568117085469,547.481642470899,635.489140744817,NaN,NaN,NaN,NaN,NaN,NaN,0,4,0,NaN,NaN,NaN,horizontal,horizontal,vertical,none,none,none
1d,16,100238,3,17,145,21,F,NA,constant,homogeneous,6,absent,0.623580932617188,1,horizontal,horizontal,1,0.988227167129517,red,3,NaN,1054.37883281626,582.212099195248,NaN,NaN,688.215357568785,829.192481806288,942.594190385041,811.404581001536,1054.37883281626,582.212099195248,911.784642431215,370.807518193712,657.405809614959,388.595418998464,545.621167183745,617.787900804752,0,0,4,0,0,0,vertical,horizontal,horizontal,horizontal,horizontal,horizontal
1d,16,100238,3,18,146,21,F,NA,constant,homogeneous,6,present,1.06061816215515,1,vertical,vertical,1,0.623528919219971,red,6,5,601.827779828472,760.476699717708,561.936991243214,508.616172865948,839.890788585259,851.86052685176,1038.06300875679,691.383827134052,998.172220171528,439.523300282291,760.109211414741,348.13947314824,561.936991243214,508.616172865948,601.827779828472,760.476699717708,0,0,0,0,0,4,horizontal,vertical,horizontal,horizontal,horizontal,vertical
1d,16,100238,3,19,147,21,F,NA,constant,homogeneous,4,absent,0.79626989364624,1,vertical,vertical,1,0.905875949859619,red,2,NaN,1023.02802532055,476.373546837184,NaN,NaN,923.626453162816,823.028025320546,1023.02802532055,476.373546837184,676.373546837184,376.971974679454,576.971974679454,723.626453162816,NaN,NaN,NaN,NaN,0,4,0,0,NaN,NaN,horizontal,vertical,vertical,vertical,none,none
1d,16,100238,3,20,148,21,F,NA,constant,homogeneous,5,present,1.07828521728516,1,vertical,vertical,1,0.694115676879883,red,3,2,813.345668841951,345.349468637584,1046.31108570371,534.001143498857,938.882953928832,813.860994826083,1046.31108570371,534.001143498857,813.345668841951,345.349468637584,561.936991243214,508.616172865948,639.523300282292,798.172220171528,NaN,NaN,0,0,4,0,0,NaN,vertical,vertical,vertical,horizontal,vertical,none
1d,16,100238,3,21,149,21,F,NA,constant,homogeneous,6,absent,0.657531976699829,1,horizontal,horizontal,1,0.682351217269897,red,4,NaN,708.616172865948,361.936991243214,NaN,NaN,891.383827134052,838.063008756786,1051.86052685176,639.890788585259,960.476699717708,401.827779828472,708.616172865948,361.936991243214,548.13947314824,560.109211414741,639.523300282292,798.172220171528,0,0,0,4,0,0,horizontal,horizontal,vertical,horizontal,vertical,vertical
1d,16,100238,3,22,150,21,F,NA,constant,homogeneous,5,absent,0.647753953933716,1,horizontal,horizontal,1,0.647057838439941,red,5,NaN,548.874022981887,644.280285305067,NaN,NaN,764.510859255183,852.518357529101,1029.19248180629,711.784642431215,977.137884467044,416.568350913644,680.284751489598,374.848363820974,548.874022981887,644.280285305067,NaN,NaN,0,0,0,0,4,NaN,horizontal,vertical,vertical,vertical,horizontal,none
1d,16,100238,3,23,151,21,F,NA,constant,homogeneous,3,present,0.748471975326538,1,vertical,vertical,1,0.77646689414978,red,3,1,782.212099195248,345.621167183745,588.595418998464,742.594190385041,588.595418998464,742.594190385041,1029.19248180629,711.784642431215,782.212099195248,345.621167183745,NaN,NaN,NaN,NaN,NaN,NaN,0,0,4,NaN,NaN,NaN,vertical,horizontal,vertical,none,none,none
1d,16,100238,3,24,152,21,F,NA,constant,homogeneous,3,present,1.10286116600037,1,vertical,vertical,1,0.764702434539795,red,3,2,593.700666434388,450.114760665419,1032.95409169886,496.282156015671,773.345241866748,853.60308331891,1032.95409169886,496.282156015671,593.700666434388,450.114760665419,NaN,NaN,NaN,NaN,NaN,NaN,0,0,4,NaN,NaN,NaN,horizontal,horizontal,vertical,none,none,none
1d,16,100238,3,25,153,21,F,NA,constant,homogeneous,6,present,0.705148220062256,1,vertical,vertical,1,0.811760272979736,red,6,4,551.535633479765,657.362518857686,874.554784704298,356.142287229426,725.445215295702,843.857712770574,973.909581815937,786.495193912888,1048.46436652023,542.637481142314,874.554784704298,356.142287229426,626.090418184063,413.504806087112,551.535633479765,657.362518857686,0,0,0,0,0,4,horizontal,vertical,vertical,vertical,horizontal,vertical
1d,16,100238,3,26,154,21,F,NA,constant,homogeneous,5,present,0.83613395690918,0,horizontal,vertical,1,1.02352054595947,red,4,1,591.116228706307,453.738008730483,883.019879386575,841.107236777826,883.019879386575,841.107236777826,1054.96116226488,595.549636358493,874.554784704298,356.142287229426,591.116228706307,453.738008730483,596.34794493794,753.462830903772,NaN,NaN,0,0,0,4,0,NaN,horizontal,horizontal,horizontal,horizontal,horizontal,none
1d,16,100238,3,27,155,21,F,NA,constant,homogeneous,3,present,0.734988927841187,1,vertical,vertical,1,1.09410730361938,red,1,3,826.654758133252,853.60308331891,567.045908301137,496.282156015671,826.654758133252,853.60308331891,1006.29933356561,450.114760665419,567.045908301137,496.282156015671,NaN,NaN,NaN,NaN,NaN,NaN,4,0,0,NaN,NaN,NaN,vertical,horizontal,vertical,none,none,none
1d,16,100238,3,28,156,21,F,NA,constant,homogeneous,4,absent,0.865144968032837,1,vertical,vertical,1,0.952933788299561,red,1,NaN,672.5,820.836477965032,NaN,NaN,672.5,820.836477965032,1020.83647796503,727.5,927.5,379.163522034968,579.163522034968,472.5,NaN,NaN,NaN,NaN,4,0,0,0,NaN,NaN,vertical,vertical,vertical,horizontal,none,none
1d,16,100238,3,29,157,21,F,NA,constant,homogeneous,6,present,0.608397006988525,1,horizontal,horizontal,1,0.905875949859619,red,2,4,1038.06300875679,691.383827134052,760.109211414741,348.13947314824,839.890788585259,851.86052685176,1038.06300875679,691.383827134052,998.172220171528,439.523300282291,760.109211414741,348.13947314824,561.936991243214,508.616172865948,601.827779828472,760.476699717708,0,4,0,0,0,0,horizontal,horizontal,horizontal,horizontal,vertical,vertical
1d,16,100238,3,30,158,21,F,NA,constant,homogeneous,5,present,0.601481914520264,1,horizontal,horizontal,1,0.835289192199707,red,2,3,1053.60308331891,626.654758133252,903.717843984329,367.045908301137,853.017481158529,849.42763818712,1053.60308331891,626.654758133252,903.717843984329,367.045908301137,610.498069503264,429.371695378491,579.163522034968,727.5,NaN,NaN,0,4,0,0,0,NaN,horizontal,horizontal,vertical,horizontal,horizontal,none
1d,16,100238,3,31,159,21,F,NA,constant,homogeneous,5,absent,0.710722923278809,1,horizontal,horizontal,1,0.847053651809692,red,3,NaN,960.476699717708,401.827779828472,NaN,NaN,786.654331158049,854.650531362416,1038.06300875679,691.383827134052,960.476699717708,401.827779828472,661.117046071168,386.139005173917,553.688914296288,665.998856501143,NaN,NaN,0,0,4,0,0,NaN,horizontal,horizontal,horizontal,horizontal,vertical,none
1d,16,100238,3,32,160,21,F,NA,constant,homogeneous,6,absent,0.64906907081604,1,vertical,vertical,1,0.799995813369751,red,4,NaN,751.343706178981,349.685068220846,NaN,NaN,848.656293821019,850.314931779154,1041.10723677783,683.019879386575,992.450942956807,432.704947607421,751.343706178981,349.685068220846,558.892763222174,516.980120613425,607.549057043193,767.295052392579,0,0,0,4,0,0,vertical,vertical,horizontal,vertical,vertical,vertical
1d,16,100238,3,33,161,21,F,NA,constant,homogeneous,6,absent,0.704164028167725,1,vertical,vertical,1,0.694115676879883,red,5,NaN,568.891514305654,492.232343256122,NaN,NaN,822.224714400653,854.029648013395,1031.10848569435,707.767656743878,1008.88377129369,453.738008730483,777.775285599347,345.970351986605,568.891514305654,492.232343256122,591.116228706307,746.261991269517,0,0,0,0,4,0,horizontal,vertical,vertical,vertical,vertical,vertical
1d,16,100238,3,34,162,21,F,NA,constant,homogeneous,6,absent,0.663239002227783,1,horizontal,horizontal,1,1.04704946517944,red,5,NaN,586.139005173917,461.117046071168,NaN,NaN,786.654331158049,854.650531362416,1013.86099482608,738.882953928832,1027.20666366803,484.232422566416,813.345668841951,345.349468637584,586.139005173917,461.117046071168,572.793336331966,715.767577433584,0,0,0,0,4,0,vertical,horizontal,horizontal,vertical,horizontal,vertical
1d,16,100238,3,35,163,21,F,NA,constant,homogeneous,5,absent,0.766292810440063,1,horizontal,horizontal,1,0.682351217269897,red,1,NaN,704.475318678942,836.431882914531,NaN,NaN,704.475318678942,836.431882914531,995.341332995339,763.910840470068,1016.25226451989,464.870587620533,738.309916622085,352.574589799621,545.621167183745,582.212099195248,NaN,NaN,4,0,0,0,0,NaN,horizontal,horizontal,horizontal,horizontal,vertical,none
1d,16,100238,3,36,164,21,F,NA,constant,homogeneous,3,present,0.589915990829468,1,horizontal,horizontal,1,0.999991626739502,red,1,3,960.476699717708,798.172220171528,548.13947314824,639.890788585259,960.476699717708,798.172220171528,891.383827134052,361.936991243214,548.13947314824,639.890788585259,NaN,NaN,NaN,NaN,NaN,NaN,4,0,0,NaN,NaN,NaN,horizontal,vertical,horizontal,none,none,none
1d,16,100238,3,37,165,21,F,NA,constant,homogeneous,3,present,0.477011919021606,1,horizontal,horizontal,1,0.952933788299561,red,1,2,949.885239334581,806.299333565612,903.717843984329,367.045908301137,949.885239334581,806.299333565612,903.717843984329,367.045908301137,546.39691668109,626.654758133252,NaN,NaN,NaN,NaN,NaN,NaN,4,0,0,NaN,NaN,NaN,horizontal,horizontal,vertical,none,none,none
1d,16,100238,3,38,166,21,F,NA,constant,homogeneous,3,absent,0.554731845855713,0,vertical,horizontal,1,0.799995813369751,red,3,NaN,593.700666434388,450.114760665419,NaN,NaN,773.345241866748,853.60308331891,1032.95409169886,496.282156015671,593.700666434388,450.114760665419,NaN,NaN,NaN,NaN,NaN,NaN,0,0,4,NaN,NaN,NaN,horizontal,horizontal,vertical,none,none,none
1d,16,100238,3,39,167,21,F,NA,constant,homogeneous,6,absent,0.540613174438477,1,horizontal,horizontal,1,0.729409055709839,red,5,NaN,547.481642470899,564.510859255183,NaN,NaN,895.524681321058,836.431882914531,1052.5183575291,635.489140744817,956.993676208043,399.057257830286,704.475318678942,363.568117085469,547.481642470899,564.510859255183,643.006323791957,800.942742169714,0,0,0,0,4,0,vertical,horizontal,horizontal,horizontal,horizontal,vertical
1d,16,100238,3,40,168,21,F,NA,constant,homogeneous,4,present,1.0522038936615,1,horizontal,horizontal,1,0.823524732589722,red,2,4,1018.57766167904,468.665290897936,581.422338320961,731.334709102064,931.334709102064,818.577661679039,1018.57766167904,468.665290897936,668.665290897936,381.422338320961,581.422338320961,731.334709102064,NaN,NaN,NaN,NaN,0,4,0,0,NaN,NaN,vertical,horizontal,vertical,vertical,none,none
1d,16,100238,3,41,169,21,F,NA,constant,homogeneous,6,present,0.528902053833008,1,horizontal,horizontal,1,0.77646689414978,red,5,3,646.537169096228,396.34794493794,1053.09926866854,568.923317431687,700.363562235235,834.728737630372,953.462830903772,803.65205506206,1053.09926866854,568.923317431687,899.636437764765,365.271262369628,646.537169096228,396.34794493794,546.900731331463,631.076682568313,0,0,0,0,4,0,vertical,vertical,horizontal,vertical,horizontal,vertical
1d,16,100238,3,42,170,21,F,NA,constant,homogeneous,4,absent,0.900156021118164,1,horizontal,horizontal,1,0.623528919219971,red,3,NaN,865.998856501143,353.688914296288,NaN,NaN,734.001143498857,846.311085703712,1046.31108570371,665.998856501143,865.998856501143,353.688914296288,553.688914296288,534.001143498857,NaN,NaN,NaN,NaN,0,0,4,0,NaN,NaN,vertical,vertical,horizontal,horizontal,none,none
1d,16,100238,3,43,171,21,F,NA,constant,homogeneous,4,absent,0.941142082214355,1,horizontal,horizontal,1,0.941169328689575,red,3,NaN,661.117046071168,386.139005173917,NaN,NaN,938.882953928832,813.860994826083,1013.86099482608,461.117046071168,661.117046071168,386.139005173917,586.139005173917,738.882953928832,NaN,NaN,NaN,NaN,0,0,4,0,NaN,NaN,horizontal,vertical,horizontal,horizontal,none,none
1d,16,100238,3,44,172,21,F,NA,constant,homogeneous,6,present,0.510224103927612,1,horizontal,horizontal,1,1.09410730361938,red,4,6,725.445215295702,356.142287229426,626.090418184063,786.495193912888,874.554784704298,843.857712770574,1048.46436652023,657.362518857686,973.909581815937,413.504806087112,725.445215295702,356.142287229426,551.535633479765,542.637481142314,626.090418184063,786.495193912888,0,0,0,4,0,0,vertical,horizontal,vertical,horizontal,horizontal,horizontal
1d,16,100238,3,45,173,21,F,NA,constant,homogeneous,4,present,0.797215938568115,1,horizontal,horizontal,1,0.635293378829956,red,4,2,607.549057043193,767.295052392579,992.450942956807,432.704947607421,967.295052392579,792.450942956807,992.450942956807,432.704947607421,632.704947607421,407.549057043193,607.549057043193,767.295052392579,NaN,NaN,NaN,NaN,0,0,0,4,NaN,NaN,horizontal,horizontal,vertical,horizontal,none,none
1d,16,100238,3,46,174,21,F,NA,constant,homogeneous,5,absent,0.915995121002197,1,vertical,vertical,1,0.729409055709839,red,2,NaN,949.885239334581,806.299333565612,NaN,NaN,650.114760665419,806.299333565612,949.885239334581,806.299333565612,1042.51941165526,521.200666434388,800,345,557.480588344736,521.200666434388,NaN,NaN,0,4,0,0,0,NaN,horizontal,vertical,vertical,vertical,horizontal,none
1d,16,100238,3,47,175,21,F,NA,constant,homogeneous,3,present,0.623721122741699,1,horizontal,horizontal,1,1.07057838439941,red,3,1,576.971974679454,723.626453162816,1018.57766167904,731.334709102064,1018.57766167904,731.334709102064,804.450363641507,345.03883773512,576.971974679454,723.626453162816,NaN,NaN,NaN,NaN,NaN,NaN,0,0,4,NaN,NaN,NaN,horizontal,horizontal,horizontal,none,none,none
1d,16,100238,3,48,176,21,F,NA,constant,homogeneous,4,absent,0.670310020446777,1,vertical,vertical,1,0.694115676879883,red,4,NaN,581.422338320961,468.665290897936,NaN,NaN,668.665290897936,818.577661679039,1018.57766167904,731.334709102064,931.334709102064,381.422338320961,581.422338320961,468.665290897936,NaN,NaN,NaN,NaN,0,0,0,4,NaN,NaN,vertical,vertical,vertical,vertical,none,none
1d,16,100238,3,49,177,21,F,NA,constant,homogeneous,4,absent,0.608299970626831,1,horizontal,horizontal,1,1.01175608634949,red,2,NaN,1025.15163617903,480.284751489598,NaN,NaN,919.715248510402,825.151636179026,1025.15163617903,480.284751489598,680.284751489598,374.848363820974,574.848363820974,719.715248510402,NaN,NaN,NaN,NaN,0,4,0,0,NaN,NaN,vertical,horizontal,horizontal,vertical,none,none
1d,16,100238,3,50,178,21,F,NA,constant,homogeneous,6,present,0.689689159393311,1,horizontal,horizontal,1,0.858818111419678,red,4,2,777.775285599347,345.970351986605,1031.10848569435,707.767656743878,822.224714400653,854.029648013395,1031.10848569435,707.767656743878,1008.88377129369,453.738008730483,777.775285599347,345.970351986605,568.891514305654,492.232343256122,591.116228706307,746.261991269517,0,0,0,4,0,0,horizontal,vertical,vertical,horizontal,horizontal,vertical
1d,16,100238,3,51,179,21,F,NA,constant,homogeneous,5,present,0.682760953903198,1,vertical,vertical,1,0.75293797492981,red,3,4,826.654758133252,346.39691668109,567.045908301137,496.282156015671,927.5,820.836477965032,1049.42763818712,546.982518841471,826.654758133252,346.39691668109,567.045908301137,496.282156015671,629.371695378491,789.501930496736,NaN,NaN,0,0,4,0,0,NaN,vertical,vertical,vertical,vertical,vertical,none
1d,16,100238,3,52,180,21,F,NA,constant,homogeneous,5,absent,1.06678700447083,1,vertical,vertical,1,0.905875949859619,red,2,NaN,1043.85771277057,674.554784704298,NaN,NaN,804.450363641507,854.96116226488,1043.85771277057,674.554784704298,946.261991269517,391.116228706307,646.537169096228,396.34794493794,558.892763222174,683.019879386575,NaN,NaN,0,4,0,0,0,NaN,horizontal,vertical,horizontal,vertical,horizontal,none
1d,16,100238,3,53,181,21,F,NA,constant,homogeneous,4,present,0.74530291557312,1,vertical,vertical,1,0.658822298049927,red,1,4,865.998856501143,846.311085703712,553.688914296288,665.998856501143,865.998856501143,846.311085703712,1046.31108570371,534.001143498857,734.001143498857,353.688914296288,553.688914296288,665.998856501143,NaN,NaN,NaN,NaN,4,0,0,0,NaN,NaN,vertical,horizontal,vertical,vertical,none,none
1d,16,100238,3,54,182,21,F,NA,constant,homogeneous,6,absent,0.480408906936646,1,vertical,vertical,1,0.999991626739502,red,1,NaN,927.5,820.836477965032,NaN,NaN,927.5,820.836477965032,1055,600,927.5,379.163522034968,672.5,379.163522034968,545,600,672.5,820.836477965032,4,0,0,0,0,0,vertical,vertical,horizontal,vertical,horizontal,vertical
1d,16,100238,3,55,183,21,F,NA,constant,homogeneous,5,present,0.53461480140686,1,horizontal,horizontal,1,0.823524732589722,red,5,3,553.688914296288,534.001143498857,1038.06300875679,508.616172865948,661.117046071168,813.860994826083,960.476699717708,798.172220171528,1038.06300875679,508.616172865948,786.654331158049,345.349468637584,553.688914296288,534.001143498857,NaN,NaN,0,0,0,0,4,NaN,vertical,vertical,vertical,horizontal,horizontal,none
1d,16,100238,3,56,184,21,F,NA,constant,homogeneous,6,present,0.577030897140503,1,vertical,vertical,1,0.77646689414978,red,2,6,1050.31493177915,648.656293821019,632.704947607421,792.450942956807,883.019879386575,841.107236777826,1050.31493177915,648.656293821019,967.295052392579,407.549057043193,716.980120613425,358.892763222174,549.685068220846,551.343706178981,632.704947607421,792.450942956807,0,4,0,0,0,0,horizontal,vertical,horizontal,horizontal,horizontal,horizontal
1d,16,100238,3,57,185,21,F,NA,constant,homogeneous,4,present,0.657557010650635,1,vertical,vertical,1,0.835289192199707,red,3,2,946.261991269517,391.116228706307,1008.88377129369,746.261991269517,653.738008730483,808.883771293693,1008.88377129369,746.261991269517,946.261991269517,391.116228706307,591.116228706307,453.738008730483,NaN,NaN,NaN,NaN,0,0,4,0,NaN,NaN,vertical,horizontal,vertical,vertical,none,none
1d,16,100238,3,58,186,21,F,NA,constant,homogeneous,3,absent,0.547459125518799,1,horizontal,horizontal,1,1.02352054595947,red,2,NaN,998.172220171528,439.523300282291,NaN,NaN,839.890788585259,851.86052685176,998.172220171528,439.523300282291,561.936991243214,508.616172865948,NaN,NaN,NaN,NaN,NaN,NaN,0,4,0,NaN,NaN,NaN,horizontal,horizontal,vertical,none,none,none
1d,16,100238,3,59,187,21,F,NA,constant,homogeneous,5,present,0.883517980575562,1,vertical,vertical,1,0.647057838439941,red,4,5,572.793336331966,484.232422566416,619.68777079743,780.31222920257,915.767577433584,827.206663668034,1051.86052685176,560.109211414741,839.890788585259,348.13947314824,572.793336331966,484.232422566416,619.68777079743,780.31222920257,NaN,NaN,0,0,0,4,0,NaN,vertical,horizontal,horizontal,vertical,horizontal,none
1d,16,100238,3,60,188,21,F,NA,constant,homogeneous,3,absent,0.59968090057373,1,horizontal,horizontal,1,0.717644596099854,red,1,NaN,622.862115532956,783.431649086356,NaN,NaN,622.862115532956,783.431649086356,1047.42541020038,661.690083377915,729.712474266665,354.878267535729,NaN,NaN,NaN,NaN,NaN,NaN,4,0,0,NaN,NaN,NaN,horizontal,horizontal,vertical,none,none,none
1d,16,100238,3,61,189,21,F,NA,constant,homogeneous,5,present,0.835031032562256,1,horizontal,horizontal,1,0.75293797492981,red,1,2,919.715248510402,825.151636179026,1051.12597701811,555.719714694933,919.715248510402,825.151636179026,1051.12597701811,555.719714694933,835.489140744817,347.4816424709,570.807518193712,488.215357568785,622.862115532956,783.431649086356,NaN,NaN,4,0,0,0,0,NaN,horizontal,horizontal,horizontal,horizontal,vertical,none
1d,16,100238,3,62,190,21,F,NA,constant,homogeneous,3,absent,0.852447032928467,1,vertical,vertical,1,1.02352054595947,red,1,NaN,639.523300282292,798.172220171528,NaN,NaN,639.523300282292,798.172220171528,1051.86052685176,639.890788585259,708.616172865948,361.936991243214,NaN,NaN,NaN,NaN,NaN,NaN,4,0,0,NaN,NaN,NaN,vertical,horizontal,vertical,none,none,none
1d,16,100238,3,63,191,21,F,NA,constant,homogeneous,3,absent,0.587153196334839,1,horizontal,horizontal,1,1.07057838439941,red,2,NaN,1054.65053136242,586.654331158049,NaN,NaN,684.232422566416,827.206663668034,1054.65053136242,586.654331158049,661.117046071168,386.139005173917,NaN,NaN,NaN,NaN,NaN,NaN,0,4,0,NaN,NaN,NaN,vertical,horizontal,horizontal,none,none,none
1d,16,100238,3,64,192,21,F,NA,constant,homogeneous,6,absent,0.641309022903442,1,vertical,vertical,1,0.705880136489868,red,2,NaN,998.172220171528,760.476699717708,NaN,NaN,760.109211414741,851.86052685176,998.172220171528,760.476699717708,1038.06300875679,508.616172865948,839.890788585259,348.13947314824,601.827779828472,439.523300282291,561.936991243214,691.383827134052,0,4,0,0,0,0,vertical,vertical,vertical,horizontal,vertical,horizontal
1d,16,100238,4,1,193,21,F,NA,constant,homogeneous,3,present,0.619157075881958,1,vertical,vertical,1,0.75293797492981,red,1,3,857.362518857686,848.464366520235,556.142287229426,525.445215295702,857.362518857686,848.464366520235,986.495193912888,426.090418184063,556.142287229426,525.445215295702,NaN,NaN,NaN,NaN,NaN,NaN,4,0,0,NaN,NaN,NaN,vertical,horizontal,horizontal,none,none,none
1d,16,100238,4,2,194,21,F,NA,constant,homogeneous,5,present,1.06181907653809,1,horizontal,horizontal,1,1.09410730361938,red,3,1,986.495193912888,426.090418184063,751.343706178981,850.314931779154,751.343706178981,850.314931779154,1023.02802532055,723.626453162816,986.495193912888,426.090418184063,692.232343256122,368.891514305654,546.900731331463,631.076682568313,NaN,NaN,0,0,4,0,0,NaN,vertical,horizontal,horizontal,horizontal,horizontal,none
1d,16,100238,4,3,195,21,F,NA,constant,homogeneous,5,absent,0.841821908950806,1,vertical,vertical,1,0.941169328689575,red,5,NaN,599.057257830286,756.993676208043,NaN,NaN,887.215136548046,839.621618300407,1054.84466088987,591.100628340862,870.287525733335,354.878267535729,588.595418998464,457.40580961496,599.057257830286,756.993676208043,NaN,NaN,0,0,0,0,4,NaN,vertical,vertical,vertical,horizontal,vertical,none
1d,16,100238,4,4,196,21,F,NA,constant,homogeneous,6,present,0.8108069896698,1,horizontal,horizontal,1,0.799995813369751,red,6,5,546.900731331463,631.076682568313,646.537169096228,396.34794493794,700.363562235235,834.728737630372,953.462830903772,803.65205506206,1053.09926866854,568.923317431687,899.636437764765,365.271262369628,646.537169096228,396.34794493794,546.900731331463,631.076682568313,0,0,0,0,0,4,vertical,vertical,horizontal,vertical,vertical,horizontal
1d,16,100238,4,5,197,21,F,NA,constant,homogeneous,4,absent,0.592866897583008,1,horizontal,horizontal,1,0.658822298049927,red,4,NaN,601.827779828472,439.523300282291,NaN,NaN,639.523300282292,798.172220171528,998.172220171528,760.476699717708,960.476699717708,401.827779828472,601.827779828472,439.523300282291,NaN,NaN,NaN,NaN,0,0,0,4,NaN,NaN,horizontal,vertical,horizontal,horizontal,none,none
1d,16,100238,4,6,198,21,F,NA,constant,homogeneous,4,absent,0.539402008056641,1,horizontal,horizontal,1,0.941169328689575,red,4,NaN,583.747735480111,735.129412379467,NaN,NaN,935.129412379467,816.252264519889,1016.25226451989,464.870587620533,664.870587620533,383.747735480111,583.747735480111,735.129412379467,NaN,NaN,NaN,NaN,0,0,0,4,NaN,NaN,vertical,vertical,horizontal,horizontal,none,none
1d,16,100238,4,7,199,21,F,NA,constant,homogeneous,5,absent,0.764308929443359,1,vertical,vertical,1,0.705880136489868,red,3,NaN,938.882953928832,386.139005173917,NaN,NaN,813.345668841951,854.650531362416,1046.31108570371,665.998856501143,938.882953928832,386.139005173917,639.523300282292,401.827779828472,561.936991243214,691.383827134052,NaN,NaN,0,0,4,0,0,NaN,vertical,vertical,vertical,vertical,vertical,none
1d,16,100238,4,8,200,21,F,NA,constant,homogeneous,4,absent,0.787889003753662,1,vertical,vertical,1,0.799995813369751,red,3,NaN,734.001143498857,353.688914296288,NaN,NaN,865.998856501143,846.311085703712,1046.31108570371,534.001143498857,734.001143498857,353.688914296288,553.688914296288,665.998856501143,NaN,NaN,NaN,NaN,0,0,4,0,NaN,NaN,vertical,vertical,vertical,horizontal,none,none
1d,16,100238,4,9,201,21,F,NA,constant,homogeneous,3,absent,0.630370855331421,1,horizontal,horizontal,1,0.717644596099854,red,2,NaN,1046.31108570371,665.998856501143,NaN,NaN,619.68777079743,780.31222920257,1046.31108570371,665.998856501143,734.001143498857,353.688914296288,NaN,NaN,NaN,NaN,NaN,NaN,0,4,0,NaN,NaN,NaN,vertical,horizontal,vertical,none,none,none
1d,16,100238,4,10,202,21,F,NA,constant,homogeneous,3,present,0.685426950454712,1,horizontal,horizontal,1,0.717644596099854,red,1,3,935.129412379467,816.252264519889,545.155339110131,608.899371659138,935.129412379467,816.252264519889,919.715248510402,374.848363820974,545.155339110131,608.899371659138,NaN,NaN,NaN,NaN,NaN,NaN,4,0,0,NaN,NaN,NaN,horizontal,vertical,horizontal,none,none,none
1d,16,100238,4,11,203,21,F,NA,constant,homogeneous,3,present,0.617739200592041,1,vertical,vertical,1,0.717644596099854,red,2,1,1055,600,672.5,820.836477965032,672.5,820.836477965032,1055,600,672.5,379.163522034968,NaN,NaN,NaN,NaN,NaN,NaN,0,4,0,NaN,NaN,NaN,horizontal,vertical,horizontal,none,none,none
1d,16,100238,4,12,204,21,F,NA,constant,homogeneous,4,present,0.707134008407593,1,vertical,vertical,1,1.04704946517944,red,3,4,835.489140744817,347.4816424709,547.481642470899,564.510859255183,764.510859255183,852.518357529101,1052.5183575291,635.489140744817,835.489140744817,347.4816424709,547.481642470899,564.510859255183,NaN,NaN,NaN,NaN,0,0,4,0,NaN,NaN,vertical,horizontal,vertical,horizontal,none,none
1d,16,100238,4,13,205,21,F,NA,constant,homogeneous,3,absent,0.692978858947754,1,vertical,vertical,1,0.976462707519531,red,1,NaN,923.626453162816,823.028025320546,NaN,NaN,923.626453162816,823.028025320546,931.334709102064,381.422338320961,545.03883773512,595.549636358493,NaN,NaN,NaN,NaN,NaN,NaN,4,0,0,NaN,NaN,NaN,vertical,horizontal,vertical,none,none,none
1d,16,100238,4,14,206,21,F,NA,constant,homogeneous,6,present,0.606765985488892,1,horizontal,horizontal,1,0.976462707519531,red,1,3,800,855,1020.83647796503,472.5,800,855,1020.83647796503,727.5,1020.83647796503,472.5,800,345,579.163522034968,472.5,579.163522034968,727.5,4,0,0,0,0,0,horizontal,horizontal,vertical,horizontal,vertical,horizontal
1d,16,100238,4,15,207,21,F,NA,constant,homogeneous,6,absent,1.25951313972473,1,horizontal,horizontal,1,0.623528919219971,red,3,NaN,980.31222920257,419.68777079743,NaN,NaN,865.998856501143,846.311085703712,1046.31108570371,665.998856501143,980.31222920257,419.68777079743,734.001143498857,353.688914296288,553.688914296288,534.001143498857,619.68777079743,780.31222920257,0,0,4,0,0,0,horizontal,vertical,horizontal,vertical,vertical,vertical
1d,16,100238,4,16,208,21,F,NA,constant,homogeneous,3,absent,0.734615087509155,1,vertical,vertical,1,0.694115676879883,red,1,NaN,844.280285305067,851.125977018113,NaN,NaN,844.280285305067,851.125977018113,995.341332995339,436.089159529932,560.378381699593,512.784863451954,NaN,NaN,NaN,NaN,NaN,NaN,4,0,0,NaN,NaN,NaN,vertical,horizontal,vertical,none,none,none
1d,16,100238,4,17,209,21,F,NA,constant,homogeneous,4,present,0.706141948699951,1,vertical,vertical,1,0.647057838439941,red,4,1,567.045908301137,496.282156015671,696.282156015671,832.954091698863,696.282156015671,832.954091698863,1032.95409169886,703.717843984329,903.717843984329,367.045908301137,567.045908301137,496.282156015671,NaN,NaN,NaN,NaN,0,0,0,4,NaN,NaN,vertical,vertical,vertical,vertical,none,none
1d,16,100238,4,18,210,21,F,NA,constant,homogeneous,4,present,0.54942798614502,1,horizontal,horizontal,1,1.02352054595947,red,1,4,895.524681321058,836.431882914531,563.568117085469,695.524681321058,895.524681321058,836.431882914531,1036.43188291453,504.475318678942,704.475318678942,363.568117085469,563.568117085469,695.524681321058,NaN,NaN,NaN,NaN,4,0,0,0,NaN,NaN,horizontal,horizontal,vertical,vertical,none,none
1d,16,100238,4,19,211,21,F,NA,constant,homogeneous,6,absent,0.639419078826904,1,vertical,vertical,1,0.764702434539795,red,4,NaN,839.890788585259,348.13947314824,NaN,NaN,760.109211414741,851.86052685176,998.172220171528,760.476699717708,1038.06300875679,508.616172865948,839.890788585259,348.13947314824,601.827779828472,439.523300282291,561.936991243214,691.383827134052,0,0,0,4,0,0,horizontal,vertical,vertical,vertical,vertical,horizontal
1d,16,100238,4,20,212,21,F,NA,constant,homogeneous,4,absent,0.65890097618103,1,vertical,vertical,1,0.917640409469604,red,4,NaN,556.142287229426,674.554784704298,NaN,NaN,874.554784704298,843.857712770574,1043.85771277057,525.445215295702,725.445215295702,356.142287229426,556.142287229426,674.554784704298,NaN,NaN,NaN,NaN,0,0,0,4,NaN,NaN,vertical,horizontal,vertical,vertical,none,none
1d,16,100238,4,21,213,21,F,NA,constant,homogeneous,5,present,0.925321102142334,1,vertical,vertical,1,0.647057838439941,red,4,2,639.523300282292,401.827779828472,1046.31108570371,665.998856501143,813.345668841951,854.650531362416,1046.31108570371,665.998856501143,938.882953928832,386.139005173917,639.523300282292,401.827779828472,561.936991243214,691.383827134052,NaN,NaN,0,0,0,4,0,NaN,horizontal,vertical,vertical,vertical,vertical,none
1d,16,100238,4,22,214,21,F,NA,constant,homogeneous,6,absent,0.597989082336426,1,horizontal,horizontal,1,1.09410730361938,red,4,NaN,716.980120613425,358.892763222174,NaN,NaN,883.019879386575,841.107236777826,1050.31493177915,648.656293821019,967.295052392579,407.549057043193,716.980120613425,358.892763222174,549.685068220846,551.343706178981,632.704947607421,792.450942956807,0,0,0,4,0,0,horizontal,horizontal,vertical,horizontal,horizontal,vertical
1d,16,100238,4,23,215,21,F,NA,constant,homogeneous,3,absent,0.727780103683472,1,vertical,vertical,1,1.09410730361938,red,1,NaN,668.665290897936,818.577661679039,NaN,NaN,668.665290897936,818.577661679039,1054.96116226488,604.450363641507,676.373546837184,376.971974679454,NaN,NaN,NaN,NaN,NaN,NaN,4,0,0,NaN,NaN,NaN,vertical,horizontal,horizontal,none,none,none
1d,16,100238,4,24,216,21,F,NA,constant,homogeneous,5,absent,0.82115912437439,1,horizontal,horizontal,1,0.729409055709839,red,1,NaN,764.510859255183,852.518357529101,NaN,NaN,764.510859255183,852.518357529101,1029.19248180629,711.784642431215,977.137884467044,416.568350913644,680.284751489598,374.848363820974,548.874022981887,644.280285305067,NaN,NaN,4,0,0,0,0,NaN,horizontal,vertical,vertical,horizontal,horizontal,none
1d,16,100238,4,25,217,21,F,NA,constant,homogeneous,4,present,0.624614953994751,1,horizontal,horizontal,1,0.764702434539795,red,3,1,704.475318678942,363.568117085469,895.524681321058,836.431882914531,895.524681321058,836.431882914531,1036.43188291453,504.475318678942,704.475318678942,363.568117085469,563.568117085469,695.524681321058,NaN,NaN,NaN,NaN,0,0,4,0,NaN,NaN,horizontal,vertical,horizontal,horizontal,none,none
1d,16,100238,4,26,218,21,F,NA,constant,homogeneous,3,absent,0.5594642162323,1,horizontal,horizontal,1,1.09410730361938,red,1,NaN,688.215357568785,829.192481806288,NaN,NaN,688.215357568785,829.192481806288,1054.37883281626,582.212099195248,657.405809614959,388.595418998464,NaN,NaN,NaN,NaN,NaN,NaN,4,0,0,NaN,NaN,NaN,horizontal,vertical,vertical,none,none,none
1d,16,100238,4,27,219,21,F,NA,constant,homogeneous,5,absent,1.25378608703613,1,horizontal,horizontal,1,0.741173515319824,red,3,NaN,1025.15163617903,480.284751489598,NaN,NaN,688.215357568785,829.192481806288,983.431649086356,777.137884467044,1025.15163617903,480.284751489598,755.719714694933,348.874022981887,547.481642470899,564.510859255183,NaN,NaN,0,0,4,0,0,NaN,vertical,horizontal,horizontal,horizontal,horizontal,none
1d,16,100238,4,28,220,21,F,NA,constant,homogeneous,5,absent,0.878393888473511,1,horizontal,horizontal,1,0.764702434539795,red,2,NaN,1039.62161830041,687.215136548046,NaN,NaN,791.100628340862,854.844660889869,1039.62161830041,687.215136548046,956.993676208043,399.057257830286,657.405809614959,388.595418998464,554.878267535729,670.287525733335,NaN,NaN,0,4,0,0,0,NaN,vertical,horizontal,vertical,horizontal,horizontal,none
1d,16,100238,4,29,221,21,F,NA,constant,homogeneous,5,present,0.795085191726685,1,horizontal,horizontal,1,0.75293797492981,red,1,3,716.980120613425,841.107236777826,1008.88377129369,453.738008730483,716.980120613425,841.107236777826,1003.65205506206,753.462830903772,1008.88377129369,453.738008730483,725.445215295702,356.142287229426,545.03883773512,595.549636358493,NaN,NaN,4,0,0,0,0,NaN,horizontal,horizontal,horizontal,vertical,horizontal,none
1d,16,100238,4,30,222,21,F,NA,constant,homogeneous,5,present,0.701172828674316,1,horizontal,horizontal,1,0.717644596099854,red,5,2,547.481642470899,635.489140744817,1025.15163617903,719.715248510402,755.719714694933,851.125977018113,1025.15163617903,719.715248510402,983.431649086356,422.862115532956,688.215357568785,370.807518193712,547.481642470899,635.489140744817,NaN,NaN,0,0,0,0,4,NaN,horizontal,vertical,horizontal,horizontal,horizontal,none
1d,16,100238,4,31,223,21,F,NA,constant,homogeneous,4,present,0.764487981796265,1,vertical,vertical,1,0.847053651809692,red,1,4,712.784863451954,839.621618300407,560.378381699593,512.784863451954,712.784863451954,839.621618300407,1039.62161830041,687.215136548046,887.215136548046,360.378381699593,560.378381699593,512.784863451954,NaN,NaN,NaN,NaN,4,0,0,0,NaN,NaN,vertical,vertical,horizontal,vertical,none,none
1d,16,100238,4,32,224,21,F,NA,constant,homogeneous,3,present,0.620385885238647,1,horizontal,horizontal,1,0.823524732589722,red,3,1,560.378381699593,512.784863451954,844.280285305067,851.125977018113,844.280285305067,851.125977018113,995.341332995339,436.089159529932,560.378381699593,512.784863451954,NaN,NaN,NaN,NaN,NaN,NaN,0,0,4,NaN,NaN,NaN,horizontal,vertical,horizontal,none,none,none
1d,16,100238,4,33,225,21,F,NA,constant,homogeneous,6,present,0.8821120262146,1,vertical,vertical,1,0.858818111419678,red,2,6,1055,600,672.5,820.836477965032,927.5,820.836477965032,1055,600,927.5,379.163522034968,672.5,379.163522034968,545,600,672.5,820.836477965032,0,4,0,0,0,0,horizontal,vertical,horizontal,horizontal,horizontal,vertical
1d,16,100238,4,34,226,21,F,NA,constant,homogeneous,6,absent,0.680349111557007,0,vertical,horizontal,1,0.811760272979736,red,5,NaN,604.658667004661,436.089159529932,NaN,NaN,755.719714694933,851.125977018113,995.341332995339,763.910840470068,1039.62161830041,512.784863451954,844.280285305067,348.874022981887,604.658667004661,436.089159529932,560.378381699593,687.215136548046,0,0,0,0,4,0,horizontal,vertical,horizontal,horizontal,vertical,horizontal
1d,16,100238,4,35,227,21,F,NA,constant,homogeneous,5,present,0.784231185913086,1,vertical,vertical,1,0.717644596099854,red,5,1,568.891514305654,707.767656743878,831.076682568313,853.099268668537,831.076682568313,853.099268668537,1050.31493177915,648.656293821019,923.626453162816,376.971974679454,626.090418184063,413.504806087112,568.891514305654,707.767656743878,NaN,NaN,0,0,0,0,4,NaN,vertical,vertical,vertical,vertical,vertical,none
1d,16,100238,4,36,228,21,F,NA,constant,homogeneous,4,absent,0.63648796081543,1,horizontal,horizontal,1,1.02352054595947,red,4,NaN,563.568117085469,695.524681321058,NaN,NaN,895.524681321058,836.431882914531,1036.43188291453,504.475318678942,704.475318678942,363.568117085469,563.568117085469,695.524681321058,NaN,NaN,NaN,NaN,0,0,0,4,NaN,NaN,horizontal,vertical,vertical,horizontal,none,none
1d,16,100238,4,37,229,21,F,NA,constant,homogeneous,6,present,1.00272798538208,1,horizontal,horizontal,1,0.858818111419678,red,5,2,668.665290897936,381.422338320961,931.334709102064,818.577661679039,676.373546837184,823.028025320546,931.334709102064,818.577661679039,1054.96116226488,595.549636358493,923.626453162816,376.971974679454,668.665290897936,381.422338320961,545.03883773512,604.450363641507,0,0,0,0,4,0,vertical,vertical,vertical,vertical,horizontal,horizontal
1d,16,100238,4,38,230,21,F,NA,constant,homogeneous,3,absent,0.525124073028564,1,horizontal,horizontal,1,0.905875949859619,red,3,NaN,563.568117085469,504.475318678942,NaN,NaN,835.489140744817,852.518357529101,1000.94274216971,443.006323791957,563.568117085469,504.475318678942,NaN,NaN,NaN,NaN,NaN,NaN,0,0,4,NaN,NaN,NaN,horizontal,vertical,horizontal,none,none,none
1d,16,100238,4,39,231,21,F,NA,constant,homogeneous,5,present,0.920896053314209,1,vertical,vertical,1,1.05881392478943,red,3,2,1032.95409169886,496.282156015671,970.628304621509,789.501930496736,672.5,820.836477965032,970.628304621509,789.501930496736,1032.95409169886,496.282156015671,773.345241866748,346.39691668109,550.57236181288,546.982518841471,NaN,NaN,0,0,4,0,0,NaN,vertical,horizontal,vertical,horizontal,horizontal,none
1d,16,100238,4,40,232,21,F,NA,constant,homogeneous,3,absent,0.856024980545044,1,horizontal,horizontal,1,1.02352054595947,red,2,NaN,822.224714400653,345.970351986605,NaN,NaN,1008.88377129369,746.261991269517,822.224714400653,345.970351986605,568.891514305654,707.767656743878,NaN,NaN,NaN,NaN,NaN,NaN,0,4,0,NaN,NaN,NaN,vertical,horizontal,horizontal,none,none,none
1d,16,100238,4,41,233,21,F,NA,constant,homogeneous,4,absent,0.880532026290894,1,vertical,vertical,1,0.764702434539795,red,2,NaN,1038.06300875679,691.383827134052,NaN,NaN,708.616172865948,838.063008756786,1038.06300875679,691.383827134052,891.383827134052,361.936991243214,561.936991243214,508.616172865948,NaN,NaN,NaN,NaN,0,4,0,0,NaN,NaN,horizontal,vertical,horizontal,horizontal,none,none
1d,16,100238,4,42,234,21,F,NA,constant,homogeneous,5,present,0.91261100769043,1,horizontal,horizontal,1,0.717644596099854,red,1,2,903.717843984329,832.954091698863,1053.60308331891,573.345241866748,903.717843984329,832.954091698863,1053.60308331891,573.345241866748,853.017481158529,350.57236181288,579.163522034968,472.5,610.498069503264,770.628304621509,NaN,NaN,4,0,0,0,0,NaN,horizontal,vertical,vertical,horizontal,horizontal,none
1d,16,100238,4,43,235,21,F,NA,constant,homogeneous,6,absent,1.31230807304382,1,horizontal,horizontal,1,0.858818111419678,red,4,NaN,848.656293821019,349.685068220846,NaN,NaN,751.343706178981,850.314931779154,992.450942956807,767.295052392579,1041.10723677783,516.980120613425,848.656293821019,349.685068220846,607.549057043193,432.704947607421,558.892763222174,683.019879386575,0,0,0,4,0,0,vertical,vertical,vertical,horizontal,vertical,vertical
1d,16,100238,4,44,236,21,F,NA,constant,homogeneous,4,present,0.788674116134644,1,horizontal,horizontal,1,1.09410730361938,red,4,1,581.422338320961,731.334709102064,931.334709102064,818.577661679039,931.334709102064,818.577661679039,1018.57766167904,468.665290897936,668.665290897936,381.422338320961,581.422338320961,731.334709102064,NaN,NaN,NaN,NaN,0,0,0,4,NaN,NaN,vertical,horizontal,horizontal,horizontal,none,none
1d,16,100238,4,45,237,21,F,NA,constant,homogeneous,5,absent,0.650958061218262,1,vertical,vertical,1,0.729409055709839,red,3,NaN,844.280285305067,348.874022981887,NaN,NaN,911.784642431215,829.192481806288,1052.5183575291,564.510859255183,844.280285305067,348.874022981887,574.848363820974,480.284751489598,616.568350913644,777.137884467044,NaN,NaN,0,0,4,0,0,NaN,vertical,vertical,vertical,vertical,vertical,none
1d,16,100238,4,46,238,21,F,NA,constant,homogeneous,6,absent,1.03387498855591,1,vertical,vertical,1,1.07057838439941,red,1,NaN,672.5,820.836477965032,NaN,NaN,672.5,820.836477965032,927.5,820.836477965032,1055,600,927.5,379.163522034968,672.5,379.163522034968,545,600,4,0,0,0,0,0,vertical,horizontal,horizontal,horizontal,vertical,vertical
1d,16,100238,4,47,239,21,F,NA,constant,homogeneous,6,present,0.723083972930908,1,vertical,vertical,1,1.02352054595947,red,2,5,1049.42763818712,653.017481158529,550.57236181288,546.982518841471,878.799333565612,842.519411655264,1049.42763818712,653.017481158529,970.628304621509,410.498069503264,721.200666434388,357.480588344736,550.57236181288,546.982518841471,629.371695378491,789.501930496736,0,4,0,0,0,0,vertical,vertical,horizontal,vertical,horizontal,vertical
1d,16,100238,4,48,240,21,F,NA,constant,homogeneous,6,present,1.34626698493958,1,vertical,vertical,1,0.823524732589722,red,6,5,661.117046071168,813.860994826083,545.349468637584,586.654331158049,915.767577433584,827.206663668034,1054.65053136242,613.345668841951,938.882953928832,386.139005173917,684.232422566416,372.793336331966,545.349468637584,586.654331158049,661.117046071168,813.860994826083,0,0,0,0,0,4,vertical,vertical,horizontal,horizontal,vertical,vertical
1d,16,100238,4,49,241,21,F,NA,constant,homogeneous,6,absent,0.485997915267944,1,vertical,vertical,1,0.835289192199707,red,1,NaN,680.284751489598,825.151636179026,NaN,NaN,680.284751489598,825.151636179026,935.129412379467,816.252264519889,1054.84466088987,591.100628340862,919.715248510402,374.848363820974,664.870587620533,383.747735480111,545.155339110131,608.899371659138,4,0,0,0,0,0,vertical,horizontal,vertical,vertical,vertical,vertical
1d,16,100238,4,50,242,21,F,NA,constant,homogeneous,5,absent,1.01676201820374,1,vertical,vertical,1,0.847053651809692,red,4,NaN,568.891514305654,492.232343256122,NaN,NaN,923.626453162816,823.028025320546,1050.31493177915,551.343706178981,831.076682568313,346.900731331463,568.891514305654,492.232343256122,626.090418184063,786.495193912888,NaN,NaN,0,0,0,4,0,NaN,horizontal,horizontal,vertical,vertical,vertical,none
1d,16,100238,4,51,243,21,F,NA,constant,homogeneous,4,present,0.623001098632812,1,horizontal,horizontal,1,1.0823428440094,red,3,4,668.665290897936,381.422338320961,581.422338320961,731.334709102064,931.334709102064,818.577661679039,1018.57766167904,468.665290897936,668.665290897936,381.422338320961,581.422338320961,731.334709102064,NaN,NaN,NaN,NaN,0,0,4,0,NaN,NaN,vertical,vertical,horizontal,horizontal,none,none
