experiment,subject,uniqueID,block,trial,trial_cumulative,age,gender,color_cond_blocking,color_history,shape_type,set_size,distractor,rt,acc,target_orient,response_key,response_made,iti,target_color,target_item,distractor_item,target_X,target_Y,distractor_X,distractor_Y,item1_X,item1_Y,item2_X,item2_Y,item3_X,item3_Y,item4_X,item4_Y,item5_X,item5_Y,item6_X,item6_Y,item1_shape,item2_shape,item3_shape,item4_shape,item5_shape,item6_shape,item1_line,item2_line,item3_line,item4_line,item5_line,item6_line
1d,17,100241,1,1,1,19,F,NA,constant,homogeneous,3,absent,0.865189075469971,1,horizontal,horizontal,1,0.799996642346652,green,3,NaN,583.747735480111,464.870587620533,NaN,NaN,791.100628340862,854.844660889869,1025.15163617903,480.284751489598,583.747735480111,464.870587620533,NaN,NaN,NaN,NaN,NaN,NaN,0,0,4,NaN,NaN,NaN,vertical,horizontal,horizontal,none,none,none
1d,17,100241,1,2,2,19,F,NA,constant,homogeneous,3,absent,0.774087905883789,1,horizontal,horizontal,1,0.78823213397332,green,3,NaN,725.445215295702,356.142287229426,NaN,NaN,626.090418184063,786.495193912888,1048.46436652023,657.362518857686,725.445215295702,356.142287229426,NaN,NaN,NaN,NaN,NaN,NaN,0,0,4,NaN,NaN,NaN,horizontal,vertical,horizontal,none,none,none
1d,17,100241,1,3,3,19,F,NA,constant,homogeneous,5,absent,0.759128093719482,1,horizontal,horizontal,1,0.870583692586647,green,5,NaN,610.498069503264,770.628304621509,NaN,NaN,903.717843984329,832.954091698863,1053.60308331891,573.345241866748,853.017481158529,350.57236181288,579.163522034968,472.5,610.498069503264,770.628304621509,NaN,NaN,0,0,0,0,4,NaN,vertical,vertical,vertical,vertical,horizontal,none
1d,17,100241,1,4,4,19,F,NA,constant,homogeneous,5,present,1.11955499649048,1,horizontal,horizontal,1,0.858819184213314,green,2,5,1042.51941165526,521.200666434388,650.114760665419,806.299333565612,949.885239334581,806.299333565612,1042.51941165526,521.200666434388,800,345,557.480588344736,521.200666434388,650.114760665419,806.299333565612,NaN,NaN,0,4,0,0,0,NaN,vertical,horizontal,vertical,vertical,vertical,none
1d,17,100241,1,5,5,19,F,NA,constant,homogeneous,5,present,0.945146083831787,1,vertical,vertical,1,0.74117410047999,green,3,1,861.690083377915,352.574589799621,895.524681321058,836.431882914531,895.524681321058,836.431882914531,1054.37883281626,582.212099195248,861.690083377915,352.574589799621,583.747735480111,464.870587620533,604.658667004661,763.910840470068,NaN,NaN,0,0,4,0,0,NaN,horizontal,horizontal,vertical,vertical,horizontal,none
1d,17,100241,1,6,6,19,F,NA,constant,homogeneous,3,absent,0.76993203163147,1,vertical,vertical,1,1.09410935167996,green,1,NaN,942.594190385041,811.404581001536,NaN,NaN,942.594190385041,811.404581001536,911.784642431215,370.807518193712,545.621167183745,617.787900804752,NaN,NaN,NaN,NaN,NaN,NaN,4,0,0,NaN,NaN,NaN,vertical,vertical,vertical,none,none,none
1d,17,100241,1,7,7,19,F,NA,constant,homogeneous,6,absent,0.622052907943726,1,horizontal,horizontal,1,1.0352868098133,green,6,NaN,572.793336331966,715.767577433584,NaN,NaN,786.654331158049,854.650531362416,1013.86099482608,738.882953928832,1027.20666366803,484.232422566416,813.345668841951,345.349468637584,586.139005173917,461.117046071168,572.793336331966,715.767577433584,0,0,0,0,0,4,vertical,vertical,vertical,horizontal,horizontal,horizontal
1d,17,100241,1,8,8,19,F,NA,constant,homogeneous,3,present,1.40059518814087,0,vertical,horizontal,1,0.682351558613327,green,3,1,558.892763222174,516.980120613425,848.656293821019,850.314931779154,848.656293821019,850.314931779154,992.450942956807,432.704947607421,558.892763222174,516.980120613425,NaN,NaN,NaN,NaN,NaN,NaN,0,0,4,NaN,NaN,NaN,horizontal,horizontal,vertical,none,none,none
1d,17,100241,1,9,9,19,F,NA,constant,homogeneous,3,present,1.26524806022644,1,vertical,vertical,1,0.611764508373332,green,2,1,1034.72873763037,699.636437764765,596.34794493794,753.462830903772,596.34794493794,753.462830903772,1034.72873763037,699.636437764765,768.923317431687,346.900731331463,NaN,NaN,NaN,NaN,NaN,NaN,0,4,0,NaN,NaN,NaN,vertical,vertical,horizontal,none,none,none
1d,17,100241,1,10,10,19,F,NA,constant,homogeneous,5,present,0.695708036422729,1,horizontal,horizontal,1,0.658822541866662,green,5,2,547.481642470899,635.489140744817,1025.15163617903,719.715248510402,755.719714694933,851.125977018113,1025.15163617903,719.715248510402,983.431649086356,422.862115532956,688.215357568785,370.807518193712,547.481642470899,635.489140744817,NaN,NaN,0,0,0,0,4,NaN,vertical,vertical,vertical,horizontal,horizontal,none
1d,17,100241,1,11,11,19,F,NA,constant,homogeneous,3,present,0.830742120742798,1,horizontal,horizontal,1,0.64705803349333,green,1,2,848.656293821019,850.314931779154,992.450942956807,432.704947607421,848.656293821019,850.314931779154,992.450942956807,432.704947607421,558.892763222174,516.980120613425,NaN,NaN,NaN,NaN,NaN,NaN,4,0,0,NaN,NaN,NaN,horizontal,vertical,vertical,none,none,none
1d,17,100241,1,12,12,19,F,NA,constant,homogeneous,4,absent,0.732951879501343,1,horizontal,horizontal,1,1.0705803349333,green,1,NaN,661.117046071168,813.860994826083,NaN,NaN,661.117046071168,813.860994826083,1013.86099482608,738.882953928832,938.882953928832,386.139005173917,586.139005173917,461.117046071168,NaN,NaN,NaN,NaN,4,0,0,0,NaN,NaN,horizontal,vertical,horizontal,horizontal,none,none
1d,17,100241,1,13,13,19,F,NA,constant,homogeneous,3,present,0.539522171020508,1,vertical,vertical,1,0.988228776319972,green,1,3,734.001143498857,846.311085703712,619.68777079743,419.68777079743,734.001143498857,846.311085703712,1046.31108570371,534.001143498857,619.68777079743,419.68777079743,NaN,NaN,NaN,NaN,NaN,NaN,4,0,0,NaN,NaN,NaN,vertical,vertical,vertical,none,none,none
1d,17,100241,1,14,14,19,F,NA,constant,homogeneous,6,absent,0.605405807495117,1,vertical,vertical,1,0.752938608853322,green,6,NaN,579.163522034968,727.5,NaN,NaN,800,855,1020.83647796503,727.5,1020.83647796503,472.5,800,345,579.163522034968,472.5,579.163522034968,727.5,0,0,0,0,0,4,vertical,horizontal,vertical,vertical,horizontal,vertical
1d,17,100241,1,15,15,19,F,NA,constant,homogeneous,6,absent,0.669911861419678,1,vertical,vertical,1,0.811761150719984,green,3,NaN,1054.96116226488,595.549636358493,NaN,NaN,676.373546837184,823.028025320546,931.334709102064,818.577661679039,1054.96116226488,595.549636358493,923.626453162816,376.971974679454,668.665290897936,381.422338320961,545.03883773512,604.450363641507,0,0,4,0,0,0,vertical,horizontal,vertical,horizontal,vertical,horizontal
1d,17,100241,1,16,16,19,F,NA,constant,homogeneous,3,absent,0.642664909362793,1,vertical,vertical,1,0.752938608853322,green,3,NaN,782.212099195248,345.621167183745,NaN,NaN,588.595418998464,742.594190385041,1029.19248180629,711.784642431215,782.212099195248,345.621167183745,NaN,NaN,NaN,NaN,NaN,NaN,0,0,4,NaN,NaN,NaN,horizontal,vertical,vertical,none,none,none
1d,17,100241,1,17,17,19,F,NA,constant,homogeneous,3,absent,0.643751859664917,1,horizontal,horizontal,1,0.6,green,3,NaN,588.595418998464,457.40580961496,NaN,NaN,782.212099195248,854.378832816255,1029.19248180629,488.215357568785,588.595418998464,457.40580961496,NaN,NaN,NaN,NaN,NaN,NaN,0,0,4,NaN,NaN,NaN,horizontal,horizontal,horizontal,none,none,none
1d,17,100241,1,18,18,19,F,NA,constant,homogeneous,6,absent,1.0300281047821,1,horizontal,horizontal,1,0.870583692586647,green,4,NaN,716.980120613425,358.892763222174,NaN,NaN,883.019879386575,841.107236777826,1050.31493177915,648.656293821019,967.295052392579,407.549057043193,716.980120613425,358.892763222174,549.685068220846,551.343706178981,632.704947607421,792.450942956807,0,0,0,4,0,0,vertical,vertical,vertical,horizontal,horizontal,vertical
1d,17,100241,1,19,19,19,F,NA,constant,homogeneous,3,present,0.698275089263916,1,horizontal,horizontal,1,0.976464267946639,green,2,3,1036.43188291453,504.475318678942,599.057257830286,443.006323791957,764.510859255183,852.518357529101,1036.43188291453,504.475318678942,599.057257830286,443.006323791957,NaN,NaN,NaN,NaN,NaN,NaN,0,4,0,NaN,NaN,NaN,vertical,horizontal,vertical,none,none,none
1d,17,100241,1,20,20,19,F,NA,constant,homogeneous,6,absent,1.03998899459839,1,vertical,vertical,1,0.776467625599987,green,5,NaN,560.378381699593,512.784863451954,NaN,NaN,844.280285305067,851.125977018113,1039.62161830041,687.215136548046,995.341332995339,436.089159529932,755.719714694933,348.874022981887,560.378381699593,512.784863451954,604.658667004661,763.910840470068,0,0,0,0,4,0,vertical,vertical,vertical,horizontal,vertical,horizontal
1d,17,100241,1,21,21,19,F,NA,constant,homogeneous,3,present,0.861155986785889,1,horizontal,horizontal,1,0.811761150719984,green,3,1,657.405809614959,388.595418998464,688.215357568785,829.192481806288,688.215357568785,829.192481806288,1054.37883281626,582.212099195248,657.405809614959,388.595418998464,NaN,NaN,NaN,NaN,NaN,NaN,0,0,4,NaN,NaN,NaN,vertical,vertical,horizontal,none,none,none
1d,17,100241,1,22,22,19,F,NA,constant,homogeneous,4,absent,0.67439603805542,1,horizontal,horizontal,1,0.78823213397332,green,3,NaN,632.704947607421,407.549057043193,NaN,NaN,967.295052392579,792.450942956807,992.450942956807,432.704947607421,632.704947607421,407.549057043193,607.549057043193,767.295052392579,NaN,NaN,NaN,NaN,0,0,4,0,NaN,NaN,vertical,vertical,horizontal,vertical,none,none
1d,17,100241,1,23,23,19,F,NA,constant,homogeneous,3,absent,0.545946836471558,1,vertical,vertical,1,1.09410935167996,green,3,NaN,795.549636358493,345.03883773512,NaN,NaN,581.422338320961,731.334709102064,1023.02802532055,723.626453162816,795.549636358493,345.03883773512,NaN,NaN,NaN,NaN,NaN,NaN,0,0,4,NaN,NaN,NaN,vertical,horizontal,vertical,none,none,none
1d,17,100241,1,24,24,19,F,NA,constant,homogeneous,6,absent,0.668762922286987,1,horizontal,horizontal,1,0.988228776319972,green,4,NaN,861.690083377915,352.574589799621,NaN,NaN,738.309916622085,847.425410200379,983.431649086356,777.137884467044,1045.12173246427,529.712474266665,861.690083377915,352.574589799621,616.568350913644,422.862115532956,554.878267535729,670.287525733335,0,0,0,4,0,0,vertical,horizontal,horizontal,horizontal,vertical,vertical
1d,17,100241,1,25,25,19,F,NA,constant,homogeneous,5,absent,0.796792984008789,1,vertical,vertical,1,0.929406234453309,green,2,NaN,1006.29933356561,749.885239334581,NaN,NaN,721.200666434388,842.519411655264,1006.29933356561,749.885239334581,1006.29933356561,450.114760665419,721.200666434388,357.480588344736,545,600,NaN,NaN,0,4,0,0,0,NaN,vertical,vertical,horizontal,vertical,horizontal,none
1d,17,100241,1,26,26,19,F,NA,constant,homogeneous,4,present,0.634006977081299,1,vertical,vertical,1,0.658822541866662,green,3,4,853.017481158529,350.57236181288,550.57236181288,546.982518841471,746.982518841471,849.42763818712,1049.42763818712,653.017481158529,853.017481158529,350.57236181288,550.57236181288,546.982518841471,NaN,NaN,NaN,NaN,0,0,4,0,NaN,NaN,horizontal,vertical,vertical,vertical,none,none
1d,17,100241,1,27,27,19,F,NA,constant,homogeneous,6,present,0.562554836273193,0,vertical,horizontal,1,0.976464267946639,green,6,2,545.970351986605,622.224714400653,946.261991269517,808.883771293693,692.232343256122,831.108485694346,946.261991269517,808.883771293693,1054.0296480134,577.775285599347,907.767656743878,368.891514305654,653.738008730483,391.116228706307,545.970351986605,622.224714400653,0,0,0,0,0,4,horizontal,horizontal,horizontal,vertical,vertical,vertical
1d,17,100241,1,28,28,19,F,NA,constant,homogeneous,4,absent,0.699824094772339,1,horizontal,horizontal,1,0.705880575359992,green,2,NaN,983.431649086356,777.137884467044,NaN,NaN,622.862115532956,783.431649086356,983.431649086356,777.137884467044,977.137884467044,416.568350913644,616.568350913644,422.862115532956,NaN,NaN,NaN,NaN,0,4,0,0,NaN,NaN,vertical,horizontal,vertical,horizontal,none,none
1d,17,100241,1,29,29,19,F,NA,constant,homogeneous,6,present,1.34650611877441,1,horizontal,horizontal,1,0.823525659093317,green,1,2,755.719714694933,851.125977018113,995.341332995339,763.910840470068,755.719714694933,851.125977018113,995.341332995339,763.910840470068,1039.62161830041,512.784863451954,844.280285305067,348.874022981887,604.658667004661,436.089159529932,560.378381699593,687.215136548046,4,0,0,0,0,0,horizontal,vertical,vertical,vertical,horizontal,horizontal
1d,17,100241,1,30,30,19,F,NA,constant,homogeneous,6,present,0.839114904403687,1,horizontal,horizontal,1,0.658822541866662,green,6,1,565.271262369628,699.636437764765,768.923317431687,853.099268668537,768.923317431687,853.099268668537,1003.65205506206,753.462830903772,1034.72873763037,500.363562235235,831.076682568313,346.900731331463,596.34794493794,446.537169096228,565.271262369628,699.636437764765,0,0,0,0,0,4,vertical,vertical,horizontal,vertical,vertical,horizontal
1d,17,100241,1,31,31,19,F,NA,constant,homogeneous,3,absent,0.735836982727051,1,horizontal,horizontal,1,0.6,green,1,NaN,755.719714694933,851.125977018113,NaN,NaN,755.719714694933,851.125977018113,1039.62161830041,512.784863451954,604.658667004661,436.089159529932,NaN,NaN,NaN,NaN,NaN,NaN,4,0,0,NaN,NaN,NaN,horizontal,vertical,horizontal,none,none,none
1d,17,100241,1,32,32,19,F,NA,constant,homogeneous,4,present,0.58196496963501,1,horizontal,horizontal,1,0.964699759573307,green,2,4,980.31222920257,780.31222920257,619.68777079743,419.68777079743,619.68777079743,780.31222920257,980.31222920257,780.31222920257,980.31222920257,419.68777079743,619.68777079743,419.68777079743,NaN,NaN,NaN,NaN,0,4,0,0,NaN,NaN,horizontal,horizontal,vertical,horizontal,none,none
1d,17,100241,1,33,33,19,F,NA,constant,homogeneous,4,present,0.77352499961853,0,vertical,horizontal,1,0.78823213397332,green,4,2,586.139005173917,738.882953928832,1013.86099482608,461.117046071168,938.882953928832,813.860994826083,1013.86099482608,461.117046071168,661.117046071168,386.139005173917,586.139005173917,738.882953928832,NaN,NaN,NaN,NaN,0,0,0,4,NaN,NaN,horizontal,vertical,horizontal,vertical,none,none
1d,17,100241,1,34,34,19,F,NA,constant,homogeneous,6,absent,0.924546957015991,1,vertical,vertical,1,0.976464267946639,green,1,NaN,831.076682568313,853.099268668537,NaN,NaN,831.076682568313,853.099268668537,1034.72873763037,699.636437764765,1003.65205506206,446.537169096228,768.923317431687,346.900731331463,565.271262369628,500.363562235235,596.34794493794,753.462830903772,4,0,0,0,0,0,vertical,vertical,horizontal,horizontal,horizontal,horizontal
1d,17,100241,1,35,35,19,F,NA,constant,homogeneous,6,absent,0.90422511100769,1,horizontal,horizontal,1,0.658822541866662,green,4,NaN,915.767577433584,372.793336331966,NaN,NaN,684.232422566416,827.206663668034,938.882953928832,813.860994826083,1054.65053136242,586.654331158049,915.767577433584,372.793336331966,661.117046071168,386.139005173917,545.349468637584,613.345668841951,0,0,0,4,0,0,horizontal,vertical,horizontal,horizontal,horizontal,horizontal
1d,17,100241,1,36,36,19,F,NA,constant,homogeneous,3,present,0.609884977340698,0,vertical,horizontal,1,0.752938608853322,green,2,1,1016.25226451989,464.870587620533,808.899371659138,854.844660889869,808.899371659138,854.844660889869,1016.25226451989,464.870587620533,574.848363820974,480.284751489598,NaN,NaN,NaN,NaN,NaN,NaN,0,4,0,NaN,NaN,NaN,horizontal,vertical,horizontal,none,none,none
1d,17,100241,1,37,37,19,F,NA,constant,homogeneous,5,present,1.03126692771912,1,vertical,vertical,1,1.04705131818663,green,1,2,700.363562235235,834.728737630372,992.450942956807,767.295052392579,700.363562235235,834.728737630372,992.450942956807,767.295052392579,1018.57766167904,468.665290897936,742.637481142314,351.535633479765,545.970351986605,577.775285599347,NaN,NaN,4,0,0,0,0,NaN,vertical,vertical,vertical,horizontal,vertical,none
1d,17,100241,1,38,38,19,F,NA,constant,homogeneous,4,absent,0.78015398979187,1,vertical,vertical,1,1.02352230143997,green,2,NaN,1032.95409169886,703.717843984329,NaN,NaN,696.282156015671,832.954091698863,1032.95409169886,703.717843984329,903.717843984329,367.045908301137,567.045908301137,496.282156015671,NaN,NaN,NaN,NaN,0,4,0,0,NaN,NaN,horizontal,vertical,horizontal,vertical,none,none
1d,17,100241,1,39,39,19,F,NA,constant,homogeneous,4,present,0.577614068984985,1,vertical,vertical,1,0.870583692586647,green,1,2,700.363562235235,834.728737630372,1034.72873763037,699.636437764765,700.363562235235,834.728737630372,1034.72873763037,699.636437764765,899.636437764765,365.271262369628,565.271262369628,500.363562235235,NaN,NaN,NaN,NaN,4,0,0,0,NaN,NaN,vertical,vertical,vertical,vertical,none,none
1d,17,100241,1,40,40,19,F,NA,constant,homogeneous,6,present,1.00422596931458,1,horizontal,horizontal,1,0.952935251199974,green,5,4,581.422338320961,468.665290897936,804.450363641507,345.03883773512,795.549636358493,854.96116226488,1018.57766167904,731.334709102064,1023.02802532055,476.373546837184,804.450363641507,345.03883773512,581.422338320961,468.665290897936,576.971974679454,723.626453162816,0,0,0,0,4,0,vertical,vertical,horizontal,vertical,horizontal,horizontal
1d,17,100241,1,41,41,19,F,NA,constant,homogeneous,4,absent,0.724285840988159,1,vertical,vertical,1,0.78823213397332,green,3,NaN,915.767577433584,372.793336331966,NaN,NaN,684.232422566416,827.206663668034,1027.20666366803,715.767577433584,915.767577433584,372.793336331966,572.793336331966,484.232422566416,NaN,NaN,NaN,NaN,0,0,4,0,NaN,NaN,horizontal,horizontal,vertical,vertical,none,none
1d,17,100241,1,42,42,19,F,NA,constant,homogeneous,6,present,0.790523767471313,1,vertical,vertical,1,0.78823213397332,green,6,5,650.114760665419,806.299333565612,546.39691668109,573.345241866748,903.717843984329,832.954091698863,1053.60308331891,626.654758133252,949.885239334581,393.700666434388,696.282156015671,367.045908301137,546.39691668109,573.345241866748,650.114760665419,806.299333565612,0,0,0,0,0,4,vertical,vertical,horizontal,vertical,vertical,vertical
1d,17,100241,1,43,43,19,F,NA,constant,homogeneous,6,present,0.55253791809082,1,vertical,vertical,1,0.894112709333312,green,3,5,1053.60308331891,573.345241866748,650.114760665419,393.700666434388,696.282156015671,832.954091698863,949.885239334581,806.299333565612,1053.60308331891,573.345241866748,903.717843984329,367.045908301137,650.114760665419,393.700666434388,546.39691668109,626.654758133252,0,0,4,0,0,0,vertical,horizontal,vertical,horizontal,vertical,horizontal
1d,17,100241,1,44,44,19,F,NA,constant,homogeneous,5,absent,0.716730117797852,1,vertical,vertical,1,1.04705131818663,green,2,NaN,1031.10848569435,707.767656743878,NaN,NaN,768.923317431687,853.099268668537,1031.10848569435,707.767656743878,973.909581815937,413.504806087112,676.373546837184,376.971974679454,549.685068220846,648.656293821019,NaN,NaN,0,4,0,0,0,NaN,vertical,vertical,vertical,vertical,vertical,none
1d,17,100241,1,45,45,19,F,NA,constant,homogeneous,5,present,0.618136882781982,1,vertical,vertical,1,0.729409592106657,green,3,2,878.799333565612,357.480588344736,1055,600,878.799333565612,842.519411655264,1055,600,878.799333565612,357.480588344736,593.700666434388,450.114760665419,593.700666434388,749.885239334581,NaN,NaN,0,0,4,0,0,NaN,vertical,horizontal,vertical,horizontal,vertical,none
1d,17,100241,1,46,46,19,F,NA,constant,homogeneous,5,absent,0.679859161376953,1,horizontal,horizontal,1,0.658822541866662,green,1,NaN,661.117046071168,813.860994826083,NaN,NaN,661.117046071168,813.860994826083,960.476699717708,798.172220171528,1038.06300875679,508.616172865948,786.654331158049,345.349468637584,553.688914296288,534.001143498857,NaN,NaN,4,0,0,0,0,NaN,horizontal,vertical,horizontal,horizontal,vertical,none
1d,17,100241,1,47,47,19,F,NA,constant,homogeneous,5,absent,0.574349164962769,1,horizontal,horizontal,1,0.847054675839982,green,3,NaN,839.890788585259,348.13947314824,NaN,NaN,915.767577433584,827.206663668034,1051.86052685176,560.109211414741,839.890788585259,348.13947314824,572.793336331966,484.232422566416,619.68777079743,780.31222920257,NaN,NaN,0,0,4,0,0,NaN,vertical,vertical,horizontal,horizontal,horizontal,none
1d,17,100241,1,48,48,19,F,NA,constant,homogeneous,4,present,0.905977964401245,1,horizontal,horizontal,1,0.611764508373332,green,4,3,557.480588344736,521.200666434388,878.799333565612,357.480588344736,721.200666434388,842.519411655264,1042.51941165526,678.799333565612,878.799333565612,357.480588344736,557.480588344736,521.200666434388,NaN,NaN,NaN,NaN,0,0,0,4,NaN,NaN,horizontal,horizontal,horizontal,horizontal,none,none
1d,17,100241,1,49,49,19,F,NA,constant,homogeneous,6,present,1.12795495986938,1,horizontal,horizontal,1,0.764703117226655,green,4,1,839.890788585259,348.13947314824,760.109211414741,851.86052685176,760.109211414741,851.86052685176,998.172220171528,760.476699717708,1038.06300875679,508.616172865948,839.890788585259,348.13947314824,601.827779828472,439.523300282291,561.936991243214,691.383827134052,0,0,0,4,0,0,horizontal,horizontal,vertical,horizontal,horizontal,horizontal
1d,17,100241,1,50,50,19,F,NA,constant,homogeneous,5,absent,0.551253080368042,1,vertical,vertical,1,1.0352868098133,green,2,NaN,1047.42541020038,538.309916622085,NaN,NaN,935.129412379467,816.252264519889,1047.42541020038,538.309916622085,817.787900804752,345.621167183745,563.568117085469,504.475318678942,636.089159529932,795.341332995339,NaN,NaN,0,4,0,0,0,NaN,vertical,vertical,horizontal,horizontal,horizontal,none
1d,17,100241,1,51,51,19,F,NA,constant,homogeneous,3,present,0.508640050888062,1,horizontal,horizontal,1,0.705880575359992,green,3,2,553.688914296288,534.001143498857,980.31222920257,419.68777079743,865.998856501143,846.311085703712,980.31222920257,419.68777079743,553.688914296288,534.001143498857,NaN,NaN,NaN,NaN,NaN,NaN,0,0,4,NaN,NaN,NaN,vertical,horizontal,horizontal,none,none,none
1d,17,100241,1,52,52,19,F,NA,constant,homogeneous,6,present,0.676566123962402,1,vertical,vertical,1,0.882348200959979,green,4,1,804.450363641507,345.03883773512,795.549636358493,854.96116226488,795.549636358493,854.96116226488,1018.57766167904,731.334709102064,1023.02802532055,476.373546837184,804.450363641507,345.03883773512,581.422338320961,468.665290897936,576.971974679454,723.626453162816,0,0,0,4,0,0,vertical,vertical,horizontal,vertical,vertical,vertical
1d,17,100241,1,53,53,19,F,NA,constant,homogeneous,4,absent,0.661988019943237,1,horizontal,horizontal,1,0.78823213397332,green,1,NaN,919.715248510402,825.151636179026,NaN,NaN,919.715248510402,825.151636179026,1025.15163617903,480.284751489598,680.284751489598,374.848363820974,574.848363820974,719.715248510402,NaN,NaN,NaN,NaN,4,0,0,0,NaN,NaN,horizontal,vertical,horizontal,horizontal,none,none
1d,17,100241,1,54,54,19,F,NA,constant,homogeneous,5,absent,0.683689832687378,1,horizontal,horizontal,1,0.811761150719984,green,1,NaN,773.345241866748,853.60308331891,NaN,NaN,773.345241866748,853.60308331891,1032.95409169886,703.717843984329,970.628304621509,410.498069503264,672.5,379.163522034968,550.57236181288,653.017481158529,NaN,NaN,4,0,0,0,0,NaN,horizontal,horizontal,horizontal,horizontal,horizontal,none
1d,17,100241,1,55,55,19,F,NA,constant,homogeneous,5,present,0.885110855102539,1,horizontal,horizontal,1,0.976464267946639,green,5,4,553.688914296288,534.001143498857,786.654331158049,345.349468637584,661.117046071168,813.860994826083,960.476699717708,798.172220171528,1038.06300875679,508.616172865948,786.654331158049,345.349468637584,553.688914296288,534.001143498857,NaN,NaN,0,0,0,0,4,NaN,vertical,horizontal,vertical,vertical,horizontal,none
1d,17,100241,1,56,56,19,F,NA,constant,homogeneous,5,present,1.14870500564575,1,horizontal,horizontal,1,0.682351558613327,green,1,4,915.767577433584,827.206663668034,572.793336331966,484.232422566416,915.767577433584,827.206663668034,1051.86052685176,560.109211414741,839.890788585259,348.13947314824,572.793336331966,484.232422566416,619.68777079743,780.31222920257,NaN,NaN,4,0,0,0,0,NaN,horizontal,vertical,vertical,horizontal,horizontal,none
1d,17,100241,1,57,57,19,F,NA,constant,homogeneous,4,present,0.719498872756958,1,horizontal,horizontal,1,0.988228776319972,green,3,2,708.616172865948,361.936991243214,1038.06300875679,508.616172865948,891.383827134052,838.063008756786,1038.06300875679,508.616172865948,708.616172865948,361.936991243214,561.936991243214,691.383827134052,NaN,NaN,NaN,NaN,0,0,4,0,NaN,NaN,vertical,vertical,horizontal,vertical,none,none
1d,17,100241,1,58,58,19,F,NA,constant,homogeneous,4,present,0.555801153182983,1,vertical,vertical,1,1.08234484330663,green,1,2,688.215357568785,829.192481806288,1029.19248180629,711.784642431215,688.215357568785,829.192481806288,1029.19248180629,711.784642431215,911.784642431215,370.807518193712,570.807518193712,488.215357568785,NaN,NaN,NaN,NaN,4,0,0,0,NaN,NaN,vertical,horizontal,horizontal,horizontal,none,none
1d,17,100241,1,59,59,19,F,NA,constant,homogeneous,4,present,1.2877368927002,1,horizontal,horizontal,1,0.623529016746665,green,3,2,878.799333565612,357.480588344736,1042.51941165526,678.799333565612,721.200666434388,842.519411655264,1042.51941165526,678.799333565612,878.799333565612,357.480588344736,557.480588344736,521.200666434388,NaN,NaN,NaN,NaN,0,0,4,0,NaN,NaN,horizontal,horizontal,horizontal,horizontal,none,none
1d,17,100241,1,60,60,19,F,NA,constant,homogeneous,4,absent,0.824587821960449,1,vertical,vertical,1,0.752938608853322,green,2,NaN,998.172220171528,760.476699717708,NaN,NaN,639.523300282292,798.172220171528,998.172220171528,760.476699717708,960.476699717708,401.827779828472,601.827779828472,439.523300282291,NaN,NaN,NaN,NaN,0,4,0,0,NaN,NaN,horizontal,vertical,horizontal,horizontal,none,none
1d,17,100241,1,61,61,19,F,NA,constant,homogeneous,4,absent,0.677562952041626,1,vertical,vertical,1,0.623529016746665,green,3,NaN,927.5,379.163522034968,NaN,NaN,672.5,820.836477965032,1020.83647796503,727.5,927.5,379.163522034968,579.163522034968,472.5,NaN,NaN,NaN,NaN,0,0,4,0,NaN,NaN,vertical,vertical,vertical,horizontal,none,none
1d,17,100241,1,62,62,19,F,NA,constant,homogeneous,5,absent,0.557287931442261,1,vertical,vertical,1,0.894112709333312,green,1,NaN,826.654758133252,853.60308331891,NaN,NaN,826.654758133252,853.60308331891,1049.42763818712,653.017481158529,927.5,379.163522034968,629.371695378491,410.498069503264,567.045908301137,703.717843984329,NaN,NaN,4,0,0,0,0,NaN,vertical,vertical,vertical,vertical,vertical,none
1d,17,100241,1,63,63,19,F,NA,constant,homogeneous,5,present,0.619655132293701,1,vertical,vertical,1,0.764703117226655,green,4,3,734.001143498857,353.688914296288,1013.86099482608,461.117046071168,708.616172865948,838.063008756786,998.172220171528,760.476699717708,1013.86099482608,461.117046071168,734.001143498857,353.688914296288,545.349468637584,586.654331158049,NaN,NaN,0,0,0,4,0,NaN,vertical,vertical,horizontal,vertical,vertical,none
1d,17,100241,1,64,64,19,F,NA,constant,homogeneous,3,absent,0.492276191711426,1,vertical,vertical,1,0.799996642346652,green,1,NaN,970.628304621509,789.501930496736,NaN,NaN,970.628304621509,789.501930496736,878.799333565612,357.480588344736,550.57236181288,653.017481158529,NaN,NaN,NaN,NaN,NaN,NaN,4,0,0,NaN,NaN,NaN,vertical,vertical,horizontal,none,none,none
1d,17,100241,2,1,65,19,F,NA,constant,homogeneous,4,absent,1.75742816925049,1,horizontal,horizontal,1,0.964699759573307,green,2,NaN,1043.85771277057,525.445215295702,NaN,NaN,874.554784704298,843.857712770574,1043.85771277057,525.445215295702,725.445215295702,356.142287229426,556.142287229426,674.554784704298,NaN,NaN,NaN,NaN,0,4,0,0,NaN,NaN,vertical,horizontal,horizontal,vertical,none,none
1d,17,100241,2,2,66,19,F,NA,constant,homogeneous,5,absent,0.838324069976807,1,horizontal,horizontal,1,0.882348200959979,green,4,NaN,729.712474266665,354.878267535729,NaN,NaN,712.784863451954,839.621618300407,1000.94274216971,756.993676208043,1011.40458100154,457.40580961496,729.712474266665,354.878267535729,545.155339110131,591.100628340862,NaN,NaN,0,0,0,4,0,NaN,vertical,horizontal,vertical,horizontal,horizontal,none
1d,17,100241,2,3,67,19,F,NA,constant,homogeneous,4,present,0.723587989807129,1,vertical,vertical,1,0.611764508373332,green,1,4,791.100628340862,854.844660889869,545.155339110131,591.100628340862,791.100628340862,854.844660889869,1054.84466088987,608.899371659138,808.899371659138,345.155339110131,545.155339110131,591.100628340862,NaN,NaN,NaN,NaN,4,0,0,0,NaN,NaN,vertical,vertical,horizontal,horizontal,none,none
1d,17,100241,2,4,68,19,F,NA,constant,homogeneous,6,present,0.761651992797852,1,vertical,vertical,1,0.976464267946639,green,5,1,610.498069503264,429.371695378491,746.982518841471,849.42763818712,746.982518841471,849.42763818712,989.501930496736,770.628304621509,1042.51941165526,521.200666434388,853.017481158529,350.57236181288,610.498069503264,429.371695378491,557.480588344736,678.799333565612,0,0,0,0,4,0,horizontal,vertical,vertical,horizontal,vertical,horizontal
1d,17,100241,2,5,69,19,F,NA,constant,homogeneous,4,absent,0.659166097640991,1,horizontal,horizontal,1,0.905877217706644,green,1,NaN,800,855,NaN,NaN,800,855,1055,600,800,345,545,600,NaN,NaN,NaN,NaN,4,0,0,0,NaN,NaN,horizontal,vertical,horizontal,vertical,none,none
1d,17,100241,2,6,70,19,F,NA,constant,homogeneous,6,absent,0.625913143157959,1,vertical,vertical,1,0.658822541866662,green,4,NaN,887.215136548046,360.378381699593,NaN,NaN,712.784863451954,839.621618300407,963.910840470068,795.341332995339,1051.12597701811,555.719714694933,887.215136548046,360.378381699593,636.089159529932,404.658667004661,548.874022981887,644.280285305067,0,0,0,4,0,0,horizontal,vertical,vertical,vertical,vertical,horizontal
1d,17,100241,2,7,71,19,F,NA,constant,homogeneous,3,present,0.517572164535522,1,vertical,vertical,1,0.752938608853322,green,1,3,970.628304621509,789.501930496736,550.57236181288,653.017481158529,970.628304621509,789.501930496736,878.799333565612,357.480588344736,550.57236181288,653.017481158529,NaN,NaN,NaN,NaN,NaN,NaN,4,0,0,NaN,NaN,NaN,vertical,vertical,horizontal,none,none,none
1d,17,100241,2,8,72,19,F,NA,constant,homogeneous,3,absent,0.557134866714478,1,vertical,vertical,1,1.04705131818663,green,2,NaN,874.554784704298,356.142287229426,NaN,NaN,973.909581815937,786.495193912888,874.554784704298,356.142287229426,551.535633479765,657.362518857686,NaN,NaN,NaN,NaN,NaN,NaN,0,4,0,NaN,NaN,NaN,horizontal,vertical,vertical,none,none,none
1d,17,100241,2,9,73,19,F,NA,constant,homogeneous,4,present,0.538079023361206,1,vertical,vertical,1,0.894112709333312,green,4,2,616.568350913644,777.137884467044,983.431649086356,422.862115532956,977.137884467044,783.431649086356,983.431649086356,422.862115532956,622.862115532956,416.568350913644,616.568350913644,777.137884467044,NaN,NaN,NaN,NaN,0,0,0,4,NaN,NaN,vertical,vertical,vertical,vertical,none,none
1d,17,100241,2,10,74,19,F,NA,constant,homogeneous,3,present,0.461600780487061,1,vertical,vertical,1,1.02352230143997,green,3,1,676.373546837184,376.971974679454,668.665290897936,818.577661679039,668.665290897936,818.577661679039,1054.96116226488,604.450363641507,676.373546837184,376.971974679454,NaN,NaN,NaN,NaN,NaN,NaN,0,0,4,NaN,NaN,NaN,vertical,vertical,vertical,none,none,none
1d,17,100241,2,11,75,19,F,NA,constant,homogeneous,3,absent,0.605600833892822,1,vertical,vertical,1,0.729409592106657,green,2,NaN,1052.5183575291,635.489140744817,NaN,NaN,643.006323791957,800.942742169714,1052.5183575291,635.489140744817,704.475318678942,363.568117085469,NaN,NaN,NaN,NaN,NaN,NaN,0,4,0,NaN,NaN,NaN,vertical,vertical,vertical,none,none,none
1d,17,100241,2,12,76,19,F,NA,constant,homogeneous,5,absent,0.603348016738892,1,vertical,vertical,1,0.670587050239995,green,1,NaN,915.767577433584,827.206663668034,NaN,NaN,915.767577433584,827.206663668034,1051.86052685176,560.109211414741,839.890788585259,348.13947314824,572.793336331966,484.232422566416,619.68777079743,780.31222920257,NaN,NaN,4,0,0,0,0,NaN,vertical,horizontal,vertical,vertical,horizontal,none
1d,17,100241,2,13,77,19,F,NA,constant,homogeneous,5,present,0.65703010559082,1,horizontal,horizontal,1,0.870583692586647,green,1,5,923.626453162816,823.028025320546,626.090418184063,786.495193912888,923.626453162816,823.028025320546,1050.31493177915,551.343706178981,831.076682568313,346.900731331463,568.891514305654,492.232343256122,626.090418184063,786.495193912888,NaN,NaN,4,0,0,0,0,NaN,horizontal,vertical,vertical,horizontal,vertical,none
1d,17,100241,2,14,78,19,F,NA,constant,homogeneous,5,absent,0.742653846740723,0,horizontal,vertical,1,0.823525659093317,green,2,NaN,1023.02802532055,723.626453162816,NaN,NaN,751.343706178981,850.314931779154,1023.02802532055,723.626453162816,986.495193912888,426.090418184063,692.232343256122,368.891514305654,546.900731331463,631.076682568313,NaN,NaN,0,4,0,0,0,NaN,vertical,horizontal,horizontal,vertical,horizontal,none
1d,17,100241,2,15,79,19,F,NA,constant,homogeneous,6,absent,0.849467039108276,1,horizontal,horizontal,1,0.78823213397332,green,5,NaN,545,600,NaN,NaN,927.5,820.836477965032,1055,600,927.5,379.163522034968,672.5,379.163522034968,545,600,672.5,820.836477965032,0,0,0,0,4,0,horizontal,horizontal,horizontal,vertical,horizontal,horizontal
1d,17,100241,2,16,80,19,F,NA,constant,homogeneous,5,absent,0.572382926940918,1,horizontal,horizontal,1,0.682351558613327,green,5,NaN,568.891514305654,707.767656743878,NaN,NaN,831.076682568313,853.099268668537,1050.31493177915,648.656293821019,923.626453162816,376.971974679454,626.090418184063,413.504806087112,568.891514305654,707.767656743878,NaN,NaN,0,0,0,0,4,NaN,vertical,vertical,vertical,vertical,horizontal,none
1d,17,100241,2,17,81,19,F,NA,constant,homogeneous,5,present,0.507073879241943,1,horizontal,horizontal,1,0.752938608853322,green,5,2,622.862115532956,783.431649086356,1051.12597701811,555.719714694933,919.715248510402,825.151636179026,1051.12597701811,555.719714694933,835.489140744817,347.4816424709,570.807518193712,488.215357568785,622.862115532956,783.431649086356,NaN,NaN,0,0,0,0,4,NaN,horizontal,horizontal,vertical,horizontal,horizontal,none
1d,17,100241,2,18,82,19,F,NA,constant,homogeneous,4,present,0.622745990753174,1,vertical,vertical,1,0.870583692586647,green,1,3,946.261991269517,808.883771293693,653.738008730483,391.116228706307,946.261991269517,808.883771293693,1008.88377129369,453.738008730483,653.738008730483,391.116228706307,591.116228706307,746.261991269517,NaN,NaN,NaN,NaN,4,0,0,0,NaN,NaN,vertical,horizontal,vertical,vertical,none,none
1d,17,100241,2,19,83,19,F,NA,constant,homogeneous,4,absent,0.616645097732544,1,vertical,vertical,1,0.858819184213314,green,2,NaN,1043.85771277057,674.554784704298,NaN,NaN,725.445215295702,843.857712770574,1043.85771277057,674.554784704298,874.554784704298,356.142287229426,556.142287229426,525.445215295702,NaN,NaN,NaN,NaN,0,4,0,0,NaN,NaN,horizontal,vertical,vertical,vertical,none,none
1d,17,100241,2,20,84,19,F,NA,constant,homogeneous,3,absent,0.611872911453247,1,horizontal,horizontal,1,0.74117410047999,green,3,NaN,700.363562235235,365.271262369628,NaN,NaN,646.537169096228,803.65205506206,1053.09926866854,631.076682568313,700.363562235235,365.271262369628,NaN,NaN,NaN,NaN,NaN,NaN,0,0,4,NaN,NaN,NaN,horizontal,vertical,horizontal,none,none,none
1d,17,100241,2,21,85,19,F,NA,constant,homogeneous,3,absent,0.6509850025177,1,vertical,vertical,1,0.729409592106657,green,3,NaN,570.807518193712,488.215357568785,NaN,NaN,817.787900804752,854.378832816255,1011.40458100154,457.40580961496,570.807518193712,488.215357568785,NaN,NaN,NaN,NaN,NaN,NaN,0,0,4,NaN,NaN,NaN,horizontal,vertical,vertical,none,none,none
1d,17,100241,2,22,86,19,F,NA,constant,homogeneous,4,present,0.736830949783325,1,horizontal,horizontal,1,0.823525659093317,green,1,3,672.5,820.836477965032,927.5,379.163522034968,672.5,820.836477965032,1020.83647796503,727.5,927.5,379.163522034968,579.163522034968,472.5,NaN,NaN,NaN,NaN,4,0,0,0,NaN,NaN,horizontal,vertical,horizontal,horizontal,none,none
1d,17,100241,2,23,87,19,F,NA,constant,homogeneous,4,present,0.81538200378418,1,horizontal,horizontal,1,0.988228776319972,green,2,4,1050.31493177915,648.656293821019,549.685068220846,551.343706178981,751.343706178981,850.314931779154,1050.31493177915,648.656293821019,848.656293821019,349.685068220846,549.685068220846,551.343706178981,NaN,NaN,NaN,NaN,0,4,0,0,NaN,NaN,vertical,horizontal,vertical,horizontal,none,none
1d,17,100241,2,24,88,19,F,NA,constant,homogeneous,6,absent,0.495824098587036,0,vertical,horizontal,1,0.999993284693304,green,1,NaN,911.784642431215,829.192481806288,NaN,NaN,911.784642431215,829.192481806288,1054.37883281626,617.787900804752,942.594190385041,388.595418998464,688.215357568785,370.807518193712,545.621167183745,582.212099195248,657.405809614959,811.404581001536,4,0,0,0,0,0,vertical,horizontal,horizontal,horizontal,vertical,horizontal
1d,17,100241,2,25,89,19,F,NA,constant,homogeneous,4,present,0.759572982788086,1,horizontal,horizontal,1,0.670587050239995,green,2,4,1053.60308331891,626.654758133252,546.39691668109,573.345241866748,773.345241866748,853.60308331891,1053.60308331891,626.654758133252,826.654758133252,346.39691668109,546.39691668109,573.345241866748,NaN,NaN,NaN,NaN,0,4,0,0,NaN,NaN,horizontal,horizontal,horizontal,vertical,none,none
1d,17,100241,2,26,90,19,F,NA,constant,homogeneous,6,present,0.646775960922241,1,vertical,vertical,1,0.611764508373332,green,2,1,998.172220171528,760.476699717708,760.109211414741,851.86052685176,760.109211414741,851.86052685176,998.172220171528,760.476699717708,1038.06300875679,508.616172865948,839.890788585259,348.13947314824,601.827779828472,439.523300282291,561.936991243214,691.383827134052,0,4,0,0,0,0,horizontal,vertical,vertical,horizontal,vertical,vertical
1d,17,100241,2,27,91,19,F,NA,constant,homogeneous,3,absent,0.675275087356567,1,horizontal,horizontal,1,0.752938608853322,green,2,NaN,1032.95409169886,703.717843984329,NaN,NaN,593.700666434388,749.885239334581,1032.95409169886,703.717843984329,773.345241866748,346.39691668109,NaN,NaN,NaN,NaN,NaN,NaN,0,4,0,NaN,NaN,NaN,horizontal,horizontal,vertical,none,none,none
1d,17,100241,2,28,92,19,F,NA,constant,homogeneous,5,present,0.801853895187378,1,vertical,vertical,1,0.64705803349333,green,4,1,639.523300282292,401.827779828472,813.345668841951,854.650531362416,813.345668841951,854.650531362416,1046.31108570371,665.998856501143,938.882953928832,386.139005173917,639.523300282292,401.827779828472,561.936991243214,691.383827134052,NaN,NaN,0,0,0,4,0,NaN,horizontal,vertical,vertical,vertical,vertical,none
1d,17,100241,2,29,93,19,F,NA,constant,homogeneous,6,present,0.781934976577759,1,horizontal,horizontal,1,0.999993284693304,green,2,3,989.501930496736,770.628304621509,1042.51941165526,521.200666434388,746.982518841471,849.42763818712,989.501930496736,770.628304621509,1042.51941165526,521.200666434388,853.017481158529,350.57236181288,610.498069503264,429.371695378491,557.480588344736,678.799333565612,0,4,0,0,0,0,vertical,horizontal,vertical,horizontal,vertical,horizontal
1d,17,100241,2,30,94,19,F,NA,constant,homogeneous,4,absent,0.9670090675354,1,vertical,vertical,1,0.658822541866662,green,3,NaN,919.715248510402,374.848363820974,NaN,NaN,680.284751489598,825.151636179026,1025.15163617903,719.715248510402,919.715248510402,374.848363820974,574.848363820974,480.284751489598,NaN,NaN,NaN,NaN,0,0,4,0,NaN,NaN,vertical,horizontal,vertical,horizontal,none,none
1d,17,100241,2,31,95,19,F,NA,constant,homogeneous,4,absent,0.980040073394775,1,horizontal,horizontal,1,0.882348200959979,green,3,NaN,907.767656743878,368.891514305654,NaN,NaN,692.232343256122,831.108485694346,1031.10848569435,707.767656743878,907.767656743878,368.891514305654,568.891514305654,492.232343256122,NaN,NaN,NaN,NaN,0,0,4,0,NaN,NaN,horizontal,vertical,horizontal,vertical,none,none
1d,17,100241,2,32,96,19,F,NA,constant,homogeneous,5,present,0.63251805305481,1,horizontal,horizontal,1,0.623529016746665,green,1,5,773.345241866748,853.60308331891,550.57236181288,653.017481158529,773.345241866748,853.60308331891,1032.95409169886,703.717843984329,970.628304621509,410.498069503264,672.5,379.163522034968,550.57236181288,653.017481158529,NaN,NaN,4,0,0,0,0,NaN,horizontal,horizontal,vertical,horizontal,vertical,none
1d,17,100241,2,33,97,19,F,NA,constant,homogeneous,3,present,0.585894107818604,1,horizontal,horizontal,1,0.83529016746665,green,3,2,616.568350913644,422.862115532956,1045.12173246427,529.712474266665,738.309916622085,847.425410200379,1045.12173246427,529.712474266665,616.568350913644,422.862115532956,NaN,NaN,NaN,NaN,NaN,NaN,0,0,4,NaN,NaN,NaN,vertical,vertical,horizontal,none,none,none
1d,17,100241,2,34,98,19,F,NA,constant,homogeneous,6,present,0.455116987228394,1,horizontal,horizontal,1,0.870583692586647,green,1,2,738.309916622085,847.425410200379,983.431649086356,777.137884467044,738.309916622085,847.425410200379,983.431649086356,777.137884467044,1045.12173246427,529.712474266665,861.690083377915,352.574589799621,616.568350913644,422.862115532956,554.878267535729,670.287525733335,4,0,0,0,0,0,horizontal,horizontal,vertical,vertical,horizontal,vertical
1d,17,100241,2,35,99,19,F,NA,constant,homogeneous,3,present,0.496570110321045,1,horizontal,horizontal,1,0.811761150719984,green,3,2,764.510859255183,347.4816424709,1036.43188291453,695.524681321058,599.057257830286,756.993676208043,1036.43188291453,695.524681321058,764.510859255183,347.4816424709,NaN,NaN,NaN,NaN,NaN,NaN,0,0,4,NaN,NaN,NaN,vertical,horizontal,horizontal,none,none,none
1d,17,100241,2,36,100,19,F,NA,constant,homogeneous,3,absent,0.533972978591919,1,vertical,vertical,1,0.752938608853322,green,3,NaN,751.343706178981,349.685068220846,NaN,NaN,607.549057043193,767.295052392579,1041.10723677783,683.019879386575,751.343706178981,349.685068220846,NaN,NaN,NaN,NaN,NaN,NaN,0,0,4,NaN,NaN,NaN,vertical,horizontal,vertical,none,none,none
1d,17,100241,2,37,101,19,F,NA,constant,homogeneous,6,absent,0.590235948562622,1,horizontal,horizontal,1,0.682351558613327,green,6,NaN,549.685068220846,648.656293821019,NaN,NaN,716.980120613425,841.107236777826,967.295052392579,792.450942956807,1050.31493177915,551.343706178981,883.019879386575,358.892763222174,632.704947607421,407.549057043193,549.685068220846,648.656293821019,0,0,0,0,0,4,horizontal,horizontal,vertical,vertical,vertical,horizontal
1d,17,100241,2,38,102,19,F,NA,constant,homogeneous,5,present,0.60144305229187,1,vertical,vertical,1,0.764703117226655,green,4,1,643.006323791957,399.057257830286,808.899371659138,854.844660889869,808.899371659138,854.844660889869,1045.12173246427,670.287525733335,942.594190385041,388.595418998464,643.006323791957,399.057257830286,560.378381699593,687.215136548046,NaN,NaN,0,0,0,4,0,NaN,vertical,horizontal,horizontal,vertical,vertical,none
1d,17,100241,2,39,103,19,F,NA,constant,homogeneous,4,present,0.50930118560791,1,horizontal,horizontal,1,0.776467625599987,green,4,3,610.498069503264,429.371695378491,970.628304621509,410.498069503264,629.371695378491,789.501930496736,989.501930496736,770.628304621509,970.628304621509,410.498069503264,610.498069503264,429.371695378491,NaN,NaN,NaN,NaN,0,0,0,4,NaN,NaN,horizontal,horizontal,vertical,horizontal,none,none
1d,17,100241,2,40,104,19,F,NA,constant,homogeneous,6,present,0.682579040527344,1,horizontal,horizontal,1,0.941170742826642,green,1,2,773.345241866748,853.60308331891,1006.29933356561,749.885239334581,773.345241866748,853.60308331891,1006.29933356561,749.885239334581,1032.95409169886,496.282156015671,826.654758133252,346.39691668109,593.700666434388,450.114760665419,567.045908301137,703.717843984329,4,0,0,0,0,0,horizontal,horizontal,vertical,vertical,horizontal,horizontal
1d,17,100241,2,41,105,19,F,NA,constant,homogeneous,3,present,0.651036024093628,1,vertical,vertical,1,0.729409592106657,green,2,1,1032.95409169886,703.717843984329,593.700666434388,749.885239334581,593.700666434388,749.885239334581,1032.95409169886,703.717843984329,773.345241866748,346.39691668109,NaN,NaN,NaN,NaN,NaN,NaN,0,4,0,NaN,NaN,NaN,horizontal,vertical,vertical,none,none,none
1d,17,100241,2,42,106,19,F,NA,constant,homogeneous,5,present,0.695341825485229,1,horizontal,horizontal,1,0.752938608853322,green,4,2,591.116228706307,453.738008730483,1054.96116226488,595.549636358493,883.019879386575,841.107236777826,1054.96116226488,595.549636358493,874.554784704298,356.142287229426,591.116228706307,453.738008730483,596.34794493794,753.462830903772,NaN,NaN,0,0,0,4,0,NaN,vertical,vertical,vertical,horizontal,horizontal,none
1d,17,100241,2,43,107,19,F,NA,constant,homogeneous,5,absent,0.754634857177734,1,vertical,vertical,1,1.05881582655997,green,3,NaN,942.594190385041,388.595418998464,NaN,NaN,808.899371659138,854.844660889869,1045.12173246427,670.287525733335,942.594190385041,388.595418998464,643.006323791957,399.057257830286,560.378381699593,687.215136548046,NaN,NaN,0,0,4,0,0,NaN,horizontal,vertical,vertical,vertical,vertical,none
1d,17,100241,2,44,108,19,F,NA,constant,homogeneous,5,absent,0.81476092338562,1,vertical,vertical,1,0.64705803349333,green,1,NaN,800,855,NaN,NaN,800,855,1042.51941165526,678.799333565612,949.885239334581,393.700666434388,650.114760665419,393.700666434388,557.480588344736,678.799333565612,NaN,NaN,4,0,0,0,0,NaN,vertical,vertical,horizontal,horizontal,horizontal,none
1d,17,100241,2,45,109,19,F,NA,constant,homogeneous,3,present,0.672230958938599,1,vertical,vertical,1,0.64705803349333,green,3,1,545.03883773512,604.450363641507,931.334709102064,818.577661679039,931.334709102064,818.577661679039,923.626453162816,376.971974679454,545.03883773512,604.450363641507,NaN,NaN,NaN,NaN,NaN,NaN,0,0,4,NaN,NaN,NaN,horizontal,vertical,vertical,none,none,none
1d,17,100241,2,46,110,19,F,NA,constant,homogeneous,6,present,0.558491945266724,1,vertical,vertical,1,0.823525659093317,green,6,2,588.595418998464,742.594190385041,1029.19248180629,711.784642431215,817.787900804752,854.378832816255,1029.19248180629,711.784642431215,1011.40458100154,457.40580961496,782.212099195248,345.621167183745,570.807518193712,488.215357568785,588.595418998464,742.594190385041,0,0,0,0,0,4,horizontal,horizontal,vertical,vertical,vertical,vertical
1d,17,100241,2,47,111,19,F,NA,constant,homogeneous,4,absent,0.680369853973389,1,vertical,vertical,1,0.929406234453309,green,2,NaN,1016.25226451989,464.870587620533,NaN,NaN,935.129412379467,816.252264519889,1016.25226451989,464.870587620533,664.870587620533,383.747735480111,583.747735480111,735.129412379467,NaN,NaN,NaN,NaN,0,4,0,0,NaN,NaN,vertical,vertical,vertical,horizontal,none,none
1d,17,100241,2,48,112,19,F,NA,constant,homogeneous,4,absent,0.717777013778687,1,horizontal,horizontal,1,0.799996642346652,green,4,NaN,550.57236181288,546.982518841471,NaN,NaN,746.982518841471,849.42763818712,1049.42763818712,653.017481158529,853.017481158529,350.57236181288,550.57236181288,546.982518841471,NaN,NaN,NaN,NaN,0,0,0,4,NaN,NaN,horizontal,vertical,horizontal,horizontal,none,none
1d,17,100241,2,49,113,19,F,NA,constant,homogeneous,6,absent,0.860560894012451,1,vertical,vertical,1,0.999993284693304,green,6,NaN,668.665290897936,818.577661679039,NaN,NaN,923.626453162816,823.028025320546,1054.96116226488,604.450363641507,931.334709102064,381.422338320961,676.373546837184,376.971974679454,545.03883773512,595.549636358493,668.665290897936,818.577661679039,0,0,0,0,0,4,vertical,vertical,vertical,vertical,horizontal,vertical
1d,17,100241,2,50,114,19,F,NA,constant,homogeneous,5,absent,0.812209129333496,1,vertical,vertical,1,0.905877217706644,green,2,NaN,989.501930496736,770.628304621509,NaN,NaN,696.282156015671,832.954091698863,989.501930496736,770.628304621509,1020.83647796503,472.5,746.982518841471,350.57236181288,546.39691668109,573.345241866748,NaN,NaN,0,4,0,0,0,NaN,horizontal,vertical,vertical,vertical,horizontal,none
1d,17,100241,2,51,115,19,F,NA,constant,homogeneous,5,present,0.52407693862915,1,vertical,vertical,1,0.952935251199974,green,3,5,949.885239334581,393.700666434388,557.480588344736,678.799333565612,800,855,1042.51941165526,678.799333565612,949.885239334581,393.700666434388,650.114760665419,393.700666434388,557.480588344736,678.799333565612,NaN,NaN,0,0,4,0,0,NaN,vertical,horizontal,vertical,horizontal,horizontal,none
1d,17,100241,2,52,116,19,F,NA,constant,homogeneous,3,present,0.670018911361694,1,horizontal,horizontal,1,0.988228776319972,green,3,2,572.793336331966,484.232422566416,1013.86099482608,461.117046071168,813.345668841951,854.650531362416,1013.86099482608,461.117046071168,572.793336331966,484.232422566416,NaN,NaN,NaN,NaN,NaN,NaN,0,0,4,NaN,NaN,NaN,vertical,horizontal,horizontal,none,none,none
1d,17,100241,2,53,117,19,F,NA,constant,homogeneous,6,absent,0.670646905899048,1,vertical,vertical,1,0.74117410047999,green,3,NaN,1048.46436652023,542.637481142314,NaN,NaN,725.445215295702,843.857712770574,973.909581815937,786.495193912888,1048.46436652023,542.637481142314,874.554784704298,356.142287229426,626.090418184063,413.504806087112,551.535633479765,657.362518857686,0,0,4,0,0,0,vertical,vertical,vertical,vertical,vertical,horizontal
1d,17,100241,2,54,118,19,F,NA,constant,homogeneous,6,present,0.652175903320312,1,vertical,vertical,1,0.6,green,4,6,915.767577433584,372.793336331966,545.349468637584,613.345668841951,684.232422566416,827.206663668034,938.882953928832,813.860994826083,1054.65053136242,586.654331158049,915.767577433584,372.793336331966,661.117046071168,386.139005173917,545.349468637584,613.345668841951,0,0,0,4,0,0,horizontal,horizontal,vertical,vertical,horizontal,horizontal
1d,17,100241,2,55,119,19,F,NA,constant,homogeneous,5,present,0.584898948669434,1,vertical,vertical,1,0.976464267946639,green,5,1,545.349468637584,613.345668841951,734.001143498857,846.311085703712,734.001143498857,846.311085703712,1013.86099482608,738.882953928832,998.172220171528,439.523300282291,708.616172865948,361.936991243214,545.349468637584,613.345668841951,NaN,NaN,0,0,0,0,4,NaN,horizontal,horizontal,horizontal,horizontal,vertical,none
1d,17,100241,2,56,120,19,F,NA,constant,homogeneous,6,present,0.834007024765015,1,horizontal,horizontal,1,0.858819184213314,green,3,4,1038.06300875679,508.616172865948,839.890788585259,348.13947314824,760.109211414741,851.86052685176,998.172220171528,760.476699717708,1038.06300875679,508.616172865948,839.890788585259,348.13947314824,601.827779828472,439.523300282291,561.936991243214,691.383827134052,0,0,4,0,0,0,horizontal,vertical,horizontal,horizontal,horizontal,horizontal
1d,17,100241,2,57,121,19,F,NA,constant,homogeneous,5,absent,0.734246969223022,1,horizontal,horizontal,1,0.964699759573307,green,2,NaN,1052.5183575291,564.510859255183,NaN,NaN,911.784642431215,829.192481806288,1052.5183575291,564.510859255183,844.280285305067,348.874022981887,574.848363820974,480.284751489598,616.568350913644,777.137884467044,NaN,NaN,0,4,0,0,0,NaN,vertical,horizontal,vertical,vertical,vertical,none
1d,17,100241,2,58,122,19,F,NA,constant,homogeneous,3,present,0.881916046142578,1,horizontal,horizontal,1,0.64705803349333,green,3,1,568.891514305654,492.232343256122,822.224714400653,854.029648013395,822.224714400653,854.029648013395,1008.88377129369,453.738008730483,568.891514305654,492.232343256122,NaN,NaN,NaN,NaN,NaN,NaN,0,0,4,NaN,NaN,NaN,horizontal,vertical,horizontal,none,none,none
1d,17,100241,2,59,123,19,F,NA,constant,homogeneous,4,present,0.681534767150879,1,vertical,vertical,1,0.682351558613327,green,2,1,1052.5183575291,635.489140744817,764.510859255183,852.518357529101,764.510859255183,852.518357529101,1052.5183575291,635.489140744817,835.489140744817,347.4816424709,547.481642470899,564.510859255183,NaN,NaN,NaN,NaN,0,4,0,0,NaN,NaN,horizontal,vertical,horizontal,horizontal,none,none
1d,17,100241,2,60,124,19,F,NA,constant,homogeneous,3,absent,0.751910924911499,1,horizontal,horizontal,1,0.83529016746665,green,1,NaN,613.504806087112,773.909581815937,NaN,NaN,613.504806087112,773.909581815937,1043.85771277057,674.554784704298,742.637481142314,351.535633479765,NaN,NaN,NaN,NaN,NaN,NaN,4,0,0,NaN,NaN,NaN,horizontal,horizontal,vertical,none,none,none
1d,17,100241,2,61,125,19,F,NA,constant,homogeneous,3,absent,0.829267024993896,1,horizontal,horizontal,1,1.09410935167996,green,1,NaN,915.767577433584,827.206663668034,NaN,NaN,915.767577433584,827.206663668034,938.882953928832,386.139005173917,545.349468637584,586.654331158049,NaN,NaN,NaN,NaN,NaN,NaN,4,0,0,NaN,NaN,NaN,horizontal,horizontal,vertical,none,none,none
1d,17,100241,2,62,126,19,F,NA,constant,homogeneous,6,absent,0.747573852539062,1,horizontal,horizontal,1,1.0705803349333,green,5,NaN,639.523300282292,401.827779828472,NaN,NaN,708.616172865948,838.063008756786,960.476699717708,798.172220171528,1051.86052685176,560.109211414741,891.383827134052,361.936991243214,639.523300282292,401.827779828472,548.13947314824,639.890788585259,0,0,0,0,4,0,horizontal,vertical,vertical,vertical,horizontal,horizontal
1d,17,100241,2,63,127,19,F,NA,constant,homogeneous,4,absent,0.682698011398315,1,vertical,vertical,1,0.799996642346652,green,1,NaN,808.899371659138,854.844660889869,NaN,NaN,808.899371659138,854.844660889869,1054.84466088987,591.100628340862,791.100628340862,345.155339110131,545.155339110131,608.899371659138,NaN,NaN,NaN,NaN,4,0,0,0,NaN,NaN,vertical,horizontal,horizontal,horizontal,none,none
1d,17,100241,2,64,128,19,F,NA,constant,homogeneous,6,absent,0.70966100692749,1,horizontal,horizontal,1,1.0705803349333,green,4,NaN,795.549636358493,345.03883773512,NaN,NaN,804.450363641507,854.96116226488,1023.02802532055,723.626453162816,1018.57766167904,468.665290897936,795.549636358493,345.03883773512,576.971974679454,476.373546837184,581.422338320961,731.334709102064,0,0,0,4,0,0,vertical,vertical,vertical,horizontal,horizontal,vertical
1d,17,100241,3,1,129,19,F,NA,constant,homogeneous,3,absent,0.834282875061035,1,vertical,vertical,1,0.64705803349333,green,1,NaN,1016.25226451989,735.129412379467,NaN,NaN,1016.25226451989,735.129412379467,808.899371659138,345.155339110131,574.848363820974,719.715248510402,NaN,NaN,NaN,NaN,NaN,NaN,4,0,0,NaN,NaN,NaN,vertical,horizontal,horizontal,none,none,none
1d,17,100241,3,2,130,19,F,NA,constant,homogeneous,6,absent,0.713402986526489,1,horizontal,horizontal,1,0.905877217706644,green,1,NaN,684.232422566416,827.206663668034,NaN,NaN,684.232422566416,827.206663668034,938.882953928832,813.860994826083,1054.65053136242,586.654331158049,915.767577433584,372.793336331966,661.117046071168,386.139005173917,545.349468637584,613.345668841951,4,0,0,0,0,0,horizontal,vertical,horizontal,vertical,horizontal,vertical
1d,17,100241,3,3,131,19,F,NA,constant,homogeneous,4,present,0.728472948074341,1,horizontal,horizontal,1,0.83529016746665,green,2,3,998.172220171528,760.476699717708,960.476699717708,401.827779828472,639.523300282292,798.172220171528,998.172220171528,760.476699717708,960.476699717708,401.827779828472,601.827779828472,439.523300282291,NaN,NaN,NaN,NaN,0,4,0,0,NaN,NaN,horizontal,horizontal,vertical,vertical,none,none
1d,17,100241,3,4,132,19,F,NA,constant,homogeneous,5,absent,0.739289045333862,1,horizontal,horizontal,1,0.799996642346652,green,5,NaN,563.568117085469,695.524681321058,NaN,NaN,817.787900804752,854.378832816255,1047.42541020038,661.690083377915,935.129412379467,383.747735480111,636.089159529932,404.658667004661,563.568117085469,695.524681321058,NaN,NaN,0,0,0,0,4,NaN,horizontal,horizontal,vertical,horizontal,horizontal,none
1d,17,100241,3,5,133,19,F,NA,constant,homogeneous,6,absent,0.973188161849976,1,vertical,vertical,1,0.752938608853322,green,3,NaN,967.295052392579,407.549057043193,NaN,NaN,883.019879386575,841.107236777826,1050.31493177915,648.656293821019,967.295052392579,407.549057043193,716.980120613425,358.892763222174,549.685068220846,551.343706178981,632.704947607421,792.450942956807,0,0,4,0,0,0,vertical,vertical,vertical,horizontal,vertical,horizontal
1d,17,100241,3,6,134,19,F,NA,constant,homogeneous,3,present,0.589897871017456,1,horizontal,horizontal,1,1.0705803349333,green,2,3,808.899371659138,345.155339110131,574.848363820974,719.715248510402,1016.25226451989,735.129412379467,808.899371659138,345.155339110131,574.848363820974,719.715248510402,NaN,NaN,NaN,NaN,NaN,NaN,0,4,0,NaN,NaN,NaN,vertical,horizontal,horizontal,none,none,none
1d,17,100241,3,7,135,19,F,NA,constant,homogeneous,5,present,0.628951072692871,1,horizontal,horizontal,1,0.929406234453309,green,2,5,1048.46436652023,657.362518857686,565.271262369628,699.636437764765,822.224714400653,854.029648013395,1048.46436652023,657.362518857686,931.334709102064,381.422338320961,632.704947607421,407.549057043193,565.271262369628,699.636437764765,NaN,NaN,0,4,0,0,0,NaN,vertical,horizontal,vertical,horizontal,horizontal,none
1d,17,100241,3,8,136,19,F,NA,constant,homogeneous,6,absent,1.53775310516357,1,horizontal,horizontal,1,0.823525659093317,green,3,NaN,956.993676208043,399.057257830286,NaN,NaN,895.524681321058,836.431882914531,1052.5183575291,635.489140744817,956.993676208043,399.057257830286,704.475318678942,363.568117085469,547.481642470899,564.510859255183,643.006323791957,800.942742169714,0,0,4,0,0,0,vertical,vertical,horizontal,horizontal,horizontal,horizontal
1d,17,100241,3,9,137,19,F,NA,constant,homogeneous,4,absent,0.672130823135376,1,vertical,vertical,1,0.764703117226655,green,2,NaN,1052.5183575291,635.489140744817,NaN,NaN,764.510859255183,852.518357529101,1052.5183575291,635.489140744817,835.489140744817,347.4816424709,547.481642470899,564.510859255183,NaN,NaN,NaN,NaN,0,4,0,0,NaN,NaN,vertical,vertical,horizontal,vertical,none,none
1d,17,100241,3,10,138,19,F,NA,constant,homogeneous,3,present,0.514965057373047,1,vertical,vertical,1,1.05881582655997,green,3,2,563.568117085469,504.475318678942,1000.94274216971,443.006323791957,835.489140744817,852.518357529101,1000.94274216971,443.006323791957,563.568117085469,504.475318678942,NaN,NaN,NaN,NaN,NaN,NaN,0,0,4,NaN,NaN,NaN,vertical,vertical,vertical,none,none,none
1d,17,100241,3,11,139,19,F,NA,constant,homogeneous,3,present,0.471232891082764,1,vertical,vertical,1,0.69411606698666,green,3,2,556.142287229426,525.445215295702,986.495193912888,426.090418184063,857.362518857686,848.464366520235,986.495193912888,426.090418184063,556.142287229426,525.445215295702,NaN,NaN,NaN,NaN,NaN,NaN,0,0,4,NaN,NaN,NaN,horizontal,vertical,vertical,none,none,none
1d,17,100241,3,12,140,19,F,NA,constant,homogeneous,6,absent,0.614451885223389,1,vertical,vertical,1,0.894112709333312,green,3,NaN,977.137884467044,416.568350913644,NaN,NaN,870.287525733335,845.121732464271,1047.42541020038,661.690083377915,977.137884467044,416.568350913644,729.712474266665,354.878267535729,552.574589799621,538.309916622085,622.862115532956,783.431649086356,0,0,4,0,0,0,vertical,horizontal,vertical,horizontal,horizontal,horizontal
1d,17,100241,3,13,141,19,F,NA,constant,homogeneous,4,absent,1.22707605361938,1,horizontal,horizontal,1,0.988228776319972,green,2,NaN,1036.43188291453,504.475318678942,NaN,NaN,895.524681321058,836.431882914531,1036.43188291453,504.475318678942,704.475318678942,363.568117085469,563.568117085469,695.524681321058,NaN,NaN,NaN,NaN,0,4,0,0,NaN,NaN,vertical,horizontal,horizontal,vertical,none,none
1d,17,100241,3,14,142,19,F,NA,constant,homogeneous,5,present,0.916990995407104,1,horizontal,horizontal,1,0.658822541866662,green,4,2,773.345241866748,346.39691668109,970.628304621509,789.501930496736,672.5,820.836477965032,970.628304621509,789.501930496736,1032.95409169886,496.282156015671,773.345241866748,346.39691668109,550.57236181288,546.982518841471,NaN,NaN,0,0,0,4,0,NaN,vertical,vertical,vertical,horizontal,horizontal,none
1d,17,100241,3,15,143,19,F,NA,constant,homogeneous,3,absent,0.580074071884155,1,horizontal,horizontal,1,1.02352230143997,green,1,NaN,911.784642431215,829.192481806288,NaN,NaN,911.784642431215,829.192481806288,942.594190385041,388.595418998464,545.621167183745,582.212099195248,NaN,NaN,NaN,NaN,NaN,NaN,4,0,0,NaN,NaN,NaN,horizontal,vertical,horizontal,none,none,none
1d,17,100241,3,16,144,19,F,NA,constant,homogeneous,6,present,1.0685408115387,1,horizontal,horizontal,1,1.0352868098133,green,3,1,1013.86099482608,461.117046071168,813.345668841951,854.650531362416,813.345668841951,854.650531362416,1027.20666366803,715.767577433584,1013.86099482608,461.117046071168,786.654331158049,345.349468637584,572.793336331966,484.232422566416,586.139005173917,738.882953928832,0,0,4,0,0,0,vertical,vertical,horizontal,horizontal,horizontal,vertical
1d,17,100241,3,17,145,19,F,NA,constant,homogeneous,4,present,0.700586080551147,1,horizontal,horizontal,1,0.929406234453309,green,2,4,1053.60308331891,626.654758133252,546.39691668109,573.345241866748,773.345241866748,853.60308331891,1053.60308331891,626.654758133252,826.654758133252,346.39691668109,546.39691668109,573.345241866748,NaN,NaN,NaN,NaN,0,4,0,0,NaN,NaN,vertical,horizontal,vertical,vertical,none,none
1d,17,100241,3,18,146,19,F,NA,constant,homogeneous,3,absent,0.609338998794556,1,horizontal,horizontal,1,0.729409592106657,green,3,NaN,576.971974679454,723.626453162816,NaN,NaN,1018.57766167904,731.334709102064,804.450363641507,345.03883773512,576.971974679454,723.626453162816,NaN,NaN,NaN,NaN,NaN,NaN,0,0,4,NaN,NaN,NaN,horizontal,horizontal,horizontal,none,none,none
1d,17,100241,3,19,147,19,F,NA,constant,homogeneous,3,present,0.61354398727417,1,vertical,vertical,1,0.999993284693304,green,3,1,557.480588344736,521.200666434388,853.017481158529,849.42763818712,853.017481158529,849.42763818712,989.501930496736,429.371695378491,557.480588344736,521.200666434388,NaN,NaN,NaN,NaN,NaN,NaN,0,0,4,NaN,NaN,NaN,vertical,vertical,vertical,none,none,none
1d,17,100241,3,20,148,19,F,NA,constant,homogeneous,4,present,0.789098978042603,1,vertical,vertical,1,0.752938608853322,green,4,2,545,600,1055,600,800,855,1055,600,800,345,545,600,NaN,NaN,NaN,NaN,0,0,0,4,NaN,NaN,horizontal,vertical,vertical,vertical,none,none
1d,17,100241,3,21,149,19,F,NA,constant,homogeneous,3,present,0.654098033905029,1,horizontal,horizontal,1,1.04705131818663,green,3,2,712.784863451954,360.378381699593,1051.12597701811,644.280285305067,636.089159529932,795.341332995339,1051.12597701811,644.280285305067,712.784863451954,360.378381699593,NaN,NaN,NaN,NaN,NaN,NaN,0,0,4,NaN,NaN,NaN,vertical,horizontal,horizontal,none,none,none
1d,17,100241,3,22,150,19,F,NA,constant,homogeneous,6,present,0.854546070098877,1,vertical,vertical,1,0.964699759573307,green,3,4,935.129412379467,383.747735480111,680.284751489598,374.848363820974,919.715248510402,825.151636179026,1054.84466088987,608.899371659138,935.129412379467,383.747735480111,680.284751489598,374.848363820974,545.155339110131,591.100628340862,664.870587620533,816.252264519889,0,0,4,0,0,0,vertical,horizontal,vertical,vertical,horizontal,horizontal
1d,17,100241,3,23,151,19,F,NA,constant,homogeneous,4,present,0.935417175292969,1,vertical,vertical,1,0.78823213397332,green,1,2,848.656293821019,850.314931779154,1050.31493177915,551.343706178981,848.656293821019,850.314931779154,1050.31493177915,551.343706178981,751.343706178981,349.685068220846,549.685068220846,648.656293821019,NaN,NaN,NaN,NaN,4,0,0,0,NaN,NaN,vertical,horizontal,vertical,horizontal,none,none
1d,17,100241,3,24,152,19,F,NA,constant,homogeneous,5,absent,0.770565986633301,1,vertical,vertical,1,0.6,green,1,NaN,738.309916622085,847.425410200379,NaN,NaN,738.309916622085,847.425410200379,1016.25226451989,735.129412379467,995.341332995339,436.089159529932,704.475318678942,363.568117085469,545.621167183745,617.787900804752,NaN,NaN,4,0,0,0,0,NaN,vertical,horizontal,horizontal,vertical,horizontal,none
1d,17,100241,3,25,153,19,F,NA,constant,homogeneous,4,absent,0.566196203231812,1,vertical,vertical,1,0.611764508373332,green,1,NaN,963.910840470068,795.341332995339,NaN,NaN,963.910840470068,795.341332995339,995.341332995339,436.089159529932,636.089159529932,404.658667004661,604.658667004661,763.910840470068,NaN,NaN,NaN,NaN,4,0,0,0,NaN,NaN,vertical,horizontal,horizontal,vertical,none,none
1d,17,100241,3,26,154,19,F,NA,constant,homogeneous,6,absent,0.803936958312988,1,horizontal,horizontal,1,0.705880575359992,green,6,NaN,568.891514305654,707.767656743878,NaN,NaN,777.775285599347,854.029648013395,1008.88377129369,746.261991269517,1031.10848569435,492.232343256122,822.224714400653,345.970351986605,591.116228706307,453.738008730483,568.891514305654,707.767656743878,0,0,0,0,0,4,vertical,horizontal,vertical,vertical,vertical,horizontal
1d,17,100241,3,27,155,19,F,NA,constant,homogeneous,6,absent,0.932115077972412,1,vertical,vertical,1,1.01175779306664,green,2,NaN,1055,600,NaN,NaN,927.5,820.836477965032,1055,600,927.5,379.163522034968,672.5,379.163522034968,545,600,672.5,820.836477965032,0,4,0,0,0,0,vertical,vertical,horizontal,vertical,horizontal,horizontal
1d,17,100241,3,28,156,19,F,NA,constant,homogeneous,5,absent,1.1189169883728,1,horizontal,horizontal,1,0.776467625599987,green,1,NaN,915.767577433584,827.206663668034,NaN,NaN,915.767577433584,827.206663668034,1051.86052685176,560.109211414741,839.890788585259,348.13947314824,572.793336331966,484.232422566416,619.68777079743,780.31222920257,NaN,NaN,4,0,0,0,0,NaN,horizontal,vertical,vertical,vertical,vertical,none
1d,17,100241,3,29,157,19,F,NA,constant,homogeneous,3,present,0.687808036804199,1,vertical,vertical,1,0.917641726079977,green,3,1,729.712474266665,354.878267535729,622.862115532956,783.431649086356,622.862115532956,783.431649086356,1047.42541020038,661.690083377915,729.712474266665,354.878267535729,NaN,NaN,NaN,NaN,NaN,NaN,0,0,4,NaN,NaN,NaN,vertical,vertical,vertical,none,none,none
1d,17,100241,3,30,158,19,F,NA,constant,homogeneous,3,absent,0.636884927749634,1,vertical,vertical,1,0.764703117226655,green,1,NaN,751.343706178981,850.314931779154,NaN,NaN,751.343706178981,850.314931779154,1041.10723677783,516.980120613425,607.549057043193,432.704947607421,NaN,NaN,NaN,NaN,NaN,NaN,4,0,0,NaN,NaN,NaN,vertical,vertical,vertical,none,none,none
1d,17,100241,3,31,159,19,F,NA,constant,homogeneous,4,present,0.695456027984619,1,horizontal,horizontal,1,0.670587050239995,green,4,3,549.685068220846,551.343706178981,848.656293821019,349.685068220846,751.343706178981,850.314931779154,1050.31493177915,648.656293821019,848.656293821019,349.685068220846,549.685068220846,551.343706178981,NaN,NaN,NaN,NaN,0,0,0,4,NaN,NaN,vertical,horizontal,horizontal,horizontal,none,none
1d,17,100241,3,32,160,19,F,NA,constant,homogeneous,4,absent,0.584167957305908,1,horizontal,horizontal,1,0.941170742826642,green,1,NaN,626.090418184063,786.495193912888,NaN,NaN,626.090418184063,786.495193912888,986.495193912888,773.909581815937,973.909581815937,413.504806087112,613.504806087112,426.090418184063,NaN,NaN,NaN,NaN,4,0,0,0,NaN,NaN,horizontal,horizontal,vertical,horizontal,none,none
1d,17,100241,3,33,161,19,F,NA,constant,homogeneous,6,present,1.07703399658203,1,horizontal,horizontal,1,1.04705131818663,green,2,4,1054.84466088987,608.899371659138,680.284751489598,374.848363820974,919.715248510402,825.151636179026,1054.84466088987,608.899371659138,935.129412379467,383.747735480111,680.284751489598,374.848363820974,545.155339110131,591.100628340862,664.870587620533,816.252264519889,0,4,0,0,0,0,vertical,horizontal,horizontal,horizontal,vertical,vertical
1d,17,100241,3,34,162,19,F,NA,constant,homogeneous,6,absent,0.817592144012451,1,vertical,vertical,1,0.952935251199974,green,6,NaN,650.114760665419,806.299333565612,NaN,NaN,903.717843984329,832.954091698863,1053.60308331891,626.654758133252,949.885239334581,393.700666434388,696.282156015671,367.045908301137,546.39691668109,573.345241866748,650.114760665419,806.299333565612,0,0,0,0,0,4,vertical,vertical,vertical,horizontal,vertical,vertical
1d,17,100241,3,35,163,19,F,NA,constant,homogeneous,5,present,0.579933166503906,1,vertical,vertical,1,1.09410935167996,green,2,4,1043.85771277057,525.445215295702,558.892763222174,516.980120613425,946.261991269517,808.883771293693,1043.85771277057,525.445215295702,804.450363641507,345.03883773512,558.892763222174,516.980120613425,646.537169096228,803.65205506206,NaN,NaN,0,4,0,0,0,NaN,vertical,vertical,horizontal,horizontal,horizontal,none
1d,17,100241,3,36,164,19,F,NA,constant,homogeneous,6,present,0.890294790267944,1,horizontal,horizontal,1,0.717645083733325,green,2,3,935.129412379467,816.252264519889,1054.84466088987,591.100628340862,680.284751489598,825.151636179026,935.129412379467,816.252264519889,1054.84466088987,591.100628340862,919.715248510402,374.848363820974,664.870587620533,383.747735480111,545.155339110131,608.899371659138,0,4,0,0,0,0,vertical,horizontal,horizontal,vertical,vertical,horizontal
1d,17,100241,3,37,165,19,F,NA,constant,homogeneous,6,present,0.856595039367676,1,horizontal,horizontal,1,0.611764508373332,green,4,5,899.636437764765,365.271262369628,646.537169096228,396.34794493794,700.363562235235,834.728737630372,953.462830903772,803.65205506206,1053.09926866854,568.923317431687,899.636437764765,365.271262369628,646.537169096228,396.34794493794,546.900731331463,631.076682568313,0,0,0,4,0,0,vertical,horizontal,horizontal,horizontal,vertical,vertical
1d,17,100241,3,38,166,19,F,NA,constant,homogeneous,5,present,0.575484991073608,1,horizontal,horizontal,1,0.894112709333312,green,3,2,960.476699717708,401.827779828472,1038.06300875679,691.383827134052,786.654331158049,854.650531362416,1038.06300875679,691.383827134052,960.476699717708,401.827779828472,661.117046071168,386.139005173917,553.688914296288,665.998856501143,NaN,NaN,0,0,4,0,0,NaN,vertical,vertical,horizontal,vertical,vertical,none
1d,17,100241,3,39,167,19,F,NA,constant,homogeneous,5,present,0.808079957962036,1,horizontal,horizontal,1,1.0352868098133,green,5,1,545.03883773512,595.549636358493,716.980120613425,841.107236777826,716.980120613425,841.107236777826,1003.65205506206,753.462830903772,1008.88377129369,453.738008730483,725.445215295702,356.142287229426,545.03883773512,595.549636358493,NaN,NaN,0,0,0,0,4,NaN,vertical,vertical,horizontal,horizontal,horizontal,none
1d,17,100241,3,40,168,19,F,NA,constant,homogeneous,3,present,0.569375991821289,1,horizontal,horizontal,1,0.658822541866662,green,1,3,596.34794493794,753.462830903772,768.923317431687,346.900731331463,596.34794493794,753.462830903772,1034.72873763037,699.636437764765,768.923317431687,346.900731331463,NaN,NaN,NaN,NaN,NaN,NaN,4,0,0,NaN,NaN,NaN,horizontal,vertical,horizontal,none,none,none
1d,17,100241,3,41,169,19,F,NA,constant,homogeneous,3,absent,0.581151962280273,1,vertical,vertical,1,0.611764508373332,green,2,NaN,983.431649086356,422.862115532956,NaN,NaN,861.690083377915,847.425410200379,983.431649086356,422.862115532956,554.878267535729,529.712474266665,NaN,NaN,NaN,NaN,NaN,NaN,0,4,0,NaN,NaN,NaN,horizontal,vertical,vertical,none,none,none
1d,17,100241,3,42,170,19,F,NA,constant,homogeneous,4,absent,0.601452112197876,1,vertical,vertical,1,0.623529016746665,green,3,NaN,795.549636358493,345.03883773512,NaN,NaN,804.450363641507,854.96116226488,1054.96116226488,595.549636358493,795.549636358493,345.03883773512,545.03883773512,604.450363641507,NaN,NaN,NaN,NaN,0,0,4,0,NaN,NaN,horizontal,vertical,vertical,vertical,none,none
1d,17,100241,3,43,171,19,F,NA,constant,homogeneous,5,present,0.599637985229492,1,vertical,vertical,1,0.894112709333312,green,2,4,1051.86052685176,560.109211414741,572.793336331966,484.232422566416,915.767577433584,827.206663668034,1051.86052685176,560.109211414741,839.890788585259,348.13947314824,572.793336331966,484.232422566416,619.68777079743,780.31222920257,NaN,NaN,0,4,0,0,0,NaN,horizontal,vertical,horizontal,horizontal,horizontal,none
1d,17,100241,3,44,172,19,F,NA,constant,homogeneous,3,absent,0.631625175476074,1,vertical,vertical,1,0.988228776319972,green,1,NaN,746.982518841471,849.42763818712,NaN,NaN,746.982518841471,849.42763818712,1042.51941165526,521.200666434388,610.498069503264,429.371695378491,NaN,NaN,NaN,NaN,NaN,NaN,4,0,0,NaN,NaN,NaN,vertical,vertical,vertical,none,none,none
1d,17,100241,3,45,173,19,F,NA,constant,homogeneous,4,present,0.531784057617188,1,vertical,vertical,1,0.776467625599987,green,4,3,616.568350913644,777.137884467044,622.862115532956,416.568350913644,977.137884467044,783.431649086356,983.431649086356,422.862115532956,622.862115532956,416.568350913644,616.568350913644,777.137884467044,NaN,NaN,NaN,NaN,0,0,0,4,NaN,NaN,horizontal,vertical,horizontal,vertical,none,none
1d,17,100241,3,46,174,19,F,NA,constant,homogeneous,3,present,0.563894987106323,1,horizontal,horizontal,1,0.658822541866662,green,2,3,1053.09926866854,568.923317431687,646.537169096228,396.34794493794,700.363562235235,834.728737630372,1053.09926866854,568.923317431687,646.537169096228,396.34794493794,NaN,NaN,NaN,NaN,NaN,NaN,0,4,0,NaN,NaN,NaN,horizontal,horizontal,vertical,none,none,none
1d,17,100241,3,47,175,19,F,NA,constant,homogeneous,4,absent,0.975069999694824,1,vertical,vertical,1,0.78823213397332,green,1,NaN,661.117046071168,813.860994826083,NaN,NaN,661.117046071168,813.860994826083,1013.86099482608,738.882953928832,938.882953928832,386.139005173917,586.139005173917,461.117046071168,NaN,NaN,NaN,NaN,4,0,0,0,NaN,NaN,vertical,vertical,vertical,horizontal,none,none
1d,17,100241,3,48,176,19,F,NA,constant,homogeneous,4,absent,0.835008859634399,1,horizontal,horizontal,1,0.799996642346652,green,3,NaN,927.5,379.163522034968,NaN,NaN,672.5,820.836477965032,1020.83647796503,727.5,927.5,379.163522034968,579.163522034968,472.5,NaN,NaN,NaN,NaN,0,0,4,0,NaN,NaN,vertical,horizontal,horizontal,vertical,none,none
1d,17,100241,3,49,177,19,F,NA,constant,homogeneous,4,absent,0.584573984146118,1,horizontal,horizontal,1,0.635293525119997,green,3,NaN,704.475318678942,363.568117085469,NaN,NaN,895.524681321058,836.431882914531,1036.43188291453,504.475318678942,704.475318678942,363.568117085469,563.568117085469,695.524681321058,NaN,NaN,NaN,NaN,0,0,4,0,NaN,NaN,vertical,horizontal,horizontal,vertical,none,none
1d,17,100241,3,50,178,19,F,NA,constant,homogeneous,5,absent,0.692426919937134,0,horizontal,vertical,1,0.999993284693304,green,1,NaN,942.594190385041,811.404581001536,NaN,NaN,942.594190385041,811.404581001536,1045.12173246427,529.712474266665,808.899371659138,345.155339110131,560.378381699593,512.784863451954,643.006323791957,800.942742169714,NaN,NaN,4,0,0,0,0,NaN,horizontal,horizontal,horizontal,vertical,vertical,none
1d,17,100241,3,51,179,19,F,NA,constant,homogeneous,6,present,0.560685873031616,1,vertical,vertical,1,0.717645083733325,green,3,4,983.431649086356,422.862115532956,738.309916622085,352.574589799621,861.690083377915,847.425410200379,1045.12173246427,670.287525733335,983.431649086356,422.862115532956,738.309916622085,352.574589799621,554.878267535729,529.712474266665,616.568350913644,777.137884467044,0,0,4,0,0,0,vertical,horizontal,vertical,horizontal,horizontal,horizontal
1d,17,100241,3,52,180,19,F,NA,constant,homogeneous,5,absent,0.597012042999268,1,vertical,vertical,1,0.64705803349333,green,4,NaN,791.100628340862,345.155339110131,NaN,NaN,657.405809614959,811.404581001536,956.993676208043,800.942742169714,1039.62161830041,512.784863451954,791.100628340862,345.155339110131,554.878267535729,529.712474266665,NaN,NaN,0,0,0,4,0,NaN,horizontal,horizontal,vertical,vertical,vertical,none
1d,17,100241,3,53,181,19,F,NA,constant,homogeneous,4,present,0.622895002365112,1,vertical,vertical,1,0.894112709333312,green,2,1,1054.96116226488,604.450363641507,795.549636358493,854.96116226488,795.549636358493,854.96116226488,1054.96116226488,604.450363641507,804.450363641507,345.03883773512,545.03883773512,595.549636358493,NaN,NaN,NaN,NaN,0,4,0,0,NaN,NaN,horizontal,vertical,vertical,vertical,none,none
1d,17,100241,3,54,182,19,F,NA,constant,homogeneous,3,absent,0.48911714553833,1,horizontal,horizontal,1,1.08234484330663,green,2,NaN,1052.5183575291,564.510859255183,NaN,NaN,704.475318678942,836.431882914531,1052.5183575291,564.510859255183,643.006323791957,399.057257830286,NaN,NaN,NaN,NaN,NaN,NaN,0,4,0,NaN,NaN,NaN,horizontal,horizontal,horizontal,none,none,none
1d,17,100241,3,55,183,19,F,NA,constant,homogeneous,6,present,0.578283071517944,1,vertical,vertical,1,0.952935251199974,green,3,5,1008.88377129369,453.738008730483,568.891514305654,492.232343256122,822.224714400653,854.029648013395,1031.10848569435,707.767656743878,1008.88377129369,453.738008730483,777.775285599347,345.970351986605,568.891514305654,492.232343256122,591.116228706307,746.261991269517,0,0,4,0,0,0,horizontal,vertical,vertical,vertical,vertical,horizontal
1d,17,100241,3,56,184,19,F,NA,constant,homogeneous,5,absent,0.669857978820801,1,vertical,vertical,1,0.999993284693304,green,2,NaN,1054.84466088987,608.899371659138,NaN,NaN,870.287525733335,845.121732464271,1054.84466088987,608.899371659138,887.215136548046,360.378381699593,599.057257830286,443.006323791957,588.595418998464,742.594190385041,NaN,NaN,0,4,0,0,0,NaN,horizontal,vertical,vertical,horizontal,vertical,none
1d,17,100241,3,57,185,19,F,NA,constant,homogeneous,5,present,0.685580015182495,1,vertical,vertical,1,0.69411606698666,green,2,3,1051.12597701811,555.719714694933,835.489140744817,347.4816424709,919.715248510402,825.151636179026,1051.12597701811,555.719714694933,835.489140744817,347.4816424709,570.807518193712,488.215357568785,622.862115532956,783.431649086356,NaN,NaN,0,4,0,0,0,NaN,vertical,vertical,vertical,vertical,vertical,none
1d,17,100241,3,58,186,19,F,NA,constant,homogeneous,3,absent,0.810285091400146,1,horizontal,horizontal,1,0.941170742826642,green,2,NaN,1043.85771277057,674.554784704298,NaN,NaN,613.504806087112,773.909581815937,1043.85771277057,674.554784704298,742.637481142314,351.535633479765,NaN,NaN,NaN,NaN,NaN,NaN,0,4,0,NaN,NaN,NaN,vertical,horizontal,vertical,none,none,none
1d,17,100241,3,59,187,19,F,NA,constant,homogeneous,4,present,0.81175684928894,1,horizontal,horizontal,1,0.64705803349333,green,3,2,672.5,379.163522034968,1020.83647796503,472.5,927.5,820.836477965032,1020.83647796503,472.5,672.5,379.163522034968,579.163522034968,727.5,NaN,NaN,NaN,NaN,0,0,4,0,NaN,NaN,vertical,horizontal,horizontal,horizontal,none,none
1d,17,100241,3,60,188,19,F,NA,constant,homogeneous,5,present,0.882806062698364,1,vertical,vertical,1,0.929406234453309,green,4,2,593.700666434388,450.114760665419,1055,600,878.799333565612,842.519411655264,1055,600,878.799333565612,357.480588344736,593.700666434388,450.114760665419,593.700666434388,749.885239334581,NaN,NaN,0,0,0,4,0,NaN,horizontal,horizontal,horizontal,vertical,vertical,none
1d,17,100241,3,61,189,19,F,NA,constant,homogeneous,5,absent,1.01935505867004,1,horizontal,horizontal,1,0.729409592106657,green,1,NaN,704.475318678942,836.431882914531,NaN,NaN,704.475318678942,836.431882914531,995.341332995339,763.910840470068,1016.25226451989,464.870587620533,738.309916622085,352.574589799621,545.621167183745,582.212099195248,NaN,NaN,4,0,0,0,0,NaN,horizontal,vertical,vertical,horizontal,vertical,none
1d,17,100241,3,62,190,19,F,NA,constant,homogeneous,5,absent,0.800857067108154,1,vertical,vertical,1,0.858819184213314,green,5,NaN,626.090418184063,786.495193912888,NaN,NaN,923.626453162816,823.028025320546,1050.31493177915,551.343706178981,831.076682568313,346.900731331463,568.891514305654,492.232343256122,626.090418184063,786.495193912888,NaN,NaN,0,0,0,0,4,NaN,horizontal,vertical,horizontal,vertical,vertical,none
1d,17,100241,3,63,191,19,F,NA,constant,homogeneous,6,present,0.615961790084839,1,vertical,vertical,1,0.941170742826642,green,3,4,1054.84466088987,591.100628340862,919.715248510402,374.848363820974,680.284751489598,825.151636179026,935.129412379467,816.252264519889,1054.84466088987,591.100628340862,919.715248510402,374.848363820974,664.870587620533,383.747735480111,545.155339110131,608.899371659138,0,0,4,0,0,0,vertical,horizontal,vertical,vertical,vertical,vertical
1d,17,100241,3,64,192,19,F,NA,constant,homogeneous,6,absent,0.882362842559814,1,horizontal,horizontal,1,1.09410935167996,green,1,NaN,817.787900804752,854.378832816255,NaN,NaN,817.787900804752,854.378832816255,1029.19248180629,711.784642431215,1011.40458100154,457.40580961496,782.212099195248,345.621167183745,570.807518193712,488.215357568785,588.595418998464,742.594190385041,4,0,0,0,0,0,horizontal,vertical,horizontal,vertical,vertical,vertical
1d,17,100241,4,1,193,19,F,NA,constant,homogeneous,6,absent,0.858504056930542,1,vertical,vertical,1,0.764703117226655,green,5,NaN,588.595418998464,457.40580961496,NaN,NaN,782.212099195248,854.378832816255,1011.40458100154,742.594190385041,1029.19248180629,488.215357568785,817.787900804752,345.621167183745,588.595418998464,457.40580961496,570.807518193712,711.784642431215,0,0,0,0,4,0,horizontal,horizontal,horizontal,horizontal,vertical,vertical
1d,17,100241,4,2,194,19,F,NA,constant,homogeneous,6,present,0.747772216796875,1,vertical,vertical,1,0.999993284693304,green,1,4,857.362518857686,848.464366520235,742.637481142314,351.535633479765,857.362518857686,848.464366520235,1043.85771277057,674.554784704298,986.495193912888,426.090418184063,742.637481142314,351.535633479765,556.142287229426,525.445215295702,613.504806087112,773.909581815937,4,0,0,0,0,0,vertical,horizontal,vertical,horizontal,horizontal,horizontal
1d,17,100241,4,3,195,19,F,NA,constant,homogeneous,4,present,0.823716878890991,1,horizontal,horizontal,1,0.83529016746665,green,1,3,700.363562235235,834.728737630372,899.636437764765,365.271262369628,700.363562235235,834.728737630372,1034.72873763037,699.636437764765,899.636437764765,365.271262369628,565.271262369628,500.363562235235,NaN,NaN,NaN,NaN,4,0,0,0,NaN,NaN,horizontal,horizontal,horizontal,horizontal,none,none
1d,17,100241,4,4,196,19,F,NA,constant,homogeneous,4,absent,0.768738031387329,1,horizontal,horizontal,1,0.611764508373332,green,1,NaN,935.129412379467,816.252264519889,NaN,NaN,935.129412379467,816.252264519889,1016.25226451989,464.870587620533,664.870587620533,383.747735480111,583.747735480111,735.129412379467,NaN,NaN,NaN,NaN,4,0,0,0,NaN,NaN,horizontal,vertical,vertical,horizontal,none,none
1d,17,100241,4,5,197,19,F,NA,constant,homogeneous,3,absent,0.578627824783325,1,vertical,vertical,1,0.917641726079977,green,1,NaN,857.362518857686,848.464366520235,NaN,NaN,857.362518857686,848.464366520235,986.495193912888,426.090418184063,556.142287229426,525.445215295702,NaN,NaN,NaN,NaN,NaN,NaN,4,0,0,NaN,NaN,NaN,vertical,horizontal,vertical,none,none,none
1d,17,100241,4,6,198,19,F,NA,constant,homogeneous,4,present,0.544764995574951,1,vertical,vertical,1,0.917641726079977,green,2,3,1054.37883281626,582.212099195248,782.212099195248,345.621167183745,817.787900804752,854.378832816255,1054.37883281626,582.212099195248,782.212099195248,345.621167183745,545.621167183745,617.787900804752,NaN,NaN,NaN,NaN,0,4,0,0,NaN,NaN,horizontal,vertical,horizontal,horizontal,none,none
1d,17,100241,4,7,199,19,F,NA,constant,homogeneous,5,absent,0.699447154998779,1,horizontal,horizontal,1,0.988228776319972,green,3,NaN,883.019879386575,358.892763222174,NaN,NaN,874.554784704298,843.857712770574,1054.96116226488,604.450363641507,883.019879386575,358.892763222174,596.34794493794,446.537169096228,591.116228706307,746.261991269517,NaN,NaN,0,0,4,0,0,NaN,vertical,horizontal,horizontal,vertical,vertical,none
1d,17,100241,4,8,200,19,F,NA,constant,homogeneous,6,present,0.696540117263794,1,vertical,vertical,1,0.929406234453309,green,1,3,808.899371659138,854.844660889869,1016.25226451989,464.870587620533,808.899371659138,854.844660889869,1025.15163617903,719.715248510402,1016.25226451989,464.870587620533,791.100628340862,345.155339110131,574.848363820974,480.284751489598,583.747735480111,735.129412379467,4,0,0,0,0,0,vertical,horizontal,vertical,vertical,vertical,horizontal
1d,17,100241,4,9,201,19,F,NA,constant,homogeneous,6,present,0.542973041534424,1,vertical,vertical,1,0.823525659093317,green,4,3,870.287525733335,354.878267535729,1047.42541020038,538.309916622085,729.712474266665,845.121732464271,977.137884467044,783.431649086356,1047.42541020038,538.309916622085,870.287525733335,354.878267535729,622.862115532956,416.568350913644,552.574589799621,661.690083377915,0,0,0,4,0,0,vertical,horizontal,horizontal,vertical,horizontal,vertical
1d,17,100241,4,10,202,19,F,NA,constant,homogeneous,4,present,0.510395050048828,1,vertical,vertical,1,0.823525659093317,green,3,2,791.100628340862,345.155339110131,1054.84466088987,591.100628340862,808.899371659138,854.844660889869,1054.84466088987,591.100628340862,791.100628340862,345.155339110131,545.155339110131,608.899371659138,NaN,NaN,NaN,NaN,0,0,4,0,NaN,NaN,vertical,horizontal,vertical,vertical,none,none
1d,17,100241,4,11,203,19,F,NA,constant,homogeneous,3,absent,0.592225074768066,1,horizontal,horizontal,1,0.776467625599987,green,1,NaN,963.910840470068,795.341332995339,NaN,NaN,963.910840470068,795.341332995339,887.215136548046,360.378381699593,548.874022981887,644.280285305067,NaN,NaN,NaN,NaN,NaN,NaN,4,0,0,NaN,NaN,NaN,horizontal,horizontal,horizontal,none,none,none
1d,17,100241,4,12,204,19,F,NA,constant,homogeneous,5,present,0.625379085540771,1,vertical,vertical,1,1.04705131818663,green,1,5,919.715248510402,825.151636179026,622.862115532956,783.431649086356,919.715248510402,825.151636179026,1051.12597701811,555.719714694933,835.489140744817,347.4816424709,570.807518193712,488.215357568785,622.862115532956,783.431649086356,NaN,NaN,4,0,0,0,0,NaN,vertical,horizontal,vertical,vertical,horizontal,none
1d,17,100241,4,13,205,19,F,NA,constant,homogeneous,5,present,0.744457960128784,1,vertical,vertical,1,0.717645083733325,green,4,3,557.480588344736,521.200666434388,800,345,949.885239334581,806.299333565612,1042.51941165526,521.200666434388,800,345,557.480588344736,521.200666434388,650.114760665419,806.299333565612,NaN,NaN,0,0,0,4,0,NaN,horizontal,vertical,horizontal,vertical,vertical,none
1d,17,100241,4,14,206,19,F,NA,constant,homogeneous,5,present,1.14299511909485,1,horizontal,horizontal,1,0.976464267946639,green,4,5,653.738008730483,391.116228706307,556.142287229426,674.554784704298,795.549636358493,854.96116226488,1041.10723677783,683.019879386575,953.462830903772,396.34794493794,653.738008730483,391.116228706307,556.142287229426,674.554784704298,NaN,NaN,0,0,0,4,0,NaN,horizontal,horizontal,vertical,horizontal,horizontal,none
1d,17,100241,4,15,207,19,F,NA,constant,homogeneous,3,present,0.599510908126831,1,vertical,vertical,1,0.670587050239995,green,1,3,800,855,579.163522034968,472.5,800,855,1020.83647796503,472.5,579.163522034968,472.5,NaN,NaN,NaN,NaN,NaN,NaN,4,0,0,NaN,NaN,NaN,vertical,vertical,horizontal,none,none,none
1d,17,100241,4,16,208,19,F,NA,constant,homogeneous,6,absent,0.712996006011963,1,vertical,vertical,1,0.858819184213314,green,5,NaN,622.862115532956,416.568350913644,NaN,NaN,729.712474266665,845.121732464271,977.137884467044,783.431649086356,1047.42541020038,538.309916622085,870.287525733335,354.878267535729,622.862115532956,416.568350913644,552.574589799621,661.690083377915,0,0,0,0,4,0,vertical,horizontal,vertical,vertical,vertical,vertical
1d,17,100241,4,17,209,19,F,NA,constant,homogeneous,3,present,0.517302989959717,1,vertical,vertical,1,1.09410935167996,green,1,3,721.200666434388,842.519411655264,629.371695378491,410.498069503264,721.200666434388,842.519411655264,1049.42763818712,546.982518841471,629.371695378491,410.498069503264,NaN,NaN,NaN,NaN,NaN,NaN,4,0,0,NaN,NaN,NaN,vertical,vertical,vertical,none,none,none
1d,17,100241,4,18,210,19,F,NA,constant,homogeneous,3,absent,0.511914968490601,1,vertical,vertical,1,1.01175779306664,green,1,NaN,853.017481158529,849.42763818712,NaN,NaN,853.017481158529,849.42763818712,989.501930496736,429.371695378491,557.480588344736,521.200666434388,NaN,NaN,NaN,NaN,NaN,NaN,4,0,0,NaN,NaN,NaN,vertical,horizontal,horizontal,none,none,none
1d,17,100241,4,19,211,19,F,NA,constant,homogeneous,3,present,0.582324028015137,1,horizontal,horizontal,1,0.78823213397332,green,1,3,1011.40458100154,742.594190385041,570.807518193712,711.784642431215,1011.40458100154,742.594190385041,817.787900804752,345.621167183745,570.807518193712,711.784642431215,NaN,NaN,NaN,NaN,NaN,NaN,4,0,0,NaN,NaN,NaN,horizontal,horizontal,vertical,none,none,none
1d,17,100241,4,20,212,19,F,NA,constant,homogeneous,4,absent,0.649662017822266,1,horizontal,horizontal,1,0.976464267946639,green,3,NaN,632.704947607421,407.549057043193,NaN,NaN,967.295052392579,792.450942956807,992.450942956807,432.704947607421,632.704947607421,407.549057043193,607.549057043193,767.295052392579,NaN,NaN,NaN,NaN,0,0,4,0,NaN,NaN,vertical,horizontal,horizontal,vertical,none,none
1d,17,100241,4,21,213,19,F,NA,constant,homogeneous,6,absent,0.544729948043823,1,vertical,vertical,1,1.09410935167996,green,2,NaN,1041.10723677783,683.019879386575,NaN,NaN,848.656293821019,850.314931779154,1041.10723677783,683.019879386575,992.450942956807,432.704947607421,751.343706178981,349.685068220846,558.892763222174,516.980120613425,607.549057043193,767.295052392579,0,4,0,0,0,0,vertical,vertical,horizontal,horizontal,vertical,vertical
1d,17,100241,4,22,214,19,F,NA,constant,homogeneous,3,present,0.583271980285645,1,vertical,vertical,1,0.976464267946639,green,1,2,817.787900804752,854.378832816255,1011.40458100154,457.40580961496,817.787900804752,854.378832816255,1011.40458100154,457.40580961496,570.807518193712,488.215357568785,NaN,NaN,NaN,NaN,NaN,NaN,4,0,0,NaN,NaN,NaN,vertical,horizontal,horizontal,none,none,none
1d,17,100241,4,23,215,19,F,NA,constant,homogeneous,4,absent,0.527369976043701,1,vertical,vertical,1,0.811761150719984,green,1,NaN,804.450363641507,854.96116226488,NaN,NaN,804.450363641507,854.96116226488,1054.96116226488,595.549636358493,795.549636358493,345.03883773512,545.03883773512,604.450363641507,NaN,NaN,NaN,NaN,4,0,0,0,NaN,NaN,vertical,horizontal,vertical,vertical,none,none
1d,17,100241,4,24,216,19,F,NA,constant,homogeneous,6,present,0.668437957763672,1,horizontal,horizontal,1,0.929406234453309,green,5,3,632.704947607421,407.549057043193,1050.31493177915,551.343706178981,716.980120613425,841.107236777826,967.295052392579,792.450942956807,1050.31493177915,551.343706178981,883.019879386575,358.892763222174,632.704947607421,407.549057043193,549.685068220846,648.656293821019,0,0,0,0,4,0,horizontal,horizontal,vertical,vertical,horizontal,vertical
1d,17,100241,4,25,217,19,F,NA,constant,homogeneous,4,present,0.679865837097168,1,vertical,vertical,1,0.69411606698666,green,2,1,980.31222920257,419.68777079743,980.31222920257,780.31222920257,980.31222920257,780.31222920257,980.31222920257,419.68777079743,619.68777079743,419.68777079743,619.68777079743,780.31222920257,NaN,NaN,NaN,NaN,0,4,0,0,NaN,NaN,horizontal,vertical,horizontal,vertical,none,none
1d,17,100241,4,26,218,19,F,NA,constant,homogeneous,6,present,0.841761112213135,1,horizontal,horizontal,1,0.611764508373332,green,6,4,581.422338320961,731.334709102064,795.549636358493,345.03883773512,804.450363641507,854.96116226488,1023.02802532055,723.626453162816,1018.57766167904,468.665290897936,795.549636358493,345.03883773512,576.971974679454,476.373546837184,581.422338320961,731.334709102064,0,0,0,0,0,4,horizontal,horizontal,horizontal,vertical,horizontal,horizontal
1d,17,100241,4,27,219,19,F,NA,constant,homogeneous,3,absent,0.847441911697388,1,vertical,vertical,1,0.635293525119997,green,1,NaN,980.31222920257,780.31222920257,NaN,NaN,980.31222920257,780.31222920257,865.998856501143,353.688914296288,553.688914296288,665.998856501143,NaN,NaN,NaN,NaN,NaN,NaN,4,0,0,NaN,NaN,NaN,vertical,vertical,vertical,none,none,none
1d,17,100241,4,28,220,19,F,NA,constant,homogeneous,3,present,0.773577928543091,1,horizontal,horizontal,1,0.847054675839982,green,3,2,553.688914296288,534.001143498857,980.31222920257,419.68777079743,865.998856501143,846.311085703712,980.31222920257,419.68777079743,553.688914296288,534.001143498857,NaN,NaN,NaN,NaN,NaN,NaN,0,0,4,NaN,NaN,NaN,vertical,horizontal,horizontal,none,none,none
1d,17,100241,4,29,221,19,F,NA,constant,homogeneous,4,absent,0.626308917999268,1,vertical,vertical,1,0.858819184213314,green,1,NaN,938.882953928832,813.860994826083,NaN,NaN,938.882953928832,813.860994826083,1013.86099482608,461.117046071168,661.117046071168,386.139005173917,586.139005173917,738.882953928832,NaN,NaN,NaN,NaN,4,0,0,0,NaN,NaN,vertical,vertical,horizontal,vertical,none,none
1d,17,100241,4,30,222,19,F,NA,constant,homogeneous,3,absent,0.873841047286987,1,horizontal,horizontal,1,0.941170742826642,green,1,NaN,643.006323791957,800.942742169714,NaN,NaN,643.006323791957,800.942742169714,1052.5183575291,635.489140744817,704.475318678942,363.568117085469,NaN,NaN,NaN,NaN,NaN,NaN,4,0,0,NaN,NaN,NaN,horizontal,vertical,horizontal,none,none,none
1d,17,100241,4,31,223,19,F,NA,constant,homogeneous,3,present,0.69978404045105,1,vertical,vertical,1,0.811761150719984,green,3,2,545.621167183745,617.787900804752,911.784642431215,370.807518193712,942.594190385041,811.404581001536,911.784642431215,370.807518193712,545.621167183745,617.787900804752,NaN,NaN,NaN,NaN,NaN,NaN,0,0,4,NaN,NaN,NaN,vertical,horizontal,vertical,none,none,none
1d,17,100241,4,32,224,19,F,NA,constant,homogeneous,5,present,1.07483911514282,1,horizontal,horizontal,1,0.64705803349333,green,3,4,1006.29933356561,450.114760665419,721.200666434388,357.480588344736,721.200666434388,842.519411655264,1006.29933356561,749.885239334581,1006.29933356561,450.114760665419,721.200666434388,357.480588344736,545,600,NaN,NaN,0,0,4,0,0,NaN,vertical,horizontal,horizontal,horizontal,horizontal,none
1d,17,100241,4,33,225,19,F,NA,constant,homogeneous,4,absent,0.662781953811646,1,horizontal,horizontal,1,0.929406234453309,green,3,NaN,688.215357568785,370.807518193712,NaN,NaN,911.784642431215,829.192481806288,1029.19248180629,488.215357568785,688.215357568785,370.807518193712,570.807518193712,711.784642431215,NaN,NaN,NaN,NaN,0,0,4,0,NaN,NaN,vertical,vertical,horizontal,vertical,none,none
1d,17,100241,4,34,226,19,F,NA,constant,homogeneous,3,absent,0.855738878250122,1,horizontal,horizontal,1,0.752938608853322,green,3,NaN,545.155339110131,591.100628340862,NaN,NaN,919.715248510402,825.151636179026,935.129412379467,383.747735480111,545.155339110131,591.100628340862,NaN,NaN,NaN,NaN,NaN,NaN,0,0,4,NaN,NaN,NaN,vertical,vertical,horizontal,none,none,none
1d,17,100241,4,35,227,19,F,NA,constant,homogeneous,6,absent,1.29841709136963,1,horizontal,horizontal,1,1.08234484330663,green,1,NaN,919.715248510402,825.151636179026,NaN,NaN,919.715248510402,825.151636179026,1054.84466088987,608.899371659138,935.129412379467,383.747735480111,680.284751489598,374.848363820974,545.155339110131,591.100628340862,664.870587620533,816.252264519889,4,0,0,0,0,0,horizontal,vertical,vertical,vertical,horizontal,vertical
1d,17,100241,4,36,228,19,F,NA,constant,homogeneous,4,absent,0.581821918487549,1,vertical,vertical,1,1.05881582655997,green,1,NaN,751.343706178981,850.314931779154,NaN,NaN,751.343706178981,850.314931779154,1050.31493177915,648.656293821019,848.656293821019,349.685068220846,549.685068220846,551.343706178981,NaN,NaN,NaN,NaN,4,0,0,0,NaN,NaN,vertical,vertical,vertical,vertical,none,none
1d,17,100241,4,37,229,19,F,NA,constant,homogeneous,6,present,0.8020339012146,1,horizontal,horizontal,1,0.823525659093317,green,5,3,596.34794493794,446.537169096228,1034.72873763037,500.363562235235,768.923317431687,853.099268668537,1003.65205506206,753.462830903772,1034.72873763037,500.363562235235,831.076682568313,346.900731331463,596.34794493794,446.537169096228,565.271262369628,699.636437764765,0,0,0,0,4,0,vertical,vertical,horizontal,vertical,horizontal,vertical
1d,17,100241,4,38,230,19,F,NA,constant,homogeneous,4,present,0.714038848876953,1,horizontal,horizontal,1,0.988228776319972,green,4,3,545.621167183745,617.787900804752,782.212099195248,345.621167183745,817.787900804752,854.378832816255,1054.37883281626,582.212099195248,782.212099195248,345.621167183745,545.621167183745,617.787900804752,NaN,NaN,NaN,NaN,0,0,0,4,NaN,NaN,horizontal,vertical,horizontal,horizontal,none,none
1d,17,100241,4,39,231,19,F,NA,constant,homogeneous,5,absent,0.731967926025391,1,horizontal,horizontal,1,0.976464267946639,green,2,NaN,1052.5183575291,564.510859255183,NaN,NaN,911.784642431215,829.192481806288,1052.5183575291,564.510859255183,844.280285305067,348.874022981887,574.848363820974,480.284751489598,616.568350913644,777.137884467044,NaN,NaN,0,4,0,0,0,NaN,vertical,horizontal,horizontal,horizontal,horizontal,none
1d,17,100241,4,40,232,19,F,NA,constant,homogeneous,5,absent,0.702139854431152,1,vertical,vertical,1,0.776467625599987,green,2,NaN,995.341332995339,763.910840470068,NaN,NaN,704.475318678942,836.431882914531,995.341332995339,763.910840470068,1016.25226451989,464.870587620533,738.309916622085,352.574589799621,545.621167183745,582.212099195248,NaN,NaN,0,4,0,0,0,NaN,horizontal,vertical,horizontal,horizontal,horizontal,none
1d,17,100241,4,41,233,19,F,NA,constant,homogeneous,5,absent,0.620858907699585,1,vertical,vertical,1,1.02352230143997,green,4,NaN,734.001143498857,353.688914296288,NaN,NaN,708.616172865948,838.063008756786,998.172220171528,760.476699717708,1013.86099482608,461.117046071168,734.001143498857,353.688914296288,545.349468637584,586.654331158049,NaN,NaN,0,0,0,4,0,NaN,vertical,horizontal,horizontal,vertical,vertical,none
1d,17,100241,4,42,234,19,F,NA,constant,homogeneous,5,absent,0.868485927581787,1,horizontal,horizontal,1,0.952935251199974,green,1,NaN,664.870587620533,816.252264519889,NaN,NaN,664.870587620533,816.252264519889,963.910840470068,795.341332995339,1036.43188291453,504.475318678942,782.212099195248,345.621167183745,552.574589799621,538.309916622085,NaN,NaN,4,0,0,0,0,NaN,horizontal,vertical,horizontal,vertical,horizontal,none
1d,17,100241,4,43,235,19,F,NA,constant,homogeneous,4,present,0.57494592666626,1,horizontal,horizontal,1,0.847054675839982,green,4,1,593.700666434388,450.114760665419,650.114760665419,806.299333565612,650.114760665419,806.299333565612,1006.29933356561,749.885239334581,949.885239334581,393.700666434388,593.700666434388,450.114760665419,NaN,NaN,NaN,NaN,0,0,0,4,NaN,NaN,vertical,vertical,horizontal,horizontal,none,none
1d,17,100241,4,44,236,19,F,NA,constant,homogeneous,5,absent,0.737766981124878,1,horizontal,horizontal,1,0.764703117226655,green,2,NaN,1018.57766167904,731.334709102064,NaN,NaN,742.637481142314,848.464366520235,1018.57766167904,731.334709102064,992.450942956807,432.704947607421,700.363562235235,365.271262369628,545.970351986605,622.224714400653,NaN,NaN,0,4,0,0,0,NaN,horizontal,horizontal,horizontal,vertical,horizontal,none
1d,17,100241,4,45,237,19,F,NA,constant,homogeneous,5,absent,0.961675882339478,1,vertical,vertical,1,0.858819184213314,green,5,NaN,561.936991243214,691.383827134052,NaN,NaN,813.345668841951,854.650531362416,1046.31108570371,665.998856501143,938.882953928832,386.139005173917,639.523300282292,401.827779828472,561.936991243214,691.383827134052,NaN,NaN,0,0,0,0,4,NaN,horizontal,horizontal,horizontal,vertical,vertical,none
1d,17,100241,4,46,238,19,F,NA,constant,homogeneous,5,present,0.634403944015503,1,vertical,vertical,1,1.05881582655997,green,1,4,857.362518857686,848.464366520235,607.549057043193,432.704947607421,857.362518857686,848.464366520235,1054.0296480134,622.224714400653,899.636437764765,365.271262369628,607.549057043193,432.704947607421,581.422338320961,731.334709102064,NaN,NaN,4,0,0,0,0,NaN,vertical,vertical,vertical,horizontal,vertical,none
1d,17,100241,4,47,239,19,F,NA,constant,homogeneous,3,absent,0.574984788894653,1,vertical,vertical,1,0.78823213397332,green,3,NaN,672.5,379.163522034968,NaN,NaN,672.5,820.836477965032,1055,600,672.5,379.163522034968,NaN,NaN,NaN,NaN,NaN,NaN,0,0,4,NaN,NaN,NaN,horizontal,vertical,vertical,none,none,none
1d,17,100241,4,48,240,19,F,NA,constant,homogeneous,3,absent,0.666638135910034,1,horizontal,horizontal,1,0.999993284693304,green,3,NaN,579.163522034968,727.5,NaN,NaN,1020.83647796503,727.5,800,345,579.163522034968,727.5,NaN,NaN,NaN,NaN,NaN,NaN,0,0,4,NaN,NaN,NaN,vertical,vertical,horizontal,none,none,none
1d,17,100241,4,49,241,19,F,NA,constant,homogeneous,6,absent,0.653701066970825,1,horizontal,horizontal,1,1.0705803349333,green,4,NaN,899.636437764765,365.271262369628,NaN,NaN,700.363562235235,834.728737630372,953.462830903772,803.65205506206,1053.09926866854,568.923317431687,899.636437764765,365.271262369628,646.537169096228,396.34794493794,546.900731331463,631.076682568313,0,0,0,4,0,0,horizontal,vertical,horizontal,horizontal,horizontal,vertical
1d,17,100241,4,50,242,19,F,NA,constant,homogeneous,6,absent,0.618392944335938,1,horizontal,horizontal,1,0.976464267946639,green,1,NaN,853.017481158529,849.42763818712,NaN,NaN,853.017481158529,849.42763818712,1042.51941165526,678.799333565612,989.501930496736,429.371695378491,746.982518841471,350.57236181288,557.480588344736,521.200666434388,610.498069503264,770.628304621509,4,0,0,0,0,0,horizontal,horizontal,horizontal,vertical,horizontal,horizontal
