experiment,subject,uniqueID,block,trial,trial_cumulative,age,gender,color_cond_blocking,color_history,shape_type,set_size,distractor,rt,acc,target_orient,response_key,response_made,iti,target_color,target_item,distractor_item,target_X,target_Y,distractor_X,distractor_Y,item1_X,item1_Y,item2_X,item2_Y,item3_X,item3_Y,item4_X,item4_Y,item5_X,item5_Y,item6_X,item6_Y,item1_shape,item2_shape,item3_shape,item4_shape,item5_shape,item6_shape,item1_line,item2_line,item3_line,item4_line,item5_line,item6_line
1d,18,100242,1,1,1,21,F,NA,constant,homogeneous,4,absent,0.935170888900757,1,vertical,vertical,1,0.752939451592309,red,3,NaN,826.654758133252,346.39691668109,NaN,NaN,773.345241866748,853.60308331891,1053.60308331891,626.654758133252,826.654758133252,346.39691668109,546.39691668109,573.345241866748,NaN,NaN,NaN,NaN,0,0,4,0,NaN,NaN,vertical,vertical,vertical,vertical,none,none
1d,18,100242,1,2,2,21,F,NA,constant,homogeneous,5,absent,0.737582206726074,1,horizontal,horizontal,1,0.999995488779885,red,5,NaN,553.688914296288,665.998856501143,NaN,NaN,786.654331158049,854.650531362416,1038.06300875679,691.383827134052,960.476699717708,401.827779828472,661.117046071168,386.139005173917,553.688914296288,665.998856501143,NaN,NaN,0,0,0,0,4,NaN,horizontal,vertical,vertical,horizontal,horizontal,none
1d,18,100242,1,3,3,21,F,NA,constant,homogeneous,5,present,0.833136081695557,1,horizontal,horizontal,1,0.835291463988168,red,3,2,853.017481158529,350.57236181288,1053.60308331891,573.345241866748,903.717843984329,832.954091698863,1053.60308331891,573.345241866748,853.017481158529,350.57236181288,579.163522034968,472.5,610.498069503264,770.628304621509,NaN,NaN,0,0,4,0,0,NaN,vertical,vertical,horizontal,vertical,horizontal,none
1d,18,100242,1,4,4,21,F,NA,constant,homogeneous,5,absent,0.758380889892578,1,horizontal,horizontal,1,0.623529146398817,red,2,NaN,992.450942956807,767.295052392579,NaN,NaN,700.363562235235,834.728737630372,992.450942956807,767.295052392579,1018.57766167904,468.665290897936,742.637481142314,351.535633479765,545.970351986605,577.775285599347,NaN,NaN,0,4,0,0,0,NaN,vertical,horizontal,vertical,horizontal,vertical,none
1d,18,100242,1,5,5,21,F,NA,constant,homogeneous,5,absent,0.623307943344116,1,vertical,vertical,1,1.08234750117574,red,4,NaN,604.658667004661,436.089159529932,NaN,NaN,861.690083377915,847.425410200379,1054.37883281626,617.787900804752,895.524681321058,363.568117085469,604.658667004661,436.089159529932,583.747735480111,735.129412379467,NaN,NaN,0,0,0,4,0,NaN,horizontal,horizontal,horizontal,vertical,vertical,none
1d,18,100242,1,6,6,21,F,NA,constant,homogeneous,4,present,0.780125856399536,1,horizontal,horizontal,1,0.999995488779885,red,3,1,777.775285599347,345.970351986605,822.224714400653,854.029648013395,822.224714400653,854.029648013395,1054.0296480134,577.775285599347,777.775285599347,345.970351986605,545.970351986605,622.224714400653,NaN,NaN,NaN,NaN,0,0,4,0,NaN,NaN,vertical,horizontal,horizontal,vertical,none,none
1d,18,100242,1,7,7,21,F,NA,constant,homogeneous,4,present,0.61323094367981,1,vertical,vertical,1,1.08234750117574,red,2,4,1042.51941165526,678.799333565612,557.480588344736,521.200666434388,721.200666434388,842.519411655264,1042.51941165526,678.799333565612,878.799333565612,357.480588344736,557.480588344736,521.200666434388,NaN,NaN,NaN,NaN,0,4,0,0,NaN,NaN,horizontal,vertical,vertical,horizontal,none,none
1d,18,100242,1,8,8,21,F,NA,constant,homogeneous,5,absent,0.63416600227356,1,vertical,vertical,1,0.811762317589351,red,1,NaN,857.362518857686,848.464366520235,NaN,NaN,857.362518857686,848.464366520235,1054.0296480134,622.224714400653,899.636437764765,365.271262369628,607.549057043193,432.704947607421,581.422338320961,731.334709102064,NaN,NaN,4,0,0,0,0,NaN,vertical,horizontal,horizontal,vertical,horizontal,none
1d,18,100242,1,9,9,21,F,NA,constant,homogeneous,3,absent,0.601413011550903,1,horizontal,horizontal,1,0.705881158794676,red,2,NaN,963.910840470068,404.658667004661,NaN,NaN,887.215136548046,839.621618300407,963.910840470068,404.658667004661,548.874022981887,555.719714694933,NaN,NaN,NaN,NaN,NaN,NaN,0,4,0,NaN,NaN,NaN,horizontal,horizontal,horizontal,none,none,none
1d,18,100242,1,10,10,21,F,NA,constant,homogeneous,5,absent,0.639842987060547,1,vertical,vertical,1,0.717645731994084,red,1,NaN,786.654331158049,854.650531362416,NaN,NaN,786.654331158049,854.650531362416,1038.06300875679,691.383827134052,960.476699717708,401.827779828472,661.117046071168,386.139005173917,553.688914296288,665.998856501143,NaN,NaN,4,0,0,0,0,NaN,vertical,horizontal,horizontal,vertical,horizontal,none
1d,18,100242,1,11,11,21,F,NA,constant,homogeneous,4,absent,0.484480857849121,1,horizontal,horizontal,1,0.988230915580477,red,4,NaN,574.848363820974,480.284751489598,NaN,NaN,680.284751489598,825.151636179026,1025.15163617903,719.715248510402,919.715248510402,374.848363820974,574.848363820974,480.284751489598,NaN,NaN,NaN,NaN,0,0,0,4,NaN,NaN,horizontal,horizontal,vertical,horizontal,none,none
1d,18,100242,1,12,12,21,F,NA,constant,homogeneous,4,present,0.727737903594971,1,horizontal,horizontal,1,0.67058743919645,red,2,3,1053.09926866854,631.076682568313,831.076682568313,346.900731331463,768.923317431687,853.099268668537,1053.09926866854,631.076682568313,831.076682568313,346.900731331463,546.900731331463,568.923317431687,NaN,NaN,NaN,NaN,0,4,0,0,NaN,NaN,vertical,horizontal,vertical,horizontal,none,none
1d,18,100242,1,13,13,21,F,NA,constant,homogeneous,6,present,0.830400943756104,1,horizontal,horizontal,1,0.799997744389943,red,3,6,1027.20666366803,484.232422566416,572.793336331966,715.767577433584,786.654331158049,854.650531362416,1013.86099482608,738.882953928832,1027.20666366803,484.232422566416,813.345668841951,345.349468637584,586.139005173917,461.117046071168,572.793336331966,715.767577433584,0,0,4,0,0,0,vertical,vertical,horizontal,horizontal,horizontal,horizontal
1d,18,100242,1,14,14,21,F,NA,constant,homogeneous,4,absent,0.619549036026001,1,horizontal,horizontal,1,0.82352689078876,red,4,NaN,545.349468637584,586.654331158049,NaN,NaN,786.654331158049,854.650531362416,1054.65053136242,613.345668841951,813.345668841951,345.349468637584,545.349468637584,586.654331158049,NaN,NaN,NaN,NaN,0,0,0,4,NaN,NaN,vertical,horizontal,vertical,horizontal,none,none
1d,18,100242,1,15,15,21,F,NA,constant,homogeneous,3,present,0.468536138534546,1,horizontal,horizontal,1,0.82352689078876,red,3,1,548.874022981887,644.280285305067,963.910840470068,795.341332995339,963.910840470068,795.341332995339,887.215136548046,360.378381699593,548.874022981887,644.280285305067,NaN,NaN,NaN,NaN,NaN,NaN,0,0,4,NaN,NaN,NaN,horizontal,horizontal,horizontal,none,none,none
1d,18,100242,1,16,16,21,F,NA,constant,homogeneous,4,absent,0.748542070388794,1,horizontal,horizontal,1,0.729410305193492,red,1,NaN,911.784642431215,829.192481806288,NaN,NaN,911.784642431215,829.192481806288,1029.19248180629,488.215357568785,688.215357568785,370.807518193712,570.807518193712,711.784642431215,NaN,NaN,NaN,NaN,4,0,0,0,NaN,NaN,horizontal,vertical,horizontal,vertical,none,none
1d,18,100242,1,17,17,21,F,NA,constant,homogeneous,3,absent,0.772494077682495,1,vertical,vertical,1,0.847056037187576,red,2,NaN,857.362518857686,351.535633479765,NaN,NaN,986.495193912888,773.909581815937,857.362518857686,351.535633479765,556.142287229426,674.554784704298,NaN,NaN,NaN,NaN,NaN,NaN,0,4,0,NaN,NaN,NaN,vertical,vertical,horizontal,none,none,none
1d,18,100242,1,18,18,21,F,NA,constant,homogeneous,6,present,0.816617965698242,1,horizontal,horizontal,1,0.811762317589351,red,3,4,1032.95409169886,496.282156015671,826.654758133252,346.39691668109,773.345241866748,853.60308331891,1006.29933356561,749.885239334581,1032.95409169886,496.282156015671,826.654758133252,346.39691668109,593.700666434388,450.114760665419,567.045908301137,703.717843984329,0,0,4,0,0,0,vertical,vertical,horizontal,vertical,vertical,horizontal
1d,18,100242,1,19,19,21,F,NA,constant,homogeneous,3,present,0.915100812911987,1,vertical,vertical,1,0.89411432998521,red,1,2,992.450942956807,767.295052392579,848.656293821019,349.685068220846,992.450942956807,767.295052392579,848.656293821019,349.685068220846,558.892763222174,683.019879386575,NaN,NaN,NaN,NaN,NaN,NaN,4,0,0,NaN,NaN,NaN,vertical,vertical,vertical,none,none,none
1d,18,100242,1,20,20,21,F,NA,constant,homogeneous,3,absent,0.761011838912964,1,vertical,vertical,1,0.788233171190534,red,3,NaN,668.665290897936,381.422338320961,NaN,NaN,676.373546837184,823.028025320546,1054.96116226488,595.549636358493,668.665290897936,381.422338320961,NaN,NaN,NaN,NaN,NaN,NaN,0,0,4,NaN,NaN,NaN,horizontal,vertical,vertical,none,none,none
1d,18,100242,1,21,21,21,F,NA,constant,homogeneous,6,absent,0.97313404083252,1,vertical,vertical,1,1.04705378157752,red,6,NaN,576.971974679454,723.626453162816,NaN,NaN,795.549636358493,854.96116226488,1018.57766167904,731.334709102064,1023.02802532055,476.373546837184,804.450363641507,345.03883773512,581.422338320961,468.665290897936,576.971974679454,723.626453162816,0,0,0,0,0,4,vertical,vertical,horizontal,horizontal,vertical,vertical
1d,18,100242,1,22,22,21,F,NA,constant,homogeneous,3,present,0.463207006454468,1,horizontal,horizontal,1,0.717645731994084,red,2,3,1053.60308331891,626.654758133252,696.282156015671,367.045908301137,650.114760665419,806.299333565612,1053.60308331891,626.654758133252,696.282156015671,367.045908301137,NaN,NaN,NaN,NaN,NaN,NaN,0,4,0,NaN,NaN,NaN,vertical,horizontal,horizontal,none,none,none
1d,18,100242,1,23,23,21,F,NA,constant,homogeneous,3,absent,0.558579921722412,1,vertical,vertical,1,0.705881158794676,red,3,NaN,545.349468637584,586.654331158049,NaN,NaN,915.767577433584,827.206663668034,938.882953928832,386.139005173917,545.349468637584,586.654331158049,NaN,NaN,NaN,NaN,NaN,NaN,0,0,4,NaN,NaN,NaN,vertical,horizontal,vertical,none,none,none
1d,18,100242,1,24,24,21,F,NA,constant,homogeneous,4,present,0.573364019393921,1,horizontal,horizontal,1,0.96470176918166,red,4,1,593.700666434388,450.114760665419,650.114760665419,806.299333565612,650.114760665419,806.299333565612,1006.29933356561,749.885239334581,949.885239334581,393.700666434388,593.700666434388,450.114760665419,NaN,NaN,NaN,NaN,0,0,0,4,NaN,NaN,horizontal,vertical,horizontal,horizontal,none,none
1d,18,100242,1,25,25,21,F,NA,constant,homogeneous,6,absent,0.691565990447998,1,horizontal,horizontal,1,0.729410305193492,red,2,NaN,1053.09926866854,631.076682568313,NaN,NaN,899.636437764765,834.728737630372,1053.09926866854,631.076682568313,953.462830903772,396.34794493794,700.363562235235,365.271262369628,546.900731331463,568.923317431687,646.537169096228,803.65205506206,0,4,0,0,0,0,horizontal,horizontal,vertical,vertical,vertical,vertical
1d,18,100242,1,26,26,21,F,NA,constant,homogeneous,5,present,0.691957950592041,1,vertical,vertical,1,0.929408049583435,red,1,4,661.117046071168,813.860994826083,786.654331158049,345.349468637584,661.117046071168,813.860994826083,960.476699717708,798.172220171528,1038.06300875679,508.616172865948,786.654331158049,345.349468637584,553.688914296288,534.001143498857,NaN,NaN,4,0,0,0,0,NaN,vertical,horizontal,horizontal,horizontal,horizontal,none
1d,18,100242,1,27,27,21,F,NA,constant,homogeneous,6,present,0.756428956985474,1,vertical,vertical,1,0.929408049583435,red,1,2,883.019879386575,841.107236777826,1050.31493177915,648.656293821019,883.019879386575,841.107236777826,1050.31493177915,648.656293821019,967.295052392579,407.549057043193,716.980120613425,358.892763222174,549.685068220846,551.343706178981,632.704947607421,792.450942956807,4,0,0,0,0,0,vertical,horizontal,vertical,horizontal,horizontal,vertical
1d,18,100242,1,28,28,21,F,NA,constant,homogeneous,5,present,0.678922891616821,1,horizontal,horizontal,1,0.752939451592309,red,3,1,1000.94274216971,443.006323791957,729.712474266665,845.121732464271,729.712474266665,845.121732464271,1011.40458100154,742.594190385041,1000.94274216971,443.006323791957,712.784863451954,360.378381699593,545.155339110131,608.899371659138,NaN,NaN,0,0,4,0,0,NaN,horizontal,horizontal,horizontal,vertical,vertical,none
1d,18,100242,1,29,29,21,F,NA,constant,homogeneous,6,absent,0.59889817237854,1,vertical,vertical,1,0.917643476384027,red,3,NaN,986.495193912888,426.090418184063,NaN,NaN,857.362518857686,848.464366520235,1043.85771277057,674.554784704298,986.495193912888,426.090418184063,742.637481142314,351.535633479765,556.142287229426,525.445215295702,613.504806087112,773.909581815937,0,0,4,0,0,0,vertical,horizontal,vertical,horizontal,vertical,horizontal
1d,18,100242,1,30,30,21,F,NA,constant,homogeneous,3,present,0.811745882034302,1,vertical,vertical,1,0.82352689078876,red,3,1,548.13947314824,560.109211414741,891.383827134052,838.063008756786,891.383827134052,838.063008756786,960.476699717708,401.827779828472,548.13947314824,560.109211414741,NaN,NaN,NaN,NaN,NaN,NaN,0,0,4,NaN,NaN,NaN,vertical,vertical,vertical,none,none,none
1d,18,100242,1,31,31,21,F,NA,constant,homogeneous,5,present,0.673797130584717,1,vertical,vertical,1,1.08234750117574,red,3,5,839.890788585259,348.13947314824,619.68777079743,780.31222920257,915.767577433584,827.206663668034,1051.86052685176,560.109211414741,839.890788585259,348.13947314824,572.793336331966,484.232422566416,619.68777079743,780.31222920257,NaN,NaN,0,0,4,0,0,NaN,vertical,horizontal,vertical,vertical,vertical,none
1d,18,100242,1,32,32,21,F,NA,constant,homogeneous,3,present,0.564854145050049,1,vertical,vertical,1,1.08234750117574,red,3,2,572.793336331966,484.232422566416,1013.86099482608,461.117046071168,813.345668841951,854.650531362416,1013.86099482608,461.117046071168,572.793336331966,484.232422566416,NaN,NaN,NaN,NaN,NaN,NaN,0,0,4,NaN,NaN,NaN,horizontal,horizontal,vertical,none,none,none
1d,18,100242,1,33,33,21,F,NA,constant,homogeneous,3,absent,0.487098932266235,1,vertical,vertical,1,0.917643476384027,red,2,NaN,1016.25226451989,464.870587620533,NaN,NaN,808.899371659138,854.844660889869,1016.25226451989,464.870587620533,574.848363820974,480.284751489598,NaN,NaN,NaN,NaN,NaN,NaN,0,4,0,NaN,NaN,NaN,vertical,vertical,horizontal,none,none,none
1d,18,100242,1,34,34,21,F,NA,constant,homogeneous,6,present,0.623939990997314,1,vertical,vertical,1,0.752939451592309,red,5,2,650.114760665419,393.700666434388,949.885239334581,806.299333565612,696.282156015671,832.954091698863,949.885239334581,806.299333565612,1053.60308331891,573.345241866748,903.717843984329,367.045908301137,650.114760665419,393.700666434388,546.39691668109,626.654758133252,0,0,0,0,4,0,vertical,vertical,vertical,horizontal,vertical,horizontal
1d,18,100242,1,35,35,21,F,NA,constant,homogeneous,6,present,0.490401029586792,1,vertical,vertical,1,1.08234750117574,red,5,2,664.870587620533,383.747735480111,935.129412379467,816.252264519889,680.284751489598,825.151636179026,935.129412379467,816.252264519889,1054.84466088987,591.100628340862,919.715248510402,374.848363820974,664.870587620533,383.747735480111,545.155339110131,608.899371659138,0,0,0,0,4,0,horizontal,horizontal,horizontal,horizontal,vertical,horizontal
1d,18,100242,1,36,36,21,F,NA,constant,homogeneous,5,present,0.53571605682373,1,vertical,vertical,1,0.96470176918166,red,4,3,755.719714694933,348.874022981887,1025.15163617903,480.284751489598,688.215357568785,829.192481806288,983.431649086356,777.137884467044,1025.15163617903,480.284751489598,755.719714694933,348.874022981887,547.481642470899,564.510859255183,NaN,NaN,0,0,0,4,0,NaN,horizontal,vertical,horizontal,vertical,vertical,none
1d,18,100242,1,37,37,21,F,NA,constant,homogeneous,4,present,0.487066984176636,1,vertical,vertical,1,0.635293719598225,red,3,1,636.089159529932,404.658667004661,963.910840470068,795.341332995339,963.910840470068,795.341332995339,995.341332995339,436.089159529932,636.089159529932,404.658667004661,604.658667004661,763.910840470068,NaN,NaN,NaN,NaN,0,0,4,0,NaN,NaN,horizontal,horizontal,vertical,horizontal,none,none
1d,18,100242,1,38,38,21,F,NA,constant,homogeneous,4,absent,0.41441798210144,1,vertical,vertical,1,0.882349756785801,red,3,NaN,911.784642431215,370.807518193712,NaN,NaN,688.215357568785,829.192481806288,1029.19248180629,711.784642431215,911.784642431215,370.807518193712,570.807518193712,488.215357568785,NaN,NaN,NaN,NaN,0,0,4,0,NaN,NaN,horizontal,vertical,vertical,vertical,none,none
1d,18,100242,1,39,39,21,F,NA,constant,homogeneous,6,absent,0.66089391708374,1,vertical,vertical,1,1.08234750117574,red,1,NaN,746.982518841471,849.42763818712,NaN,NaN,746.982518841471,849.42763818712,989.501930496736,770.628304621509,1042.51941165526,521.200666434388,853.017481158529,350.57236181288,610.498069503264,429.371695378491,557.480588344736,678.799333565612,4,0,0,0,0,0,vertical,horizontal,vertical,vertical,vertical,horizontal
1d,18,100242,1,40,40,21,F,NA,constant,homogeneous,5,present,0.547890901565552,1,vertical,vertical,1,0.882349756785801,red,1,2,857.362518857686,848.464366520235,1054.0296480134,622.224714400653,857.362518857686,848.464366520235,1054.0296480134,622.224714400653,899.636437764765,365.271262369628,607.549057043193,432.704947607421,581.422338320961,731.334709102064,NaN,NaN,4,0,0,0,0,NaN,vertical,horizontal,vertical,horizontal,horizontal,none
1d,18,100242,1,41,41,21,F,NA,constant,homogeneous,6,absent,0.478399991989136,0,horizontal,vertical,1,0.96470176918166,red,2,NaN,946.261991269517,808.883771293693,NaN,NaN,692.232343256122,831.108485694346,946.261991269517,808.883771293693,1054.0296480134,577.775285599347,907.767656743878,368.891514305654,653.738008730483,391.116228706307,545.970351986605,622.224714400653,0,4,0,0,0,0,vertical,horizontal,vertical,horizontal,vertical,horizontal
1d,18,100242,1,42,42,21,F,NA,constant,homogeneous,4,present,0.718112945556641,1,horizontal,horizontal,1,0.694116585595267,red,4,1,579.163522034968,472.5,672.5,820.836477965032,672.5,820.836477965032,1020.83647796503,727.5,927.5,379.163522034968,579.163522034968,472.5,NaN,NaN,NaN,NaN,0,0,0,4,NaN,NaN,vertical,horizontal,vertical,horizontal,none,none
1d,18,100242,1,43,43,21,F,NA,constant,homogeneous,5,absent,0.511788129806519,1,horizontal,horizontal,1,0.764704024791718,red,4,NaN,636.089159529932,404.658667004661,NaN,NaN,817.787900804752,854.378832816255,1047.42541020038,661.690083377915,935.129412379467,383.747735480111,636.089159529932,404.658667004661,563.568117085469,695.524681321058,NaN,NaN,0,0,0,4,0,NaN,vertical,vertical,horizontal,horizontal,horizontal,none
1d,18,100242,1,44,44,21,F,NA,constant,homogeneous,6,absent,0.706619024276733,1,horizontal,horizontal,1,0.82352689078876,red,3,NaN,1034.72873763037,500.363562235235,NaN,NaN,768.923317431687,853.099268668537,1003.65205506206,753.462830903772,1034.72873763037,500.363562235235,831.076682568313,346.900731331463,596.34794493794,446.537169096228,565.271262369628,699.636437764765,0,0,4,0,0,0,vertical,horizontal,horizontal,vertical,horizontal,horizontal
1d,18,100242,1,45,45,21,F,NA,constant,homogeneous,3,absent,0.690096855163574,1,horizontal,horizontal,1,0.858820610386985,red,3,NaN,552.574589799621,661.690083377915,NaN,NaN,977.137884467044,783.431649086356,870.287525733335,354.878267535729,552.574589799621,661.690083377915,NaN,NaN,NaN,NaN,NaN,NaN,0,0,4,NaN,NaN,NaN,vertical,horizontal,horizontal,none,none,none
1d,18,100242,1,46,46,21,F,NA,constant,homogeneous,5,present,0.745951890945435,1,horizontal,horizontal,1,1.08234750117574,red,2,3,1052.5183575291,635.489140744817,911.784642431215,370.807518193712,844.280285305067,851.125977018113,1052.5183575291,635.489140744817,911.784642431215,370.807518193712,616.568350913644,422.862115532956,574.848363820974,719.715248510402,NaN,NaN,0,4,0,0,0,NaN,horizontal,horizontal,vertical,vertical,vertical,none
1d,18,100242,1,47,47,21,F,NA,constant,homogeneous,3,absent,0.668224811553955,1,horizontal,horizontal,1,0.96470176918166,red,1,NaN,708.616172865948,838.063008756786,NaN,NaN,708.616172865948,838.063008756786,1051.86052685176,560.109211414741,639.523300282292,401.827779828472,NaN,NaN,NaN,NaN,NaN,NaN,4,0,0,NaN,NaN,NaN,horizontal,vertical,vertical,none,none,none
1d,18,100242,1,48,48,21,F,NA,constant,homogeneous,3,present,0.572224855422974,1,horizontal,horizontal,1,0.929408049583435,red,2,3,1053.60308331891,573.345241866748,650.114760665419,393.700666434388,696.282156015671,832.954091698863,1053.60308331891,573.345241866748,650.114760665419,393.700666434388,NaN,NaN,NaN,NaN,NaN,NaN,0,4,0,NaN,NaN,NaN,vertical,horizontal,vertical,none,none,none
1d,18,100242,1,49,49,21,F,NA,constant,homogeneous,4,present,0.616827964782715,1,vertical,vertical,1,1.05881835477693,red,3,4,626.090418184063,413.504806087112,613.504806087112,773.909581815937,973.909581815937,786.495193912888,986.495193912888,426.090418184063,626.090418184063,413.504806087112,613.504806087112,773.909581815937,NaN,NaN,NaN,NaN,0,0,4,0,NaN,NaN,vertical,vertical,vertical,horizontal,none,none
1d,18,100242,1,50,50,21,F,NA,constant,homogeneous,4,absent,0.736895084381104,1,vertical,vertical,1,0.976466342381069,red,2,NaN,1031.10848569435,707.767656743878,NaN,NaN,692.232343256122,831.108485694346,1031.10848569435,707.767656743878,907.767656743878,368.891514305654,568.891514305654,492.232343256122,NaN,NaN,NaN,NaN,0,4,0,0,NaN,NaN,horizontal,vertical,horizontal,vertical,none,none
1d,18,100242,1,51,51,21,F,NA,constant,homogeneous,4,present,0.493193864822388,1,vertical,vertical,1,0.67058743919645,red,2,3,1054.65053136242,586.654331158049,786.654331158049,345.349468637584,813.345668841951,854.650531362416,1054.65053136242,586.654331158049,786.654331158049,345.349468637584,545.349468637584,613.345668841951,NaN,NaN,NaN,NaN,0,4,0,0,NaN,NaN,vertical,vertical,horizontal,horizontal,none,none
1d,18,100242,1,52,52,21,F,NA,constant,homogeneous,5,present,0.601960897445679,1,horizontal,horizontal,1,0.929408049583435,red,5,3,548.874022981887,555.719714694933,1029.19248180629,488.215357568785,680.284751489598,825.151636179026,977.137884467044,783.431649086356,1029.19248180629,488.215357568785,764.510859255183,347.4816424709,548.874022981887,555.719714694933,NaN,NaN,0,0,0,0,4,NaN,horizontal,horizontal,vertical,vertical,horizontal,none
1d,18,100242,1,53,53,21,F,NA,constant,homogeneous,6,present,0.624274969100952,1,vertical,vertical,1,1.09411207437515,red,4,1,883.019879386575,358.892763222174,716.980120613425,841.107236777826,716.980120613425,841.107236777826,967.295052392579,792.450942956807,1050.31493177915,551.343706178981,883.019879386575,358.892763222174,632.704947607421,407.549057043193,549.685068220846,648.656293821019,0,0,0,4,0,0,vertical,vertical,vertical,vertical,horizontal,horizontal
1d,18,100242,1,54,54,21,F,NA,constant,homogeneous,5,absent,0.676830053329468,1,vertical,vertical,1,0.799997744389943,red,2,NaN,1050.31493177915,551.343706178981,NaN,NaN,923.626453162816,823.028025320546,1050.31493177915,551.343706178981,831.076682568313,346.900731331463,568.891514305654,492.232343256122,626.090418184063,786.495193912888,NaN,NaN,0,4,0,0,0,NaN,vertical,vertical,vertical,vertical,vertical,none
1d,18,100242,1,55,55,21,F,NA,constant,homogeneous,6,present,0.631071090698242,1,horizontal,horizontal,1,0.635293719598225,red,2,4,1043.85771277057,674.554784704298,742.637481142314,351.535633479765,857.362518857686,848.464366520235,1043.85771277057,674.554784704298,986.495193912888,426.090418184063,742.637481142314,351.535633479765,556.142287229426,525.445215295702,613.504806087112,773.909581815937,0,4,0,0,0,0,horizontal,horizontal,horizontal,vertical,horizontal,horizontal
1d,18,100242,1,56,56,21,F,NA,constant,homogeneous,4,absent,0.733362913131714,1,vertical,vertical,1,0.67058743919645,red,1,NaN,861.690083377915,847.425410200379,NaN,NaN,861.690083377915,847.425410200379,1047.42541020038,538.309916622085,738.309916622085,352.574589799621,552.574589799621,661.690083377915,NaN,NaN,NaN,NaN,4,0,0,0,NaN,NaN,vertical,horizontal,vertical,horizontal,none,none
1d,18,100242,1,57,57,21,F,NA,constant,homogeneous,5,absent,0.552145004272461,1,horizontal,horizontal,1,0.999995488779885,red,2,NaN,1055,600,NaN,NaN,878.799333565612,842.519411655264,1055,600,878.799333565612,357.480588344736,593.700666434388,450.114760665419,593.700666434388,749.885239334581,NaN,NaN,0,4,0,0,0,NaN,horizontal,horizontal,vertical,vertical,vertical,none
1d,18,100242,1,58,58,21,F,NA,constant,homogeneous,6,absent,0.748901128768921,1,vertical,vertical,1,1.07058292797634,red,6,NaN,596.34794493794,753.462830903772,NaN,NaN,831.076682568313,853.099268668537,1034.72873763037,699.636437764765,1003.65205506206,446.537169096228,768.923317431687,346.900731331463,565.271262369628,500.363562235235,596.34794493794,753.462830903772,0,0,0,0,0,4,vertical,vertical,horizontal,vertical,horizontal,vertical
1d,18,100242,1,59,59,21,F,NA,constant,homogeneous,4,absent,0.887419939041138,1,horizontal,horizontal,1,0.96470176918166,red,1,NaN,831.076682568313,853.099268668537,NaN,NaN,831.076682568313,853.099268668537,1053.09926866854,568.923317431687,768.923317431687,346.900731331463,546.900731331463,631.076682568313,NaN,NaN,NaN,NaN,4,0,0,0,NaN,NaN,horizontal,horizontal,horizontal,horizontal,none,none
1d,18,100242,1,60,60,21,F,NA,constant,homogeneous,3,present,0.565782785415649,1,vertical,vertical,1,1.03528920837811,red,1,2,692.232343256122,831.108485694346,1054.0296480134,577.775285599347,692.232343256122,831.108485694346,1054.0296480134,577.775285599347,653.738008730483,391.116228706307,NaN,NaN,NaN,NaN,NaN,NaN,4,0,0,NaN,NaN,NaN,vertical,vertical,vertical,none,none,none
1d,18,100242,1,61,61,21,F,NA,constant,homogeneous,3,absent,0.491563081741333,1,horizontal,horizontal,1,0.905878903184618,red,2,NaN,1036.43188291453,695.524681321058,NaN,NaN,599.057257830286,756.993676208043,1036.43188291453,695.524681321058,764.510859255183,347.4816424709,NaN,NaN,NaN,NaN,NaN,NaN,0,4,0,NaN,NaN,NaN,vertical,horizontal,vertical,none,none,none
1d,18,100242,1,62,62,21,F,NA,constant,homogeneous,6,absent,0.698364019393921,1,horizontal,horizontal,1,0.835291463988168,red,2,NaN,970.628304621509,789.501930496736,NaN,NaN,721.200666434388,842.519411655264,970.628304621509,789.501930496736,1049.42763818712,546.982518841471,878.799333565612,357.480588344736,629.371695378491,410.498069503264,550.57236181288,653.017481158529,0,4,0,0,0,0,horizontal,horizontal,vertical,horizontal,vertical,vertical
1d,18,100242,1,63,63,21,F,NA,constant,homogeneous,6,present,0.800436973571777,1,horizontal,horizontal,1,0.999995488779885,red,4,5,874.554784704298,356.142287229426,626.090418184063,413.504806087112,725.445215295702,843.857712770574,973.909581815937,786.495193912888,1048.46436652023,542.637481142314,874.554784704298,356.142287229426,626.090418184063,413.504806087112,551.535633479765,657.362518857686,0,0,0,4,0,0,horizontal,vertical,horizontal,horizontal,horizontal,vertical
1d,18,100242,1,64,64,21,F,NA,constant,homogeneous,3,present,0.646061897277832,1,horizontal,horizontal,1,0.67058743919645,red,1,3,1006.29933356561,749.885239334581,567.045908301137,703.717843984329,1006.29933356561,749.885239334581,826.654758133252,346.39691668109,567.045908301137,703.717843984329,NaN,NaN,NaN,NaN,NaN,NaN,4,0,0,NaN,NaN,NaN,horizontal,horizontal,horizontal,none,none,none
1d,18,100242,2,1,65,21,F,NA,constant,homogeneous,6,absent,0.754386186599731,1,horizontal,horizontal,1,0.776468597991126,red,2,NaN,1018.57766167904,731.334709102064,NaN,NaN,795.549636358493,854.96116226488,1018.57766167904,731.334709102064,1023.02802532055,476.373546837184,804.450363641507,345.03883773512,581.422338320961,468.665290897936,576.971974679454,723.626453162816,0,4,0,0,0,0,vertical,horizontal,vertical,vertical,horizontal,vertical
1d,18,100242,2,2,66,21,F,NA,constant,homogeneous,3,absent,0.567760944366455,1,vertical,vertical,1,0.89411432998521,red,2,NaN,923.626453162816,376.971974679454,NaN,NaN,931.334709102064,818.577661679039,923.626453162816,376.971974679454,545.03883773512,604.450363641507,NaN,NaN,NaN,NaN,NaN,NaN,0,4,0,NaN,NaN,NaN,horizontal,vertical,horizontal,none,none,none
1d,18,100242,2,3,67,21,F,NA,constant,homogeneous,3,absent,0.50410795211792,1,horizontal,horizontal,1,0.847056037187576,red,2,NaN,1038.06300875679,691.383827134052,NaN,NaN,601.827779828472,760.476699717708,1038.06300875679,691.383827134052,760.109211414741,348.13947314824,NaN,NaN,NaN,NaN,NaN,NaN,0,4,0,NaN,NaN,NaN,vertical,horizontal,vertical,none,none,none
1d,18,100242,2,4,68,21,F,NA,constant,homogeneous,6,present,0.542555809020996,1,vertical,vertical,1,1.0235246351787,red,5,1,668.665290897936,381.422338320961,676.373546837184,823.028025320546,676.373546837184,823.028025320546,931.334709102064,818.577661679039,1054.96116226488,595.549636358493,923.626453162816,376.971974679454,668.665290897936,381.422338320961,545.03883773512,604.450363641507,0,0,0,0,4,0,horizontal,horizontal,vertical,vertical,vertical,vertical
1d,18,100242,2,5,69,21,F,NA,constant,homogeneous,4,present,0.63490104675293,1,horizontal,horizontal,1,1.05881835477693,red,2,3,1018.57766167904,731.334709102064,931.334709102064,381.422338320961,668.665290897936,818.577661679039,1018.57766167904,731.334709102064,931.334709102064,381.422338320961,581.422338320961,468.665290897936,NaN,NaN,NaN,NaN,0,4,0,0,NaN,NaN,vertical,horizontal,vertical,horizontal,none,none
1d,18,100242,2,6,70,21,F,NA,constant,homogeneous,5,absent,0.605749845504761,1,horizontal,horizontal,1,1.09411207437515,red,4,NaN,729.712474266665,354.878267535729,NaN,NaN,712.784863451954,839.621618300407,1000.94274216971,756.993676208043,1011.40458100154,457.40580961496,729.712474266665,354.878267535729,545.155339110131,591.100628340862,NaN,NaN,0,0,0,4,0,NaN,vertical,horizontal,horizontal,horizontal,horizontal,none
1d,18,100242,2,7,71,21,F,NA,constant,homogeneous,5,present,0.659043073654175,1,horizontal,horizontal,1,0.647058292797634,red,1,4,692.232343256122,831.108485694346,751.343706178981,349.685068220846,692.232343256122,831.108485694346,986.495193912888,773.909581815937,1023.02802532055,476.373546837184,751.343706178981,349.685068220846,546.900731331463,568.923317431687,NaN,NaN,4,0,0,0,0,NaN,horizontal,horizontal,vertical,horizontal,horizontal,none
1d,18,100242,2,8,72,21,F,NA,constant,homogeneous,6,absent,0.601424932479858,1,vertical,vertical,1,1.05881835477693,red,5,NaN,586.139005173917,461.117046071168,NaN,NaN,786.654331158049,854.650531362416,1013.86099482608,738.882953928832,1027.20666366803,484.232422566416,813.345668841951,345.349468637584,586.139005173917,461.117046071168,572.793336331966,715.767577433584,0,0,0,0,4,0,horizontal,vertical,vertical,horizontal,vertical,vertical
1d,18,100242,2,9,73,21,F,NA,constant,homogeneous,5,present,0.674053907394409,1,vertical,vertical,1,0.611764573199408,red,2,1,1052.5183575291,564.510859255183,911.784642431215,829.192481806288,911.784642431215,829.192481806288,1052.5183575291,564.510859255183,844.280285305067,348.874022981887,574.848363820974,480.284751489598,616.568350913644,777.137884467044,NaN,NaN,0,4,0,0,0,NaN,horizontal,vertical,horizontal,vertical,vertical,none
1d,18,100242,2,10,74,21,F,NA,constant,homogeneous,6,absent,0.603691101074219,1,horizontal,horizontal,1,1.01176006197929,red,5,NaN,545.349468637584,586.654331158049,NaN,NaN,915.767577433584,827.206663668034,1054.65053136242,613.345668841951,938.882953928832,386.139005173917,684.232422566416,372.793336331966,545.349468637584,586.654331158049,661.117046071168,813.860994826083,0,0,0,0,4,0,vertical,vertical,vertical,vertical,horizontal,vertical
1d,18,100242,2,11,75,21,F,NA,constant,homogeneous,4,present,0.760249137878418,1,horizontal,horizontal,1,0.6,red,3,1,831.076682568313,346.900731331463,768.923317431687,853.099268668537,768.923317431687,853.099268668537,1053.09926866854,631.076682568313,831.076682568313,346.900731331463,546.900731331463,568.923317431687,NaN,NaN,NaN,NaN,0,0,4,0,NaN,NaN,horizontal,horizontal,horizontal,vertical,none,none
1d,18,100242,2,12,76,21,F,NA,constant,homogeneous,6,absent,0.644019842147827,1,vertical,vertical,1,1.0235246351787,red,6,NaN,616.568350913644,777.137884467044,NaN,NaN,861.690083377915,847.425410200379,1045.12173246427,670.287525733335,983.431649086356,422.862115532956,738.309916622085,352.574589799621,554.878267535729,529.712474266665,616.568350913644,777.137884467044,0,0,0,0,0,4,horizontal,vertical,vertical,horizontal,vertical,vertical
1d,18,100242,2,13,77,21,F,NA,constant,homogeneous,4,absent,0.596076011657715,1,horizontal,horizontal,1,0.952937195982252,red,1,NaN,636.089159529932,795.341332995339,NaN,NaN,636.089159529932,795.341332995339,995.341332995339,763.910840470068,963.910840470068,404.658667004661,604.658667004661,436.089159529932,NaN,NaN,NaN,NaN,4,0,0,0,NaN,NaN,horizontal,vertical,vertical,vertical,none,none
1d,18,100242,2,14,78,21,F,NA,constant,homogeneous,6,present,0.47216796875,1,horizontal,horizontal,1,1.01176006197929,red,3,5,927.5,379.163522034968,545,600,927.5,820.836477965032,1055,600,927.5,379.163522034968,672.5,379.163522034968,545,600,672.5,820.836477965032,0,0,4,0,0,0,horizontal,horizontal,horizontal,vertical,vertical,horizontal
1d,18,100242,2,15,79,21,F,NA,constant,homogeneous,3,present,0.576337814331055,1,vertical,vertical,1,0.917643476384027,red,3,1,791.100628340862,345.155339110131,583.747735480111,735.129412379467,583.747735480111,735.129412379467,1025.15163617903,719.715248510402,791.100628340862,345.155339110131,NaN,NaN,NaN,NaN,NaN,NaN,0,0,4,NaN,NaN,NaN,vertical,horizontal,vertical,none,none,none
1d,18,100242,2,16,80,21,F,NA,constant,homogeneous,4,present,0.671771049499512,1,vertical,vertical,1,0.988230915580477,red,2,3,1016.25226451989,464.870587620533,664.870587620533,383.747735480111,935.129412379467,816.252264519889,1016.25226451989,464.870587620533,664.870587620533,383.747735480111,583.747735480111,735.129412379467,NaN,NaN,NaN,NaN,0,4,0,0,NaN,NaN,vertical,vertical,horizontal,horizontal,none,none
1d,18,100242,2,17,81,21,F,NA,constant,homogeneous,3,absent,0.454909086227417,1,vertical,vertical,1,1.07058292797634,red,2,NaN,817.787900804752,345.621167183745,NaN,NaN,1011.40458100154,742.594190385041,817.787900804752,345.621167183745,570.807518193712,711.784642431215,NaN,NaN,NaN,NaN,NaN,NaN,0,4,0,NaN,NaN,NaN,horizontal,vertical,horizontal,none,none,none
1d,18,100242,2,18,82,21,F,NA,constant,homogeneous,4,absent,0.705820083618164,1,vertical,vertical,1,0.882349756785801,red,1,NaN,953.462830903772,803.65205506206,NaN,NaN,953.462830903772,803.65205506206,1003.65205506206,446.537169096228,646.537169096228,396.34794493794,596.34794493794,753.462830903772,NaN,NaN,NaN,NaN,4,0,0,0,NaN,NaN,vertical,vertical,vertical,vertical,none,none
1d,18,100242,2,19,83,21,F,NA,constant,homogeneous,5,absent,0.433054208755493,1,horizontal,horizontal,1,0.835291463988168,red,5,NaN,548.13947314824,560.109211414741,NaN,NaN,684.232422566416,827.206663668034,980.31222920257,780.31222920257,1027.20666366803,484.232422566416,760.109211414741,348.13947314824,548.13947314824,560.109211414741,NaN,NaN,0,0,0,0,4,NaN,horizontal,horizontal,horizontal,horizontal,horizontal,none
1d,18,100242,2,20,84,21,F,NA,constant,homogeneous,5,absent,0.571765899658203,1,vertical,vertical,1,0.905878903184618,red,5,NaN,549.685068220846,648.656293821019,NaN,NaN,768.923317431687,853.099268668537,1031.10848569435,707.767656743878,973.909581815937,413.504806087112,676.373546837184,376.971974679454,549.685068220846,648.656293821019,NaN,NaN,0,0,0,0,4,NaN,vertical,vertical,vertical,horizontal,vertical,none
1d,18,100242,2,21,85,21,F,NA,constant,homogeneous,6,absent,0.495615005493164,1,horizontal,horizontal,1,0.611764573199408,red,3,NaN,1029.19248180629,488.215357568785,NaN,NaN,782.212099195248,854.378832816255,1011.40458100154,742.594190385041,1029.19248180629,488.215357568785,817.787900804752,345.621167183745,588.595418998464,457.40580961496,570.807518193712,711.784642431215,0,0,4,0,0,0,horizontal,vertical,horizontal,vertical,horizontal,horizontal
1d,18,100242,2,22,86,21,F,NA,constant,homogeneous,6,absent,0.722354888916016,1,vertical,vertical,1,0.835291463988168,red,1,NaN,672.5,820.836477965032,NaN,NaN,672.5,820.836477965032,927.5,820.836477965032,1055,600,927.5,379.163522034968,672.5,379.163522034968,545,600,4,0,0,0,0,0,vertical,horizontal,vertical,horizontal,vertical,horizontal
1d,18,100242,2,23,87,21,F,NA,constant,homogeneous,4,present,0.521358966827393,1,horizontal,horizontal,1,0.82352689078876,red,3,2,721.200666434388,357.480588344736,1042.51941165526,521.200666434388,878.799333565612,842.519411655264,1042.51941165526,521.200666434388,721.200666434388,357.480588344736,557.480588344736,678.799333565612,NaN,NaN,NaN,NaN,0,0,4,0,NaN,NaN,vertical,horizontal,horizontal,vertical,none,none
1d,18,100242,2,24,88,21,F,NA,constant,homogeneous,5,absent,0.644150972366333,1,horizontal,horizontal,1,0.611764573199408,red,4,NaN,586.139005173917,461.117046071168,NaN,NaN,891.383827134052,838.063008756786,1054.65053136242,586.654331158049,865.998856501143,353.688914296288,586.139005173917,461.117046071168,601.827779828472,760.476699717708,NaN,NaN,0,0,0,4,0,NaN,vertical,vertical,horizontal,horizontal,vertical,none
1d,18,100242,2,25,89,21,F,NA,constant,homogeneous,6,absent,0.676898002624512,1,vertical,vertical,1,0.976466342381069,red,2,NaN,967.295052392579,792.450942956807,NaN,NaN,716.980120613425,841.107236777826,967.295052392579,792.450942956807,1050.31493177915,551.343706178981,883.019879386575,358.892763222174,632.704947607421,407.549057043193,549.685068220846,648.656293821019,0,4,0,0,0,0,horizontal,vertical,horizontal,horizontal,horizontal,vertical
1d,18,100242,2,26,90,21,F,NA,constant,homogeneous,5,present,0.544597864151001,1,vertical,vertical,1,0.705881158794676,red,2,3,1029.19248180629,711.784642431215,977.137884467044,416.568350913644,764.510859255183,852.518357529101,1029.19248180629,711.784642431215,977.137884467044,416.568350913644,680.284751489598,374.848363820974,548.874022981887,644.280285305067,NaN,NaN,0,4,0,0,0,NaN,horizontal,vertical,horizontal,horizontal,horizontal,none
1d,18,100242,2,27,91,21,F,NA,constant,homogeneous,4,present,0.472606182098389,1,vertical,vertical,1,0.847056037187576,red,4,1,545.349468637584,613.345668841951,813.345668841951,854.650531362416,813.345668841951,854.650531362416,1054.65053136242,586.654331158049,786.654331158049,345.349468637584,545.349468637584,613.345668841951,NaN,NaN,NaN,NaN,0,0,0,4,NaN,NaN,vertical,vertical,horizontal,vertical,none,none
1d,18,100242,2,28,92,21,F,NA,constant,homogeneous,3,absent,0.727766990661621,0,horizontal,vertical,1,1.07058292797634,red,1,NaN,751.343706178981,850.314931779154,NaN,NaN,751.343706178981,850.314931779154,1041.10723677783,516.980120613425,607.549057043193,432.704947607421,NaN,NaN,NaN,NaN,NaN,NaN,4,0,0,NaN,NaN,NaN,horizontal,horizontal,horizontal,none,none,none
1d,18,100242,2,29,93,21,F,NA,constant,homogeneous,6,absent,0.750963926315308,1,horizontal,horizontal,1,1.0235246351787,red,1,NaN,676.373546837184,823.028025320546,NaN,NaN,676.373546837184,823.028025320546,931.334709102064,818.577661679039,1054.96116226488,595.549636358493,923.626453162816,376.971974679454,668.665290897936,381.422338320961,545.03883773512,604.450363641507,4,0,0,0,0,0,horizontal,horizontal,horizontal,vertical,horizontal,horizontal
1d,18,100242,2,30,94,21,F,NA,constant,homogeneous,6,present,0.568766117095947,1,horizontal,horizontal,1,0.741174878392901,red,3,5,1041.10723677783,516.980120613425,607.549057043193,432.704947607421,751.343706178981,850.314931779154,992.450942956807,767.295052392579,1041.10723677783,516.980120613425,848.656293821019,349.685068220846,607.549057043193,432.704947607421,558.892763222174,683.019879386575,0,0,4,0,0,0,horizontal,horizontal,horizontal,vertical,vertical,horizontal
1d,18,100242,2,31,95,21,F,NA,constant,homogeneous,5,absent,0.581540107727051,1,vertical,vertical,1,1.05881835477693,red,3,NaN,874.554784704298,356.142287229426,NaN,NaN,883.019879386575,841.107236777826,1054.96116226488,595.549636358493,874.554784704298,356.142287229426,591.116228706307,453.738008730483,596.34794493794,753.462830903772,NaN,NaN,0,0,4,0,0,NaN,vertical,vertical,vertical,horizontal,vertical,none
1d,18,100242,2,32,96,21,F,NA,constant,homogeneous,4,present,0.623936176300049,1,vertical,vertical,1,0.929408049583435,red,1,4,664.870587620533,816.252264519889,583.747735480111,464.870587620533,664.870587620533,816.252264519889,1016.25226451989,735.129412379467,935.129412379467,383.747735480111,583.747735480111,464.870587620533,NaN,NaN,NaN,NaN,4,0,0,0,NaN,NaN,vertical,vertical,vertical,vertical,none,none
1d,18,100242,2,33,97,21,F,NA,constant,homogeneous,3,absent,0.433225870132446,1,vertical,vertical,1,1.03528920837811,red,3,NaN,610.498069503264,429.371695378491,NaN,NaN,746.982518841471,849.42763818712,1042.51941165526,521.200666434388,610.498069503264,429.371695378491,NaN,NaN,NaN,NaN,NaN,NaN,0,0,4,NaN,NaN,NaN,vertical,vertical,vertical,none,none,none
1d,18,100242,2,34,98,21,F,NA,constant,homogeneous,6,present,0.4352707862854,1,horizontal,horizontal,1,0.858820610386985,red,3,6,1055,600,545,600,672.5,820.836477965032,927.5,820.836477965032,1055,600,927.5,379.163522034968,672.5,379.163522034968,545,600,0,0,4,0,0,0,vertical,horizontal,horizontal,vertical,horizontal,horizontal
1d,18,100242,2,35,99,21,F,NA,constant,homogeneous,4,absent,0.728528022766113,1,horizontal,horizontal,1,0.811762317589351,red,1,NaN,800,855,NaN,NaN,800,855,1055,600,800,345,545,600,NaN,NaN,NaN,NaN,4,0,0,0,NaN,NaN,horizontal,vertical,horizontal,vertical,none,none
1d,18,100242,2,36,100,21,F,NA,constant,homogeneous,4,present,0.58464789390564,1,vertical,vertical,1,0.658822865997042,red,2,3,1013.86099482608,461.117046071168,661.117046071168,386.139005173917,938.882953928832,813.860994826083,1013.86099482608,461.117046071168,661.117046071168,386.139005173917,586.139005173917,738.882953928832,NaN,NaN,NaN,NaN,0,4,0,0,NaN,NaN,vertical,vertical,vertical,vertical,none,none
1d,18,100242,2,37,101,21,F,NA,constant,homogeneous,4,absent,0.892219066619873,1,vertical,vertical,1,0.799997744389943,red,2,NaN,992.450942956807,432.704947607421,NaN,NaN,967.295052392579,792.450942956807,992.450942956807,432.704947607421,632.704947607421,407.549057043193,607.549057043193,767.295052392579,NaN,NaN,NaN,NaN,0,4,0,0,NaN,NaN,horizontal,vertical,vertical,horizontal,none,none
1d,18,100242,2,38,102,21,F,NA,constant,homogeneous,3,present,0.597247123718262,1,vertical,vertical,1,0.952937195982252,red,3,2,550.57236181288,653.017481158529,878.799333565612,357.480588344736,970.628304621509,789.501930496736,878.799333565612,357.480588344736,550.57236181288,653.017481158529,NaN,NaN,NaN,NaN,NaN,NaN,0,0,4,NaN,NaN,NaN,horizontal,vertical,vertical,none,none,none
1d,18,100242,2,39,103,21,F,NA,constant,homogeneous,3,present,0.517163038253784,1,horizontal,horizontal,1,0.799997744389943,red,1,3,911.784642431215,829.192481806288,545.621167183745,582.212099195248,911.784642431215,829.192481806288,942.594190385041,388.595418998464,545.621167183745,582.212099195248,NaN,NaN,NaN,NaN,NaN,NaN,4,0,0,NaN,NaN,NaN,horizontal,horizontal,vertical,none,none,none
1d,18,100242,2,40,104,21,F,NA,constant,homogeneous,3,present,0.432114124298096,1,horizontal,horizontal,1,1.03528920837811,red,2,1,1045.12173246427,670.287525733335,616.568350913644,777.137884467044,616.568350913644,777.137884467044,1045.12173246427,670.287525733335,738.309916622085,352.574589799621,NaN,NaN,NaN,NaN,NaN,NaN,0,4,0,NaN,NaN,NaN,horizontal,horizontal,horizontal,none,none,none
1d,18,100242,2,41,105,21,F,NA,constant,homogeneous,5,absent,0.466492176055908,1,vertical,vertical,1,1.05881835477693,red,2,NaN,1016.25226451989,735.129412379467,NaN,NaN,738.309916622085,847.425410200379,1016.25226451989,735.129412379467,995.341332995339,436.089159529932,704.475318678942,363.568117085469,545.621167183745,617.787900804752,NaN,NaN,0,4,0,0,0,NaN,vertical,vertical,vertical,vertical,vertical,none
1d,18,100242,2,42,106,21,F,NA,constant,homogeneous,3,absent,0.556962966918945,1,vertical,vertical,1,1.04705378157752,red,3,NaN,570.807518193712,711.784642431215,NaN,NaN,1011.40458100154,742.594190385041,817.787900804752,345.621167183745,570.807518193712,711.784642431215,NaN,NaN,NaN,NaN,NaN,NaN,0,0,4,NaN,NaN,NaN,vertical,horizontal,vertical,none,none,none
1d,18,100242,2,43,107,21,F,NA,constant,homogeneous,6,present,1.03245186805725,1,vertical,vertical,1,1.0235246351787,red,4,5,676.373546837184,376.971974679454,545.03883773512,595.549636358493,923.626453162816,823.028025320546,1054.96116226488,604.450363641507,931.334709102064,381.422338320961,676.373546837184,376.971974679454,545.03883773512,595.549636358493,668.665290897936,818.577661679039,0,0,0,4,0,0,vertical,horizontal,horizontal,vertical,vertical,horizontal
1d,18,100242,2,44,108,21,F,NA,constant,homogeneous,3,present,0.462346076965332,1,vertical,vertical,1,1.04705378157752,red,2,3,1049.42763818712,546.982518841471,629.371695378491,410.498069503264,721.200666434388,842.519411655264,1049.42763818712,546.982518841471,629.371695378491,410.498069503264,NaN,NaN,NaN,NaN,NaN,NaN,0,4,0,NaN,NaN,NaN,horizontal,vertical,vertical,none,none,none
1d,18,100242,2,45,109,21,F,NA,constant,homogeneous,6,present,0.655663967132568,1,vertical,vertical,1,0.999995488779885,red,1,5,835.489140744817,852.518357529101,563.568117085469,504.475318678942,835.489140744817,852.518357529101,1036.43188291453,695.524681321058,1000.94274216971,443.006323791957,764.510859255183,347.4816424709,563.568117085469,504.475318678942,599.057257830286,756.993676208043,4,0,0,0,0,0,vertical,horizontal,horizontal,vertical,vertical,horizontal
1d,18,100242,2,46,110,21,F,NA,constant,homogeneous,6,present,0.549782991409302,1,vertical,vertical,1,0.647058292797634,red,5,3,547.481642470899,564.510859255183,956.993676208043,399.057257830286,895.524681321058,836.431882914531,1052.5183575291,635.489140744817,956.993676208043,399.057257830286,704.475318678942,363.568117085469,547.481642470899,564.510859255183,643.006323791957,800.942742169714,0,0,0,0,4,0,vertical,horizontal,vertical,horizontal,vertical,horizontal
1d,18,100242,2,47,111,21,F,NA,constant,homogeneous,3,present,0.44547700881958,1,horizontal,horizontal,1,0.623529146398817,red,1,2,729.712474266665,845.121732464271,1047.42541020038,538.309916622085,729.712474266665,845.121732464271,1047.42541020038,538.309916622085,622.862115532956,416.568350913644,NaN,NaN,NaN,NaN,NaN,NaN,4,0,0,NaN,NaN,NaN,horizontal,horizontal,horizontal,none,none,none
1d,18,100242,2,48,112,21,F,NA,constant,homogeneous,3,present,0.469449996948242,1,vertical,vertical,1,0.752939451592309,red,2,3,1051.12597701811,644.280285305067,712.784863451954,360.378381699593,636.089159529932,795.341332995339,1051.12597701811,644.280285305067,712.784863451954,360.378381699593,NaN,NaN,NaN,NaN,NaN,NaN,0,4,0,NaN,NaN,NaN,horizontal,vertical,vertical,none,none,none
1d,18,100242,2,49,113,21,F,NA,constant,homogeneous,5,present,0.735040903091431,1,vertical,vertical,1,1.01176006197929,red,4,2,657.405809614959,388.595418998464,1039.62161830041,687.215136548046,791.100628340862,854.844660889869,1039.62161830041,687.215136548046,956.993676208043,399.057257830286,657.405809614959,388.595418998464,554.878267535729,670.287525733335,NaN,NaN,0,0,0,4,0,NaN,horizontal,vertical,vertical,vertical,horizontal,none
1d,18,100242,2,50,114,21,F,NA,constant,homogeneous,4,absent,0.821520090103149,1,horizontal,horizontal,1,0.764704024791718,red,1,NaN,729.712474266665,845.121732464271,NaN,NaN,729.712474266665,845.121732464271,1045.12173246427,670.287525733335,870.287525733335,354.878267535729,554.878267535729,529.712474266665,NaN,NaN,NaN,NaN,4,0,0,0,NaN,NaN,horizontal,vertical,horizontal,horizontal,none,none
1d,18,100242,2,51,115,21,F,NA,constant,homogeneous,5,absent,0.845874786376953,1,horizontal,horizontal,1,0.799997744389943,red,3,NaN,927.5,379.163522034968,NaN,NaN,826.654758133252,853.60308331891,1049.42763818712,653.017481158529,927.5,379.163522034968,629.371695378491,410.498069503264,567.045908301137,703.717843984329,NaN,NaN,0,0,4,0,0,NaN,horizontal,vertical,horizontal,vertical,vertical,none
1d,18,100242,2,52,116,21,F,NA,constant,homogeneous,4,absent,0.536433935165405,1,horizontal,horizontal,1,0.858820610386985,red,3,NaN,915.767577433584,372.793336331966,NaN,NaN,684.232422566416,827.206663668034,1027.20666366803,715.767577433584,915.767577433584,372.793336331966,572.793336331966,484.232422566416,NaN,NaN,NaN,NaN,0,0,4,0,NaN,NaN,vertical,vertical,horizontal,horizontal,none,none
1d,18,100242,2,53,117,21,F,NA,constant,homogeneous,4,absent,0.493598937988281,1,vertical,vertical,1,0.717645731994084,red,2,NaN,1018.57766167904,468.665290897936,NaN,NaN,931.334709102064,818.577661679039,1018.57766167904,468.665290897936,668.665290897936,381.422338320961,581.422338320961,731.334709102064,NaN,NaN,NaN,NaN,0,4,0,0,NaN,NaN,vertical,vertical,horizontal,vertical,none,none
1d,18,100242,2,54,118,21,F,NA,constant,homogeneous,3,absent,0.45033597946167,1,horizontal,horizontal,1,0.929408049583435,red,3,NaN,777.775285599347,345.970351986605,NaN,NaN,591.116228706307,746.261991269517,1031.10848569435,707.767656743878,777.775285599347,345.970351986605,NaN,NaN,NaN,NaN,NaN,NaN,0,0,4,NaN,NaN,NaN,horizontal,horizontal,horizontal,none,none,none
1d,18,100242,2,55,119,21,F,NA,constant,homogeneous,5,present,0.612790107727051,1,horizontal,horizontal,1,0.858820610386985,red,1,3,704.475318678942,836.431882914531,1016.25226451989,464.870587620533,704.475318678942,836.431882914531,995.341332995339,763.910840470068,1016.25226451989,464.870587620533,738.309916622085,352.574589799621,545.621167183745,582.212099195248,NaN,NaN,4,0,0,0,0,NaN,horizontal,vertical,vertical,vertical,horizontal,none
1d,18,100242,2,56,120,21,F,NA,constant,homogeneous,3,absent,0.454138994216919,1,horizontal,horizontal,1,0.847056037187576,red,2,NaN,1054.65053136242,586.654331158049,NaN,NaN,684.232422566416,827.206663668034,1054.65053136242,586.654331158049,661.117046071168,386.139005173917,NaN,NaN,NaN,NaN,NaN,NaN,0,4,0,NaN,NaN,NaN,vertical,horizontal,horizontal,none,none,none
1d,18,100242,2,57,121,21,F,NA,constant,homogeneous,5,absent,0.684597969055176,1,vertical,vertical,1,1.07058292797634,red,1,NaN,915.767577433584,827.206663668034,NaN,NaN,915.767577433584,827.206663668034,1051.86052685176,560.109211414741,839.890788585259,348.13947314824,572.793336331966,484.232422566416,619.68777079743,780.31222920257,NaN,NaN,4,0,0,0,0,NaN,vertical,horizontal,horizontal,vertical,horizontal,none
1d,18,100242,2,58,122,21,F,NA,constant,homogeneous,4,absent,0.591659069061279,1,vertical,vertical,1,0.847056037187576,red,4,NaN,599.057257830286,443.006323791957,NaN,NaN,643.006323791957,800.942742169714,1000.94274216971,756.993676208043,956.993676208043,399.057257830286,599.057257830286,443.006323791957,NaN,NaN,NaN,NaN,0,0,0,4,NaN,NaN,vertical,vertical,horizontal,vertical,none,none
1d,18,100242,2,59,123,21,F,NA,constant,homogeneous,6,present,0.55359411239624,1,horizontal,horizontal,1,0.694116585595267,red,2,4,946.261991269517,808.883771293693,907.767656743878,368.891514305654,692.232343256122,831.108485694346,946.261991269517,808.883771293693,1054.0296480134,577.775285599347,907.767656743878,368.891514305654,653.738008730483,391.116228706307,545.970351986605,622.224714400653,0,4,0,0,0,0,vertical,horizontal,horizontal,vertical,vertical,horizontal
1d,18,100242,2,60,124,21,F,NA,constant,homogeneous,5,present,0.55548882484436,1,horizontal,horizontal,1,0.929408049583435,red,4,3,568.891514305654,492.232343256122,831.076682568313,346.900731331463,923.626453162816,823.028025320546,1050.31493177915,551.343706178981,831.076682568313,346.900731331463,568.891514305654,492.232343256122,626.090418184063,786.495193912888,NaN,NaN,0,0,0,4,0,NaN,vertical,horizontal,vertical,horizontal,vertical,none
1d,18,100242,2,61,125,21,F,NA,constant,homogeneous,5,present,0.727190017700195,1,horizontal,horizontal,1,0.623529146398817,red,2,3,1054.84466088987,591.100628340862,870.287525733335,354.878267535729,887.215136548046,839.621618300407,1054.84466088987,591.100628340862,870.287525733335,354.878267535729,588.595418998464,457.40580961496,599.057257830286,756.993676208043,NaN,NaN,0,4,0,0,0,NaN,horizontal,horizontal,vertical,vertical,vertical,none
1d,18,100242,2,62,126,21,F,NA,constant,homogeneous,5,present,0.670161008834839,1,vertical,vertical,1,1.0235246351787,red,1,5,764.510859255183,852.518357529101,548.874022981887,644.280285305067,764.510859255183,852.518357529101,1029.19248180629,711.784642431215,977.137884467044,416.568350913644,680.284751489598,374.848363820974,548.874022981887,644.280285305067,NaN,NaN,4,0,0,0,0,NaN,vertical,horizontal,horizontal,vertical,vertical,none
1d,18,100242,2,63,127,21,F,NA,constant,homogeneous,4,present,0.526628971099854,1,horizontal,horizontal,1,0.741174878392901,red,3,1,746.982518841471,350.57236181288,853.017481158529,849.42763818712,853.017481158529,849.42763818712,1049.42763818712,546.982518841471,746.982518841471,350.57236181288,550.57236181288,653.017481158529,NaN,NaN,NaN,NaN,0,0,4,0,NaN,NaN,horizontal,vertical,horizontal,vertical,none,none
1d,18,100242,2,64,128,21,F,NA,constant,homogeneous,3,present,0.690853834152222,1,horizontal,horizontal,1,1.08234750117574,red,3,2,546.39691668109,573.345241866748,949.885239334581,393.700666434388,903.717843984329,832.954091698863,949.885239334581,393.700666434388,546.39691668109,573.345241866748,NaN,NaN,NaN,NaN,NaN,NaN,0,0,4,NaN,NaN,NaN,horizontal,horizontal,horizontal,none,none,none
1d,18,100242,3,1,129,21,F,NA,constant,homogeneous,3,present,0.588956832885742,1,horizontal,horizontal,1,0.729410305193492,red,3,1,558.892763222174,683.019879386575,992.450942956807,767.295052392579,992.450942956807,767.295052392579,848.656293821019,349.685068220846,558.892763222174,683.019879386575,NaN,NaN,NaN,NaN,NaN,NaN,0,0,4,NaN,NaN,NaN,horizontal,horizontal,horizontal,none,none,none
1d,18,100242,3,2,130,21,F,NA,constant,homogeneous,5,absent,1.60707688331604,1,horizontal,horizontal,1,0.694116585595267,red,4,NaN,768.923317431687,346.900731331463,NaN,NaN,676.373546837184,823.028025320546,973.909581815937,786.495193912888,1031.10848569435,492.232343256122,768.923317431687,346.900731331463,549.685068220846,551.343706178981,NaN,NaN,0,0,0,4,0,NaN,vertical,horizontal,horizontal,horizontal,vertical,none
1d,18,100242,3,3,131,21,F,NA,constant,homogeneous,3,absent,0.579783916473389,1,vertical,vertical,1,0.623529146398817,red,3,NaN,563.568117085469,504.475318678942,NaN,NaN,835.489140744817,852.518357529101,1000.94274216971,443.006323791957,563.568117085469,504.475318678942,NaN,NaN,NaN,NaN,NaN,NaN,0,0,4,NaN,NaN,NaN,horizontal,horizontal,vertical,none,none,none
1d,18,100242,3,4,132,21,F,NA,constant,homogeneous,6,present,0.674314975738525,1,vertical,vertical,1,0.741174878392901,red,3,4,1003.65205506206,446.537169096228,768.923317431687,346.900731331463,831.076682568313,853.099268668537,1034.72873763037,699.636437764765,1003.65205506206,446.537169096228,768.923317431687,346.900731331463,565.271262369628,500.363562235235,596.34794493794,753.462830903772,0,0,4,0,0,0,horizontal,horizontal,vertical,horizontal,vertical,vertical
1d,18,100242,3,5,133,21,F,NA,constant,homogeneous,5,absent,0.433257102966309,1,vertical,vertical,1,1.07058292797634,red,3,NaN,1000.94274216971,443.006323791957,NaN,NaN,729.712474266665,845.121732464271,1011.40458100154,742.594190385041,1000.94274216971,443.006323791957,712.784863451954,360.378381699593,545.155339110131,608.899371659138,NaN,NaN,0,0,4,0,0,NaN,horizontal,horizontal,vertical,horizontal,vertical,none
1d,18,100242,3,6,134,21,F,NA,constant,homogeneous,4,present,0.858384132385254,1,vertical,vertical,1,0.611764573199408,red,1,3,853.017481158529,849.42763818712,746.982518841471,350.57236181288,853.017481158529,849.42763818712,1049.42763818712,546.982518841471,746.982518841471,350.57236181288,550.57236181288,653.017481158529,NaN,NaN,NaN,NaN,4,0,0,0,NaN,NaN,vertical,horizontal,vertical,vertical,none,none
1d,18,100242,3,7,135,21,F,NA,constant,homogeneous,5,absent,0.541800975799561,1,vertical,vertical,1,0.89411432998521,red,2,NaN,1006.29933356561,749.885239334581,NaN,NaN,721.200666434388,842.519411655264,1006.29933356561,749.885239334581,1006.29933356561,450.114760665419,721.200666434388,357.480588344736,545,600,NaN,NaN,0,4,0,0,0,NaN,vertical,vertical,vertical,vertical,vertical,none
1d,18,100242,3,8,136,21,F,NA,constant,homogeneous,3,present,0.46797513961792,1,horizontal,horizontal,1,0.952937195982252,red,2,3,1031.10848569435,492.232343256122,591.116228706307,453.738008730483,777.775285599347,854.029648013395,1031.10848569435,492.232343256122,591.116228706307,453.738008730483,NaN,NaN,NaN,NaN,NaN,NaN,0,4,0,NaN,NaN,NaN,vertical,horizontal,vertical,none,none,none
1d,18,100242,3,9,137,21,F,NA,constant,homogeneous,6,absent,0.557291984558105,1,horizontal,horizontal,1,0.6,red,5,NaN,586.139005173917,461.117046071168,NaN,NaN,786.654331158049,854.650531362416,1013.86099482608,738.882953928832,1027.20666366803,484.232422566416,813.345668841951,345.349468637584,586.139005173917,461.117046071168,572.793336331966,715.767577433584,0,0,0,0,4,0,horizontal,vertical,vertical,vertical,horizontal,horizontal
1d,18,100242,3,10,138,21,F,NA,constant,homogeneous,4,present,0.634442090988159,1,vertical,vertical,1,1.09411207437515,red,4,3,563.568117085469,695.524681321058,704.475318678942,363.568117085469,895.524681321058,836.431882914531,1036.43188291453,504.475318678942,704.475318678942,363.568117085469,563.568117085469,695.524681321058,NaN,NaN,NaN,NaN,0,0,0,4,NaN,NaN,vertical,horizontal,vertical,vertical,none,none
1d,18,100242,3,11,139,21,F,NA,constant,homogeneous,4,present,0.602535963058472,1,vertical,vertical,1,0.952937195982252,red,1,2,844.280285305067,851.125977018113,1051.12597701811,555.719714694933,844.280285305067,851.125977018113,1051.12597701811,555.719714694933,755.719714694933,348.874022981887,548.874022981887,644.280285305067,NaN,NaN,NaN,NaN,4,0,0,0,NaN,NaN,vertical,vertical,horizontal,horizontal,none,none
1d,18,100242,3,12,140,21,F,NA,constant,homogeneous,5,present,0.540556192398071,1,horizontal,horizontal,1,1.08234750117574,red,4,1,576.971974679454,476.373546837184,907.767656743878,831.108485694346,907.767656743878,831.108485694346,1053.09926866854,568.923317431687,848.656293821019,349.685068220846,576.971974679454,476.373546837184,613.504806087112,773.909581815937,NaN,NaN,0,0,0,4,0,NaN,vertical,horizontal,horizontal,horizontal,horizontal,none
1d,18,100242,3,13,141,21,F,NA,constant,homogeneous,6,present,0.769611120223999,1,horizontal,horizontal,1,0.705881158794676,red,2,4,927.5,820.836477965032,927.5,379.163522034968,672.5,820.836477965032,927.5,820.836477965032,1055,600,927.5,379.163522034968,672.5,379.163522034968,545,600,0,4,0,0,0,0,vertical,horizontal,vertical,horizontal,vertical,vertical
1d,18,100242,3,14,142,21,F,NA,constant,homogeneous,5,absent,0.641549825668335,1,vertical,vertical,1,0.623529146398817,red,4,NaN,568.891514305654,492.232343256122,NaN,NaN,923.626453162816,823.028025320546,1050.31493177915,551.343706178981,831.076682568313,346.900731331463,568.891514305654,492.232343256122,626.090418184063,786.495193912888,NaN,NaN,0,0,0,4,0,NaN,vertical,horizontal,horizontal,vertical,vertical,none
1d,18,100242,3,15,143,21,F,NA,constant,homogeneous,4,absent,0.631206035614014,1,horizontal,horizontal,1,1.03528920837811,red,1,NaN,973.909581815937,786.495193912888,NaN,NaN,973.909581815937,786.495193912888,986.495193912888,426.090418184063,626.090418184063,413.504806087112,613.504806087112,773.909581815937,NaN,NaN,NaN,NaN,4,0,0,0,NaN,NaN,horizontal,vertical,horizontal,horizontal,none,none
1d,18,100242,3,16,144,21,F,NA,constant,homogeneous,3,absent,0.509035110473633,1,horizontal,horizontal,1,1.04705378157752,red,2,NaN,903.717843984329,367.045908301137,NaN,NaN,949.885239334581,806.299333565612,903.717843984329,367.045908301137,546.39691668109,626.654758133252,NaN,NaN,NaN,NaN,NaN,NaN,0,4,0,NaN,NaN,NaN,horizontal,horizontal,vertical,none,none,none
1d,18,100242,3,17,145,21,F,NA,constant,homogeneous,5,absent,0.453058958053589,1,vertical,vertical,1,0.682352012395859,red,3,NaN,935.129412379467,383.747735480111,NaN,NaN,817.787900804752,854.378832816255,1047.42541020038,661.690083377915,935.129412379467,383.747735480111,636.089159529932,404.658667004661,563.568117085469,695.524681321058,NaN,NaN,0,0,4,0,0,NaN,horizontal,horizontal,vertical,horizontal,horizontal,none
1d,18,100242,3,18,146,21,F,NA,constant,homogeneous,3,absent,0.536957979202271,0,vertical,horizontal,1,0.729410305193492,red,1,NaN,942.594190385041,811.404581001536,NaN,NaN,942.594190385041,811.404581001536,911.784642431215,370.807518193712,545.621167183745,617.787900804752,NaN,NaN,NaN,NaN,NaN,NaN,4,0,0,NaN,NaN,NaN,vertical,horizontal,vertical,none,none,none
1d,18,100242,3,19,147,21,F,NA,constant,homogeneous,3,absent,0.389025926589966,1,horizontal,horizontal,1,1.07058292797634,red,2,NaN,1027.20666366803,484.232422566416,NaN,NaN,786.654331158049,854.650531362416,1027.20666366803,484.232422566416,586.139005173917,461.117046071168,NaN,NaN,NaN,NaN,NaN,NaN,0,4,0,NaN,NaN,NaN,vertical,horizontal,horizontal,none,none,none
1d,18,100242,3,20,148,21,F,NA,constant,homogeneous,6,absent,0.998424053192139,0,vertical,horizontal,1,0.870585183586393,red,6,NaN,581.422338320961,731.334709102064,NaN,NaN,804.450363641507,854.96116226488,1023.02802532055,723.626453162816,1018.57766167904,468.665290897936,795.549636358493,345.03883773512,576.971974679454,476.373546837184,581.422338320961,731.334709102064,0,0,0,0,0,4,horizontal,vertical,horizontal,horizontal,vertical,vertical
1d,18,100242,3,21,149,21,F,NA,constant,homogeneous,3,present,0.57843804359436,0,vertical,horizontal,1,1.01176006197929,red,1,3,998.172220171528,760.476699717708,561.936991243214,691.383827134052,998.172220171528,760.476699717708,839.890788585259,348.13947314824,561.936991243214,691.383827134052,NaN,NaN,NaN,NaN,NaN,NaN,4,0,0,NaN,NaN,NaN,vertical,horizontal,vertical,none,none,none
1d,18,100242,3,22,150,21,F,NA,constant,homogeneous,5,absent,1.05590009689331,1,horizontal,horizontal,1,0.870585183586393,red,5,NaN,576.971974679454,723.626453162816,NaN,NaN,848.656293821019,850.314931779154,1053.09926866854,631.076682568313,907.767656743878,368.891514305654,613.504806087112,426.090418184063,576.971974679454,723.626453162816,NaN,NaN,0,0,0,0,4,NaN,vertical,vertical,horizontal,horizontal,horizontal,none
1d,18,100242,3,23,151,21,F,NA,constant,homogeneous,4,present,0.443326950073242,1,vertical,vertical,1,0.882349756785801,red,4,2,567.045908301137,703.717843984329,1032.95409169886,496.282156015671,903.717843984329,832.954091698863,1032.95409169886,496.282156015671,696.282156015671,367.045908301137,567.045908301137,703.717843984329,NaN,NaN,NaN,NaN,0,0,0,4,NaN,NaN,vertical,vertical,horizontal,vertical,none,none
1d,18,100242,3,24,152,21,F,NA,constant,homogeneous,6,absent,0.777060985565186,1,vertical,vertical,1,0.658822865997042,red,2,NaN,1054.0296480134,622.224714400653,NaN,NaN,907.767656743878,831.108485694346,1054.0296480134,622.224714400653,946.261991269517,391.116228706307,692.232343256122,368.891514305654,545.970351986605,577.775285599347,653.738008730483,808.883771293693,0,4,0,0,0,0,horizontal,vertical,vertical,vertical,horizontal,horizontal
1d,18,100242,3,25,153,21,F,NA,constant,homogeneous,4,present,0.630518913269043,1,horizontal,horizontal,1,1.09411207437515,red,2,3,1049.42763818712,546.982518841471,746.982518841471,350.57236181288,853.017481158529,849.42763818712,1049.42763818712,546.982518841471,746.982518841471,350.57236181288,550.57236181288,653.017481158529,NaN,NaN,NaN,NaN,0,4,0,0,NaN,NaN,vertical,horizontal,horizontal,vertical,none,none
1d,18,100242,3,26,154,21,F,NA,constant,homogeneous,4,present,0.482856035232544,1,horizontal,horizontal,1,0.976466342381069,red,2,1,1018.57766167904,468.665290897936,931.334709102064,818.577661679039,931.334709102064,818.577661679039,1018.57766167904,468.665290897936,668.665290897936,381.422338320961,581.422338320961,731.334709102064,NaN,NaN,NaN,NaN,0,4,0,0,NaN,NaN,horizontal,horizontal,horizontal,vertical,none,none
1d,18,100242,3,27,155,21,F,NA,constant,homogeneous,5,present,0.778511047363281,1,horizontal,horizontal,1,1.08234750117574,red,1,4,839.890788585259,851.86052685176,619.68777079743,419.68777079743,839.890788585259,851.86052685176,1051.86052685176,639.890788585259,915.767577433584,372.793336331966,619.68777079743,419.68777079743,572.793336331966,715.767577433584,NaN,NaN,4,0,0,0,0,NaN,horizontal,vertical,horizontal,horizontal,horizontal,none
1d,18,100242,3,28,156,21,F,NA,constant,homogeneous,6,absent,0.602940082550049,1,horizontal,horizontal,1,0.835291463988168,red,5,NaN,601.827779828472,439.523300282291,NaN,NaN,760.109211414741,851.86052685176,998.172220171528,760.476699717708,1038.06300875679,508.616172865948,839.890788585259,348.13947314824,601.827779828472,439.523300282291,561.936991243214,691.383827134052,0,0,0,0,4,0,horizontal,horizontal,vertical,vertical,horizontal,vertical
1d,18,100242,3,29,157,21,F,NA,constant,homogeneous,3,absent,0.544149875640869,1,vertical,vertical,1,0.847056037187576,red,1,NaN,813.345668841951,854.650531362416,NaN,NaN,813.345668841951,854.650531362416,1013.86099482608,461.117046071168,572.793336331966,484.232422566416,NaN,NaN,NaN,NaN,NaN,NaN,4,0,0,NaN,NaN,NaN,vertical,vertical,vertical,none,none,none
1d,18,100242,3,30,158,21,F,NA,constant,homogeneous,5,absent,0.598562002182007,1,horizontal,horizontal,1,0.976466342381069,red,5,NaN,591.116228706307,746.261991269517,NaN,NaN,874.554784704298,843.857712770574,1054.96116226488,604.450363641507,883.019879386575,358.892763222174,596.34794493794,446.537169096228,591.116228706307,746.261991269517,NaN,NaN,0,0,0,0,4,NaN,horizontal,vertical,vertical,horizontal,horizontal,none
1d,18,100242,3,31,159,21,F,NA,constant,homogeneous,3,present,0.521111011505127,1,vertical,vertical,1,0.705881158794676,red,2,3,995.341332995339,436.089159529932,560.378381699593,512.784863451954,844.280285305067,851.125977018113,995.341332995339,436.089159529932,560.378381699593,512.784863451954,NaN,NaN,NaN,NaN,NaN,NaN,0,4,0,NaN,NaN,NaN,horizontal,vertical,vertical,none,none,none
1d,18,100242,3,32,160,21,F,NA,constant,homogeneous,6,absent,0.517087936401367,1,horizontal,horizontal,1,1.05881835477693,red,4,NaN,865.998856501143,353.688914296288,NaN,NaN,734.001143498857,846.311085703712,980.31222920257,780.31222920257,1046.31108570371,534.001143498857,865.998856501143,353.688914296288,619.68777079743,419.68777079743,553.688914296288,665.998856501143,0,0,0,4,0,0,vertical,vertical,vertical,horizontal,horizontal,horizontal
1d,18,100242,3,33,161,21,F,NA,constant,homogeneous,4,absent,0.690953969955444,1,vertical,vertical,1,0.776468597991126,red,4,NaN,567.045908301137,703.717843984329,NaN,NaN,903.717843984329,832.954091698863,1032.95409169886,496.282156015671,696.282156015671,367.045908301137,567.045908301137,703.717843984329,NaN,NaN,NaN,NaN,0,0,0,4,NaN,NaN,vertical,horizontal,horizontal,vertical,none,none
1d,18,100242,3,34,162,21,F,NA,constant,homogeneous,3,present,0.450556039810181,1,vertical,vertical,1,0.882349756785801,red,2,3,992.450942956807,432.704947607421,558.892763222174,516.980120613425,848.656293821019,850.314931779154,992.450942956807,432.704947607421,558.892763222174,516.980120613425,NaN,NaN,NaN,NaN,NaN,NaN,0,4,0,NaN,NaN,NaN,horizontal,vertical,horizontal,none,none,none
1d,18,100242,3,35,163,21,F,NA,constant,homogeneous,6,present,0.458201885223389,1,vertical,vertical,1,0.917643476384027,red,3,4,1020.83647796503,472.5,800,345,800,855,1020.83647796503,727.5,1020.83647796503,472.5,800,345,579.163522034968,472.5,579.163522034968,727.5,0,0,4,0,0,0,horizontal,horizontal,vertical,vertical,horizontal,horizontal
1d,18,100242,3,36,164,21,F,NA,constant,homogeneous,6,present,0.661288022994995,1,vertical,vertical,1,1.09411207437515,red,4,2,768.923317431687,346.900731331463,1034.72873763037,699.636437764765,831.076682568313,853.099268668537,1034.72873763037,699.636437764765,1003.65205506206,446.537169096228,768.923317431687,346.900731331463,565.271262369628,500.363562235235,596.34794493794,753.462830903772,0,0,0,4,0,0,horizontal,horizontal,horizontal,vertical,horizontal,horizontal
1d,18,100242,3,37,165,21,F,NA,constant,homogeneous,6,present,0.756614923477173,1,horizontal,horizontal,1,0.682352012395859,red,5,4,545,600,672.5,379.163522034968,927.5,820.836477965032,1055,600,927.5,379.163522034968,672.5,379.163522034968,545,600,672.5,820.836477965032,0,0,0,0,4,0,vertical,vertical,horizontal,horizontal,horizontal,vertical
1d,18,100242,3,38,166,21,F,NA,constant,homogeneous,6,present,0.585793018341064,1,horizontal,horizontal,1,0.694116585595267,red,3,1,1025.15163617903,480.284751489598,791.100628340862,854.844660889869,791.100628340862,854.844660889869,1016.25226451989,735.129412379467,1025.15163617903,480.284751489598,808.899371659138,345.155339110131,583.747735480111,464.870587620533,574.848363820974,719.715248510402,0,0,4,0,0,0,vertical,vertical,horizontal,vertical,vertical,vertical
1d,18,100242,3,39,167,21,F,NA,constant,homogeneous,6,absent,0.548352003097534,1,horizontal,horizontal,1,0.729410305193492,red,3,NaN,1051.86052685176,560.109211414741,NaN,NaN,708.616172865948,838.063008756786,960.476699717708,798.172220171528,1051.86052685176,560.109211414741,891.383827134052,361.936991243214,639.523300282292,401.827779828472,548.13947314824,639.890788585259,0,0,4,0,0,0,vertical,horizontal,horizontal,vertical,horizontal,vertical
1d,18,100242,3,40,168,21,F,NA,constant,homogeneous,3,present,0.443708181381226,1,vertical,vertical,1,0.82352689078876,red,3,2,786.654331158049,345.349468637584,1027.20666366803,715.767577433584,586.139005173917,738.882953928832,1027.20666366803,715.767577433584,786.654331158049,345.349468637584,NaN,NaN,NaN,NaN,NaN,NaN,0,0,4,NaN,NaN,NaN,horizontal,horizontal,vertical,none,none,none
1d,18,100242,3,41,169,21,F,NA,constant,homogeneous,3,absent,0.693279981613159,1,horizontal,horizontal,1,0.623529146398817,red,2,NaN,1046.31108570371,534.001143498857,NaN,NaN,734.001143498857,846.311085703712,1046.31108570371,534.001143498857,619.68777079743,419.68777079743,NaN,NaN,NaN,NaN,NaN,NaN,0,4,0,NaN,NaN,NaN,horizontal,horizontal,vertical,none,none,none
1d,18,100242,3,42,170,21,F,NA,constant,homogeneous,4,present,0.983737945556641,1,horizontal,horizontal,1,0.611764573199408,red,4,1,591.116228706307,746.261991269517,946.261991269517,808.883771293693,946.261991269517,808.883771293693,1008.88377129369,453.738008730483,653.738008730483,391.116228706307,591.116228706307,746.261991269517,NaN,NaN,NaN,NaN,0,0,0,4,NaN,NaN,horizontal,horizontal,horizontal,horizontal,none,none
1d,18,100242,3,43,171,21,F,NA,constant,homogeneous,5,absent,0.634480953216553,1,horizontal,horizontal,1,0.752939451592309,red,1,NaN,791.100628340862,854.844660889869,NaN,NaN,791.100628340862,854.844660889869,1039.62161830041,687.215136548046,956.993676208043,399.057257830286,657.405809614959,388.595418998464,554.878267535729,670.287525733335,NaN,NaN,4,0,0,0,0,NaN,horizontal,vertical,vertical,horizontal,horizontal,none
1d,18,100242,3,44,172,21,F,NA,constant,homogeneous,5,present,0.572559833526611,1,vertical,vertical,1,1.04705378157752,red,4,5,596.34794493794,446.537169096228,591.116228706307,746.261991269517,874.554784704298,843.857712770574,1054.96116226488,604.450363641507,883.019879386575,358.892763222174,596.34794493794,446.537169096228,591.116228706307,746.261991269517,NaN,NaN,0,0,0,4,0,NaN,horizontal,horizontal,horizontal,vertical,horizontal,none
1d,18,100242,3,45,173,21,F,NA,constant,homogeneous,3,absent,0.480599880218506,1,vertical,vertical,1,0.835291463988168,red,2,NaN,1042.51941165526,521.200666434388,NaN,NaN,746.982518841471,849.42763818712,1042.51941165526,521.200666434388,610.498069503264,429.371695378491,NaN,NaN,NaN,NaN,NaN,NaN,0,4,0,NaN,NaN,NaN,vertical,vertical,vertical,none,none,none
1d,18,100242,3,46,174,21,F,NA,constant,homogeneous,6,present,0.693802833557129,1,horizontal,horizontal,1,0.976466342381069,red,1,2,927.5,820.836477965032,1055,600,927.5,820.836477965032,1055,600,927.5,379.163522034968,672.5,379.163522034968,545,600,672.5,820.836477965032,4,0,0,0,0,0,horizontal,vertical,horizontal,vertical,horizontal,vertical
1d,18,100242,3,47,175,21,F,NA,constant,homogeneous,4,absent,0.663648843765259,1,vertical,vertical,1,0.988230915580477,red,1,NaN,692.232343256122,831.108485694346,NaN,NaN,692.232343256122,831.108485694346,1031.10848569435,707.767656743878,907.767656743878,368.891514305654,568.891514305654,492.232343256122,NaN,NaN,NaN,NaN,4,0,0,0,NaN,NaN,vertical,vertical,horizontal,horizontal,none,none
1d,18,100242,3,48,176,21,F,NA,constant,homogeneous,5,present,0.582701921463013,1,horizontal,horizontal,1,0.682352012395859,red,5,2,554.878267535729,529.712474266665,956.993676208043,800.942742169714,657.405809614959,811.404581001536,956.993676208043,800.942742169714,1039.62161830041,512.784863451954,791.100628340862,345.155339110131,554.878267535729,529.712474266665,NaN,NaN,0,0,0,0,4,NaN,vertical,vertical,horizontal,vertical,horizontal,none
1d,18,100242,3,49,177,21,F,NA,constant,homogeneous,5,present,0.578275918960571,1,vertical,vertical,1,0.976466342381069,red,3,1,831.076682568313,346.900731331463,923.626453162816,823.028025320546,923.626453162816,823.028025320546,1050.31493177915,551.343706178981,831.076682568313,346.900731331463,568.891514305654,492.232343256122,626.090418184063,786.495193912888,NaN,NaN,0,0,4,0,0,NaN,horizontal,horizontal,vertical,horizontal,vertical,none
1d,18,100242,3,50,178,21,F,NA,constant,homogeneous,3,absent,0.461928844451904,1,horizontal,horizontal,1,0.799997744389943,red,2,NaN,919.715248510402,374.848363820974,NaN,NaN,935.129412379467,816.252264519889,919.715248510402,374.848363820974,545.155339110131,608.899371659138,NaN,NaN,NaN,NaN,NaN,NaN,0,4,0,NaN,NaN,NaN,horizontal,horizontal,vertical,none,none,none
1d,18,100242,3,51,179,21,F,NA,constant,homogeneous,3,present,0.456722974777222,1,horizontal,horizontal,1,0.870585183586393,red,2,1,808.899371659138,345.155339110131,1016.25226451989,735.129412379467,1016.25226451989,735.129412379467,808.899371659138,345.155339110131,574.848363820974,719.715248510402,NaN,NaN,NaN,NaN,NaN,NaN,0,4,0,NaN,NaN,NaN,horizontal,horizontal,horizontal,none,none,none
1d,18,100242,3,52,180,21,F,NA,constant,homogeneous,4,absent,0.562128067016602,1,vertical,vertical,1,0.811762317589351,red,2,NaN,998.172220171528,760.476699717708,NaN,NaN,639.523300282292,798.172220171528,998.172220171528,760.476699717708,960.476699717708,401.827779828472,601.827779828472,439.523300282291,NaN,NaN,NaN,NaN,0,4,0,0,NaN,NaN,horizontal,vertical,horizontal,vertical,none,none
1d,18,100242,3,53,181,21,F,NA,constant,homogeneous,4,present,0.640748977661133,1,horizontal,horizontal,1,0.96470176918166,red,4,1,552.574589799621,661.690083377915,861.690083377915,847.425410200379,861.690083377915,847.425410200379,1047.42541020038,538.309916622085,738.309916622085,352.574589799621,552.574589799621,661.690083377915,NaN,NaN,NaN,NaN,0,0,0,4,NaN,NaN,vertical,vertical,horizontal,horizontal,none,none
1d,18,100242,3,54,182,21,F,NA,constant,homogeneous,4,absent,0.811168909072876,1,horizontal,horizontal,1,0.870585183586393,red,1,NaN,911.784642431215,829.192481806288,NaN,NaN,911.784642431215,829.192481806288,1029.19248180629,488.215357568785,688.215357568785,370.807518193712,570.807518193712,711.784642431215,NaN,NaN,NaN,NaN,4,0,0,0,NaN,NaN,horizontal,horizontal,horizontal,horizontal,none,none
1d,18,100242,3,55,183,21,F,NA,constant,homogeneous,5,present,0.681547880172729,1,vertical,vertical,1,0.682352012395859,red,2,3,1045.12173246427,670.287525733335,942.594190385041,388.595418998464,808.899371659138,854.844660889869,1045.12173246427,670.287525733335,942.594190385041,388.595418998464,643.006323791957,399.057257830286,560.378381699593,687.215136548046,NaN,NaN,0,4,0,0,0,NaN,vertical,vertical,horizontal,horizontal,vertical,none
1d,18,100242,3,56,184,21,F,NA,constant,homogeneous,4,absent,0.792252063751221,1,horizontal,horizontal,1,0.858820610386985,red,1,NaN,923.626453162816,823.028025320546,NaN,NaN,923.626453162816,823.028025320546,1023.02802532055,476.373546837184,676.373546837184,376.971974679454,576.971974679454,723.626453162816,NaN,NaN,NaN,NaN,4,0,0,0,NaN,NaN,horizontal,horizontal,vertical,vertical,none,none
1d,18,100242,3,57,185,21,F,NA,constant,homogeneous,6,absent,0.856870889663696,1,vertical,vertical,1,0.623529146398817,red,6,NaN,552.574589799621,661.690083377915,NaN,NaN,729.712474266665,845.121732464271,977.137884467044,783.431649086356,1047.42541020038,538.309916622085,870.287525733335,354.878267535729,622.862115532956,416.568350913644,552.574589799621,661.690083377915,0,0,0,0,0,4,vertical,horizontal,vertical,vertical,vertical,vertical
1d,18,100242,3,58,186,21,F,NA,constant,homogeneous,6,present,0.667821884155273,0,vertical,horizontal,1,0.882349756785801,red,1,3,923.626453162816,823.028025320546,931.334709102064,381.422338320961,923.626453162816,823.028025320546,1054.96116226488,604.450363641507,931.334709102064,381.422338320961,676.373546837184,376.971974679454,545.03883773512,595.549636358493,668.665290897936,818.577661679039,4,0,0,0,0,0,vertical,vertical,vertical,vertical,horizontal,horizontal
1d,18,100242,3,59,187,21,F,NA,constant,homogeneous,5,present,0.707490921020508,1,vertical,vertical,1,0.905878903184618,red,2,5,977.137884467044,783.431649086356,548.874022981887,555.719714694933,680.284751489598,825.151636179026,977.137884467044,783.431649086356,1029.19248180629,488.215357568785,764.510859255183,347.4816424709,548.874022981887,555.719714694933,NaN,NaN,0,4,0,0,0,NaN,horizontal,vertical,horizontal,vertical,vertical,none
1d,18,100242,3,60,188,21,F,NA,constant,homogeneous,4,absent,0.520944833755493,1,horizontal,horizontal,1,0.764704024791718,red,4,NaN,596.34794493794,446.537169096228,NaN,NaN,646.537169096228,803.65205506206,1003.65205506206,753.462830903772,953.462830903772,396.34794493794,596.34794493794,446.537169096228,NaN,NaN,NaN,NaN,0,0,0,4,NaN,NaN,horizontal,horizontal,horizontal,horizontal,none,none
1d,18,100242,3,61,189,21,F,NA,constant,homogeneous,4,absent,0.532746076583862,1,vertical,vertical,1,0.658822865997042,red,3,NaN,716.980120613425,358.892763222174,NaN,NaN,883.019879386575,841.107236777826,1041.10723677783,516.980120613425,716.980120613425,358.892763222174,558.892763222174,683.019879386575,NaN,NaN,NaN,NaN,0,0,4,0,NaN,NaN,vertical,horizontal,vertical,horizontal,none,none
1d,18,100242,3,62,190,21,F,NA,constant,homogeneous,6,absent,0.824532985687256,1,vertical,vertical,1,1.04705378157752,red,6,NaN,581.422338320961,731.334709102064,NaN,NaN,804.450363641507,854.96116226488,1023.02802532055,723.626453162816,1018.57766167904,468.665290897936,795.549636358493,345.03883773512,576.971974679454,476.373546837184,581.422338320961,731.334709102064,0,0,0,0,0,4,vertical,vertical,horizontal,horizontal,horizontal,vertical
1d,18,100242,3,63,191,21,F,NA,constant,homogeneous,3,present,0.625019073486328,1,horizontal,horizontal,1,1.01176006197929,red,3,1,551.535633479765,657.362518857686,973.909581815937,786.495193912888,973.909581815937,786.495193912888,874.554784704298,356.142287229426,551.535633479765,657.362518857686,NaN,NaN,NaN,NaN,NaN,NaN,0,0,4,NaN,NaN,NaN,vertical,horizontal,horizontal,none,none,none
1d,18,100242,3,64,192,21,F,NA,constant,homogeneous,5,present,0.619416952133179,1,horizontal,horizontal,1,1.05881835477693,red,2,3,1054.0296480134,622.224714400653,899.636437764765,365.271262369628,857.362518857686,848.464366520235,1054.0296480134,622.224714400653,899.636437764765,365.271262369628,607.549057043193,432.704947607421,581.422338320961,731.334709102064,NaN,NaN,0,4,0,0,0,NaN,horizontal,horizontal,vertical,vertical,horizontal,none
1d,18,100242,4,1,193,21,F,NA,constant,homogeneous,5,present,0.776161909103394,1,vertical,vertical,1,0.635293719598225,red,1,3,861.690083377915,847.425410200379,895.524681321058,363.568117085469,861.690083377915,847.425410200379,1054.37883281626,617.787900804752,895.524681321058,363.568117085469,604.658667004661,436.089159529932,583.747735480111,735.129412379467,NaN,NaN,4,0,0,0,0,NaN,vertical,horizontal,horizontal,vertical,vertical,none
1d,18,100242,4,2,194,21,F,NA,constant,homogeneous,4,present,0.535982847213745,1,horizontal,horizontal,1,1.01176006197929,red,4,3,561.936991243214,691.383827134052,708.616172865948,361.936991243214,891.383827134052,838.063008756786,1038.06300875679,508.616172865948,708.616172865948,361.936991243214,561.936991243214,691.383827134052,NaN,NaN,NaN,NaN,0,0,0,4,NaN,NaN,horizontal,vertical,vertical,horizontal,none,none
1d,18,100242,4,3,195,21,F,NA,constant,homogeneous,6,absent,0.45769190788269,1,vertical,vertical,1,0.929408049583435,red,3,NaN,1047.42541020038,538.309916622085,NaN,NaN,729.712474266665,845.121732464271,977.137884467044,783.431649086356,1047.42541020038,538.309916622085,870.287525733335,354.878267535729,622.862115532956,416.568350913644,552.574589799621,661.690083377915,0,0,4,0,0,0,vertical,horizontal,vertical,vertical,horizontal,horizontal
1d,18,100242,4,4,196,21,F,NA,constant,homogeneous,4,present,0.477433919906616,1,horizontal,horizontal,1,0.917643476384027,red,2,3,1003.65205506206,446.537169096228,646.537169096228,396.34794493794,953.462830903772,803.65205506206,1003.65205506206,446.537169096228,646.537169096228,396.34794493794,596.34794493794,753.462830903772,NaN,NaN,NaN,NaN,0,4,0,0,NaN,NaN,vertical,horizontal,horizontal,horizontal,none,none
1d,18,100242,4,5,197,21,F,NA,constant,homogeneous,5,present,0.498546123504639,1,horizontal,horizontal,1,0.776468597991126,red,3,1,1023.02802532055,476.373546837184,692.232343256122,831.108485694346,692.232343256122,831.108485694346,986.495193912888,773.909581815937,1023.02802532055,476.373546837184,751.343706178981,349.685068220846,546.900731331463,568.923317431687,NaN,NaN,0,0,4,0,0,NaN,horizontal,vertical,horizontal,vertical,horizontal,none
1d,18,100242,4,6,198,21,F,NA,constant,homogeneous,6,present,0.535853147506714,1,horizontal,horizontal,1,0.752939451592309,red,2,4,1049.42763818712,653.017481158529,721.200666434388,357.480588344736,878.799333565612,842.519411655264,1049.42763818712,653.017481158529,970.628304621509,410.498069503264,721.200666434388,357.480588344736,550.57236181288,546.982518841471,629.371695378491,789.501930496736,0,4,0,0,0,0,vertical,horizontal,vertical,horizontal,horizontal,vertical
1d,18,100242,4,7,199,21,F,NA,constant,homogeneous,3,present,0.563292980194092,1,vertical,vertical,1,0.82352689078876,red,1,2,861.690083377915,847.425410200379,983.431649086356,422.862115532956,861.690083377915,847.425410200379,983.431649086356,422.862115532956,554.878267535729,529.712474266665,NaN,NaN,NaN,NaN,NaN,NaN,4,0,0,NaN,NaN,NaN,vertical,horizontal,horizontal,none,none,none
1d,18,100242,4,8,200,21,F,NA,constant,homogeneous,6,present,0.630904912948608,1,horizontal,horizontal,1,0.811762317589351,red,4,5,764.510859255183,347.4816424709,563.568117085469,504.475318678942,835.489140744817,852.518357529101,1036.43188291453,695.524681321058,1000.94274216971,443.006323791957,764.510859255183,347.4816424709,563.568117085469,504.475318678942,599.057257830286,756.993676208043,0,0,0,4,0,0,vertical,horizontal,vertical,horizontal,horizontal,vertical
1d,18,100242,4,9,201,21,F,NA,constant,homogeneous,5,present,0.469529867172241,1,vertical,vertical,1,0.89411432998521,red,4,5,680.284751489598,374.848363820974,548.874022981887,644.280285305067,764.510859255183,852.518357529101,1029.19248180629,711.784642431215,977.137884467044,416.568350913644,680.284751489598,374.848363820974,548.874022981887,644.280285305067,NaN,NaN,0,0,0,4,0,NaN,horizontal,horizontal,vertical,vertical,vertical,none
1d,18,100242,4,10,202,21,F,NA,constant,homogeneous,4,absent,0.428665161132812,1,horizontal,horizontal,1,1.07058292797634,red,3,NaN,817.787900804752,345.621167183745,NaN,NaN,782.212099195248,854.378832816255,1054.37883281626,617.787900804752,817.787900804752,345.621167183745,545.621167183745,582.212099195248,NaN,NaN,NaN,NaN,0,0,4,0,NaN,NaN,vertical,vertical,horizontal,horizontal,none,none
1d,18,100242,4,11,203,21,F,NA,constant,homogeneous,4,present,0.613651990890503,1,vertical,vertical,1,0.811762317589351,red,4,3,558.892763222174,683.019879386575,716.980120613425,358.892763222174,883.019879386575,841.107236777826,1041.10723677783,516.980120613425,716.980120613425,358.892763222174,558.892763222174,683.019879386575,NaN,NaN,NaN,NaN,0,0,0,4,NaN,NaN,horizontal,vertical,horizontal,vertical,none,none
1d,18,100242,4,12,204,21,F,NA,constant,homogeneous,3,present,0.443831205368042,1,horizontal,horizontal,1,0.682352012395859,red,2,1,931.334709102064,381.422338320961,923.626453162816,823.028025320546,923.626453162816,823.028025320546,931.334709102064,381.422338320961,545.03883773512,595.549636358493,NaN,NaN,NaN,NaN,NaN,NaN,0,4,0,NaN,NaN,NaN,horizontal,horizontal,horizontal,none,none,none
1d,18,100242,4,13,205,21,F,NA,constant,homogeneous,5,absent,0.397341012954712,1,horizontal,horizontal,1,0.82352689078876,red,4,NaN,734.001143498857,353.688914296288,NaN,NaN,708.616172865948,838.063008756786,998.172220171528,760.476699717708,1013.86099482608,461.117046071168,734.001143498857,353.688914296288,545.349468637584,586.654331158049,NaN,NaN,0,0,0,4,0,NaN,vertical,vertical,vertical,horizontal,horizontal,none
1d,18,100242,4,14,206,21,F,NA,constant,homogeneous,6,absent,0.749680995941162,1,horizontal,horizontal,1,0.82352689078876,red,6,NaN,545.155339110131,608.899371659138,NaN,NaN,680.284751489598,825.151636179026,935.129412379467,816.252264519889,1054.84466088987,591.100628340862,919.715248510402,374.848363820974,664.870587620533,383.747735480111,545.155339110131,608.899371659138,0,0,0,0,0,4,vertical,vertical,horizontal,horizontal,vertical,horizontal
1d,18,100242,4,15,207,21,F,NA,constant,homogeneous,3,absent,0.684828996658325,1,vertical,vertical,1,0.999995488779885,red,1,NaN,604.658667004661,763.910840470068,NaN,NaN,604.658667004661,763.910840470068,1039.62161830041,687.215136548046,755.719714694933,348.874022981887,NaN,NaN,NaN,NaN,NaN,NaN,4,0,0,NaN,NaN,NaN,vertical,vertical,horizontal,none,none,none
1d,18,100242,4,16,208,21,F,NA,constant,homogeneous,6,present,0.674445867538452,1,vertical,vertical,1,0.988230915580477,red,6,4,664.870587620533,816.252264519889,680.284751489598,374.848363820974,919.715248510402,825.151636179026,1054.84466088987,608.899371659138,935.129412379467,383.747735480111,680.284751489598,374.848363820974,545.155339110131,591.100628340862,664.870587620533,816.252264519889,0,0,0,0,0,4,horizontal,vertical,vertical,horizontal,horizontal,vertical
1d,18,100242,4,17,209,21,F,NA,constant,homogeneous,4,absent,0.605854988098145,1,horizontal,horizontal,1,0.882349756785801,red,4,NaN,550.57236181288,653.017481158529,NaN,NaN,853.017481158529,849.42763818712,1049.42763818712,546.982518841471,746.982518841471,350.57236181288,550.57236181288,653.017481158529,NaN,NaN,NaN,NaN,0,0,0,4,NaN,NaN,horizontal,vertical,horizontal,horizontal,none,none
1d,18,100242,4,18,210,21,F,NA,constant,homogeneous,6,present,0.601677894592285,1,horizontal,horizontal,1,0.976466342381069,red,6,5,591.116228706307,746.261991269517,568.891514305654,492.232343256122,822.224714400653,854.029648013395,1031.10848569435,707.767656743878,1008.88377129369,453.738008730483,777.775285599347,345.970351986605,568.891514305654,492.232343256122,591.116228706307,746.261991269517,0,0,0,0,0,4,vertical,horizontal,horizontal,horizontal,horizontal,horizontal
1d,18,100242,4,19,211,21,F,NA,constant,homogeneous,3,absent,0.66516900062561,1,vertical,vertical,1,0.96470176918166,red,1,NaN,632.704947607421,792.450942956807,NaN,NaN,632.704947607421,792.450942956807,1050.31493177915,648.656293821019,716.980120613425,358.892763222174,NaN,NaN,NaN,NaN,NaN,NaN,4,0,0,NaN,NaN,NaN,vertical,horizontal,horizontal,none,none,none
1d,18,100242,4,20,212,21,F,NA,constant,homogeneous,5,absent,0.485419988632202,1,horizontal,horizontal,1,0.941172622782843,red,3,NaN,963.910840470068,404.658667004661,NaN,NaN,782.212099195248,854.378832816255,1036.43188291453,695.524681321058,963.910840470068,404.658667004661,664.870587620533,383.747735480111,552.574589799621,661.690083377915,NaN,NaN,0,0,4,0,0,NaN,vertical,horizontal,horizontal,horizontal,vertical,none
1d,18,100242,4,21,213,21,F,NA,constant,homogeneous,3,present,0.552345037460327,1,vertical,vertical,1,1.04705378157752,red,3,2,546.39691668109,573.345241866748,949.885239334581,393.700666434388,903.717843984329,832.954091698863,949.885239334581,393.700666434388,546.39691668109,573.345241866748,NaN,NaN,NaN,NaN,NaN,NaN,0,0,4,NaN,NaN,NaN,vertical,horizontal,vertical,none,none,none
1d,18,100242,4,22,214,21,F,NA,constant,homogeneous,4,present,0.490420818328857,1,horizontal,horizontal,1,0.929408049583435,red,3,1,661.117046071168,386.139005173917,938.882953928832,813.860994826083,938.882953928832,813.860994826083,1013.86099482608,461.117046071168,661.117046071168,386.139005173917,586.139005173917,738.882953928832,NaN,NaN,NaN,NaN,0,0,4,0,NaN,NaN,horizontal,horizontal,horizontal,horizontal,none,none
1d,18,100242,4,23,215,21,F,NA,constant,homogeneous,5,present,0.51427698135376,1,horizontal,horizontal,1,0.905878903184618,red,4,2,593.700666434388,450.114760665419,1055,600,878.799333565612,842.519411655264,1055,600,878.799333565612,357.480588344736,593.700666434388,450.114760665419,593.700666434388,749.885239334581,NaN,NaN,0,0,0,4,0,NaN,horizontal,horizontal,vertical,horizontal,vertical,none
1d,18,100242,4,24,216,21,F,NA,constant,homogeneous,4,absent,0.703945875167847,1,horizontal,horizontal,1,0.764704024791718,red,2,NaN,1055,600,NaN,NaN,800,855,1055,600,800,345,545,600,NaN,NaN,NaN,NaN,0,4,0,0,NaN,NaN,vertical,horizontal,horizontal,vertical,none,none
1d,18,100242,4,25,217,21,F,NA,constant,homogeneous,3,present,0.445091009140015,1,horizontal,horizontal,1,0.952937195982252,red,3,2,680.284751489598,374.848363820974,1054.84466088987,608.899371659138,664.870587620533,816.252264519889,1054.84466088987,608.899371659138,680.284751489598,374.848363820974,NaN,NaN,NaN,NaN,NaN,NaN,0,0,4,NaN,NaN,NaN,horizontal,horizontal,horizontal,none,none,none
1d,18,100242,4,26,218,21,F,NA,constant,homogeneous,3,present,0.44831395149231,1,vertical,vertical,1,0.717645731994084,red,3,2,738.309916622085,352.574589799621,1045.12173246427,670.287525733335,616.568350913644,777.137884467044,1045.12173246427,670.287525733335,738.309916622085,352.574589799621,NaN,NaN,NaN,NaN,NaN,NaN,0,0,4,NaN,NaN,NaN,vertical,horizontal,vertical,none,none,none
1d,18,100242,4,27,219,21,F,NA,constant,homogeneous,6,present,0.495754957199097,1,vertical,vertical,1,1.09411207437515,red,3,5,989.501930496736,429.371695378491,557.480588344736,521.200666434388,853.017481158529,849.42763818712,1042.51941165526,678.799333565612,989.501930496736,429.371695378491,746.982518841471,350.57236181288,557.480588344736,521.200666434388,610.498069503264,770.628304621509,0,0,4,0,0,0,horizontal,horizontal,vertical,vertical,horizontal,horizontal
1d,18,100242,4,28,220,21,F,NA,constant,homogeneous,3,present,0.575060844421387,1,vertical,vertical,1,0.67058743919645,red,1,3,970.628304621509,789.501930496736,550.57236181288,653.017481158529,970.628304621509,789.501930496736,878.799333565612,357.480588344736,550.57236181288,653.017481158529,NaN,NaN,NaN,NaN,NaN,NaN,4,0,0,NaN,NaN,NaN,vertical,vertical,vertical,none,none,none
1d,18,100242,4,29,221,21,F,NA,constant,homogeneous,3,present,0.426043033599854,1,horizontal,horizontal,1,0.952937195982252,red,3,1,795.549636358493,345.03883773512,581.422338320961,731.334709102064,581.422338320961,731.334709102064,1023.02802532055,723.626453162816,795.549636358493,345.03883773512,NaN,NaN,NaN,NaN,NaN,NaN,0,0,4,NaN,NaN,NaN,horizontal,horizontal,horizontal,none,none,none
1d,18,100242,4,30,222,21,F,NA,constant,homogeneous,4,present,0.60307788848877,1,vertical,vertical,1,0.611764573199408,red,1,4,708.616172865948,838.063008756786,561.936991243214,508.616172865948,708.616172865948,838.063008756786,1038.06300875679,691.383827134052,891.383827134052,361.936991243214,561.936991243214,508.616172865948,NaN,NaN,NaN,NaN,4,0,0,0,NaN,NaN,vertical,vertical,horizontal,horizontal,none,none
1d,18,100242,4,31,223,21,F,NA,constant,homogeneous,4,absent,0.607599973678589,1,vertical,vertical,1,1.0235246351787,red,4,NaN,551.535633479765,542.637481142314,NaN,NaN,742.637481142314,848.464366520235,1048.46436652023,657.362518857686,857.362518857686,351.535633479765,551.535633479765,542.637481142314,NaN,NaN,NaN,NaN,0,0,0,4,NaN,NaN,vertical,vertical,horizontal,vertical,none,none
1d,18,100242,4,32,224,21,F,NA,constant,homogeneous,5,present,0.50316309928894,1,horizontal,horizontal,1,0.764704024791718,red,4,2,626.090418184063,413.504806087112,1050.31493177915,648.656293821019,831.076682568313,853.099268668537,1050.31493177915,648.656293821019,923.626453162816,376.971974679454,626.090418184063,413.504806087112,568.891514305654,707.767656743878,NaN,NaN,0,0,0,4,0,NaN,horizontal,horizontal,vertical,horizontal,horizontal,none
1d,18,100242,4,33,225,21,F,NA,constant,homogeneous,3,absent,0.571355819702148,1,horizontal,horizontal,1,0.905878903184618,red,2,NaN,1047.42541020038,538.309916622085,NaN,NaN,729.712474266665,845.121732464271,1047.42541020038,538.309916622085,622.862115532956,416.568350913644,NaN,NaN,NaN,NaN,NaN,NaN,0,4,0,NaN,NaN,NaN,vertical,horizontal,vertical,none,none,none
1d,18,100242,4,34,226,21,F,NA,constant,homogeneous,3,absent,0.531831979751587,1,vertical,vertical,1,1.04705378157752,red,3,NaN,576.971974679454,723.626453162816,NaN,NaN,1018.57766167904,731.334709102064,804.450363641507,345.03883773512,576.971974679454,723.626453162816,NaN,NaN,NaN,NaN,NaN,NaN,0,0,4,NaN,NaN,NaN,vertical,vertical,vertical,none,none,none
1d,18,100242,4,35,227,21,F,NA,constant,homogeneous,4,absent,0.393154859542847,1,vertical,vertical,1,0.917643476384027,red,2,NaN,1020.83647796503,472.5,NaN,NaN,927.5,820.836477965032,1020.83647796503,472.5,672.5,379.163522034968,579.163522034968,727.5,NaN,NaN,NaN,NaN,0,4,0,0,NaN,NaN,vertical,vertical,horizontal,vertical,none,none
1d,18,100242,4,36,228,21,F,NA,constant,homogeneous,4,absent,0.547022819519043,1,horizontal,horizontal,1,0.89411432998521,red,2,NaN,1048.46436652023,657.362518857686,NaN,NaN,742.637481142314,848.464366520235,1048.46436652023,657.362518857686,857.362518857686,351.535633479765,551.535633479765,542.637481142314,NaN,NaN,NaN,NaN,0,4,0,0,NaN,NaN,horizontal,horizontal,vertical,horizontal,none,none
1d,18,100242,4,37,229,21,F,NA,constant,homogeneous,3,absent,0.578116893768311,1,horizontal,horizontal,1,0.6,red,2,NaN,1054.65053136242,586.654331158049,NaN,NaN,684.232422566416,827.206663668034,1054.65053136242,586.654331158049,661.117046071168,386.139005173917,NaN,NaN,NaN,NaN,NaN,NaN,0,4,0,NaN,NaN,NaN,horizontal,horizontal,horizontal,none,none,none
1d,18,100242,4,38,230,21,F,NA,constant,homogeneous,3,absent,0.824220895767212,1,horizontal,horizontal,1,0.917643476384027,red,1,NaN,581.422338320961,731.334709102064,NaN,NaN,581.422338320961,731.334709102064,1023.02802532055,723.626453162816,795.549636358493,345.03883773512,NaN,NaN,NaN,NaN,NaN,NaN,4,0,0,NaN,NaN,NaN,horizontal,vertical,horizontal,none,none,none
1d,18,100242,4,39,231,21,F,NA,constant,homogeneous,5,absent,0.988948106765747,0,horizontal,vertical,1,0.6,red,2,NaN,1054.65053136242,586.654331158049,NaN,NaN,891.383827134052,838.063008756786,1054.65053136242,586.654331158049,865.998856501143,353.688914296288,586.139005173917,461.117046071168,601.827779828472,760.476699717708,NaN,NaN,0,4,0,0,0,NaN,vertical,horizontal,horizontal,horizontal,vertical,none
1d,18,100242,4,40,232,21,F,NA,constant,homogeneous,5,absent,0.595439195632935,1,vertical,vertical,1,0.729410305193492,red,2,NaN,1031.10848569435,707.767656743878,NaN,NaN,768.923317431687,853.099268668537,1031.10848569435,707.767656743878,973.909581815937,413.504806087112,676.373546837184,376.971974679454,549.685068220846,648.656293821019,NaN,NaN,0,4,0,0,0,NaN,vertical,vertical,horizontal,vertical,vertical,none
1d,18,100242,4,41,233,21,F,NA,constant,homogeneous,6,present,0.488675832748413,1,vertical,vertical,1,0.658822865997042,red,2,5,1043.85771277057,674.554784704298,556.142287229426,525.445215295702,857.362518857686,848.464366520235,1043.85771277057,674.554784704298,986.495193912888,426.090418184063,742.637481142314,351.535633479765,556.142287229426,525.445215295702,613.504806087112,773.909581815937,0,4,0,0,0,0,vertical,vertical,vertical,horizontal,horizontal,horizontal
1d,18,100242,4,42,234,21,F,NA,constant,homogeneous,5,present,0.469530820846558,1,vertical,vertical,1,0.941172622782843,red,2,3,1052.5183575291,564.510859255183,844.280285305067,348.874022981887,911.784642431215,829.192481806288,1052.5183575291,564.510859255183,844.280285305067,348.874022981887,574.848363820974,480.284751489598,616.568350913644,777.137884467044,NaN,NaN,0,4,0,0,0,NaN,horizontal,vertical,horizontal,horizontal,horizontal,none
1d,18,100242,4,43,235,21,F,NA,constant,homogeneous,5,absent,0.564608097076416,1,vertical,vertical,1,1.07058292797634,red,4,NaN,607.549057043193,432.704947607421,NaN,NaN,857.362518857686,848.464366520235,1054.0296480134,622.224714400653,899.636437764765,365.271262369628,607.549057043193,432.704947607421,581.422338320961,731.334709102064,NaN,NaN,0,0,0,4,0,NaN,horizontal,horizontal,vertical,vertical,vertical,none
1d,18,100242,4,44,236,21,F,NA,constant,homogeneous,5,absent,0.696446895599365,1,horizontal,horizontal,1,0.811762317589351,red,5,NaN,546.39691668109,573.345241866748,NaN,NaN,696.282156015671,832.954091698863,989.501930496736,770.628304621509,1020.83647796503,472.5,746.982518841471,350.57236181288,546.39691668109,573.345241866748,NaN,NaN,0,0,0,0,4,NaN,horizontal,horizontal,vertical,vertical,horizontal,none
1d,18,100242,4,45,237,21,F,NA,constant,homogeneous,6,absent,0.592396020889282,1,horizontal,horizontal,1,0.89411432998521,red,1,NaN,883.019879386575,841.107236777826,NaN,NaN,883.019879386575,841.107236777826,1050.31493177915,648.656293821019,967.295052392579,407.549057043193,716.980120613425,358.892763222174,549.685068220846,551.343706178981,632.704947607421,792.450942956807,4,0,0,0,0,0,horizontal,vertical,vertical,vertical,horizontal,vertical
1d,18,100242,4,46,238,21,F,NA,constant,homogeneous,6,absent,0.458670139312744,1,vertical,vertical,1,0.917643476384027,red,2,NaN,1052.5183575291,635.489140744817,NaN,NaN,895.524681321058,836.431882914531,1052.5183575291,635.489140744817,956.993676208043,399.057257830286,704.475318678942,363.568117085469,547.481642470899,564.510859255183,643.006323791957,800.942742169714,0,4,0,0,0,0,horizontal,vertical,vertical,horizontal,vertical,vertical
1d,18,100242,4,47,239,21,F,NA,constant,homogeneous,6,absent,0.551009893417358,1,horizontal,horizontal,1,0.941172622782843,red,6,NaN,579.163522034968,727.5,NaN,NaN,800,855,1020.83647796503,727.5,1020.83647796503,472.5,800,345,579.163522034968,472.5,579.163522034968,727.5,0,0,0,0,0,4,horizontal,horizontal,vertical,horizontal,vertical,horizontal
1d,18,100242,4,48,240,21,F,NA,constant,homogeneous,5,absent,0.551624774932861,1,vertical,vertical,1,0.870585183586393,red,4,NaN,601.827779828472,439.523300282291,NaN,NaN,865.998856501143,846.311085703712,1054.65053136242,613.345668841951,891.383827134052,361.936991243214,601.827779828472,439.523300282291,586.139005173917,738.882953928832,NaN,NaN,0,0,0,4,0,NaN,horizontal,horizontal,vertical,vertical,vertical,none
1d,18,100242,4,49,241,21,F,NA,constant,homogeneous,3,absent,0.452317953109741,1,horizontal,horizontal,1,1.07058292797634,red,2,NaN,960.476699717708,401.827779828472,NaN,NaN,891.383827134052,838.063008756786,960.476699717708,401.827779828472,548.13947314824,560.109211414741,NaN,NaN,NaN,NaN,NaN,NaN,0,4,0,NaN,NaN,NaN,horizontal,horizontal,vertical,none,none,none
1d,18,100242,4,50,242,21,F,NA,constant,homogeneous,6,present,0.946433067321777,1,vertical,vertical,1,0.647058292797634,red,6,5,572.793336331966,715.767577433584,586.139005173917,461.117046071168,786.654331158049,854.650531362416,1013.86099482608,738.882953928832,1027.20666366803,484.232422566416,813.345668841951,345.349468637584,586.139005173917,461.117046071168,572.793336331966,715.767577433584,0,0,0,0,0,4,horizontal,horizontal,horizontal,horizontal,vertical,vertical
1d,18,100242,4,51,243,21,F,NA,constant,homogeneous,5,present,0.516905069351196,1,horizontal,horizontal,1,0.764704024791718,red,4,1,777.775285599347,345.970351986605,668.665290897936,818.577661679039,668.665290897936,818.577661679039,967.295052392579,792.450942956807,1034.72873763037,500.363562235235,777.775285599347,345.970351986605,551.535633479765,542.637481142314,NaN,NaN,0,0,0,4,0,NaN,vertical,horizontal,horizontal,horizontal,vertical,none
