experiment,subject,uniqueID,block,trial,trial_cumulative,age,gender,color_cond_blocking,color_history,shape_type,set_size,distractor,rt,acc,target_orient,response_key,response_made,iti,target_color,target_item,distractor_item,target_X,target_Y,distractor_X,distractor_Y,item1_X,item1_Y,item2_X,item2_Y,item3_X,item3_Y,item4_X,item4_Y,item5_X,item5_Y,item6_X,item6_Y,item1_shape,item2_shape,item3_shape,item4_shape,item5_shape,item6_shape,item1_line,item2_line,item3_line,item4_line,item5_line,item6_line
1d,19,100244,1,1,1,18,F,NA,constant,homogeneous,6,absent,1.8709888458252,1,horizontal,horizontal,1,0.941172160925688,green,2,NaN,935.129412379467,816.252264519889,NaN,NaN,680.284751489598,825.151636179026,935.129412379467,816.252264519889,1054.84466088987,591.100628340862,919.715248510402,374.848363820974,664.870587620533,383.747735480111,545.155339110131,608.899371659138,0,4,0,0,0,0,vertical,horizontal,vertical,vertical,vertical,horizontal
1d,19,100244,1,2,2,18,F,NA,constant,homogeneous,3,absent,0.725642204284668,1,horizontal,horizontal,1,0.847055702739292,green,1,NaN,1016.25226451989,735.129412379467,NaN,NaN,1016.25226451989,735.129412379467,808.899371659138,345.155339110131,574.848363820974,719.715248510402,NaN,NaN,NaN,NaN,NaN,NaN,4,0,0,NaN,NaN,NaN,horizontal,horizontal,vertical,none,none,none
1d,19,100244,1,3,3,18,F,NA,constant,homogeneous,4,absent,0.661565065383911,1,horizontal,horizontal,1,1.04705317638538,green,1,NaN,953.462830903772,803.65205506206,NaN,NaN,953.462830903772,803.65205506206,1003.65205506206,446.537169096228,646.537169096228,396.34794493794,596.34794493794,753.462830903772,NaN,NaN,NaN,NaN,4,0,0,0,NaN,NaN,horizontal,vertical,horizontal,horizontal,none,none
1d,19,100244,1,4,4,18,F,NA,constant,homogeneous,3,absent,0.686444997787476,1,vertical,vertical,1,0.776468359099494,green,3,NaN,746.982518841471,350.57236181288,NaN,NaN,610.498069503264,770.628304621509,1042.51941165526,678.799333565612,746.982518841471,350.57236181288,NaN,NaN,NaN,NaN,NaN,NaN,0,0,4,NaN,NaN,NaN,horizontal,vertical,vertical,none,none,none
1d,19,100244,1,5,5,18,F,NA,constant,homogeneous,6,present,1.33315205574036,1,vertical,vertical,1,1.05881773365868,green,5,3,636.089159529932,404.658667004661,1051.12597701811,555.719714694933,712.784863451954,839.621618300407,963.910840470068,795.341332995339,1051.12597701811,555.719714694933,887.215136548046,360.378381699593,636.089159529932,404.658667004661,548.874022981887,644.280285305067,0,0,0,0,4,0,vertical,vertical,horizontal,vertical,vertical,horizontal
1d,19,100244,1,6,6,18,F,NA,constant,homogeneous,6,present,1.19297504425049,1,horizontal,horizontal,1,0.847055702739292,green,6,1,545.349468637584,613.345668841951,684.232422566416,827.206663668034,684.232422566416,827.206663668034,938.882953928832,813.860994826083,1054.65053136242,586.654331158049,915.767577433584,372.793336331966,661.117046071168,386.139005173917,545.349468637584,613.345668841951,0,0,0,0,0,4,horizontal,vertical,horizontal,vertical,horizontal,horizontal
1d,19,100244,1,7,7,18,F,NA,constant,homogeneous,3,present,0.776741981506348,1,horizontal,horizontal,1,0.976465832745587,green,1,2,1006.29933356561,749.885239334581,826.654758133252,346.39691668109,1006.29933356561,749.885239334581,826.654758133252,346.39691668109,567.045908301137,703.717843984329,NaN,NaN,NaN,NaN,NaN,NaN,4,0,0,NaN,NaN,NaN,horizontal,vertical,horizontal,none,none,none
1d,19,100244,1,8,8,18,F,NA,constant,homogeneous,6,absent,0.559101104736328,1,vertical,vertical,1,0.917643046379089,green,1,NaN,831.076682568313,853.099268668537,NaN,NaN,831.076682568313,853.099268668537,1034.72873763037,699.636437764765,1003.65205506206,446.537169096228,768.923317431687,346.900731331463,565.271262369628,500.363562235235,596.34794493794,753.462830903772,4,0,0,0,0,0,vertical,vertical,horizontal,horizontal,vertical,vertical
1d,19,100244,1,9,9,18,F,NA,constant,homogeneous,4,present,1.13103199005127,0,horizontal,vertical,1,0.847055702739292,green,3,2,874.554784704298,356.142287229426,1043.85771277057,674.554784704298,725.445215295702,843.857712770574,1043.85771277057,674.554784704298,874.554784704298,356.142287229426,556.142287229426,525.445215295702,NaN,NaN,NaN,NaN,0,0,4,0,NaN,NaN,vertical,horizontal,horizontal,horizontal,none,none
1d,19,100244,1,10,10,18,F,NA,constant,homogeneous,5,absent,0.962697982788086,1,vertical,vertical,1,0.835291145465992,green,1,NaN,755.719714694933,851.125977018113,NaN,NaN,755.719714694933,851.125977018113,1025.15163617903,719.715248510402,983.431649086356,422.862115532956,688.215357568785,370.807518193712,547.481642470899,635.489140744817,NaN,NaN,4,0,0,0,0,NaN,vertical,vertical,vertical,vertical,horizontal,none
1d,19,100244,1,11,11,18,F,NA,constant,homogeneous,5,present,0.858262062072754,1,horizontal,horizontal,1,0.6117645572733,green,2,1,1054.96116226488,604.450363641507,874.554784704298,843.857712770574,874.554784704298,843.857712770574,1054.96116226488,604.450363641507,883.019879386575,358.892763222174,596.34794493794,446.537169096228,591.116228706307,746.261991269517,NaN,NaN,0,4,0,0,0,NaN,horizontal,horizontal,horizontal,vertical,horizontal,none
1d,19,100244,1,12,12,18,F,NA,constant,homogeneous,3,absent,0.534455060958862,1,horizontal,horizontal,1,0.941172160925688,green,1,NaN,927.5,820.836477965032,NaN,NaN,927.5,820.836477965032,927.5,379.163522034968,545,600,NaN,NaN,NaN,NaN,NaN,NaN,4,0,0,NaN,NaN,NaN,horizontal,horizontal,vertical,none,none,none
1d,19,100244,1,13,13,18,F,NA,constant,homogeneous,3,absent,0.79941987991333,1,vertical,vertical,1,0.90587848910579,green,2,NaN,826.654758133252,346.39691668109,NaN,NaN,1006.29933356561,749.885239334581,826.654758133252,346.39691668109,567.045908301137,703.717843984329,NaN,NaN,NaN,NaN,NaN,NaN,0,4,0,NaN,NaN,NaN,horizontal,vertical,vertical,none,none,none
1d,19,100244,1,14,14,18,F,NA,constant,homogeneous,4,present,0.97124195098877,1,horizontal,horizontal,1,0.776468359099494,green,2,3,1013.86099482608,461.117046071168,661.117046071168,386.139005173917,938.882953928832,813.860994826083,1013.86099482608,461.117046071168,661.117046071168,386.139005173917,586.139005173917,738.882953928832,NaN,NaN,NaN,NaN,0,4,0,0,NaN,NaN,horizontal,horizontal,horizontal,vertical,none,none
1d,19,100244,1,15,15,18,F,NA,constant,homogeneous,4,present,0.738802909851074,1,vertical,vertical,1,0.6,green,1,2,773.345241866748,853.60308331891,1053.60308331891,626.654758133252,773.345241866748,853.60308331891,1053.60308331891,626.654758133252,826.654758133252,346.39691668109,546.39691668109,573.345241866748,NaN,NaN,NaN,NaN,4,0,0,0,NaN,NaN,vertical,horizontal,horizontal,vertical,none,none
1d,19,100244,1,16,16,18,F,NA,constant,homogeneous,4,absent,0.815792083740234,1,vertical,vertical,1,0.717645572732996,green,4,NaN,613.504806087112,773.909581815937,NaN,NaN,973.909581815937,786.495193912888,986.495193912888,426.090418184063,626.090418184063,413.504806087112,613.504806087112,773.909581815937,NaN,NaN,NaN,NaN,0,0,0,4,NaN,NaN,horizontal,vertical,vertical,vertical,none,none
1d,19,100244,1,17,17,18,F,NA,constant,homogeneous,4,present,0.764245986938477,1,horizontal,horizontal,1,0.988230390018887,green,2,4,1025.15163617903,719.715248510402,574.848363820974,480.284751489598,680.284751489598,825.151636179026,1025.15163617903,719.715248510402,919.715248510402,374.848363820974,574.848363820974,480.284751489598,NaN,NaN,NaN,NaN,0,4,0,0,NaN,NaN,vertical,horizontal,vertical,horizontal,none,none
1d,19,100244,1,18,18,18,F,NA,constant,homogeneous,5,present,0.748541831970215,1,horizontal,horizontal,1,0.823526588192693,green,2,3,1050.31493177915,551.343706178981,831.076682568313,346.900731331463,923.626453162816,823.028025320546,1050.31493177915,551.343706178981,831.076682568313,346.900731331463,568.891514305654,492.232343256122,626.090418184063,786.495193912888,NaN,NaN,0,4,0,0,0,NaN,horizontal,horizontal,vertical,vertical,horizontal,none
1d,19,100244,1,19,19,18,F,NA,constant,homogeneous,5,absent,0.792668104171753,1,vertical,vertical,1,0.658822786366498,green,5,NaN,550.57236181288,546.982518841471,NaN,NaN,672.5,820.836477965032,970.628304621509,789.501930496736,1032.95409169886,496.282156015671,773.345241866748,346.39691668109,550.57236181288,546.982518841471,NaN,NaN,0,0,0,0,4,NaN,vertical,vertical,vertical,horizontal,vertical,none
1d,19,100244,1,20,20,18,F,NA,constant,homogeneous,6,absent,0.788987874984741,1,vertical,vertical,1,0.6117645572733,green,3,NaN,963.910840470068,404.658667004661,NaN,NaN,887.215136548046,839.621618300407,1051.12597701811,644.280285305067,963.910840470068,404.658667004661,712.784863451954,360.378381699593,548.874022981887,555.719714694933,636.089159529932,795.341332995339,0,0,4,0,0,0,horizontal,vertical,vertical,vertical,horizontal,horizontal
1d,19,100244,1,21,21,18,F,NA,constant,homogeneous,6,absent,1.40574383735657,1,vertical,vertical,1,1.04705317638538,green,5,NaN,657.405809614959,388.595418998464,NaN,NaN,688.215357568785,829.192481806288,942.594190385041,811.404581001536,1054.37883281626,582.212099195248,911.784642431215,370.807518193712,657.405809614959,388.595418998464,545.621167183745,617.787900804752,0,0,0,0,4,0,vertical,horizontal,vertical,vertical,vertical,horizontal
1d,19,100244,1,22,22,18,F,NA,constant,homogeneous,3,present,0.846410036087036,1,horizontal,horizontal,1,0.811762030919393,green,1,3,629.371695378491,789.501930496736,721.200666434388,357.480588344736,629.371695378491,789.501930496736,1049.42763818712,653.017481158529,721.200666434388,357.480588344736,NaN,NaN,NaN,NaN,NaN,NaN,4,0,0,NaN,NaN,NaN,horizontal,horizontal,horizontal,none,none,none
1d,19,100244,1,23,23,18,F,NA,constant,homogeneous,4,absent,0.636873006820679,1,horizontal,horizontal,1,0.870584817285891,green,4,NaN,546.900731331463,568.923317431687,NaN,NaN,768.923317431687,853.099268668537,1053.09926866854,631.076682568313,831.076682568313,346.900731331463,546.900731331463,568.923317431687,NaN,NaN,NaN,NaN,0,0,0,4,NaN,NaN,horizontal,horizontal,horizontal,horizontal,none,none
1d,19,100244,1,24,24,18,F,NA,constant,homogeneous,4,absent,0.603927850723267,1,horizontal,horizontal,1,0.90587848910579,green,2,NaN,1018.57766167904,731.334709102064,NaN,NaN,668.665290897936,818.577661679039,1018.57766167904,731.334709102064,931.334709102064,381.422338320961,581.422338320961,468.665290897936,NaN,NaN,NaN,NaN,0,4,0,0,NaN,NaN,horizontal,horizontal,horizontal,vertical,none,none
1d,19,100244,1,25,25,18,F,NA,constant,homogeneous,4,present,0.752171039581299,1,vertical,vertical,1,0.999994947292187,green,1,3,684.232422566416,827.206663668034,915.767577433584,372.793336331966,684.232422566416,827.206663668034,1027.20666366803,715.767577433584,915.767577433584,372.793336331966,572.793336331966,484.232422566416,NaN,NaN,NaN,NaN,4,0,0,0,NaN,NaN,vertical,vertical,vertical,vertical,none,none
1d,19,100244,1,26,26,18,F,NA,constant,homogeneous,5,absent,0.539641857147217,1,horizontal,horizontal,1,0.6,green,3,NaN,911.784642431215,370.807518193712,NaN,NaN,844.280285305067,851.125977018113,1052.5183575291,635.489140744817,911.784642431215,370.807518193712,616.568350913644,422.862115532956,574.848363820974,719.715248510402,NaN,NaN,0,0,4,0,0,NaN,horizontal,vertical,horizontal,horizontal,vertical,none
1d,19,100244,1,27,27,18,F,NA,constant,homogeneous,4,absent,0.644021987915039,1,vertical,vertical,1,1.08234684820528,green,2,NaN,1046.31108570371,534.001143498857,NaN,NaN,865.998856501143,846.311085703712,1046.31108570371,534.001143498857,734.001143498857,353.688914296288,553.688914296288,665.998856501143,NaN,NaN,NaN,NaN,0,4,0,0,NaN,NaN,horizontal,vertical,horizontal,horizontal,none,none
1d,19,100244,1,28,28,18,F,NA,constant,homogeneous,5,absent,0.51886510848999,1,vertical,vertical,1,1.09411140547858,green,2,NaN,980.31222920257,780.31222920257,NaN,NaN,684.232422566416,827.206663668034,980.31222920257,780.31222920257,1027.20666366803,484.232422566416,760.109211414741,348.13947314824,548.13947314824,560.109211414741,NaN,NaN,0,4,0,0,0,NaN,horizontal,vertical,horizontal,horizontal,vertical,none
1d,19,100244,1,29,29,18,F,NA,constant,homogeneous,5,present,0.602187871932983,0,vertical,horizontal,1,0.635293671819899,green,4,3,570.807518193712,488.215357568785,835.489140744817,347.4816424709,919.715248510402,825.151636179026,1051.12597701811,555.719714694933,835.489140744817,347.4816424709,570.807518193712,488.215357568785,622.862115532956,783.431649086356,NaN,NaN,0,0,0,4,0,NaN,horizontal,horizontal,vertical,vertical,horizontal,none
1d,19,100244,1,30,30,18,F,NA,constant,homogeneous,6,present,0.810086965560913,1,horizontal,horizontal,1,0.988230390018887,green,4,5,813.345668841951,345.349468637584,586.139005173917,461.117046071168,786.654331158049,854.650531362416,1013.86099482608,738.882953928832,1027.20666366803,484.232422566416,813.345668841951,345.349468637584,586.139005173917,461.117046071168,572.793336331966,715.767577433584,0,0,0,4,0,0,horizontal,horizontal,horizontal,horizontal,horizontal,horizontal
1d,19,100244,1,31,31,18,F,NA,constant,homogeneous,3,absent,0.587703943252563,1,horizontal,horizontal,1,0.658822786366498,green,2,NaN,1054.65053136242,613.345668841951,NaN,NaN,661.117046071168,813.860994826083,1054.65053136242,613.345668841951,684.232422566416,372.793336331966,NaN,NaN,NaN,NaN,NaN,NaN,0,4,0,NaN,NaN,NaN,horizontal,horizontal,horizontal,none,none,none
1d,19,100244,1,32,32,18,F,NA,constant,homogeneous,5,absent,0.628031969070435,1,horizontal,horizontal,1,1.02352406183879,green,2,NaN,960.476699717708,798.172220171528,NaN,NaN,661.117046071168,813.860994826083,960.476699717708,798.172220171528,1038.06300875679,508.616172865948,786.654331158049,345.349468637584,553.688914296288,534.001143498857,NaN,NaN,0,4,0,0,0,NaN,vertical,horizontal,vertical,horizontal,horizontal,none
1d,19,100244,1,33,33,18,F,NA,constant,homogeneous,6,absent,0.653075933456421,1,horizontal,horizontal,1,0.811762030919393,green,2,NaN,1008.88377129369,746.261991269517,NaN,NaN,777.775285599347,854.029648013395,1008.88377129369,746.261991269517,1031.10848569435,492.232343256122,822.224714400653,345.970351986605,591.116228706307,453.738008730483,568.891514305654,707.767656743878,0,4,0,0,0,0,vertical,horizontal,vertical,horizontal,horizontal,vertical
1d,19,100244,1,34,34,18,F,NA,constant,homogeneous,6,absent,0.778810024261475,0,horizontal,vertical,1,0.623529114546599,green,6,NaN,565.271262369628,699.636437764765,NaN,NaN,768.923317431687,853.099268668537,1003.65205506206,753.462830903772,1034.72873763037,500.363562235235,831.076682568313,346.900731331463,596.34794493794,446.537169096228,565.271262369628,699.636437764765,0,0,0,0,0,4,horizontal,vertical,vertical,vertical,vertical,horizontal
1d,19,100244,1,35,35,18,F,NA,constant,homogeneous,5,present,1.39190411567688,1,vertical,vertical,1,0.870584817285891,green,5,2,568.891514305654,707.767656743878,1050.31493177915,648.656293821019,831.076682568313,853.099268668537,1050.31493177915,648.656293821019,923.626453162816,376.971974679454,626.090418184063,413.504806087112,568.891514305654,707.767656743878,NaN,NaN,0,0,0,0,4,NaN,vertical,horizontal,vertical,vertical,vertical,none
1d,19,100244,1,36,36,18,F,NA,constant,homogeneous,5,present,0.653487920761108,1,vertical,vertical,1,1.08234684820528,green,2,5,960.476699717708,798.172220171528,553.688914296288,534.001143498857,661.117046071168,813.860994826083,960.476699717708,798.172220171528,1038.06300875679,508.616172865948,786.654331158049,345.349468637584,553.688914296288,534.001143498857,NaN,NaN,0,4,0,0,0,NaN,horizontal,vertical,horizontal,vertical,horizontal,none
1d,19,100244,1,37,37,18,F,NA,constant,homogeneous,3,present,0.657510995864868,1,vertical,vertical,1,0.729410130006296,green,1,2,639.523300282292,798.172220171528,1051.86052685176,639.890788585259,639.523300282292,798.172220171528,1051.86052685176,639.890788585259,708.616172865948,361.936991243214,NaN,NaN,NaN,NaN,NaN,NaN,4,0,0,NaN,NaN,NaN,vertical,horizontal,horizontal,none,none,none
1d,19,100244,1,38,38,18,F,NA,constant,homogeneous,3,present,0.498919010162354,1,vertical,vertical,1,0.799997473646093,green,2,1,1053.09926866854,568.923317431687,700.363562235235,834.728737630372,700.363562235235,834.728737630372,1053.09926866854,568.923317431687,646.537169096228,396.34794493794,NaN,NaN,NaN,NaN,NaN,NaN,0,4,0,NaN,NaN,NaN,horizontal,vertical,vertical,none,none,none
1d,19,100244,1,39,39,18,F,NA,constant,homogeneous,4,present,0.690525054931641,1,horizontal,horizontal,1,0.870584817285891,green,1,2,734.001143498857,846.311085703712,1046.31108570371,665.998856501143,734.001143498857,846.311085703712,1046.31108570371,665.998856501143,865.998856501143,353.688914296288,553.688914296288,534.001143498857,NaN,NaN,NaN,NaN,4,0,0,0,NaN,NaN,horizontal,horizontal,horizontal,vertical,none,none
1d,19,100244,1,40,40,18,F,NA,constant,homogeneous,3,absent,0.682488203048706,0,vertical,horizontal,1,0.705881015459696,green,1,NaN,986.495193912888,773.909581815937,NaN,NaN,986.495193912888,773.909581815937,857.362518857686,351.535633479765,556.142287229426,674.554784704298,NaN,NaN,NaN,NaN,NaN,NaN,4,0,0,NaN,NaN,NaN,vertical,horizontal,vertical,none,none,none
1d,19,100244,1,41,41,18,F,NA,constant,homogeneous,4,absent,0.83631706237793,1,horizontal,horizontal,1,0.799997473646093,green,2,NaN,1031.10848569435,707.767656743878,NaN,NaN,692.232343256122,831.108485694346,1031.10848569435,707.767656743878,907.767656743878,368.891514305654,568.891514305654,492.232343256122,NaN,NaN,NaN,NaN,0,4,0,0,NaN,NaN,horizontal,horizontal,vertical,vertical,none,none
1d,19,100244,1,42,42,18,F,NA,constant,homogeneous,5,absent,0.787402153015137,1,horizontal,horizontal,1,0.705881015459696,green,2,NaN,1053.60308331891,573.345241866748,NaN,NaN,903.717843984329,832.954091698863,1053.60308331891,573.345241866748,853.017481158529,350.57236181288,579.163522034968,472.5,610.498069503264,770.628304621509,NaN,NaN,0,4,0,0,0,NaN,horizontal,horizontal,horizontal,horizontal,horizontal,none
1d,19,100244,1,43,43,18,F,NA,constant,homogeneous,6,present,0.657080173492432,1,vertical,vertical,1,0.88234937455919,green,3,4,1054.0296480134,577.775285599347,907.767656743878,368.891514305654,692.232343256122,831.108485694346,946.261991269517,808.883771293693,1054.0296480134,577.775285599347,907.767656743878,368.891514305654,653.738008730483,391.116228706307,545.970351986605,622.224714400653,0,0,4,0,0,0,horizontal,horizontal,vertical,vertical,vertical,vertical
1d,19,100244,1,44,44,18,F,NA,constant,homogeneous,3,absent,0.888206958770752,1,horizontal,horizontal,1,1.09411140547858,green,2,NaN,1029.19248180629,711.784642431215,NaN,NaN,588.595418998464,742.594190385041,1029.19248180629,711.784642431215,782.212099195248,345.621167183745,NaN,NaN,NaN,NaN,NaN,NaN,0,4,0,NaN,NaN,NaN,horizontal,horizontal,horizontal,none,none,none
1d,19,100244,1,45,45,18,F,NA,constant,homogeneous,5,present,0.683538913726807,1,horizontal,horizontal,1,0.670587343639798,green,2,1,949.885239334581,806.299333565612,650.114760665419,806.299333565612,650.114760665419,806.299333565612,949.885239334581,806.299333565612,1042.51941165526,521.200666434388,800,345,557.480588344736,521.200666434388,NaN,NaN,0,4,0,0,0,NaN,vertical,horizontal,vertical,vertical,horizontal,none
1d,19,100244,1,46,46,18,F,NA,constant,homogeneous,6,absent,0.865220069885254,1,vertical,vertical,1,0.788232916372794,green,5,NaN,545.03883773512,595.549636358493,NaN,NaN,923.626453162816,823.028025320546,1054.96116226488,604.450363641507,931.334709102064,381.422338320961,676.373546837184,376.971974679454,545.03883773512,595.549636358493,668.665290897936,818.577661679039,0,0,0,0,4,0,vertical,vertical,vertical,vertical,vertical,vertical
1d,19,100244,1,47,47,18,F,NA,constant,homogeneous,3,present,0.708073854446411,1,horizontal,horizontal,1,0.870584817285891,green,3,1,568.891514305654,492.232343256122,822.224714400653,854.029648013395,822.224714400653,854.029648013395,1008.88377129369,453.738008730483,568.891514305654,492.232343256122,NaN,NaN,NaN,NaN,NaN,NaN,0,0,4,NaN,NaN,NaN,vertical,horizontal,horizontal,none,none,none
1d,19,100244,1,48,48,18,F,NA,constant,homogeneous,6,present,0.771669864654541,1,vertical,vertical,1,0.658822786366498,green,5,3,672.5,379.163522034968,1055,600,672.5,820.836477965032,927.5,820.836477965032,1055,600,927.5,379.163522034968,672.5,379.163522034968,545,600,0,0,0,0,4,0,vertical,vertical,vertical,horizontal,vertical,horizontal
1d,19,100244,1,49,49,18,F,NA,constant,homogeneous,3,present,0.676647901535034,1,vertical,vertical,1,0.870584817285891,green,1,2,935.129412379467,816.252264519889,919.715248510402,374.848363820974,935.129412379467,816.252264519889,919.715248510402,374.848363820974,545.155339110131,608.899371659138,NaN,NaN,NaN,NaN,NaN,NaN,4,0,0,NaN,NaN,NaN,vertical,vertical,horizontal,none,none,none
1d,19,100244,1,50,50,18,F,NA,constant,homogeneous,4,present,0.539988040924072,1,vertical,vertical,1,0.89411393183249,green,2,1,1047.42541020038,661.690083377915,738.309916622085,847.425410200379,738.309916622085,847.425410200379,1047.42541020038,661.690083377915,861.690083377915,352.574589799621,552.574589799621,538.309916622085,NaN,NaN,NaN,NaN,0,4,0,0,NaN,NaN,vertical,vertical,horizontal,vertical,none,none
1d,19,100244,1,51,51,18,F,NA,constant,homogeneous,4,absent,0.595664024353027,1,vertical,vertical,1,0.623529114546599,green,2,NaN,992.450942956807,767.295052392579,NaN,NaN,632.704947607421,792.450942956807,992.450942956807,767.295052392579,967.295052392579,407.549057043193,607.549057043193,432.704947607421,NaN,NaN,NaN,NaN,0,4,0,0,NaN,NaN,horizontal,vertical,horizontal,vertical,none,none
1d,19,100244,1,52,52,18,F,NA,constant,homogeneous,6,present,0.706682920455933,1,horizontal,horizontal,1,0.952936718198988,green,1,5,822.224714400653,854.029648013395,568.891514305654,492.232343256122,822.224714400653,854.029648013395,1031.10848569435,707.767656743878,1008.88377129369,453.738008730483,777.775285599347,345.970351986605,568.891514305654,492.232343256122,591.116228706307,746.261991269517,4,0,0,0,0,0,horizontal,vertical,horizontal,vertical,vertical,horizontal
1d,19,100244,1,53,53,18,F,NA,constant,homogeneous,4,present,0.654088973999023,1,vertical,vertical,1,1.04705317638538,green,4,3,583.747735480111,464.870587620533,935.129412379467,383.747735480111,664.870587620533,816.252264519889,1016.25226451989,735.129412379467,935.129412379467,383.747735480111,583.747735480111,464.870587620533,NaN,NaN,NaN,NaN,0,0,0,4,NaN,NaN,vertical,vertical,vertical,vertical,none,none
1d,19,100244,1,54,54,18,F,NA,constant,homogeneous,4,absent,0.630299806594849,1,vertical,vertical,1,0.741174687279595,green,2,NaN,986.495193912888,773.909581815937,NaN,NaN,626.090418184063,786.495193912888,986.495193912888,773.909581815937,973.909581815937,413.504806087112,613.504806087112,426.090418184063,NaN,NaN,NaN,NaN,0,4,0,0,NaN,NaN,vertical,vertical,horizontal,horizontal,none,none
1d,19,100244,1,55,55,18,F,NA,constant,homogeneous,5,present,0.911566972732544,1,horizontal,horizontal,1,1.03528861911209,green,5,1,550.57236181288,546.982518841471,672.5,820.836477965032,672.5,820.836477965032,970.628304621509,789.501930496736,1032.95409169886,496.282156015671,773.345241866748,346.39691668109,550.57236181288,546.982518841471,NaN,NaN,0,0,0,0,4,NaN,horizontal,vertical,vertical,vertical,horizontal,none
1d,19,100244,1,56,56,18,F,NA,constant,homogeneous,6,absent,0.938528060913086,1,horizontal,horizontal,1,0.623529114546599,green,6,NaN,636.089159529932,795.341332995339,NaN,NaN,887.215136548046,839.621618300407,1051.12597701811,644.280285305067,963.910840470068,404.658667004661,712.784863451954,360.378381699593,548.874022981887,555.719714694933,636.089159529932,795.341332995339,0,0,0,0,0,4,vertical,horizontal,vertical,vertical,vertical,horizontal
1d,19,100244,1,57,57,18,F,NA,constant,homogeneous,5,absent,0.703579902648926,1,vertical,vertical,1,0.717645572732996,green,2,NaN,1051.86052685176,560.109211414741,NaN,NaN,915.767577433584,827.206663668034,1051.86052685176,560.109211414741,839.890788585259,348.13947314824,572.793336331966,484.232422566416,619.68777079743,780.31222920257,NaN,NaN,0,4,0,0,0,NaN,horizontal,vertical,horizontal,horizontal,vertical,none
1d,19,100244,1,58,58,18,F,NA,constant,homogeneous,3,present,0.593929052352905,1,horizontal,horizontal,1,0.811762030919393,green,1,3,579.163522034968,727.5,800,345,579.163522034968,727.5,1020.83647796503,727.5,800,345,NaN,NaN,NaN,NaN,NaN,NaN,4,0,0,NaN,NaN,NaN,horizontal,horizontal,vertical,none,none,none
1d,19,100244,1,59,59,18,F,NA,constant,homogeneous,5,present,1.19542694091797,1,vertical,vertical,1,0.670587343639798,green,2,5,1054.65053136242,613.345668841951,586.139005173917,738.882953928832,865.998856501143,846.311085703712,1054.65053136242,613.345668841951,891.383827134052,361.936991243214,601.827779828472,439.523300282291,586.139005173917,738.882953928832,NaN,NaN,0,4,0,0,0,NaN,horizontal,vertical,horizontal,vertical,vertical,none
1d,19,100244,1,60,60,18,F,NA,constant,homogeneous,3,present,0.566123008728027,1,vertical,vertical,1,0.741174687279595,green,2,3,986.495193912888,426.090418184063,556.142287229426,525.445215295702,857.362518857686,848.464366520235,986.495193912888,426.090418184063,556.142287229426,525.445215295702,NaN,NaN,NaN,NaN,NaN,NaN,0,4,0,NaN,NaN,NaN,horizontal,vertical,vertical,none,none,none
1d,19,100244,1,61,61,18,F,NA,constant,homogeneous,5,absent,0.590119123458862,1,horizontal,horizontal,1,0.823526588192693,green,4,NaN,650.114760665419,393.700666434388,NaN,NaN,800,855,1042.51941165526,678.799333565612,949.885239334581,393.700666434388,650.114760665419,393.700666434388,557.480588344736,678.799333565612,NaN,NaN,0,0,0,4,0,NaN,vertical,horizontal,vertical,horizontal,horizontal,none
1d,19,100244,1,62,62,18,F,NA,constant,homogeneous,6,present,0.813289880752563,1,horizontal,horizontal,1,0.952936718198988,green,5,2,661.117046071168,386.139005173917,938.882953928832,813.860994826083,684.232422566416,827.206663668034,938.882953928832,813.860994826083,1054.65053136242,586.654331158049,915.767577433584,372.793336331966,661.117046071168,386.139005173917,545.349468637584,613.345668841951,0,0,0,0,4,0,vertical,horizontal,horizontal,vertical,horizontal,horizontal
1d,19,100244,1,63,63,18,F,NA,constant,homogeneous,3,absent,0.885778903961182,1,vertical,vertical,1,0.799997473646093,green,3,NaN,556.142287229426,525.445215295702,NaN,NaN,857.362518857686,848.464366520235,986.495193912888,426.090418184063,556.142287229426,525.445215295702,NaN,NaN,NaN,NaN,NaN,NaN,0,0,4,NaN,NaN,NaN,vertical,vertical,vertical,none,none,none
1d,19,100244,1,64,64,18,F,NA,constant,homogeneous,6,present,1.27151203155518,1,vertical,vertical,1,0.976465832745587,green,3,6,1051.86052685176,560.109211414741,548.13947314824,639.890788585259,708.616172865948,838.063008756786,960.476699717708,798.172220171528,1051.86052685176,560.109211414741,891.383827134052,361.936991243214,639.523300282292,401.827779828472,548.13947314824,639.890788585259,0,0,4,0,0,0,vertical,vertical,vertical,horizontal,vertical,horizontal
1d,19,100244,2,1,65,18,F,NA,constant,homogeneous,6,present,0.828096866607666,1,vertical,vertical,1,0.694116458186397,green,3,2,1045.12173246427,529.712474266665,983.431649086356,777.137884467044,738.309916622085,847.425410200379,983.431649086356,777.137884467044,1045.12173246427,529.712474266665,861.690083377915,352.574589799621,616.568350913644,422.862115532956,554.878267535729,670.287525733335,0,0,4,0,0,0,horizontal,horizontal,vertical,vertical,horizontal,vertical
1d,19,100244,2,2,66,18,F,NA,constant,homogeneous,5,present,0.781515836715698,1,vertical,vertical,1,0.635293671819899,green,5,3,563.568117085469,695.524681321058,935.129412379467,383.747735480111,817.787900804752,854.378832816255,1047.42541020038,661.690083377915,935.129412379467,383.747735480111,636.089159529932,404.658667004661,563.568117085469,695.524681321058,NaN,NaN,0,0,0,0,4,NaN,vertical,vertical,horizontal,horizontal,vertical,none
1d,19,100244,2,3,67,18,F,NA,constant,homogeneous,6,present,1.8977689743042,1,horizontal,horizontal,1,0.623529114546599,green,1,2,696.282156015671,832.954091698863,949.885239334581,806.299333565612,696.282156015671,832.954091698863,949.885239334581,806.299333565612,1053.60308331891,573.345241866748,903.717843984329,367.045908301137,650.114760665419,393.700666434388,546.39691668109,626.654758133252,4,0,0,0,0,0,horizontal,horizontal,horizontal,vertical,vertical,horizontal
1d,19,100244,2,4,68,18,F,NA,constant,homogeneous,5,present,0.87944507598877,1,vertical,vertical,1,0.776468359099494,green,3,5,1034.72873763037,500.363562235235,551.535633479765,542.637481142314,668.665290897936,818.577661679039,967.295052392579,792.450942956807,1034.72873763037,500.363562235235,777.775285599347,345.970351986605,551.535633479765,542.637481142314,NaN,NaN,0,0,4,0,0,NaN,horizontal,vertical,vertical,horizontal,vertical,none
1d,19,100244,2,5,69,18,F,NA,constant,homogeneous,4,absent,1.0582799911499,1,vertical,vertical,1,0.858820260012591,green,2,NaN,980.31222920257,419.68777079743,NaN,NaN,980.31222920257,780.31222920257,980.31222920257,419.68777079743,619.68777079743,419.68777079743,619.68777079743,780.31222920257,NaN,NaN,NaN,NaN,0,4,0,0,NaN,NaN,horizontal,vertical,horizontal,horizontal,none,none
1d,19,100244,2,6,70,18,F,NA,constant,homogeneous,6,present,0.949153184890747,1,horizontal,horizontal,1,1.07058229093198,green,6,4,622.862115532956,783.431649086356,729.712474266665,354.878267535729,870.287525733335,845.121732464271,1047.42541020038,661.690083377915,977.137884467044,416.568350913644,729.712474266665,354.878267535729,552.574589799621,538.309916622085,622.862115532956,783.431649086356,0,0,0,0,0,4,horizontal,horizontal,horizontal,vertical,vertical,horizontal
1d,19,100244,2,7,71,18,F,NA,constant,homogeneous,6,absent,0.752439022064209,1,vertical,vertical,1,0.811762030919393,green,3,NaN,995.341332995339,436.089159529932,NaN,NaN,844.280285305067,851.125977018113,1039.62161830041,687.215136548046,995.341332995339,436.089159529932,755.719714694933,348.874022981887,560.378381699593,512.784863451954,604.658667004661,763.910840470068,0,0,4,0,0,0,horizontal,vertical,vertical,horizontal,vertical,vertical
1d,19,100244,2,8,72,18,F,NA,constant,homogeneous,4,present,0.576972007751465,1,horizontal,horizontal,1,1.05881773365868,green,2,1,1039.62161830041,512.784863451954,887.215136548046,839.621618300407,887.215136548046,839.621618300407,1039.62161830041,512.784863451954,712.784863451954,360.378381699593,560.378381699593,687.215136548046,NaN,NaN,NaN,NaN,0,4,0,0,NaN,NaN,vertical,horizontal,vertical,vertical,none,none
1d,19,100244,2,9,73,18,F,NA,constant,homogeneous,6,absent,0.662089824676514,1,vertical,vertical,1,0.670587343639798,green,2,NaN,946.261991269517,808.883771293693,NaN,NaN,692.232343256122,831.108485694346,946.261991269517,808.883771293693,1054.0296480134,577.775285599347,907.767656743878,368.891514305654,653.738008730483,391.116228706307,545.970351986605,622.224714400653,0,4,0,0,0,0,vertical,vertical,vertical,vertical,vertical,vertical
1d,19,100244,2,10,74,18,F,NA,constant,homogeneous,6,present,0.625366926193237,1,vertical,vertical,1,0.694116458186397,green,5,3,579.163522034968,472.5,1020.83647796503,472.5,800,855,1020.83647796503,727.5,1020.83647796503,472.5,800,345,579.163522034968,472.5,579.163522034968,727.5,0,0,0,0,4,0,vertical,vertical,horizontal,vertical,vertical,vertical
1d,19,100244,2,11,75,18,F,NA,constant,homogeneous,4,absent,0.694679975509644,1,horizontal,horizontal,1,0.623529114546599,green,4,NaN,596.34794493794,753.462830903772,NaN,NaN,953.462830903772,803.65205506206,1003.65205506206,446.537169096228,646.537169096228,396.34794493794,596.34794493794,753.462830903772,NaN,NaN,NaN,NaN,0,0,0,4,NaN,NaN,horizontal,horizontal,horizontal,horizontal,none,none
1d,19,100244,2,12,76,18,F,NA,constant,homogeneous,6,absent,0.922013998031616,1,horizontal,horizontal,1,0.858820260012591,green,5,NaN,626.090418184063,413.504806087112,NaN,NaN,725.445215295702,843.857712770574,973.909581815937,786.495193912888,1048.46436652023,542.637481142314,874.554784704298,356.142287229426,626.090418184063,413.504806087112,551.535633479765,657.362518857686,0,0,0,0,4,0,horizontal,vertical,horizontal,horizontal,horizontal,horizontal
1d,19,100244,2,13,77,18,F,NA,constant,homogeneous,3,absent,0.646685123443604,1,horizontal,horizontal,1,0.705881015459696,green,2,NaN,1029.19248180629,711.784642431215,NaN,NaN,588.595418998464,742.594190385041,1029.19248180629,711.784642431215,782.212099195248,345.621167183745,NaN,NaN,NaN,NaN,NaN,NaN,0,4,0,NaN,NaN,NaN,vertical,horizontal,horizontal,none,none,none
1d,19,100244,2,14,78,18,F,NA,constant,homogeneous,4,absent,0.599414110183716,1,vertical,vertical,1,0.764703801826194,green,2,NaN,1008.88377129369,746.261991269517,NaN,NaN,653.738008730483,808.883771293693,1008.88377129369,746.261991269517,946.261991269517,391.116228706307,591.116228706307,453.738008730483,NaN,NaN,NaN,NaN,0,4,0,0,NaN,NaN,vertical,vertical,vertical,horizontal,none,none
1d,19,100244,2,15,79,18,F,NA,constant,homogeneous,6,absent,0.617167949676514,0,horizontal,vertical,1,0.682351900913097,green,6,NaN,626.090418184063,786.495193912888,NaN,NaN,874.554784704298,843.857712770574,1048.46436652023,657.362518857686,973.909581815937,413.504806087112,725.445215295702,356.142287229426,551.535633479765,542.637481142314,626.090418184063,786.495193912888,0,0,0,0,0,4,horizontal,vertical,horizontal,vertical,vertical,horizontal
1d,19,100244,2,16,80,18,F,NA,constant,homogeneous,6,present,0.837883949279785,1,vertical,vertical,1,0.6117645572733,green,2,5,1016.25226451989,735.129412379467,583.747735480111,464.870587620533,791.100628340862,854.844660889869,1016.25226451989,735.129412379467,1025.15163617903,480.284751489598,808.899371659138,345.155339110131,583.747735480111,464.870587620533,574.848363820974,719.715248510402,0,4,0,0,0,0,vertical,vertical,horizontal,vertical,vertical,horizontal
1d,19,100244,2,17,81,18,F,NA,constant,homogeneous,4,present,0.526260137557983,0,horizontal,vertical,1,0.776468359099494,green,1,3,935.129412379467,816.252264519889,664.870587620533,383.747735480111,935.129412379467,816.252264519889,1016.25226451989,464.870587620533,664.870587620533,383.747735480111,583.747735480111,735.129412379467,NaN,NaN,NaN,NaN,4,0,0,0,NaN,NaN,horizontal,horizontal,horizontal,horizontal,none,none
1d,19,100244,2,18,82,18,F,NA,constant,homogeneous,6,present,0.844096899032593,1,vertical,vertical,1,0.752939244552895,green,1,3,919.715248510402,825.151636179026,935.129412379467,383.747735480111,919.715248510402,825.151636179026,1054.84466088987,608.899371659138,935.129412379467,383.747735480111,680.284751489598,374.848363820974,545.155339110131,591.100628340862,664.870587620533,816.252264519889,4,0,0,0,0,0,vertical,vertical,vertical,horizontal,horizontal,horizontal
1d,19,100244,2,19,83,18,F,NA,constant,homogeneous,6,absent,0.625946044921875,1,horizontal,horizontal,1,1.03528861911209,green,2,NaN,949.885239334581,806.299333565612,NaN,NaN,696.282156015671,832.954091698863,949.885239334581,806.299333565612,1053.60308331891,573.345241866748,903.717843984329,367.045908301137,650.114760665419,393.700666434388,546.39691668109,626.654758133252,0,4,0,0,0,0,horizontal,horizontal,vertical,horizontal,vertical,vertical
1d,19,100244,2,20,84,18,F,NA,constant,homogeneous,5,absent,0.720322132110596,1,horizontal,horizontal,1,0.694116458186397,green,4,NaN,676.373546837184,376.971974679454,NaN,NaN,768.923317431687,853.099268668537,1031.10848569435,707.767656743878,973.909581815937,413.504806087112,676.373546837184,376.971974679454,549.685068220846,648.656293821019,NaN,NaN,0,0,0,4,0,NaN,horizontal,vertical,vertical,horizontal,horizontal,none
1d,19,100244,2,21,85,18,F,NA,constant,homogeneous,3,present,0.851216793060303,1,vertical,vertical,1,0.6117645572733,green,1,2,680.284751489598,825.151636179026,1054.84466088987,591.100628340862,680.284751489598,825.151636179026,1054.84466088987,591.100628340862,664.870587620533,383.747735480111,NaN,NaN,NaN,NaN,NaN,NaN,4,0,0,NaN,NaN,NaN,vertical,horizontal,vertical,none,none,none
1d,19,100244,2,22,86,18,F,NA,constant,homogeneous,4,present,1.61499905586243,1,horizontal,horizontal,1,0.729410130006296,green,3,1,817.787900804752,345.621167183745,782.212099195248,854.378832816255,782.212099195248,854.378832816255,1054.37883281626,617.787900804752,817.787900804752,345.621167183745,545.621167183745,582.212099195248,NaN,NaN,NaN,NaN,0,0,4,0,NaN,NaN,horizontal,horizontal,horizontal,vertical,none,none
1d,19,100244,2,23,87,18,F,NA,constant,homogeneous,3,present,0.844692945480347,1,vertical,vertical,1,0.858820260012591,green,1,3,632.704947607421,792.450942956807,716.980120613425,358.892763222174,632.704947607421,792.450942956807,1050.31493177915,648.656293821019,716.980120613425,358.892763222174,NaN,NaN,NaN,NaN,NaN,NaN,4,0,0,NaN,NaN,NaN,vertical,vertical,horizontal,none,none,none
1d,19,100244,2,24,88,18,F,NA,constant,homogeneous,3,absent,0.948933124542236,1,horizontal,horizontal,1,0.776468359099494,green,2,NaN,1029.19248180629,488.215357568785,NaN,NaN,782.212099195248,854.378832816255,1029.19248180629,488.215357568785,588.595418998464,457.40580961496,NaN,NaN,NaN,NaN,NaN,NaN,0,4,0,NaN,NaN,NaN,vertical,horizontal,horizontal,none,none,none
1d,19,100244,2,25,89,18,F,NA,constant,homogeneous,6,absent,0.902157068252563,1,horizontal,horizontal,1,1.09411140547858,green,3,NaN,1018.57766167904,468.665290897936,NaN,NaN,804.450363641507,854.96116226488,1023.02802532055,723.626453162816,1018.57766167904,468.665290897936,795.549636358493,345.03883773512,576.971974679454,476.373546837184,581.422338320961,731.334709102064,0,0,4,0,0,0,vertical,vertical,horizontal,horizontal,horizontal,vertical
1d,19,100244,2,26,90,18,F,NA,constant,homogeneous,3,present,0.74766993522644,1,vertical,vertical,1,0.976465832745587,green,3,1,716.980120613425,358.892763222174,632.704947607421,792.450942956807,632.704947607421,792.450942956807,1050.31493177915,648.656293821019,716.980120613425,358.892763222174,NaN,NaN,NaN,NaN,NaN,NaN,0,0,4,NaN,NaN,NaN,horizontal,vertical,vertical,none,none,none
1d,19,100244,2,27,91,18,F,NA,constant,homogeneous,6,absent,0.768857955932617,1,vertical,vertical,1,0.90587848910579,green,4,NaN,853.017481158529,350.57236181288,NaN,NaN,746.982518841471,849.42763818712,989.501930496736,770.628304621509,1042.51941165526,521.200666434388,853.017481158529,350.57236181288,610.498069503264,429.371695378491,557.480588344736,678.799333565612,0,0,0,4,0,0,horizontal,vertical,vertical,vertical,horizontal,horizontal
1d,19,100244,2,28,92,18,F,NA,constant,homogeneous,3,absent,0.642446994781494,1,vertical,vertical,1,1.09411140547858,green,1,NaN,861.690083377915,847.425410200379,NaN,NaN,861.690083377915,847.425410200379,983.431649086356,422.862115532956,554.878267535729,529.712474266665,NaN,NaN,NaN,NaN,NaN,NaN,4,0,0,NaN,NaN,NaN,vertical,horizontal,horizontal,none,none,none
1d,19,100244,2,29,93,18,F,NA,constant,homogeneous,5,absent,0.95337986946106,1,horizontal,horizontal,1,0.705881015459696,green,4,NaN,561.936991243214,508.616172865948,NaN,NaN,938.882953928832,813.860994826083,1046.31108570371,534.001143498857,813.345668841951,345.349468637584,561.936991243214,508.616172865948,639.523300282292,798.172220171528,NaN,NaN,0,0,0,4,0,NaN,vertical,horizontal,horizontal,horizontal,vertical,none
1d,19,100244,2,30,94,18,F,NA,constant,homogeneous,4,absent,0.701826095581055,1,vertical,vertical,1,0.647058229093198,green,3,NaN,883.019879386575,358.892763222174,NaN,NaN,716.980120613425,841.107236777826,1041.10723677783,683.019879386575,883.019879386575,358.892763222174,558.892763222174,516.980120613425,NaN,NaN,NaN,NaN,0,0,4,0,NaN,NaN,horizontal,vertical,vertical,vertical,none,none
1d,19,100244,2,31,95,18,F,NA,constant,homogeneous,3,present,0.493082046508789,1,horizontal,horizontal,1,0.847055702739292,green,3,1,546.39691668109,626.654758133252,949.885239334581,806.299333565612,949.885239334581,806.299333565612,903.717843984329,367.045908301137,546.39691668109,626.654758133252,NaN,NaN,NaN,NaN,NaN,NaN,0,0,4,NaN,NaN,NaN,horizontal,horizontal,horizontal,none,none,none
1d,19,100244,2,32,96,18,F,NA,constant,homogeneous,3,absent,0.52103590965271,0,vertical,horizontal,1,0.90587848910579,green,3,NaN,613.504806087112,426.090418184063,NaN,NaN,742.637481142314,848.464366520235,1043.85771277057,525.445215295702,613.504806087112,426.090418184063,NaN,NaN,NaN,NaN,NaN,NaN,0,0,4,NaN,NaN,NaN,vertical,vertical,vertical,none,none,none
1d,19,100244,2,33,97,18,F,NA,constant,homogeneous,3,present,0.782327175140381,1,horizontal,horizontal,1,0.729410130006296,green,3,2,563.568117085469,504.475318678942,1000.94274216971,443.006323791957,835.489140744817,852.518357529101,1000.94274216971,443.006323791957,563.568117085469,504.475318678942,NaN,NaN,NaN,NaN,NaN,NaN,0,0,4,NaN,NaN,NaN,vertical,horizontal,horizontal,none,none,none
1d,19,100244,2,34,98,18,F,NA,constant,homogeneous,4,present,0.608261108398438,1,vertical,vertical,1,0.90587848910579,green,3,4,661.117046071168,386.139005173917,586.139005173917,738.882953928832,938.882953928832,813.860994826083,1013.86099482608,461.117046071168,661.117046071168,386.139005173917,586.139005173917,738.882953928832,NaN,NaN,NaN,NaN,0,0,4,0,NaN,NaN,vertical,horizontal,vertical,horizontal,none,none
1d,19,100244,2,35,99,18,F,NA,constant,homogeneous,3,present,0.658185005187988,1,vertical,vertical,1,0.682351900913097,green,3,1,570.807518193712,488.215357568785,817.787900804752,854.378832816255,817.787900804752,854.378832816255,1011.40458100154,457.40580961496,570.807518193712,488.215357568785,NaN,NaN,NaN,NaN,NaN,NaN,0,0,4,NaN,NaN,NaN,horizontal,horizontal,vertical,none,none,none
1d,19,100244,2,36,100,18,F,NA,constant,homogeneous,4,present,1.63134002685547,1,vertical,vertical,1,0.788232916372794,green,3,2,721.200666434388,357.480588344736,1042.51941165526,521.200666434388,878.799333565612,842.519411655264,1042.51941165526,521.200666434388,721.200666434388,357.480588344736,557.480588344736,678.799333565612,NaN,NaN,NaN,NaN,0,0,4,0,NaN,NaN,horizontal,vertical,vertical,vertical,none,none
1d,19,100244,2,37,101,18,F,NA,constant,homogeneous,3,present,0.613426923751831,1,horizontal,horizontal,1,0.870584817285891,green,3,1,688.215357568785,370.807518193712,657.405809614959,811.404581001536,657.405809614959,811.404581001536,1054.37883281626,617.787900804752,688.215357568785,370.807518193712,NaN,NaN,NaN,NaN,NaN,NaN,0,0,4,NaN,NaN,NaN,vertical,vertical,horizontal,none,none,none
1d,19,100244,2,38,102,18,F,NA,constant,homogeneous,4,present,0.65307879447937,1,horizontal,horizontal,1,0.952936718198988,green,4,3,619.68777079743,780.31222920257,619.68777079743,419.68777079743,980.31222920257,780.31222920257,980.31222920257,419.68777079743,619.68777079743,419.68777079743,619.68777079743,780.31222920257,NaN,NaN,NaN,NaN,0,0,0,4,NaN,NaN,horizontal,vertical,horizontal,horizontal,none,none
1d,19,100244,2,39,103,18,F,NA,constant,homogeneous,5,absent,0.637773036956787,1,vertical,vertical,1,0.988230390018887,green,1,NaN,919.715248510402,825.151636179026,NaN,NaN,919.715248510402,825.151636179026,1051.12597701811,555.719714694933,835.489140744817,347.4816424709,570.807518193712,488.215357568785,622.862115532956,783.431649086356,NaN,NaN,4,0,0,0,0,NaN,vertical,horizontal,vertical,horizontal,horizontal,none
1d,19,100244,2,40,104,18,F,NA,constant,homogeneous,3,present,0.688982009887695,1,horizontal,horizontal,1,0.694116458186397,green,3,1,708.616172865948,361.936991243214,639.523300282292,798.172220171528,639.523300282292,798.172220171528,1051.86052685176,639.890788585259,708.616172865948,361.936991243214,NaN,NaN,NaN,NaN,NaN,NaN,0,0,4,NaN,NaN,NaN,vertical,horizontal,horizontal,none,none,none
1d,19,100244,2,41,105,18,F,NA,constant,homogeneous,5,absent,0.607958078384399,0,horizontal,vertical,1,0.858820260012591,green,2,NaN,977.137884467044,783.431649086356,NaN,NaN,680.284751489598,825.151636179026,977.137884467044,783.431649086356,1029.19248180629,488.215357568785,764.510859255183,347.4816424709,548.874022981887,555.719714694933,NaN,NaN,0,4,0,0,0,NaN,horizontal,horizontal,vertical,horizontal,horizontal,none
1d,19,100244,2,42,106,18,F,NA,constant,homogeneous,5,present,0.748103141784668,1,horizontal,horizontal,1,0.799997473646093,green,3,4,853.017481158529,350.57236181288,579.163522034968,472.5,903.717843984329,832.954091698863,1053.60308331891,573.345241866748,853.017481158529,350.57236181288,579.163522034968,472.5,610.498069503264,770.628304621509,NaN,NaN,0,0,4,0,0,NaN,vertical,vertical,horizontal,vertical,vertical,none
1d,19,100244,2,43,107,18,F,NA,constant,homogeneous,4,absent,0.712691068649292,1,vertical,vertical,1,0.658822786366498,green,4,NaN,581.422338320961,731.334709102064,NaN,NaN,931.334709102064,818.577661679039,1018.57766167904,468.665290897936,668.665290897936,381.422338320961,581.422338320961,731.334709102064,NaN,NaN,NaN,NaN,0,0,0,4,NaN,NaN,vertical,vertical,horizontal,vertical,none,none
1d,19,100244,2,44,108,18,F,NA,constant,homogeneous,5,present,0.757688045501709,1,horizontal,horizontal,1,0.741174687279595,green,4,2,629.371695378491,410.498069503264,1049.42763818712,653.017481158529,826.654758133252,853.60308331891,1049.42763818712,653.017481158529,927.5,379.163522034968,629.371695378491,410.498069503264,567.045908301137,703.717843984329,NaN,NaN,0,0,0,4,0,NaN,horizontal,horizontal,horizontal,horizontal,vertical,none
1d,19,100244,2,45,109,18,F,NA,constant,homogeneous,5,present,0.767725944519043,1,horizontal,horizontal,1,0.952936718198988,green,4,2,746.982518841471,350.57236181288,989.501930496736,770.628304621509,696.282156015671,832.954091698863,989.501930496736,770.628304621509,1020.83647796503,472.5,746.982518841471,350.57236181288,546.39691668109,573.345241866748,NaN,NaN,0,0,0,4,0,NaN,horizontal,vertical,vertical,horizontal,horizontal,none
1d,19,100244,2,46,110,18,F,NA,constant,homogeneous,3,absent,0.645761013031006,1,vertical,vertical,1,0.705881015459696,green,1,NaN,911.784642431215,829.192481806288,NaN,NaN,911.784642431215,829.192481806288,942.594190385041,388.595418998464,545.621167183745,582.212099195248,NaN,NaN,NaN,NaN,NaN,NaN,4,0,0,NaN,NaN,NaN,vertical,vertical,vertical,none,none,none
1d,19,100244,2,47,111,18,F,NA,constant,homogeneous,6,absent,0.65278697013855,1,vertical,vertical,1,0.705881015459696,green,1,NaN,883.019879386575,841.107236777826,NaN,NaN,883.019879386575,841.107236777826,1050.31493177915,648.656293821019,967.295052392579,407.549057043193,716.980120613425,358.892763222174,549.685068220846,551.343706178981,632.704947607421,792.450942956807,4,0,0,0,0,0,vertical,horizontal,horizontal,horizontal,horizontal,vertical
1d,19,100244,2,48,112,18,F,NA,constant,homogeneous,4,absent,0.68727707862854,1,horizontal,horizontal,1,0.858820260012591,green,2,NaN,1054.96116226488,604.450363641507,NaN,NaN,795.549636358493,854.96116226488,1054.96116226488,604.450363641507,804.450363641507,345.03883773512,545.03883773512,595.549636358493,NaN,NaN,NaN,NaN,0,4,0,0,NaN,NaN,vertical,horizontal,vertical,vertical,none,none
1d,19,100244,2,49,113,18,F,NA,constant,homogeneous,5,absent,0.7847900390625,1,vertical,vertical,1,0.776468359099494,green,3,NaN,1042.51941165526,521.200666434388,NaN,NaN,650.114760665419,806.299333565612,949.885239334581,806.299333565612,1042.51941165526,521.200666434388,800,345,557.480588344736,521.200666434388,NaN,NaN,0,0,4,0,0,NaN,vertical,horizontal,vertical,horizontal,vertical,none
1d,19,100244,2,50,114,18,F,NA,constant,homogeneous,3,absent,0.835903882980347,1,horizontal,horizontal,1,0.776468359099494,green,2,NaN,1011.40458100154,457.40580961496,NaN,NaN,817.787900804752,854.378832816255,1011.40458100154,457.40580961496,570.807518193712,488.215357568785,NaN,NaN,NaN,NaN,NaN,NaN,0,4,0,NaN,NaN,NaN,vertical,horizontal,horizontal,none,none,none
1d,19,100244,2,51,115,18,F,NA,constant,homogeneous,5,absent,1.25999093055725,1,horizontal,horizontal,1,0.952936718198988,green,4,NaN,636.089159529932,404.658667004661,NaN,NaN,817.787900804752,854.378832816255,1047.42541020038,661.690083377915,935.129412379467,383.747735480111,636.089159529932,404.658667004661,563.568117085469,695.524681321058,NaN,NaN,0,0,0,4,0,NaN,horizontal,vertical,horizontal,horizontal,vertical,none
1d,19,100244,2,52,116,18,F,NA,constant,homogeneous,5,absent,0.51802921295166,1,vertical,vertical,1,1.02352406183879,green,3,NaN,1039.62161830041,512.784863451954,NaN,NaN,657.405809614959,811.404581001536,956.993676208043,800.942742169714,1039.62161830041,512.784863451954,791.100628340862,345.155339110131,554.878267535729,529.712474266665,NaN,NaN,0,0,4,0,0,NaN,horizontal,horizontal,vertical,horizontal,vertical,none
1d,19,100244,2,53,117,18,F,NA,constant,homogeneous,4,absent,0.708966970443726,1,horizontal,horizontal,1,0.623529114546599,green,4,NaN,554.878267535729,529.712474266665,NaN,NaN,729.712474266665,845.121732464271,1045.12173246427,670.287525733335,870.287525733335,354.878267535729,554.878267535729,529.712474266665,NaN,NaN,NaN,NaN,0,0,0,4,NaN,NaN,horizontal,vertical,horizontal,horizontal,none,none
1d,19,100244,2,54,118,18,F,NA,constant,homogeneous,4,absent,0.758931875228882,1,horizontal,horizontal,1,0.976465832745587,green,4,NaN,545.03883773512,595.549636358493,NaN,NaN,795.549636358493,854.96116226488,1054.96116226488,604.450363641507,804.450363641507,345.03883773512,545.03883773512,595.549636358493,NaN,NaN,NaN,NaN,0,0,0,4,NaN,NaN,horizontal,horizontal,vertical,horizontal,none,none
1d,19,100244,2,55,119,18,F,NA,constant,homogeneous,5,present,0.546653032302856,1,vertical,vertical,1,0.823526588192693,green,4,1,572.793336331966,484.232422566416,915.767577433584,827.206663668034,915.767577433584,827.206663668034,1051.86052685176,560.109211414741,839.890788585259,348.13947314824,572.793336331966,484.232422566416,619.68777079743,780.31222920257,NaN,NaN,0,0,0,4,0,NaN,horizontal,horizontal,horizontal,vertical,vertical,none
1d,19,100244,2,56,120,18,F,NA,constant,homogeneous,4,present,0.614394903182983,0,vertical,horizontal,1,0.835291145465992,green,1,3,680.284751489598,825.151636179026,919.715248510402,374.848363820974,680.284751489598,825.151636179026,1025.15163617903,719.715248510402,919.715248510402,374.848363820974,574.848363820974,480.284751489598,NaN,NaN,NaN,NaN,4,0,0,0,NaN,NaN,vertical,horizontal,horizontal,vertical,none,none
1d,19,100244,2,57,121,18,F,NA,constant,homogeneous,5,absent,1.33676886558533,1,vertical,vertical,1,0.89411393183249,green,5,NaN,604.658667004661,763.910840470068,NaN,NaN,895.524681321058,836.431882914531,1054.37883281626,582.212099195248,861.690083377915,352.574589799621,583.747735480111,464.870587620533,604.658667004661,763.910840470068,NaN,NaN,0,0,0,0,4,NaN,horizontal,vertical,horizontal,horizontal,vertical,none
1d,19,100244,2,58,122,18,F,NA,constant,homogeneous,3,absent,0.831895112991333,1,vertical,vertical,1,0.811762030919393,green,1,NaN,1018.57766167904,731.334709102064,NaN,NaN,1018.57766167904,731.334709102064,804.450363641507,345.03883773512,576.971974679454,723.626453162816,NaN,NaN,NaN,NaN,NaN,NaN,4,0,0,NaN,NaN,NaN,vertical,horizontal,vertical,none,none,none
1d,19,100244,2,59,123,18,F,NA,constant,homogeneous,5,present,0.679943084716797,1,horizontal,horizontal,1,0.964701275472288,green,5,4,561.936991243214,691.383827134052,639.523300282292,401.827779828472,813.345668841951,854.650531362416,1046.31108570371,665.998856501143,938.882953928832,386.139005173917,639.523300282292,401.827779828472,561.936991243214,691.383827134052,NaN,NaN,0,0,0,0,4,NaN,vertical,horizontal,horizontal,vertical,horizontal,none
1d,19,100244,2,60,124,18,F,NA,constant,homogeneous,4,present,1.03432083129883,1,vertical,vertical,1,0.835291145465992,green,3,4,643.006323791957,399.057257830286,599.057257830286,756.993676208043,956.993676208043,800.942742169714,1000.94274216971,443.006323791957,643.006323791957,399.057257830286,599.057257830286,756.993676208043,NaN,NaN,NaN,NaN,0,0,4,0,NaN,NaN,horizontal,horizontal,vertical,vertical,none,none
1d,19,100244,2,61,125,18,F,NA,constant,homogeneous,5,present,0.555667161941528,1,vertical,vertical,1,0.823526588192693,green,2,4,1051.86052685176,560.109211414741,572.793336331966,484.232422566416,915.767577433584,827.206663668034,1051.86052685176,560.109211414741,839.890788585259,348.13947314824,572.793336331966,484.232422566416,619.68777079743,780.31222920257,NaN,NaN,0,4,0,0,0,NaN,vertical,vertical,vertical,vertical,vertical,none
1d,19,100244,2,62,126,18,F,NA,constant,homogeneous,6,present,0.632507085800171,1,horizontal,horizontal,1,0.670587343639798,green,6,3,576.971974679454,723.626453162816,1023.02802532055,476.373546837184,795.549636358493,854.96116226488,1018.57766167904,731.334709102064,1023.02802532055,476.373546837184,804.450363641507,345.03883773512,581.422338320961,468.665290897936,576.971974679454,723.626453162816,0,0,0,0,0,4,horizontal,horizontal,vertical,horizontal,vertical,horizontal
1d,19,100244,2,63,127,18,F,NA,constant,homogeneous,6,present,0.594383001327515,1,horizontal,horizontal,1,0.858820260012591,green,4,2,891.383827134052,361.936991243214,960.476699717708,798.172220171528,708.616172865948,838.063008756786,960.476699717708,798.172220171528,1051.86052685176,560.109211414741,891.383827134052,361.936991243214,639.523300282292,401.827779828472,548.13947314824,639.890788585259,0,0,0,4,0,0,horizontal,horizontal,vertical,horizontal,horizontal,horizontal
1d,19,100244,2,64,128,18,F,NA,constant,homogeneous,3,absent,0.577522039413452,1,horizontal,horizontal,1,0.952936718198988,green,2,NaN,1054.0296480134,622.224714400653,NaN,NaN,653.738008730483,808.883771293693,1054.0296480134,622.224714400653,692.232343256122,368.891514305654,NaN,NaN,NaN,NaN,NaN,NaN,0,4,0,NaN,NaN,NaN,vertical,horizontal,vertical,none,none,none
1d,19,100244,3,1,129,18,F,NA,constant,homogeneous,4,present,0.631150007247925,1,horizontal,horizontal,1,0.694116458186397,green,1,4,977.137884467044,783.431649086356,616.568350913644,777.137884467044,977.137884467044,783.431649086356,983.431649086356,422.862115532956,622.862115532956,416.568350913644,616.568350913644,777.137884467044,NaN,NaN,NaN,NaN,4,0,0,0,NaN,NaN,horizontal,horizontal,vertical,vertical,none,none
1d,19,100244,3,2,130,18,F,NA,constant,homogeneous,5,present,0.576490163803101,1,vertical,vertical,1,0.635293671819899,green,4,1,692.232343256122,368.891514305654,751.343706178981,850.314931779154,751.343706178981,850.314931779154,1023.02802532055,723.626453162816,986.495193912888,426.090418184063,692.232343256122,368.891514305654,546.900731331463,631.076682568313,NaN,NaN,0,0,0,4,0,NaN,vertical,vertical,vertical,vertical,horizontal,none
1d,19,100244,3,3,131,18,F,NA,constant,homogeneous,3,present,0.517620086669922,1,horizontal,horizontal,1,0.847055702739292,green,1,2,725.445215295702,843.857712770574,1048.46436652023,542.637481142314,725.445215295702,843.857712770574,1048.46436652023,542.637481142314,626.090418184063,413.504806087112,NaN,NaN,NaN,NaN,NaN,NaN,4,0,0,NaN,NaN,NaN,horizontal,horizontal,horizontal,none,none,none
1d,19,100244,3,4,132,18,F,NA,constant,homogeneous,5,present,1.16481614112854,1,vertical,vertical,1,0.647058229093198,green,5,3,548.874022981887,555.719714694933,1029.19248180629,488.215357568785,680.284751489598,825.151636179026,977.137884467044,783.431649086356,1029.19248180629,488.215357568785,764.510859255183,347.4816424709,548.874022981887,555.719714694933,NaN,NaN,0,0,0,0,4,NaN,vertical,horizontal,vertical,vertical,vertical,none
1d,19,100244,3,5,133,18,F,NA,constant,homogeneous,4,absent,0.695240020751953,1,horizontal,horizontal,1,0.941172160925688,green,1,NaN,935.129412379467,816.252264519889,NaN,NaN,935.129412379467,816.252264519889,1016.25226451989,464.870587620533,664.870587620533,383.747735480111,583.747735480111,735.129412379467,NaN,NaN,NaN,NaN,4,0,0,0,NaN,NaN,horizontal,vertical,horizontal,vertical,none,none
1d,19,100244,3,6,134,18,F,NA,constant,homogeneous,5,absent,0.875066995620728,1,horizontal,horizontal,1,0.682351900913097,green,5,NaN,552.574589799621,661.690083377915,NaN,NaN,782.212099195248,854.378832816255,1036.43188291453,695.524681321058,963.910840470068,404.658667004661,664.870587620533,383.747735480111,552.574589799621,661.690083377915,NaN,NaN,0,0,0,0,4,NaN,horizontal,vertical,vertical,vertical,horizontal,none
1d,19,100244,3,7,135,18,F,NA,constant,homogeneous,3,absent,0.822988986968994,1,horizontal,horizontal,1,0.705881015459696,green,1,NaN,808.899371659138,854.844660889869,NaN,NaN,808.899371659138,854.844660889869,1016.25226451989,464.870587620533,574.848363820974,480.284751489598,NaN,NaN,NaN,NaN,NaN,NaN,4,0,0,NaN,NaN,NaN,horizontal,vertical,horizontal,none,none,none
1d,19,100244,3,8,136,18,F,NA,constant,homogeneous,6,absent,0.629009962081909,1,horizontal,horizontal,1,0.670587343639798,green,6,NaN,558.892763222174,683.019879386575,NaN,NaN,751.343706178981,850.314931779154,992.450942956807,767.295052392579,1041.10723677783,516.980120613425,848.656293821019,349.685068220846,607.549057043193,432.704947607421,558.892763222174,683.019879386575,0,0,0,0,0,4,horizontal,vertical,vertical,vertical,vertical,horizontal
1d,19,100244,3,9,137,18,F,NA,constant,homogeneous,3,absent,0.544068098068237,1,vertical,vertical,1,0.90587848910579,green,3,NaN,588.595418998464,457.40580961496,NaN,NaN,782.212099195248,854.378832816255,1029.19248180629,488.215357568785,588.595418998464,457.40580961496,NaN,NaN,NaN,NaN,NaN,NaN,0,0,4,NaN,NaN,NaN,vertical,horizontal,vertical,none,none,none
1d,19,100244,3,10,138,18,F,NA,constant,homogeneous,4,present,0.627061128616333,1,horizontal,horizontal,1,0.6117645572733,green,4,1,581.422338320961,468.665290897936,668.665290897936,818.577661679039,668.665290897936,818.577661679039,1018.57766167904,731.334709102064,931.334709102064,381.422338320961,581.422338320961,468.665290897936,NaN,NaN,NaN,NaN,0,0,0,4,NaN,NaN,horizontal,vertical,horizontal,horizontal,none,none
1d,19,100244,3,11,139,18,F,NA,constant,homogeneous,3,absent,0.498476982116699,1,horizontal,horizontal,1,0.917643046379089,green,3,NaN,586.139005173917,461.117046071168,NaN,NaN,786.654331158049,854.650531362416,1027.20666366803,484.232422566416,586.139005173917,461.117046071168,NaN,NaN,NaN,NaN,NaN,NaN,0,0,4,NaN,NaN,NaN,horizontal,vertical,horizontal,none,none,none
1d,19,100244,3,12,140,18,F,NA,constant,homogeneous,6,absent,0.931598901748657,1,horizontal,horizontal,1,0.964701275472288,green,3,NaN,1032.95409169886,496.282156015671,NaN,NaN,773.345241866748,853.60308331891,1006.29933356561,749.885239334581,1032.95409169886,496.282156015671,826.654758133252,346.39691668109,593.700666434388,450.114760665419,567.045908301137,703.717843984329,0,0,4,0,0,0,vertical,vertical,horizontal,horizontal,horizontal,vertical
1d,19,100244,3,13,141,18,F,NA,constant,homogeneous,3,present,0.52711009979248,1,vertical,vertical,1,0.823526588192693,green,3,1,572.793336331966,484.232422566416,813.345668841951,854.650531362416,813.345668841951,854.650531362416,1013.86099482608,461.117046071168,572.793336331966,484.232422566416,NaN,NaN,NaN,NaN,NaN,NaN,0,0,4,NaN,NaN,NaN,vertical,vertical,vertical,none,none,none
1d,19,100244,3,14,142,18,F,NA,constant,homogeneous,6,absent,1.36610293388367,0,vertical,horizontal,1,0.823526588192693,green,4,NaN,692.232343256122,368.891514305654,NaN,NaN,907.767656743878,831.108485694346,1054.0296480134,622.224714400653,946.261991269517,391.116228706307,692.232343256122,368.891514305654,545.970351986605,577.775285599347,653.738008730483,808.883771293693,0,0,0,4,0,0,vertical,vertical,horizontal,vertical,horizontal,vertical
1d,19,100244,3,15,143,18,F,NA,constant,homogeneous,3,absent,0.788778066635132,1,vertical,vertical,1,0.752939244552895,green,3,NaN,553.688914296288,534.001143498857,NaN,NaN,865.998856501143,846.311085703712,980.31222920257,419.68777079743,553.688914296288,534.001143498857,NaN,NaN,NaN,NaN,NaN,NaN,0,0,4,NaN,NaN,NaN,vertical,horizontal,vertical,none,none,none
1d,19,100244,3,16,144,18,F,NA,constant,homogeneous,6,present,0.801829099655151,1,vertical,vertical,1,1.05881773365868,green,2,3,942.594190385041,811.404581001536,1054.37883281626,582.212099195248,688.215357568785,829.192481806288,942.594190385041,811.404581001536,1054.37883281626,582.212099195248,911.784642431215,370.807518193712,657.405809614959,388.595418998464,545.621167183745,617.787900804752,0,4,0,0,0,0,horizontal,vertical,horizontal,vertical,vertical,vertical
1d,19,100244,3,17,145,18,F,NA,constant,homogeneous,6,present,1.32947897911072,1,horizontal,horizontal,1,0.964701275472288,green,6,5,636.089159529932,795.341332995339,548.874022981887,555.719714694933,887.215136548046,839.621618300407,1051.12597701811,644.280285305067,963.910840470068,404.658667004661,712.784863451954,360.378381699593,548.874022981887,555.719714694933,636.089159529932,795.341332995339,0,0,0,0,0,4,vertical,horizontal,vertical,vertical,horizontal,horizontal
1d,19,100244,3,18,146,18,F,NA,constant,homogeneous,5,present,0.911648988723755,1,vertical,vertical,1,0.964701275472288,green,5,1,552.574589799621,661.690083377915,782.212099195248,854.378832816255,782.212099195248,854.378832816255,1036.43188291453,695.524681321058,963.910840470068,404.658667004661,664.870587620533,383.747735480111,552.574589799621,661.690083377915,NaN,NaN,0,0,0,0,4,NaN,horizontal,vertical,vertical,vertical,vertical,none
1d,19,100244,3,19,147,18,F,NA,constant,homogeneous,4,present,0.532176971435547,1,vertical,vertical,1,0.917643046379089,green,4,1,551.535633479765,542.637481142314,742.637481142314,848.464366520235,742.637481142314,848.464366520235,1048.46436652023,657.362518857686,857.362518857686,351.535633479765,551.535633479765,542.637481142314,NaN,NaN,NaN,NaN,0,0,0,4,NaN,NaN,horizontal,horizontal,vertical,vertical,none,none
1d,19,100244,3,20,148,18,F,NA,constant,homogeneous,5,absent,0.619781970977783,1,vertical,vertical,1,0.635293671819899,green,5,NaN,583.747735480111,735.129412379467,NaN,NaN,861.690083377915,847.425410200379,1054.37883281626,617.787900804752,895.524681321058,363.568117085469,604.658667004661,436.089159529932,583.747735480111,735.129412379467,NaN,NaN,0,0,0,0,4,NaN,vertical,horizontal,vertical,vertical,vertical,none
1d,19,100244,3,21,149,18,F,NA,constant,homogeneous,3,absent,0.635025978088379,1,horizontal,horizontal,1,0.929407603652389,green,2,NaN,1048.46436652023,657.362518857686,NaN,NaN,626.090418184063,786.495193912888,1048.46436652023,657.362518857686,725.445215295702,356.142287229426,NaN,NaN,NaN,NaN,NaN,NaN,0,4,0,NaN,NaN,NaN,vertical,horizontal,vertical,none,none,none
1d,19,100244,3,22,150,18,F,NA,constant,homogeneous,4,absent,0.797849178314209,1,vertical,vertical,1,0.694116458186397,green,1,NaN,883.019879386575,841.107236777826,NaN,NaN,883.019879386575,841.107236777826,1041.10723677783,516.980120613425,716.980120613425,358.892763222174,558.892763222174,683.019879386575,NaN,NaN,NaN,NaN,4,0,0,0,NaN,NaN,vertical,horizontal,horizontal,vertical,none,none
1d,19,100244,3,23,151,18,F,NA,constant,homogeneous,5,present,0.799893856048584,1,vertical,vertical,1,0.89411393183249,green,2,5,1049.42763818712,546.982518841471,629.371695378491,789.501930496736,927.5,820.836477965032,1049.42763818712,546.982518841471,826.654758133252,346.39691668109,567.045908301137,496.282156015671,629.371695378491,789.501930496736,NaN,NaN,0,4,0,0,0,NaN,vertical,vertical,vertical,vertical,horizontal,none
1d,19,100244,3,24,152,18,F,NA,constant,homogeneous,5,present,0.976708173751831,1,horizontal,horizontal,1,0.835291145465992,green,4,1,596.34794493794,446.537169096228,874.554784704298,843.857712770574,874.554784704298,843.857712770574,1054.96116226488,604.450363641507,883.019879386575,358.892763222174,596.34794493794,446.537169096228,591.116228706307,746.261991269517,NaN,NaN,0,0,0,4,0,NaN,horizontal,vertical,horizontal,horizontal,horizontal,none
1d,19,100244,3,25,153,18,F,NA,constant,homogeneous,3,absent,0.810603857040405,1,vertical,vertical,1,0.90587848910579,green,1,NaN,1011.40458100154,742.594190385041,NaN,NaN,1011.40458100154,742.594190385041,817.787900804752,345.621167183745,570.807518193712,711.784642431215,NaN,NaN,NaN,NaN,NaN,NaN,4,0,0,NaN,NaN,NaN,vertical,horizontal,vertical,none,none,none
1d,19,100244,3,26,154,18,F,NA,constant,homogeneous,4,absent,0.55797004699707,1,vertical,vertical,1,0.741174687279595,green,3,NaN,980.31222920257,419.68777079743,NaN,NaN,619.68777079743,780.31222920257,980.31222920257,780.31222920257,980.31222920257,419.68777079743,619.68777079743,419.68777079743,NaN,NaN,NaN,NaN,0,0,4,0,NaN,NaN,vertical,vertical,vertical,horizontal,none,none
1d,19,100244,3,27,155,18,F,NA,constant,homogeneous,4,present,0.629824876785278,1,horizontal,horizontal,1,0.835291145465992,green,3,4,919.715248510402,374.848363820974,574.848363820974,480.284751489598,680.284751489598,825.151636179026,1025.15163617903,719.715248510402,919.715248510402,374.848363820974,574.848363820974,480.284751489598,NaN,NaN,NaN,NaN,0,0,4,0,NaN,NaN,vertical,vertical,horizontal,vertical,none,none
1d,19,100244,3,28,156,18,F,NA,constant,homogeneous,5,absent,0.833313941955566,1,horizontal,horizontal,1,0.729410130006296,green,5,NaN,579.163522034968,727.5,NaN,NaN,853.017481158529,849.42763818712,1053.60308331891,626.654758133252,903.717843984329,367.045908301137,610.498069503264,429.371695378491,579.163522034968,727.5,NaN,NaN,0,0,0,0,4,NaN,horizontal,vertical,vertical,vertical,horizontal,none
1d,19,100244,3,29,157,18,F,NA,constant,homogeneous,6,absent,0.778212785720825,1,horizontal,horizontal,1,0.6117645572733,green,4,NaN,738.309916622085,352.574589799621,NaN,NaN,861.690083377915,847.425410200379,1045.12173246427,670.287525733335,983.431649086356,422.862115532956,738.309916622085,352.574589799621,554.878267535729,529.712474266665,616.568350913644,777.137884467044,0,0,0,4,0,0,horizontal,horizontal,vertical,horizontal,horizontal,horizontal
1d,19,100244,3,30,158,18,F,NA,constant,homogeneous,3,present,0.818003177642822,1,horizontal,horizontal,1,0.788232916372794,green,3,2,738.309916622085,352.574589799621,1045.12173246427,670.287525733335,616.568350913644,777.137884467044,1045.12173246427,670.287525733335,738.309916622085,352.574589799621,NaN,NaN,NaN,NaN,NaN,NaN,0,0,4,NaN,NaN,NaN,vertical,horizontal,horizontal,none,none,none
1d,19,100244,3,31,159,18,F,NA,constant,homogeneous,5,present,0.579202175140381,1,horizontal,horizontal,1,0.647058229093198,green,4,3,668.665290897936,381.422338320961,967.295052392579,407.549057043193,777.775285599347,854.029648013395,1034.72873763037,699.636437764765,967.295052392579,407.549057043193,668.665290897936,381.422338320961,551.535633479765,657.362518857686,NaN,NaN,0,0,0,4,0,NaN,vertical,vertical,vertical,horizontal,horizontal,none
1d,19,100244,3,32,160,18,F,NA,constant,homogeneous,4,absent,0.735874891281128,1,horizontal,horizontal,1,1.04705317638538,green,4,NaN,616.568350913644,422.862115532956,NaN,NaN,622.862115532956,783.431649086356,983.431649086356,777.137884467044,977.137884467044,416.568350913644,616.568350913644,422.862115532956,NaN,NaN,NaN,NaN,0,0,0,4,NaN,NaN,vertical,vertical,horizontal,horizontal,none,none
1d,19,100244,3,33,161,18,F,NA,constant,homogeneous,5,absent,0.507683038711548,1,vertical,vertical,1,0.847055702739292,green,2,NaN,1047.42541020038,661.690083377915,NaN,NaN,817.787900804752,854.378832816255,1047.42541020038,661.690083377915,935.129412379467,383.747735480111,636.089159529932,404.658667004661,563.568117085469,695.524681321058,NaN,NaN,0,4,0,0,0,NaN,horizontal,vertical,vertical,vertical,horizontal,none
1d,19,100244,3,34,162,18,F,NA,constant,homogeneous,4,absent,0.613149166107178,1,vertical,vertical,1,0.752939244552895,green,4,NaN,586.139005173917,461.117046071168,NaN,NaN,661.117046071168,813.860994826083,1013.86099482608,738.882953928832,938.882953928832,386.139005173917,586.139005173917,461.117046071168,NaN,NaN,NaN,NaN,0,0,0,4,NaN,NaN,horizontal,vertical,vertical,vertical,none,none
1d,19,100244,3,35,163,18,F,NA,constant,homogeneous,3,present,0.531384944915771,1,vertical,vertical,1,0.88234937455919,green,3,1,576.971974679454,723.626453162816,1018.57766167904,731.334709102064,1018.57766167904,731.334709102064,804.450363641507,345.03883773512,576.971974679454,723.626453162816,NaN,NaN,NaN,NaN,NaN,NaN,0,0,4,NaN,NaN,NaN,vertical,vertical,vertical,none,none,none
1d,19,100244,3,36,164,18,F,NA,constant,homogeneous,4,absent,0.461354970932007,1,horizontal,horizontal,1,0.952936718198988,green,2,NaN,1054.0296480134,577.775285599347,NaN,NaN,822.224714400653,854.029648013395,1054.0296480134,577.775285599347,777.775285599347,345.970351986605,545.970351986605,622.224714400653,NaN,NaN,NaN,NaN,0,4,0,0,NaN,NaN,horizontal,horizontal,horizontal,vertical,none,none
1d,19,100244,3,37,165,18,F,NA,constant,homogeneous,6,absent,0.652436017990112,1,vertical,vertical,1,0.682351900913097,green,4,NaN,804.450363641507,345.03883773512,NaN,NaN,795.549636358493,854.96116226488,1018.57766167904,731.334709102064,1023.02802532055,476.373546837184,804.450363641507,345.03883773512,581.422338320961,468.665290897936,576.971974679454,723.626453162816,0,0,0,4,0,0,horizontal,horizontal,horizontal,vertical,horizontal,horizontal
1d,19,100244,3,38,166,18,F,NA,constant,homogeneous,5,absent,1.54677987098694,1,horizontal,horizontal,1,0.670587343639798,green,4,NaN,561.936991243214,508.616172865948,NaN,NaN,938.882953928832,813.860994826083,1046.31108570371,534.001143498857,813.345668841951,345.349468637584,561.936991243214,508.616172865948,639.523300282292,798.172220171528,NaN,NaN,0,0,0,4,0,NaN,vertical,horizontal,horizontal,horizontal,horizontal,none
1d,19,100244,3,39,167,18,F,NA,constant,homogeneous,5,present,0.786008834838867,1,horizontal,horizontal,1,0.999994947292187,green,1,5,804.450363641507,854.96116226488,558.892763222174,683.019879386575,804.450363641507,854.96116226488,1043.85771277057,674.554784704298,946.261991269517,391.116228706307,646.537169096228,396.34794493794,558.892763222174,683.019879386575,NaN,NaN,4,0,0,0,0,NaN,horizontal,horizontal,vertical,horizontal,vertical,none
1d,19,100244,3,40,168,18,F,NA,constant,homogeneous,6,present,1.18366312980652,1,horizontal,horizontal,1,0.89411393183249,green,2,6,1016.25226451989,735.129412379467,574.848363820974,719.715248510402,791.100628340862,854.844660889869,1016.25226451989,735.129412379467,1025.15163617903,480.284751489598,808.899371659138,345.155339110131,583.747735480111,464.870587620533,574.848363820974,719.715248510402,0,4,0,0,0,0,vertical,horizontal,horizontal,vertical,horizontal,horizontal
1d,19,100244,3,41,169,18,F,NA,constant,homogeneous,3,present,0.757147073745728,1,horizontal,horizontal,1,0.694116458186397,green,2,3,989.501930496736,429.371695378491,557.480588344736,521.200666434388,853.017481158529,849.42763818712,989.501930496736,429.371695378491,557.480588344736,521.200666434388,NaN,NaN,NaN,NaN,NaN,NaN,0,4,0,NaN,NaN,NaN,horizontal,horizontal,vertical,none,none,none
1d,19,100244,3,42,170,18,F,NA,constant,homogeneous,4,present,0.667117118835449,1,vertical,vertical,1,0.717645572732996,green,3,2,923.626453162816,376.971974679454,1023.02802532055,723.626453162816,676.373546837184,823.028025320546,1023.02802532055,723.626453162816,923.626453162816,376.971974679454,576.971974679454,476.373546837184,NaN,NaN,NaN,NaN,0,0,4,0,NaN,NaN,horizontal,vertical,vertical,vertical,none,none
1d,19,100244,3,43,171,18,F,NA,constant,homogeneous,6,present,0.878745794296265,1,horizontal,horizontal,1,0.717645572732996,green,1,5,734.001143498857,846.311085703712,619.68777079743,419.68777079743,734.001143498857,846.311085703712,980.31222920257,780.31222920257,1046.31108570371,534.001143498857,865.998856501143,353.688914296288,619.68777079743,419.68777079743,553.688914296288,665.998856501143,4,0,0,0,0,0,horizontal,horizontal,vertical,vertical,vertical,vertical
1d,19,100244,3,44,172,18,F,NA,constant,homogeneous,5,present,0.763768911361694,1,horizontal,horizontal,1,0.752939244552895,green,4,2,607.549057043193,432.704947607421,1054.0296480134,622.224714400653,857.362518857686,848.464366520235,1054.0296480134,622.224714400653,899.636437764765,365.271262369628,607.549057043193,432.704947607421,581.422338320961,731.334709102064,NaN,NaN,0,0,0,4,0,NaN,horizontal,vertical,vertical,horizontal,vertical,none
1d,19,100244,3,45,173,18,F,NA,constant,homogeneous,5,absent,0.733014106750488,1,vertical,vertical,1,0.694116458186397,green,3,NaN,970.628304621509,410.498069503264,NaN,NaN,773.345241866748,853.60308331891,1032.95409169886,703.717843984329,970.628304621509,410.498069503264,672.5,379.163522034968,550.57236181288,653.017481158529,NaN,NaN,0,0,4,0,0,NaN,horizontal,vertical,vertical,vertical,horizontal,none
1d,19,100244,3,46,174,18,F,NA,constant,homogeneous,3,present,0.776823997497559,1,horizontal,horizontal,1,0.847055702739292,green,3,1,795.549636358493,345.03883773512,581.422338320961,731.334709102064,581.422338320961,731.334709102064,1023.02802532055,723.626453162816,795.549636358493,345.03883773512,NaN,NaN,NaN,NaN,NaN,NaN,0,0,4,NaN,NaN,NaN,horizontal,vertical,horizontal,none,none,none
1d,19,100244,3,47,175,18,F,NA,constant,homogeneous,4,absent,0.881943941116333,1,horizontal,horizontal,1,0.658822786366498,green,2,NaN,1042.51941165526,521.200666434388,NaN,NaN,878.799333565612,842.519411655264,1042.51941165526,521.200666434388,721.200666434388,357.480588344736,557.480588344736,678.799333565612,NaN,NaN,NaN,NaN,0,4,0,0,NaN,NaN,vertical,horizontal,horizontal,horizontal,none,none
1d,19,100244,3,48,176,18,F,NA,constant,homogeneous,6,present,0.519963979721069,1,vertical,vertical,1,0.811762030919393,green,2,6,956.993676208043,800.942742169714,547.481642470899,635.489140744817,704.475318678942,836.431882914531,956.993676208043,800.942742169714,1052.5183575291,564.510859255183,895.524681321058,363.568117085469,643.006323791957,399.057257830286,547.481642470899,635.489140744817,0,4,0,0,0,0,horizontal,vertical,vertical,horizontal,horizontal,horizontal
1d,19,100244,3,49,177,18,F,NA,constant,homogeneous,5,absent,0.604681968688965,1,horizontal,horizontal,1,0.90587848910579,green,2,NaN,1042.51941165526,678.799333565612,NaN,NaN,800,855,1042.51941165526,678.799333565612,949.885239334581,393.700666434388,650.114760665419,393.700666434388,557.480588344736,678.799333565612,NaN,NaN,0,4,0,0,0,NaN,horizontal,horizontal,vertical,horizontal,vertical,none
1d,19,100244,3,50,178,18,F,NA,constant,homogeneous,6,absent,0.689368009567261,1,vertical,vertical,1,0.823526588192693,green,6,NaN,583.747735480111,735.129412379467,NaN,NaN,808.899371659138,854.844660889869,1025.15163617903,719.715248510402,1016.25226451989,464.870587620533,791.100628340862,345.155339110131,574.848363820974,480.284751489598,583.747735480111,735.129412379467,0,0,0,0,0,4,horizontal,vertical,vertical,horizontal,vertical,vertical
1d,19,100244,3,51,179,18,F,NA,constant,homogeneous,3,present,0.7797691822052,1,vertical,vertical,1,1.02352406183879,green,1,3,1020.83647796503,727.5,579.163522034968,727.5,1020.83647796503,727.5,800,345,579.163522034968,727.5,NaN,NaN,NaN,NaN,NaN,NaN,4,0,0,NaN,NaN,NaN,vertical,vertical,vertical,none,none,none
1d,19,100244,3,52,180,18,F,NA,constant,homogeneous,5,absent,0.608314990997314,1,vertical,vertical,1,1.04705317638538,green,2,NaN,989.501930496736,770.628304621509,NaN,NaN,696.282156015671,832.954091698863,989.501930496736,770.628304621509,1020.83647796503,472.5,746.982518841471,350.57236181288,546.39691668109,573.345241866748,NaN,NaN,0,4,0,0,0,NaN,vertical,vertical,horizontal,vertical,vertical,none
1d,19,100244,3,53,181,18,F,NA,constant,homogeneous,4,present,1.01402902603149,1,vertical,vertical,1,0.870584817285891,green,4,3,545,600,800,345,800,855,1055,600,800,345,545,600,NaN,NaN,NaN,NaN,0,0,0,4,NaN,NaN,vertical,vertical,vertical,vertical,none,none
1d,19,100244,3,54,182,18,F,NA,constant,homogeneous,6,absent,0.778332948684692,0,vertical,horizontal,1,0.988230390018887,green,1,NaN,676.373546837184,823.028025320546,NaN,NaN,676.373546837184,823.028025320546,931.334709102064,818.577661679039,1054.96116226488,595.549636358493,923.626453162816,376.971974679454,668.665290897936,381.422338320961,545.03883773512,604.450363641507,4,0,0,0,0,0,vertical,horizontal,vertical,vertical,horizontal,vertical
1d,19,100244,3,55,183,18,F,NA,constant,homogeneous,4,present,0.754101037979126,1,horizontal,horizontal,1,0.788232916372794,green,3,4,822.224714400653,345.970351986605,545.970351986605,577.775285599347,777.775285599347,854.029648013395,1054.0296480134,622.224714400653,822.224714400653,345.970351986605,545.970351986605,577.775285599347,NaN,NaN,NaN,NaN,0,0,4,0,NaN,NaN,horizontal,vertical,horizontal,horizontal,none,none
1d,19,100244,3,56,184,18,F,NA,constant,homogeneous,4,present,0.728028059005737,1,vertical,vertical,1,0.941172160925688,green,4,1,607.549057043193,432.704947607421,632.704947607421,792.450942956807,632.704947607421,792.450942956807,992.450942956807,767.295052392579,967.295052392579,407.549057043193,607.549057043193,432.704947607421,NaN,NaN,NaN,NaN,0,0,0,4,NaN,NaN,vertical,vertical,horizontal,vertical,none,none
1d,19,100244,3,57,185,18,F,NA,constant,homogeneous,3,absent,0.634976148605347,1,horizontal,horizontal,1,1.01175950456549,green,3,NaN,786.654331158049,345.349468637584,NaN,NaN,586.139005173917,738.882953928832,1027.20666366803,715.767577433584,786.654331158049,345.349468637584,NaN,NaN,NaN,NaN,NaN,NaN,0,0,4,NaN,NaN,NaN,horizontal,vertical,horizontal,none,none,none
1d,19,100244,3,58,186,18,F,NA,constant,homogeneous,6,present,1.06901597976685,1,horizontal,horizontal,1,0.647058229093198,green,6,3,551.535633479765,657.362518857686,1048.46436652023,542.637481142314,725.445215295702,843.857712770574,973.909581815937,786.495193912888,1048.46436652023,542.637481142314,874.554784704298,356.142287229426,626.090418184063,413.504806087112,551.535633479765,657.362518857686,0,0,0,0,0,4,vertical,vertical,horizontal,vertical,vertical,horizontal
1d,19,100244,3,59,187,18,F,NA,constant,homogeneous,3,present,0.626621007919312,1,vertical,vertical,1,0.811762030919393,green,1,3,983.431649086356,777.137884467044,554.878267535729,670.287525733335,983.431649086356,777.137884467044,861.690083377915,352.574589799621,554.878267535729,670.287525733335,NaN,NaN,NaN,NaN,NaN,NaN,4,0,0,NaN,NaN,NaN,vertical,vertical,horizontal,none,none,none
1d,19,100244,3,60,188,18,F,NA,constant,homogeneous,6,present,0.591651916503906,1,vertical,vertical,1,0.823526588192693,green,1,3,927.5,820.836477965032,927.5,379.163522034968,927.5,820.836477965032,1055,600,927.5,379.163522034968,672.5,379.163522034968,545,600,672.5,820.836477965032,4,0,0,0,0,0,vertical,vertical,vertical,vertical,horizontal,horizontal
1d,19,100244,3,61,189,18,F,NA,constant,homogeneous,6,absent,0.633177995681763,1,horizontal,horizontal,1,1.07058229093198,green,3,NaN,1003.65205506206,446.537169096228,NaN,NaN,831.076682568313,853.099268668537,1034.72873763037,699.636437764765,1003.65205506206,446.537169096228,768.923317431687,346.900731331463,565.271262369628,500.363562235235,596.34794493794,753.462830903772,0,0,4,0,0,0,horizontal,horizontal,horizontal,horizontal,horizontal,horizontal
1d,19,100244,3,62,190,18,F,NA,constant,homogeneous,3,absent,0.525051116943359,1,vertical,vertical,1,0.752939244552895,green,3,NaN,760.109211414741,348.13947314824,NaN,NaN,601.827779828472,760.476699717708,1038.06300875679,691.383827134052,760.109211414741,348.13947314824,NaN,NaN,NaN,NaN,NaN,NaN,0,0,4,NaN,NaN,NaN,horizontal,horizontal,vertical,none,none,none
1d,19,100244,3,63,191,18,F,NA,constant,homogeneous,6,present,0.818732023239136,1,vertical,vertical,1,0.952936718198988,green,1,4,716.980120613425,841.107236777826,883.019879386575,358.892763222174,716.980120613425,841.107236777826,967.295052392579,792.450942956807,1050.31493177915,551.343706178981,883.019879386575,358.892763222174,632.704947607421,407.549057043193,549.685068220846,648.656293821019,4,0,0,0,0,0,vertical,vertical,horizontal,horizontal,horizontal,vertical
1d,19,100244,3,64,192,18,F,NA,constant,homogeneous,4,absent,0.684609174728394,1,vertical,vertical,1,0.670587343639798,green,1,NaN,622.862115532956,783.431649086356,NaN,NaN,622.862115532956,783.431649086356,983.431649086356,777.137884467044,977.137884467044,416.568350913644,616.568350913644,422.862115532956,NaN,NaN,NaN,NaN,4,0,0,0,NaN,NaN,vertical,vertical,horizontal,horizontal,none,none
1d,19,100244,4,1,193,18,F,NA,constant,homogeneous,6,present,0.763707876205444,1,vertical,vertical,1,1.04705317638538,green,4,3,903.717843984329,367.045908301137,1053.60308331891,573.345241866748,696.282156015671,832.954091698863,949.885239334581,806.299333565612,1053.60308331891,573.345241866748,903.717843984329,367.045908301137,650.114760665419,393.700666434388,546.39691668109,626.654758133252,0,0,0,4,0,0,horizontal,horizontal,horizontal,vertical,vertical,vertical
1d,19,100244,4,2,194,18,F,NA,constant,homogeneous,5,present,0.555320024490356,1,horizontal,horizontal,1,0.999994947292187,green,2,4,1054.37883281626,582.212099195248,583.747735480111,464.870587620533,895.524681321058,836.431882914531,1054.37883281626,582.212099195248,861.690083377915,352.574589799621,583.747735480111,464.870587620533,604.658667004661,763.910840470068,NaN,NaN,0,4,0,0,0,NaN,horizontal,horizontal,horizontal,vertical,horizontal,none
1d,19,100244,4,3,195,18,F,NA,constant,homogeneous,3,absent,0.595839023590088,1,vertical,vertical,1,1.05881773365868,green,1,NaN,773.345241866748,853.60308331891,NaN,NaN,773.345241866748,853.60308331891,1032.95409169886,496.282156015671,593.700666434388,450.114760665419,NaN,NaN,NaN,NaN,NaN,NaN,4,0,0,NaN,NaN,NaN,vertical,horizontal,horizontal,none,none,none
1d,19,100244,4,4,196,18,F,NA,constant,homogeneous,6,absent,0.639079093933105,1,horizontal,horizontal,1,0.764703801826194,green,2,NaN,1054.84466088987,608.899371659138,NaN,NaN,919.715248510402,825.151636179026,1054.84466088987,608.899371659138,935.129412379467,383.747735480111,680.284751489598,374.848363820974,545.155339110131,591.100628340862,664.870587620533,816.252264519889,0,4,0,0,0,0,vertical,horizontal,vertical,horizontal,horizontal,vertical
1d,19,100244,4,5,197,18,F,NA,constant,homogeneous,3,absent,0.661237955093384,1,vertical,vertical,1,1.05881773365868,green,3,NaN,579.163522034968,727.5,NaN,NaN,1020.83647796503,727.5,800,345,579.163522034968,727.5,NaN,NaN,NaN,NaN,NaN,NaN,0,0,4,NaN,NaN,NaN,horizontal,horizontal,vertical,none,none,none
1d,19,100244,4,6,198,18,F,NA,constant,homogeneous,3,present,0.473483085632324,1,horizontal,horizontal,1,0.941172160925688,green,3,2,552.574589799621,661.690083377915,870.287525733335,354.878267535729,977.137884467044,783.431649086356,870.287525733335,354.878267535729,552.574589799621,661.690083377915,NaN,NaN,NaN,NaN,NaN,NaN,0,0,4,NaN,NaN,NaN,horizontal,vertical,horizontal,none,none,none
1d,19,100244,4,7,199,18,F,NA,constant,homogeneous,5,absent,0.792693853378296,1,horizontal,horizontal,1,0.670587343639798,green,4,NaN,601.827779828472,439.523300282291,NaN,NaN,865.998856501143,846.311085703712,1054.65053136242,613.345668841951,891.383827134052,361.936991243214,601.827779828472,439.523300282291,586.139005173917,738.882953928832,NaN,NaN,0,0,0,4,0,NaN,vertical,horizontal,horizontal,horizontal,horizontal,none
1d,19,100244,4,8,200,18,F,NA,constant,homogeneous,6,present,0.747361183166504,1,horizontal,horizontal,1,0.717645572732996,green,4,5,768.923317431687,346.900731331463,565.271262369628,500.363562235235,831.076682568313,853.099268668537,1034.72873763037,699.636437764765,1003.65205506206,446.537169096228,768.923317431687,346.900731331463,565.271262369628,500.363562235235,596.34794493794,753.462830903772,0,0,0,4,0,0,horizontal,horizontal,vertical,horizontal,vertical,vertical
1d,19,100244,4,9,201,18,F,NA,constant,homogeneous,6,absent,0.651534080505371,1,horizontal,horizontal,1,0.670587343639798,green,6,NaN,545.155339110131,608.899371659138,NaN,NaN,680.284751489598,825.151636179026,935.129412379467,816.252264519889,1054.84466088987,591.100628340862,919.715248510402,374.848363820974,664.870587620533,383.747735480111,545.155339110131,608.899371659138,0,0,0,0,0,4,horizontal,vertical,horizontal,horizontal,horizontal,horizontal
1d,19,100244,4,10,202,18,F,NA,constant,homogeneous,6,present,0.674101114273071,1,vertical,vertical,1,0.870584817285891,green,6,5,636.089159529932,795.341332995339,548.874022981887,555.719714694933,887.215136548046,839.621618300407,1051.12597701811,644.280285305067,963.910840470068,404.658667004661,712.784863451954,360.378381699593,548.874022981887,555.719714694933,636.089159529932,795.341332995339,0,0,0,0,0,4,horizontal,vertical,horizontal,horizontal,vertical,vertical
1d,19,100244,4,11,203,18,F,NA,constant,homogeneous,3,absent,0.592778921127319,1,horizontal,horizontal,1,0.647058229093198,green,3,NaN,593.700666434388,450.114760665419,NaN,NaN,773.345241866748,853.60308331891,1032.95409169886,496.282156015671,593.700666434388,450.114760665419,NaN,NaN,NaN,NaN,NaN,NaN,0,0,4,NaN,NaN,NaN,vertical,horizontal,horizontal,none,none,none
1d,19,100244,4,12,204,18,F,NA,constant,homogeneous,6,present,1.23792910575867,1,horizontal,horizontal,1,0.658822786366498,green,1,5,768.923317431687,853.099268668537,596.34794493794,446.537169096228,768.923317431687,853.099268668537,1003.65205506206,753.462830903772,1034.72873763037,500.363562235235,831.076682568313,346.900731331463,596.34794493794,446.537169096228,565.271262369628,699.636437764765,4,0,0,0,0,0,horizontal,vertical,vertical,horizontal,horizontal,vertical
1d,19,100244,4,13,205,18,F,NA,constant,homogeneous,3,absent,0.607125997543335,1,horizontal,horizontal,1,0.999994947292187,green,3,NaN,576.971974679454,723.626453162816,NaN,NaN,1018.57766167904,731.334709102064,804.450363641507,345.03883773512,576.971974679454,723.626453162816,NaN,NaN,NaN,NaN,NaN,NaN,0,0,4,NaN,NaN,NaN,vertical,vertical,horizontal,none,none,none
1d,19,100244,4,14,206,18,F,NA,constant,homogeneous,5,absent,0.659590005874634,1,vertical,vertical,1,0.823526588192693,green,1,NaN,835.489140744817,852.518357529101,NaN,NaN,835.489140744817,852.518357529101,1051.12597701811,644.280285305067,919.715248510402,374.848363820974,622.862115532956,416.568350913644,570.807518193712,711.784642431215,NaN,NaN,4,0,0,0,0,NaN,vertical,horizontal,vertical,vertical,vertical,none
1d,19,100244,4,15,207,18,F,NA,constant,homogeneous,3,present,0.517066955566406,1,vertical,vertical,1,0.799997473646093,green,1,2,610.498069503264,770.628304621509,1042.51941165526,678.799333565612,610.498069503264,770.628304621509,1042.51941165526,678.799333565612,746.982518841471,350.57236181288,NaN,NaN,NaN,NaN,NaN,NaN,4,0,0,NaN,NaN,NaN,vertical,vertical,horizontal,none,none,none
1d,19,100244,4,16,208,18,F,NA,constant,homogeneous,3,absent,0.484637022018433,1,vertical,vertical,1,0.847055702739292,green,3,NaN,549.685068220846,648.656293821019,NaN,NaN,967.295052392579,792.450942956807,883.019879386575,358.892763222174,549.685068220846,648.656293821019,NaN,NaN,NaN,NaN,NaN,NaN,0,0,4,NaN,NaN,NaN,vertical,vertical,vertical,none,none,none
1d,19,100244,4,17,209,18,F,NA,constant,homogeneous,5,absent,0.553860187530518,1,vertical,vertical,1,0.764703801826194,green,4,NaN,700.363562235235,365.271262369628,NaN,NaN,742.637481142314,848.464366520235,1018.57766167904,731.334709102064,992.450942956807,432.704947607421,700.363562235235,365.271262369628,545.970351986605,622.224714400653,NaN,NaN,0,0,0,4,0,NaN,vertical,horizontal,vertical,vertical,vertical,none
1d,19,100244,4,18,210,18,F,NA,constant,homogeneous,3,absent,0.524145841598511,1,horizontal,horizontal,1,0.952936718198988,green,3,NaN,560.378381699593,512.784863451954,NaN,NaN,844.280285305067,851.125977018113,995.341332995339,436.089159529932,560.378381699593,512.784863451954,NaN,NaN,NaN,NaN,NaN,NaN,0,0,4,NaN,NaN,NaN,horizontal,horizontal,horizontal,none,none,none
1d,19,100244,4,19,211,18,F,NA,constant,homogeneous,3,present,0.517006158828735,1,horizontal,horizontal,1,0.917643046379089,green,2,1,1020.83647796503,727.5,579.163522034968,727.5,579.163522034968,727.5,1020.83647796503,727.5,800,345,NaN,NaN,NaN,NaN,NaN,NaN,0,4,0,NaN,NaN,NaN,horizontal,horizontal,vertical,none,none,none
1d,19,100244,4,20,212,18,F,NA,constant,homogeneous,3,present,0.757018089294434,1,vertical,vertical,1,0.670587343639798,green,2,3,1054.37883281626,582.212099195248,657.405809614959,388.595418998464,688.215357568785,829.192481806288,1054.37883281626,582.212099195248,657.405809614959,388.595418998464,NaN,NaN,NaN,NaN,NaN,NaN,0,4,0,NaN,NaN,NaN,horizontal,vertical,vertical,none,none,none
1d,19,100244,4,21,213,18,F,NA,constant,homogeneous,4,present,0.899257183074951,1,horizontal,horizontal,1,0.741174687279595,green,3,2,684.232422566416,372.793336331966,1027.20666366803,484.232422566416,915.767577433584,827.206663668034,1027.20666366803,484.232422566416,684.232422566416,372.793336331966,572.793336331966,715.767577433584,NaN,NaN,NaN,NaN,0,0,4,0,NaN,NaN,horizontal,horizontal,horizontal,vertical,none,none
1d,19,100244,4,22,214,18,F,NA,constant,homogeneous,4,present,0.635339021682739,1,vertical,vertical,1,0.89411393183249,green,2,3,1054.84466088987,591.100628340862,791.100628340862,345.155339110131,808.899371659138,854.844660889869,1054.84466088987,591.100628340862,791.100628340862,345.155339110131,545.155339110131,608.899371659138,NaN,NaN,NaN,NaN,0,4,0,0,NaN,NaN,vertical,vertical,horizontal,horizontal,none,none
1d,19,100244,4,23,215,18,F,NA,constant,homogeneous,5,present,0.659780979156494,1,vertical,vertical,1,0.976465832745587,green,3,5,935.129412379467,383.747735480111,563.568117085469,695.524681321058,817.787900804752,854.378832816255,1047.42541020038,661.690083377915,935.129412379467,383.747735480111,636.089159529932,404.658667004661,563.568117085469,695.524681321058,NaN,NaN,0,0,4,0,0,NaN,horizontal,horizontal,vertical,horizontal,vertical,none
1d,19,100244,4,24,216,18,F,NA,constant,homogeneous,6,present,0.533211231231689,1,vertical,vertical,1,0.799997473646093,green,2,6,1013.86099482608,738.882953928832,572.793336331966,715.767577433584,786.654331158049,854.650531362416,1013.86099482608,738.882953928832,1027.20666366803,484.232422566416,813.345668841951,345.349468637584,586.139005173917,461.117046071168,572.793336331966,715.767577433584,0,4,0,0,0,0,horizontal,vertical,vertical,vertical,vertical,vertical
1d,19,100244,4,25,217,18,F,NA,constant,homogeneous,4,absent,0.605714082717896,1,horizontal,horizontal,1,0.682351900913097,green,1,NaN,632.704947607421,792.450942956807,NaN,NaN,632.704947607421,792.450942956807,992.450942956807,767.295052392579,967.295052392579,407.549057043193,607.549057043193,432.704947607421,NaN,NaN,NaN,NaN,4,0,0,0,NaN,NaN,horizontal,vertical,horizontal,vertical,none,none
1d,19,100244,4,26,218,18,F,NA,constant,homogeneous,6,present,0.620579957962036,1,vertical,vertical,1,0.717645572732996,green,4,6,907.767656743878,368.891514305654,545.970351986605,622.224714400653,692.232343256122,831.108485694346,946.261991269517,808.883771293693,1054.0296480134,577.775285599347,907.767656743878,368.891514305654,653.738008730483,391.116228706307,545.970351986605,622.224714400653,0,0,0,4,0,0,vertical,horizontal,horizontal,vertical,vertical,vertical
1d,19,100244,4,27,219,18,F,NA,constant,homogeneous,5,absent,0.61047101020813,1,horizontal,horizontal,1,0.682351900913097,green,4,NaN,593.700666434388,450.114760665419,NaN,NaN,878.799333565612,842.519411655264,1055,600,878.799333565612,357.480588344736,593.700666434388,450.114760665419,593.700666434388,749.885239334581,NaN,NaN,0,0,0,4,0,NaN,horizontal,horizontal,horizontal,horizontal,vertical,none
1d,19,100244,4,28,220,18,F,NA,constant,homogeneous,5,present,0.493885040283203,1,vertical,vertical,1,0.752939244552895,green,3,5,1023.02802532055,476.373546837184,546.900731331463,568.923317431687,692.232343256122,831.108485694346,986.495193912888,773.909581815937,1023.02802532055,476.373546837184,751.343706178981,349.685068220846,546.900731331463,568.923317431687,NaN,NaN,0,0,4,0,0,NaN,vertical,horizontal,vertical,vertical,vertical,none
1d,19,100244,4,29,221,18,F,NA,constant,homogeneous,3,present,0.507957935333252,1,vertical,vertical,1,0.999994947292187,green,2,1,839.890788585259,348.13947314824,998.172220171528,760.476699717708,998.172220171528,760.476699717708,839.890788585259,348.13947314824,561.936991243214,691.383827134052,NaN,NaN,NaN,NaN,NaN,NaN,0,4,0,NaN,NaN,NaN,vertical,vertical,horizontal,none,none,none
1d,19,100244,4,30,222,18,F,NA,constant,homogeneous,5,present,0.587016105651855,1,horizontal,horizontal,1,1.03528861911209,green,1,3,861.690083377915,847.425410200379,895.524681321058,363.568117085469,861.690083377915,847.425410200379,1054.37883281626,617.787900804752,895.524681321058,363.568117085469,604.658667004661,436.089159529932,583.747735480111,735.129412379467,NaN,NaN,4,0,0,0,0,NaN,horizontal,horizontal,horizontal,vertical,horizontal,none
1d,19,100244,4,31,223,18,F,NA,constant,homogeneous,4,present,0.407842874526978,1,vertical,vertical,1,1.04705317638538,green,1,4,956.993676208043,800.942742169714,599.057257830286,756.993676208043,956.993676208043,800.942742169714,1000.94274216971,443.006323791957,643.006323791957,399.057257830286,599.057257830286,756.993676208043,NaN,NaN,NaN,NaN,4,0,0,0,NaN,NaN,vertical,vertical,vertical,vertical,none,none
1d,19,100244,4,32,224,18,F,NA,constant,homogeneous,3,absent,0.460313081741333,1,horizontal,horizontal,1,1.02352406183879,green,3,NaN,549.685068220846,648.656293821019,NaN,NaN,967.295052392579,792.450942956807,883.019879386575,358.892763222174,549.685068220846,648.656293821019,NaN,NaN,NaN,NaN,NaN,NaN,0,0,4,NaN,NaN,NaN,vertical,horizontal,horizontal,none,none,none
1d,19,100244,4,33,225,18,F,NA,constant,homogeneous,4,absent,0.64593505859375,1,vertical,vertical,1,0.799997473646093,green,2,NaN,1049.42763818712,546.982518841471,NaN,NaN,853.017481158529,849.42763818712,1049.42763818712,546.982518841471,746.982518841471,350.57236181288,550.57236181288,653.017481158529,NaN,NaN,NaN,NaN,0,4,0,0,NaN,NaN,horizontal,vertical,vertical,horizontal,none,none
1d,19,100244,4,34,226,18,F,NA,constant,homogeneous,6,absent,0.555823087692261,1,vertical,vertical,1,1.05881773365868,green,3,NaN,1055,600,NaN,NaN,672.5,820.836477965032,927.5,820.836477965032,1055,600,927.5,379.163522034968,672.5,379.163522034968,545,600,0,0,4,0,0,0,horizontal,vertical,vertical,horizontal,vertical,horizontal
1d,19,100244,4,35,227,18,F,NA,constant,homogeneous,4,absent,0.625185012817383,1,vertical,vertical,1,0.694116458186397,green,4,NaN,619.68777079743,419.68777079743,NaN,NaN,619.68777079743,780.31222920257,980.31222920257,780.31222920257,980.31222920257,419.68777079743,619.68777079743,419.68777079743,NaN,NaN,NaN,NaN,0,0,0,4,NaN,NaN,vertical,horizontal,horizontal,vertical,none,none
1d,19,100244,4,36,228,18,F,NA,constant,homogeneous,6,absent,0.594207048416138,1,horizontal,horizontal,1,0.6117645572733,green,5,NaN,664.870587620533,383.747735480111,NaN,NaN,680.284751489598,825.151636179026,935.129412379467,816.252264519889,1054.84466088987,591.100628340862,919.715248510402,374.848363820974,664.870587620533,383.747735480111,545.155339110131,608.899371659138,0,0,0,0,4,0,vertical,vertical,horizontal,horizontal,horizontal,vertical
1d,19,100244,4,37,229,18,F,NA,constant,homogeneous,3,absent,0.772085905075073,1,vertical,vertical,1,0.694116458186397,green,3,NaN,576.971974679454,723.626453162816,NaN,NaN,1018.57766167904,731.334709102064,804.450363641507,345.03883773512,576.971974679454,723.626453162816,NaN,NaN,NaN,NaN,NaN,NaN,0,0,4,NaN,NaN,NaN,horizontal,horizontal,vertical,none,none,none
1d,19,100244,4,38,230,18,F,NA,constant,homogeneous,4,present,0.498345851898193,1,vertical,vertical,1,0.729410130006296,green,2,4,1045.12173246427,529.712474266665,554.878267535729,670.287525733335,870.287525733335,845.121732464271,1045.12173246427,529.712474266665,729.712474266665,354.878267535729,554.878267535729,670.287525733335,NaN,NaN,NaN,NaN,0,4,0,0,NaN,NaN,vertical,vertical,horizontal,horizontal,none,none
1d,19,100244,4,39,231,18,F,NA,constant,homogeneous,6,absent,0.8023521900177,1,horizontal,horizontal,1,1.09411140547858,green,3,NaN,1049.42763818712,546.982518841471,NaN,NaN,721.200666434388,842.519411655264,970.628304621509,789.501930496736,1049.42763818712,546.982518841471,878.799333565612,357.480588344736,629.371695378491,410.498069503264,550.57236181288,653.017481158529,0,0,4,0,0,0,vertical,vertical,horizontal,vertical,vertical,vertical
1d,19,100244,4,40,232,18,F,NA,constant,homogeneous,6,absent,0.541154146194458,1,vertical,vertical,1,0.729410130006296,green,3,NaN,1041.10723677783,516.980120613425,NaN,NaN,751.343706178981,850.314931779154,992.450942956807,767.295052392579,1041.10723677783,516.980120613425,848.656293821019,349.685068220846,607.549057043193,432.704947607421,558.892763222174,683.019879386575,0,0,4,0,0,0,vertical,horizontal,vertical,vertical,horizontal,vertical
1d,19,100244,4,41,233,18,F,NA,constant,homogeneous,4,absent,0.802308797836304,1,horizontal,horizontal,1,0.705881015459696,green,3,NaN,653.738008730483,391.116228706307,NaN,NaN,946.261991269517,808.883771293693,1008.88377129369,453.738008730483,653.738008730483,391.116228706307,591.116228706307,746.261991269517,NaN,NaN,NaN,NaN,0,0,4,0,NaN,NaN,horizontal,horizontal,horizontal,horizontal,none,none
1d,19,100244,4,42,234,18,F,NA,constant,homogeneous,5,absent,0.567575931549072,1,vertical,vertical,1,0.847055702739292,green,2,NaN,1013.86099482608,738.882953928832,NaN,NaN,734.001143498857,846.311085703712,1013.86099482608,738.882953928832,998.172220171528,439.523300282291,708.616172865948,361.936991243214,545.349468637584,613.345668841951,NaN,NaN,0,4,0,0,0,NaN,horizontal,vertical,horizontal,vertical,horizontal,none
1d,19,100244,4,43,235,18,F,NA,constant,homogeneous,4,absent,0.610841989517212,1,horizontal,horizontal,1,0.788232916372794,green,3,NaN,874.554784704298,356.142287229426,NaN,NaN,725.445215295702,843.857712770574,1043.85771277057,674.554784704298,874.554784704298,356.142287229426,556.142287229426,525.445215295702,NaN,NaN,NaN,NaN,0,0,4,0,NaN,NaN,horizontal,horizontal,horizontal,horizontal,none,none
1d,19,100244,4,44,236,18,F,NA,constant,homogeneous,4,present,0.636515140533447,0,horizontal,vertical,1,0.647058229093198,green,2,4,980.31222920257,780.31222920257,619.68777079743,419.68777079743,619.68777079743,780.31222920257,980.31222920257,780.31222920257,980.31222920257,419.68777079743,619.68777079743,419.68777079743,NaN,NaN,NaN,NaN,0,4,0,0,NaN,NaN,vertical,horizontal,vertical,horizontal,none,none
1d,19,100244,4,45,237,18,F,NA,constant,homogeneous,4,absent,0.762864112854004,1,vertical,vertical,1,1.08234684820528,green,3,NaN,734.001143498857,353.688914296288,NaN,NaN,865.998856501143,846.311085703712,1046.31108570371,534.001143498857,734.001143498857,353.688914296288,553.688914296288,665.998856501143,NaN,NaN,NaN,NaN,0,0,4,0,NaN,NaN,vertical,vertical,vertical,vertical,none,none
1d,19,100244,4,46,238,18,F,NA,constant,homogeneous,4,present,1.16146898269653,1,vertical,vertical,1,0.964701275472288,green,4,1,613.504806087112,426.090418184063,626.090418184063,786.495193912888,626.090418184063,786.495193912888,986.495193912888,773.909581815937,973.909581815937,413.504806087112,613.504806087112,426.090418184063,NaN,NaN,NaN,NaN,0,0,0,4,NaN,NaN,vertical,horizontal,vertical,vertical,none,none
1d,19,100244,4,47,239,18,F,NA,constant,homogeneous,5,absent,0.634131193161011,1,horizontal,horizontal,1,0.658822786366498,green,1,NaN,680.284751489598,825.151636179026,NaN,NaN,680.284751489598,825.151636179026,977.137884467044,783.431649086356,1029.19248180629,488.215357568785,764.510859255183,347.4816424709,548.874022981887,555.719714694933,NaN,NaN,4,0,0,0,0,NaN,horizontal,vertical,vertical,vertical,vertical,none
1d,19,100244,4,48,240,18,F,NA,constant,homogeneous,5,present,0.708401918411255,1,vertical,vertical,1,0.682351900913097,green,4,5,738.309916622085,352.574589799621,545.621167183745,582.212099195248,704.475318678942,836.431882914531,995.341332995339,763.910840470068,1016.25226451989,464.870587620533,738.309916622085,352.574589799621,545.621167183745,582.212099195248,NaN,NaN,0,0,0,4,0,NaN,vertical,vertical,horizontal,vertical,horizontal,none
1d,19,100244,4,49,241,18,F,NA,constant,homogeneous,3,present,0.590773105621338,1,horizontal,horizontal,1,0.6,green,3,2,751.343706178981,349.685068220846,1041.10723677783,683.019879386575,607.549057043193,767.295052392579,1041.10723677783,683.019879386575,751.343706178981,349.685068220846,NaN,NaN,NaN,NaN,NaN,NaN,0,0,4,NaN,NaN,NaN,vertical,vertical,horizontal,none,none,none
