experiment,subject,uniqueID,block,trial,trial_cumulative,age,gender,color_cond_blocking,color_history,shape_type,set_size,distractor,rt,acc,target_orient,response_key,response_made,iti,target_color,target_item,distractor_item,target_X,target_Y,distractor_X,distractor_Y,item1_X,item1_Y,item2_X,item2_Y,item3_X,item3_Y,item4_X,item4_Y,item5_X,item5_Y,item6_X,item6_Y,item1_shape,item2_shape,item3_shape,item4_shape,item5_shape,item6_shape,item1_line,item2_line,item3_line,item4_line,item5_line,item6_line
1d,1,100206,1,1,1,22,F,NA,constant,homogeneous,6,present,NaN,0,horizontal,none,0,0.894112709333312,green,3,5,1029.19248180629,488.215357568785,588.595418998464,457.40580961496,782.212099195248,854.378832816255,1011.40458100154,742.594190385041,1029.19248180629,488.215357568785,817.787900804752,345.621167183745,588.595418998464,457.40580961496,570.807518193712,711.784642431215,0,0,4,0,0,0,vertical,vertical,horizontal,vertical,vertical,vertical
1d,1,100206,1,2,2,22,F,NA,constant,homogeneous,4,present,NaN,0,horizontal,none,0,0.764703117226655,green,3,2,738.309916622085,352.574589799621,1047.42541020038,538.309916622085,861.690083377915,847.425410200379,1047.42541020038,538.309916622085,738.309916622085,352.574589799621,552.574589799621,661.690083377915,NaN,NaN,NaN,NaN,0,0,4,0,NaN,NaN,vertical,horizontal,horizontal,vertical,none,none
1d,1,100206,1,3,3,22,F,NA,constant,homogeneous,4,absent,NaN,0,vertical,none,0,0.952935251199974,green,4,NaN,572.793336331966,715.767577433584,NaN,NaN,915.767577433584,827.206663668034,1027.20666366803,484.232422566416,684.232422566416,372.793336331966,572.793336331966,715.767577433584,NaN,NaN,NaN,NaN,0,0,0,4,NaN,NaN,vertical,horizontal,vertical,vertical,none,none
1d,1,100206,1,4,4,22,F,NA,constant,homogeneous,5,absent,1.7352249622345,1,vertical,vertical,1,0.74117410047999,green,3,NaN,861.690083377915,352.574589799621,NaN,NaN,895.524681321058,836.431882914531,1054.37883281626,582.212099195248,861.690083377915,352.574589799621,583.747735480111,464.870587620533,604.658667004661,763.910840470068,NaN,NaN,0,0,4,0,0,NaN,horizontal,vertical,vertical,horizontal,horizontal,none
1d,1,100206,1,5,5,22,F,NA,constant,homogeneous,5,absent,0.993573188781738,1,vertical,vertical,1,0.999993284693304,green,2,NaN,983.431649086356,777.137884467044,NaN,NaN,688.215357568785,829.192481806288,983.431649086356,777.137884467044,1025.15163617903,480.284751489598,755.719714694933,348.874022981887,547.481642470899,564.510859255183,NaN,NaN,0,4,0,0,0,NaN,horizontal,vertical,horizontal,vertical,horizontal,none
1d,1,100206,1,6,6,22,F,NA,constant,homogeneous,3,absent,0.965301990509033,1,vertical,vertical,1,1.01175779306664,green,1,NaN,751.343706178981,850.314931779154,NaN,NaN,751.343706178981,850.314931779154,1041.10723677783,516.980120613425,607.549057043193,432.704947607421,NaN,NaN,NaN,NaN,NaN,NaN,4,0,0,NaN,NaN,NaN,vertical,vertical,vertical,none,none,none
1d,1,100206,1,7,7,22,F,NA,constant,homogeneous,6,absent,1.0964949131012,1,vertical,vertical,1,0.764703117226655,green,5,NaN,616.568350913644,422.862115532956,NaN,NaN,738.309916622085,847.425410200379,983.431649086356,777.137884467044,1045.12173246427,529.712474266665,861.690083377915,352.574589799621,616.568350913644,422.862115532956,554.878267535729,670.287525733335,0,0,0,0,4,0,vertical,vertical,horizontal,vertical,vertical,horizontal
1d,1,100206,1,8,8,22,F,NA,constant,homogeneous,4,absent,0.946638107299805,1,horizontal,horizontal,1,0.988228776319972,green,2,NaN,1054.37883281626,617.787900804752,NaN,NaN,782.212099195248,854.378832816255,1054.37883281626,617.787900804752,817.787900804752,345.621167183745,545.621167183745,582.212099195248,NaN,NaN,NaN,NaN,0,4,0,0,NaN,NaN,horizontal,horizontal,horizontal,vertical,none,none
1d,1,100206,1,9,9,22,F,NA,constant,homogeneous,4,absent,0.802447080612183,1,vertical,vertical,1,0.64705803349333,green,4,NaN,545.621167183745,582.212099195248,NaN,NaN,782.212099195248,854.378832816255,1054.37883281626,617.787900804752,817.787900804752,345.621167183745,545.621167183745,582.212099195248,NaN,NaN,NaN,NaN,0,0,0,4,NaN,NaN,vertical,vertical,vertical,vertical,none,none
1d,1,100206,1,10,10,22,F,NA,constant,homogeneous,6,present,1.24437808990479,0,vertical,horizontal,1,1.08234484330663,green,4,2,795.549636358493,345.03883773512,1023.02802532055,723.626453162816,804.450363641507,854.96116226488,1023.02802532055,723.626453162816,1018.57766167904,468.665290897936,795.549636358493,345.03883773512,576.971974679454,476.373546837184,581.422338320961,731.334709102064,0,0,0,4,0,0,horizontal,horizontal,vertical,vertical,vertical,vertical
1d,1,100206,1,11,11,22,F,NA,constant,homogeneous,6,absent,0.966711044311523,1,vertical,vertical,1,1.0705803349333,green,4,NaN,768.923317431687,346.900731331463,NaN,NaN,831.076682568313,853.099268668537,1034.72873763037,699.636437764765,1003.65205506206,446.537169096228,768.923317431687,346.900731331463,565.271262369628,500.363562235235,596.34794493794,753.462830903772,0,0,0,4,0,0,vertical,vertical,horizontal,vertical,vertical,vertical
1d,1,100206,1,12,12,22,F,NA,constant,homogeneous,5,present,0.991059064865112,1,vertical,vertical,1,0.847054675839982,green,3,2,844.280285305067,348.874022981887,1052.5183575291,564.510859255183,911.784642431215,829.192481806288,1052.5183575291,564.510859255183,844.280285305067,348.874022981887,574.848363820974,480.284751489598,616.568350913644,777.137884467044,NaN,NaN,0,0,4,0,0,NaN,horizontal,horizontal,vertical,horizontal,horizontal,none
1d,1,100206,1,13,13,22,F,NA,constant,homogeneous,5,absent,0.856778144836426,1,horizontal,horizontal,1,0.870583692586647,green,3,NaN,942.594190385041,388.595418998464,NaN,NaN,808.899371659138,854.844660889869,1045.12173246427,670.287525733335,942.594190385041,388.595418998464,643.006323791957,399.057257830286,560.378381699593,687.215136548046,NaN,NaN,0,0,4,0,0,NaN,horizontal,horizontal,horizontal,horizontal,horizontal,none
1d,1,100206,1,14,14,22,F,NA,constant,homogeneous,5,absent,1.1133930683136,1,horizontal,horizontal,1,0.78823213397332,green,1,NaN,650.114760665419,806.299333565612,NaN,NaN,650.114760665419,806.299333565612,949.885239334581,806.299333565612,1042.51941165526,521.200666434388,800,345,557.480588344736,521.200666434388,NaN,NaN,4,0,0,0,0,NaN,horizontal,vertical,vertical,vertical,horizontal,none
1d,1,100206,1,15,15,22,F,NA,constant,homogeneous,6,present,1.22703695297241,1,horizontal,horizontal,1,0.952935251199974,green,5,4,551.535633479765,542.637481142314,725.445215295702,356.142287229426,874.554784704298,843.857712770574,1048.46436652023,657.362518857686,973.909581815937,413.504806087112,725.445215295702,356.142287229426,551.535633479765,542.637481142314,626.090418184063,786.495193912888,0,0,0,0,4,0,horizontal,vertical,vertical,vertical,horizontal,horizontal
1d,1,100206,1,16,16,22,F,NA,constant,homogeneous,6,absent,0.825942993164062,1,vertical,vertical,1,0.717645083733325,green,4,NaN,684.232422566416,372.793336331966,NaN,NaN,915.767577433584,827.206663668034,1054.65053136242,613.345668841951,938.882953928832,386.139005173917,684.232422566416,372.793336331966,545.349468637584,586.654331158049,661.117046071168,813.860994826083,0,0,0,4,0,0,vertical,vertical,vertical,vertical,vertical,vertical
1d,1,100206,1,17,17,22,F,NA,constant,homogeneous,3,present,1.13443899154663,1,horizontal,horizontal,1,0.776467625599987,green,2,3,992.450942956807,432.704947607421,558.892763222174,516.980120613425,848.656293821019,850.314931779154,992.450942956807,432.704947607421,558.892763222174,516.980120613425,NaN,NaN,NaN,NaN,NaN,NaN,0,4,0,NaN,NaN,NaN,vertical,horizontal,horizontal,none,none,none
1d,1,100206,1,18,18,22,F,NA,constant,homogeneous,5,present,0.994237184524536,1,vertical,vertical,1,0.847054675839982,green,1,2,725.445215295702,843.857712770574,1008.88377129369,746.261991269517,725.445215295702,843.857712770574,1008.88377129369,746.261991269517,1003.65205506206,446.537169096228,716.980120613425,358.892763222174,545.03883773512,604.450363641507,NaN,NaN,4,0,0,0,0,NaN,vertical,vertical,horizontal,vertical,horizontal,none
1d,1,100206,1,19,19,22,F,NA,constant,homogeneous,6,absent,0.955743074417114,1,vertical,vertical,1,0.870583692586647,green,1,NaN,700.363562235235,834.728737630372,NaN,NaN,700.363562235235,834.728737630372,953.462830903772,803.65205506206,1053.09926866854,568.923317431687,899.636437764765,365.271262369628,646.537169096228,396.34794493794,546.900731331463,631.076682568313,4,0,0,0,0,0,vertical,horizontal,horizontal,horizontal,horizontal,horizontal
1d,1,100206,1,20,20,22,F,NA,constant,homogeneous,4,present,0.98045802116394,1,horizontal,horizontal,1,0.682351558613327,green,4,2,551.535633479765,657.362518857686,1048.46436652023,542.637481142314,857.362518857686,848.464366520235,1048.46436652023,542.637481142314,742.637481142314,351.535633479765,551.535633479765,657.362518857686,NaN,NaN,NaN,NaN,0,0,0,4,NaN,NaN,horizontal,horizontal,horizontal,horizontal,none,none
1d,1,100206,1,21,21,22,F,NA,constant,homogeneous,5,present,0.702960968017578,1,vertical,vertical,1,0.929406234453309,green,1,4,676.373546837184,823.028025320546,768.923317431687,346.900731331463,676.373546837184,823.028025320546,973.909581815937,786.495193912888,1031.10848569435,492.232343256122,768.923317431687,346.900731331463,549.685068220846,551.343706178981,NaN,NaN,4,0,0,0,0,NaN,vertical,vertical,vertical,vertical,horizontal,none
1d,1,100206,1,22,22,22,F,NA,constant,homogeneous,3,present,0.790566921234131,1,horizontal,horizontal,1,1.0705803349333,green,2,1,1032.95409169886,496.282156015671,773.345241866748,853.60308331891,773.345241866748,853.60308331891,1032.95409169886,496.282156015671,593.700666434388,450.114760665419,NaN,NaN,NaN,NaN,NaN,NaN,0,4,0,NaN,NaN,NaN,vertical,horizontal,vertical,none,none,none
1d,1,100206,1,23,23,22,F,NA,constant,homogeneous,4,present,0.832567930221558,1,vertical,vertical,1,0.894112709333312,green,3,2,839.890788585259,348.13947314824,1051.86052685176,639.890788585259,760.109211414741,851.86052685176,1051.86052685176,639.890788585259,839.890788585259,348.13947314824,548.13947314824,560.109211414741,NaN,NaN,NaN,NaN,0,0,4,0,NaN,NaN,horizontal,horizontal,vertical,vertical,none,none
1d,1,100206,1,24,24,22,F,NA,constant,homogeneous,3,absent,0.693192005157471,1,vertical,vertical,1,0.799996642346652,green,3,NaN,746.982518841471,350.57236181288,NaN,NaN,610.498069503264,770.628304621509,1042.51941165526,678.799333565612,746.982518841471,350.57236181288,NaN,NaN,NaN,NaN,NaN,NaN,0,0,4,NaN,NaN,NaN,horizontal,vertical,vertical,none,none,none
1d,1,100206,1,25,25,22,F,NA,constant,homogeneous,4,present,0.642415046691895,1,vertical,vertical,1,0.952935251199974,green,3,1,700.363562235235,365.271262369628,899.636437764765,834.728737630372,899.636437764765,834.728737630372,1034.72873763037,500.363562235235,700.363562235235,365.271262369628,565.271262369628,699.636437764765,NaN,NaN,NaN,NaN,0,0,4,0,NaN,NaN,horizontal,horizontal,vertical,horizontal,none,none
1d,1,100206,1,26,26,22,F,NA,constant,homogeneous,6,present,0.811398983001709,1,vertical,vertical,1,0.999993284693304,green,1,3,853.017481158529,849.42763818712,989.501930496736,429.371695378491,853.017481158529,849.42763818712,1042.51941165526,678.799333565612,989.501930496736,429.371695378491,746.982518841471,350.57236181288,557.480588344736,521.200666434388,610.498069503264,770.628304621509,4,0,0,0,0,0,vertical,horizontal,vertical,horizontal,horizontal,vertical
1d,1,100206,1,27,27,22,F,NA,constant,homogeneous,4,absent,0.918022155761719,1,horizontal,horizontal,1,0.69411606698666,green,4,NaN,565.271262369628,699.636437764765,NaN,NaN,899.636437764765,834.728737630372,1034.72873763037,500.363562235235,700.363562235235,365.271262369628,565.271262369628,699.636437764765,NaN,NaN,NaN,NaN,0,0,0,4,NaN,NaN,horizontal,horizontal,vertical,horizontal,none,none
1d,1,100206,1,28,28,22,F,NA,constant,homogeneous,3,present,0.693387985229492,1,vertical,vertical,1,1.04705131818663,green,3,1,546.39691668109,626.654758133252,949.885239334581,806.299333565612,949.885239334581,806.299333565612,903.717843984329,367.045908301137,546.39691668109,626.654758133252,NaN,NaN,NaN,NaN,NaN,NaN,0,0,4,NaN,NaN,NaN,vertical,vertical,vertical,none,none,none
1d,1,100206,1,29,29,22,F,NA,constant,homogeneous,6,present,0.871469974517822,1,horizontal,horizontal,1,1.01175779306664,green,3,4,931.334709102064,381.422338320961,676.373546837184,376.971974679454,923.626453162816,823.028025320546,1054.96116226488,604.450363641507,931.334709102064,381.422338320961,676.373546837184,376.971974679454,545.03883773512,595.549636358493,668.665290897936,818.577661679039,0,0,4,0,0,0,vertical,horizontal,horizontal,horizontal,vertical,horizontal
1d,1,100206,1,30,30,22,F,NA,constant,homogeneous,6,absent,0.798243045806885,1,horizontal,horizontal,1,1.04705131818663,green,2,NaN,1029.19248180629,711.784642431215,NaN,NaN,817.787900804752,854.378832816255,1029.19248180629,711.784642431215,1011.40458100154,457.40580961496,782.212099195248,345.621167183745,570.807518193712,488.215357568785,588.595418998464,742.594190385041,0,4,0,0,0,0,horizontal,horizontal,horizontal,vertical,vertical,vertical
1d,1,100206,1,31,31,22,F,NA,constant,homogeneous,4,absent,0.87458610534668,1,vertical,vertical,1,0.611764508373332,green,4,NaN,563.568117085469,504.475318678942,NaN,NaN,704.475318678942,836.431882914531,1036.43188291453,695.524681321058,895.524681321058,363.568117085469,563.568117085469,504.475318678942,NaN,NaN,NaN,NaN,0,0,0,4,NaN,NaN,horizontal,horizontal,vertical,vertical,none,none
1d,1,100206,1,32,32,22,F,NA,constant,homogeneous,3,absent,0.782695055007935,1,vertical,vertical,1,0.729409592106657,green,2,NaN,967.295052392579,407.549057043193,NaN,NaN,883.019879386575,841.107236777826,967.295052392579,407.549057043193,549.685068220846,551.343706178981,NaN,NaN,NaN,NaN,NaN,NaN,0,4,0,NaN,NaN,NaN,horizontal,vertical,horizontal,none,none,none
1d,1,100206,1,33,33,22,F,NA,constant,homogeneous,4,absent,0.67064905166626,1,horizontal,horizontal,1,1.01175779306664,green,4,NaN,556.142287229426,525.445215295702,NaN,NaN,725.445215295702,843.857712770574,1043.85771277057,674.554784704298,874.554784704298,356.142287229426,556.142287229426,525.445215295702,NaN,NaN,NaN,NaN,0,0,0,4,NaN,NaN,vertical,vertical,horizontal,horizontal,none,none
1d,1,100206,1,34,34,22,F,NA,constant,homogeneous,6,absent,0.742443799972534,1,horizontal,horizontal,1,0.894112709333312,green,6,NaN,570.807518193712,711.784642431215,NaN,NaN,782.212099195248,854.378832816255,1011.40458100154,742.594190385041,1029.19248180629,488.215357568785,817.787900804752,345.621167183745,588.595418998464,457.40580961496,570.807518193712,711.784642431215,0,0,0,0,0,4,vertical,vertical,vertical,vertical,horizontal,horizontal
1d,1,100206,1,35,35,22,F,NA,constant,homogeneous,3,present,1.52889609336853,1,vertical,vertical,1,0.964699759573307,green,3,2,746.982518841471,350.57236181288,1042.51941165526,678.799333565612,610.498069503264,770.628304621509,1042.51941165526,678.799333565612,746.982518841471,350.57236181288,NaN,NaN,NaN,NaN,NaN,NaN,0,0,4,NaN,NaN,NaN,vertical,vertical,vertical,none,none,none
1d,1,100206,1,36,36,22,F,NA,constant,homogeneous,6,absent,0.737056016921997,1,horizontal,horizontal,1,1.05881582655997,green,3,NaN,1048.46436652023,542.637481142314,NaN,NaN,725.445215295702,843.857712770574,973.909581815937,786.495193912888,1048.46436652023,542.637481142314,874.554784704298,356.142287229426,626.090418184063,413.504806087112,551.535633479765,657.362518857686,0,0,4,0,0,0,horizontal,horizontal,horizontal,vertical,horizontal,vertical
1d,1,100206,1,37,37,22,F,NA,constant,homogeneous,6,present,0.647788047790527,1,vertical,vertical,1,0.811761150719984,green,2,6,1016.25226451989,735.129412379467,574.848363820974,719.715248510402,791.100628340862,854.844660889869,1016.25226451989,735.129412379467,1025.15163617903,480.284751489598,808.899371659138,345.155339110131,583.747735480111,464.870587620533,574.848363820974,719.715248510402,0,4,0,0,0,0,vertical,vertical,horizontal,horizontal,horizontal,vertical
1d,1,100206,1,38,38,22,F,NA,constant,homogeneous,5,absent,0.881175994873047,1,horizontal,horizontal,1,1.01175779306664,green,3,NaN,865.998856501143,353.688914296288,NaN,NaN,891.383827134052,838.063008756786,1054.65053136242,586.654331158049,865.998856501143,353.688914296288,586.139005173917,461.117046071168,601.827779828472,760.476699717708,NaN,NaN,0,0,4,0,0,NaN,horizontal,vertical,horizontal,vertical,vertical,none
1d,1,100206,1,39,39,22,F,NA,constant,homogeneous,4,present,0.732109069824219,1,horizontal,horizontal,1,0.64705803349333,green,3,4,760.109211414741,348.13947314824,548.13947314824,639.890788585259,839.890788585259,851.86052685176,1051.86052685176,560.109211414741,760.109211414741,348.13947314824,548.13947314824,639.890788585259,NaN,NaN,NaN,NaN,0,0,4,0,NaN,NaN,vertical,horizontal,horizontal,vertical,none,none
1d,1,100206,1,40,40,22,F,NA,constant,homogeneous,3,present,0.68379807472229,1,horizontal,horizontal,1,0.635293525119997,green,1,2,1020.83647796503,727.5,800,345,1020.83647796503,727.5,800,345,579.163522034968,727.5,NaN,NaN,NaN,NaN,NaN,NaN,4,0,0,NaN,NaN,NaN,horizontal,horizontal,vertical,none,none,none
1d,1,100206,1,41,41,22,F,NA,constant,homogeneous,3,absent,0.761934995651245,1,horizontal,horizontal,1,0.611764508373332,green,1,NaN,593.700666434388,749.885239334581,NaN,NaN,593.700666434388,749.885239334581,1032.95409169886,703.717843984329,773.345241866748,346.39691668109,NaN,NaN,NaN,NaN,NaN,NaN,4,0,0,NaN,NaN,NaN,horizontal,vertical,horizontal,none,none,none
1d,1,100206,1,42,42,22,F,NA,constant,homogeneous,5,present,0.970396995544434,1,vertical,vertical,1,1.05881582655997,green,3,4,804.450363641507,345.03883773512,558.892763222174,516.980120613425,946.261991269517,808.883771293693,1043.85771277057,525.445215295702,804.450363641507,345.03883773512,558.892763222174,516.980120613425,646.537169096228,803.65205506206,NaN,NaN,0,0,4,0,0,NaN,horizontal,vertical,vertical,vertical,vertical,none
1d,1,100206,1,43,43,22,F,NA,constant,homogeneous,4,present,0.758888006210327,1,vertical,vertical,1,0.83529016746665,green,3,1,668.665290897936,381.422338320961,931.334709102064,818.577661679039,931.334709102064,818.577661679039,1018.57766167904,468.665290897936,668.665290897936,381.422338320961,581.422338320961,731.334709102064,NaN,NaN,NaN,NaN,0,0,4,0,NaN,NaN,vertical,vertical,vertical,horizontal,none,none
1d,1,100206,1,44,44,22,F,NA,constant,homogeneous,4,absent,0.707332134246826,1,vertical,vertical,1,0.870583692586647,green,1,NaN,938.882953928832,813.860994826083,NaN,NaN,938.882953928832,813.860994826083,1013.86099482608,461.117046071168,661.117046071168,386.139005173917,586.139005173917,738.882953928832,NaN,NaN,NaN,NaN,4,0,0,0,NaN,NaN,vertical,horizontal,horizontal,vertical,none,none
1d,1,100206,1,45,45,22,F,NA,constant,homogeneous,6,absent,0.747952938079834,1,horizontal,horizontal,1,0.705880575359992,green,2,NaN,1018.57766167904,731.334709102064,NaN,NaN,795.549636358493,854.96116226488,1018.57766167904,731.334709102064,1023.02802532055,476.373546837184,804.450363641507,345.03883773512,581.422338320961,468.665290897936,576.971974679454,723.626453162816,0,4,0,0,0,0,vertical,horizontal,horizontal,vertical,horizontal,horizontal
1d,1,100206,1,46,46,22,F,NA,constant,homogeneous,3,absent,1.35921788215637,1,horizontal,horizontal,1,0.611764508373332,green,1,NaN,704.475318678942,836.431882914531,NaN,NaN,704.475318678942,836.431882914531,1052.5183575291,564.510859255183,643.006323791957,399.057257830286,NaN,NaN,NaN,NaN,NaN,NaN,4,0,0,NaN,NaN,NaN,horizontal,vertical,horizontal,none,none,none
1d,1,100206,1,47,47,22,F,NA,constant,homogeneous,5,present,1.06040811538696,1,horizontal,horizontal,1,1.09410935167996,green,4,5,581.422338320961,468.665290897936,607.549057043193,767.295052392579,899.636437764765,834.728737630372,1054.0296480134,577.775285599347,857.362518857686,351.535633479765,581.422338320961,468.665290897936,607.549057043193,767.295052392579,NaN,NaN,0,0,0,4,0,NaN,horizontal,horizontal,horizontal,horizontal,vertical,none
1d,1,100206,1,48,48,22,F,NA,constant,homogeneous,3,absent,0.663629055023193,1,vertical,vertical,1,1.09410935167996,green,2,NaN,1054.37883281626,617.787900804752,NaN,NaN,657.405809614959,811.404581001536,1054.37883281626,617.787900804752,688.215357568785,370.807518193712,NaN,NaN,NaN,NaN,NaN,NaN,0,4,0,NaN,NaN,NaN,horizontal,vertical,vertical,none,none,none
1d,1,100206,1,49,49,22,F,NA,constant,homogeneous,3,present,0.610703945159912,1,vertical,vertical,1,1.0705803349333,green,2,1,1025.15163617903,480.284751489598,791.100628340862,854.844660889869,791.100628340862,854.844660889869,1025.15163617903,480.284751489598,583.747735480111,464.870587620533,NaN,NaN,NaN,NaN,NaN,NaN,0,4,0,NaN,NaN,NaN,vertical,vertical,horizontal,none,none,none
1d,1,100206,1,50,50,22,F,NA,constant,homogeneous,6,present,1.07097291946411,1,horizontal,horizontal,1,0.988228776319972,green,5,1,622.862115532956,416.568350913644,729.712474266665,845.121732464271,729.712474266665,845.121732464271,977.137884467044,783.431649086356,1047.42541020038,538.309916622085,870.287525733335,354.878267535729,622.862115532956,416.568350913644,552.574589799621,661.690083377915,0,0,0,0,4,0,vertical,horizontal,horizontal,vertical,horizontal,horizontal
1d,1,100206,1,51,51,22,F,NA,constant,homogeneous,3,absent,0.664362907409668,1,horizontal,horizontal,1,0.988228776319972,green,1,NaN,610.498069503264,770.628304621509,NaN,NaN,610.498069503264,770.628304621509,1042.51941165526,678.799333565612,746.982518841471,350.57236181288,NaN,NaN,NaN,NaN,NaN,NaN,4,0,0,NaN,NaN,NaN,horizontal,horizontal,horizontal,none,none,none
1d,1,100206,1,52,52,22,F,NA,constant,homogeneous,6,present,0.497338056564331,1,vertical,vertical,1,0.976464267946639,green,2,5,942.594190385041,811.404581001536,657.405809614959,388.595418998464,688.215357568785,829.192481806288,942.594190385041,811.404581001536,1054.37883281626,582.212099195248,911.784642431215,370.807518193712,657.405809614959,388.595418998464,545.621167183745,617.787900804752,0,4,0,0,0,0,horizontal,vertical,vertical,vertical,vertical,vertical
1d,1,100206,1,53,53,22,F,NA,constant,homogeneous,4,absent,0.421087026596069,1,horizontal,horizontal,1,0.682351558613327,green,4,NaN,616.568350913644,777.137884467044,NaN,NaN,977.137884467044,783.431649086356,983.431649086356,422.862115532956,622.862115532956,416.568350913644,616.568350913644,777.137884467044,NaN,NaN,NaN,NaN,0,0,0,4,NaN,NaN,vertical,horizontal,horizontal,horizontal,none,none
1d,1,100206,1,54,54,22,F,NA,constant,homogeneous,5,present,0.711065053939819,1,horizontal,horizontal,1,0.870583692586647,green,3,4,835.489140744817,347.4816424709,570.807518193712,488.215357568785,919.715248510402,825.151636179026,1051.12597701811,555.719714694933,835.489140744817,347.4816424709,570.807518193712,488.215357568785,622.862115532956,783.431649086356,NaN,NaN,0,0,4,0,0,NaN,vertical,vertical,horizontal,vertical,horizontal,none
1d,1,100206,1,55,55,22,F,NA,constant,homogeneous,4,present,0.900292158126831,1,vertical,vertical,1,0.941170742826642,green,3,4,725.445215295702,356.142287229426,556.142287229426,674.554784704298,874.554784704298,843.857712770574,1043.85771277057,525.445215295702,725.445215295702,356.142287229426,556.142287229426,674.554784704298,NaN,NaN,NaN,NaN,0,0,4,0,NaN,NaN,horizontal,vertical,vertical,vertical,none,none
1d,1,100206,1,56,56,22,F,NA,constant,homogeneous,5,absent,0.928993940353394,1,horizontal,horizontal,1,0.929406234453309,green,1,NaN,919.715248510402,825.151636179026,NaN,NaN,919.715248510402,825.151636179026,1051.12597701811,555.719714694933,835.489140744817,347.4816424709,570.807518193712,488.215357568785,622.862115532956,783.431649086356,NaN,NaN,4,0,0,0,0,NaN,horizontal,vertical,vertical,vertical,vertical,none
1d,1,100206,1,57,57,22,F,NA,constant,homogeneous,5,absent,0.64015793800354,1,vertical,vertical,1,0.611764508373332,green,5,NaN,551.535633479765,657.362518857686,NaN,NaN,777.775285599347,854.029648013395,1034.72873763037,699.636437764765,967.295052392579,407.549057043193,668.665290897936,381.422338320961,551.535633479765,657.362518857686,NaN,NaN,0,0,0,0,4,NaN,horizontal,vertical,vertical,horizontal,vertical,none
1d,1,100206,1,58,58,22,F,NA,constant,homogeneous,5,present,0.890030860900879,1,horizontal,horizontal,1,0.847054675839982,green,4,3,795.549636358493,345.03883773512,1041.10723677783,516.980120613425,653.738008730483,808.883771293693,953.462830903772,803.65205506206,1041.10723677783,516.980120613425,795.549636358493,345.03883773512,556.142287229426,525.445215295702,NaN,NaN,0,0,0,4,0,NaN,vertical,vertical,horizontal,horizontal,horizontal,none
1d,1,100206,1,59,59,22,F,NA,constant,homogeneous,5,absent,1.17782497406006,1,vertical,vertical,1,0.705880575359992,green,5,NaN,553.688914296288,534.001143498857,NaN,NaN,661.117046071168,813.860994826083,960.476699717708,798.172220171528,1038.06300875679,508.616172865948,786.654331158049,345.349468637584,553.688914296288,534.001143498857,NaN,NaN,0,0,0,0,4,NaN,vertical,vertical,vertical,horizontal,vertical,none
1d,1,100206,1,60,60,22,F,NA,constant,homogeneous,3,absent,0.687512874603271,1,horizontal,horizontal,1,1.09410935167996,green,1,NaN,946.261991269517,808.883771293693,NaN,NaN,946.261991269517,808.883771293693,907.767656743878,368.891514305654,545.970351986605,622.224714400653,NaN,NaN,NaN,NaN,NaN,NaN,4,0,0,NaN,NaN,NaN,horizontal,horizontal,vertical,none,none,none
1d,1,100206,1,61,61,22,F,NA,constant,homogeneous,5,present,1.01006817817688,1,horizontal,horizontal,1,0.623529016746665,green,5,1,581.422338320961,731.334709102064,857.362518857686,848.464366520235,857.362518857686,848.464366520235,1054.0296480134,622.224714400653,899.636437764765,365.271262369628,607.549057043193,432.704947607421,581.422338320961,731.334709102064,NaN,NaN,0,0,0,0,4,NaN,horizontal,horizontal,vertical,vertical,horizontal,none
1d,1,100206,1,62,62,22,F,NA,constant,homogeneous,3,present,0.722146034240723,1,vertical,vertical,1,0.78823213397332,green,2,1,1034.72873763037,699.636437764765,596.34794493794,753.462830903772,596.34794493794,753.462830903772,1034.72873763037,699.636437764765,768.923317431687,346.900731331463,NaN,NaN,NaN,NaN,NaN,NaN,0,4,0,NaN,NaN,NaN,horizontal,vertical,vertical,none,none,none
1d,1,100206,1,63,63,22,F,NA,constant,homogeneous,4,present,0.654716968536377,0,horizontal,vertical,1,0.705880575359992,green,2,4,1048.46436652023,657.362518857686,551.535633479765,542.637481142314,742.637481142314,848.464366520235,1048.46436652023,657.362518857686,857.362518857686,351.535633479765,551.535633479765,542.637481142314,NaN,NaN,NaN,NaN,0,4,0,0,NaN,NaN,horizontal,horizontal,horizontal,vertical,none,none
1d,1,100206,1,64,64,22,F,NA,constant,homogeneous,3,present,0.780522108078003,1,horizontal,horizontal,1,0.623529016746665,green,1,2,848.656293821019,850.314931779154,992.450942956807,432.704947607421,848.656293821019,850.314931779154,992.450942956807,432.704947607421,558.892763222174,516.980120613425,NaN,NaN,NaN,NaN,NaN,NaN,4,0,0,NaN,NaN,NaN,horizontal,vertical,vertical,none,none,none
1d,1,100206,2,1,65,22,F,NA,constant,homogeneous,5,absent,1.24009203910828,1,vertical,vertical,1,0.635293525119997,green,1,NaN,782.212099195248,854.378832816255,NaN,NaN,782.212099195248,854.378832816255,1036.43188291453,695.524681321058,963.910840470068,404.658667004661,664.870587620533,383.747735480111,552.574589799621,661.690083377915,NaN,NaN,4,0,0,0,0,NaN,vertical,horizontal,vertical,horizontal,horizontal,none
1d,1,100206,2,2,66,22,F,NA,constant,homogeneous,5,present,1.06036186218262,1,horizontal,horizontal,1,0.764703117226655,green,2,3,980.31222920257,780.31222920257,1027.20666366803,484.232422566416,684.232422566416,827.206663668034,980.31222920257,780.31222920257,1027.20666366803,484.232422566416,760.109211414741,348.13947314824,548.13947314824,560.109211414741,NaN,NaN,0,4,0,0,0,NaN,vertical,horizontal,horizontal,vertical,horizontal,none
1d,1,100206,2,3,67,22,F,NA,constant,homogeneous,6,present,0.504471063613892,1,horizontal,horizontal,1,0.941170742826642,green,2,6,998.172220171528,760.476699717708,561.936991243214,691.383827134052,760.109211414741,851.86052685176,998.172220171528,760.476699717708,1038.06300875679,508.616172865948,839.890788585259,348.13947314824,601.827779828472,439.523300282291,561.936991243214,691.383827134052,0,4,0,0,0,0,horizontal,horizontal,vertical,horizontal,horizontal,horizontal
1d,1,100206,2,4,68,22,F,NA,constant,homogeneous,6,present,0.756798982620239,1,horizontal,horizontal,1,1.09410935167996,green,5,3,601.827779828472,439.523300282291,1038.06300875679,508.616172865948,760.109211414741,851.86052685176,998.172220171528,760.476699717708,1038.06300875679,508.616172865948,839.890788585259,348.13947314824,601.827779828472,439.523300282291,561.936991243214,691.383827134052,0,0,0,0,4,0,horizontal,vertical,horizontal,horizontal,horizontal,vertical
1d,1,100206,2,5,69,22,F,NA,constant,homogeneous,4,absent,0.606223106384277,1,vertical,vertical,1,0.905877217706644,green,4,NaN,549.685068220846,551.343706178981,NaN,NaN,751.343706178981,850.314931779154,1050.31493177915,648.656293821019,848.656293821019,349.685068220846,549.685068220846,551.343706178981,NaN,NaN,NaN,NaN,0,0,0,4,NaN,NaN,horizontal,horizontal,vertical,vertical,none,none
1d,1,100206,2,6,70,22,F,NA,constant,homogeneous,4,present,0.628353834152222,1,vertical,vertical,1,0.894112709333312,green,3,4,668.665290897936,381.422338320961,581.422338320961,731.334709102064,931.334709102064,818.577661679039,1018.57766167904,468.665290897936,668.665290897936,381.422338320961,581.422338320961,731.334709102064,NaN,NaN,NaN,NaN,0,0,4,0,NaN,NaN,horizontal,vertical,vertical,vertical,none,none
1d,1,100206,2,7,71,22,F,NA,constant,homogeneous,4,absent,0.627819061279297,1,vertical,vertical,1,0.74117410047999,green,1,NaN,636.089159529932,795.341332995339,NaN,NaN,636.089159529932,795.341332995339,995.341332995339,763.910840470068,963.910840470068,404.658667004661,604.658667004661,436.089159529932,NaN,NaN,NaN,NaN,4,0,0,0,NaN,NaN,vertical,horizontal,horizontal,horizontal,none,none
1d,1,100206,2,8,72,22,F,NA,constant,homogeneous,3,absent,0.477766036987305,1,vertical,vertical,1,1.05881582655997,green,2,NaN,992.450942956807,432.704947607421,NaN,NaN,848.656293821019,850.314931779154,992.450942956807,432.704947607421,558.892763222174,516.980120613425,NaN,NaN,NaN,NaN,NaN,NaN,0,4,0,NaN,NaN,NaN,horizontal,vertical,vertical,none,none,none
1d,1,100206,2,9,73,22,F,NA,constant,homogeneous,6,absent,0.512756109237671,1,horizontal,horizontal,1,0.658822541866662,green,3,NaN,1051.12597701811,555.719714694933,NaN,NaN,712.784863451954,839.621618300407,963.910840470068,795.341332995339,1051.12597701811,555.719714694933,887.215136548046,360.378381699593,636.089159529932,404.658667004661,548.874022981887,644.280285305067,0,0,4,0,0,0,vertical,horizontal,horizontal,vertical,vertical,horizontal
1d,1,100206,2,10,74,22,F,NA,constant,homogeneous,3,absent,0.461354970932007,0,vertical,horizontal,1,0.717645083733325,green,2,NaN,1049.42763818712,546.982518841471,NaN,NaN,721.200666434388,842.519411655264,1049.42763818712,546.982518841471,629.371695378491,410.498069503264,NaN,NaN,NaN,NaN,NaN,NaN,0,4,0,NaN,NaN,NaN,vertical,vertical,vertical,none,none,none
1d,1,100206,2,11,75,22,F,NA,constant,homogeneous,3,absent,0.673611879348755,1,vertical,vertical,1,0.74117410047999,green,1,NaN,650.114760665419,806.299333565612,NaN,NaN,650.114760665419,806.299333565612,1053.60308331891,626.654758133252,696.282156015671,367.045908301137,NaN,NaN,NaN,NaN,NaN,NaN,4,0,0,NaN,NaN,NaN,vertical,vertical,vertical,none,none,none
1d,1,100206,2,12,76,22,F,NA,constant,homogeneous,6,absent,0.518051862716675,1,vertical,vertical,1,0.729409592106657,green,2,NaN,1046.31108570371,665.998856501143,NaN,NaN,865.998856501143,846.311085703712,1046.31108570371,665.998856501143,980.31222920257,419.68777079743,734.001143498857,353.688914296288,553.688914296288,534.001143498857,619.68777079743,780.31222920257,0,4,0,0,0,0,horizontal,vertical,vertical,vertical,vertical,horizontal
1d,1,100206,2,13,77,22,F,NA,constant,homogeneous,6,absent,0.66133713722229,1,horizontal,horizontal,1,0.64705803349333,green,2,NaN,1027.20666366803,715.767577433584,NaN,NaN,813.345668841951,854.650531362416,1027.20666366803,715.767577433584,1013.86099482608,461.117046071168,786.654331158049,345.349468637584,572.793336331966,484.232422566416,586.139005173917,738.882953928832,0,4,0,0,0,0,vertical,horizontal,horizontal,horizontal,horizontal,vertical
1d,1,100206,2,14,78,22,F,NA,constant,homogeneous,6,present,1.00326204299927,1,vertical,vertical,1,0.611764508373332,green,1,5,782.212099195248,854.378832816255,588.595418998464,457.40580961496,782.212099195248,854.378832816255,1011.40458100154,742.594190385041,1029.19248180629,488.215357568785,817.787900804752,345.621167183745,588.595418998464,457.40580961496,570.807518193712,711.784642431215,4,0,0,0,0,0,vertical,vertical,horizontal,vertical,horizontal,vertical
1d,1,100206,2,15,79,22,F,NA,constant,homogeneous,6,present,0.751890897750854,1,horizontal,horizontal,1,1.02352230143997,green,4,1,791.100628340862,345.155339110131,808.899371659138,854.844660889869,808.899371659138,854.844660889869,1025.15163617903,719.715248510402,1016.25226451989,464.870587620533,791.100628340862,345.155339110131,574.848363820974,480.284751489598,583.747735480111,735.129412379467,0,0,0,4,0,0,horizontal,horizontal,horizontal,horizontal,vertical,vertical
1d,1,100206,2,16,80,22,F,NA,constant,homogeneous,4,present,0.608498096466064,1,vertical,vertical,1,0.858819184213314,green,1,2,782.212099195248,854.378832816255,1054.37883281626,617.787900804752,782.212099195248,854.378832816255,1054.37883281626,617.787900804752,817.787900804752,345.621167183745,545.621167183745,582.212099195248,NaN,NaN,NaN,NaN,4,0,0,0,NaN,NaN,vertical,horizontal,horizontal,horizontal,none,none
1d,1,100206,2,17,81,22,F,NA,constant,homogeneous,5,present,0.563008069992065,1,vertical,vertical,1,0.729409592106657,green,3,1,1038.06300875679,508.616172865948,661.117046071168,813.860994826083,661.117046071168,813.860994826083,960.476699717708,798.172220171528,1038.06300875679,508.616172865948,786.654331158049,345.349468637584,553.688914296288,534.001143498857,NaN,NaN,0,0,4,0,0,NaN,horizontal,vertical,vertical,horizontal,vertical,none
1d,1,100206,2,18,82,22,F,NA,constant,homogeneous,6,absent,0.481301069259644,1,horizontal,horizontal,1,0.74117410047999,green,4,NaN,680.284751489598,374.848363820974,NaN,NaN,919.715248510402,825.151636179026,1054.84466088987,608.899371659138,935.129412379467,383.747735480111,680.284751489598,374.848363820974,545.155339110131,591.100628340862,664.870587620533,816.252264519889,0,0,0,4,0,0,vertical,vertical,horizontal,horizontal,vertical,horizontal
1d,1,100206,2,19,83,22,F,NA,constant,homogeneous,4,present,0.71254301071167,1,horizontal,horizontal,1,0.858819184213314,green,2,3,1054.37883281626,617.787900804752,817.787900804752,345.621167183745,782.212099195248,854.378832816255,1054.37883281626,617.787900804752,817.787900804752,345.621167183745,545.621167183745,582.212099195248,NaN,NaN,NaN,NaN,0,4,0,0,NaN,NaN,horizontal,horizontal,vertical,vertical,none,none
1d,1,100206,2,20,84,22,F,NA,constant,homogeneous,5,present,0.559254884719849,1,horizontal,horizontal,1,0.811761150719984,green,1,2,822.224714400653,854.029648013395,1048.46436652023,657.362518857686,822.224714400653,854.029648013395,1048.46436652023,657.362518857686,931.334709102064,381.422338320961,632.704947607421,407.549057043193,565.271262369628,699.636437764765,NaN,NaN,4,0,0,0,0,NaN,horizontal,vertical,horizontal,vertical,vertical,none
1d,1,100206,2,21,85,22,F,NA,constant,homogeneous,3,absent,0.592020034790039,1,horizontal,horizontal,1,1.08234484330663,green,1,NaN,734.001143498857,846.311085703712,NaN,NaN,734.001143498857,846.311085703712,1046.31108570371,534.001143498857,619.68777079743,419.68777079743,NaN,NaN,NaN,NaN,NaN,NaN,4,0,0,NaN,NaN,NaN,horizontal,horizontal,horizontal,none,none,none
1d,1,100206,2,22,86,22,F,NA,constant,homogeneous,4,present,0.523715019226074,1,horizontal,horizontal,1,0.988228776319972,green,1,3,953.462830903772,803.65205506206,646.537169096228,396.34794493794,953.462830903772,803.65205506206,1003.65205506206,446.537169096228,646.537169096228,396.34794493794,596.34794493794,753.462830903772,NaN,NaN,NaN,NaN,4,0,0,0,NaN,NaN,horizontal,vertical,horizontal,horizontal,none,none
1d,1,100206,2,23,87,22,F,NA,constant,homogeneous,6,absent,0.558418989181519,1,vertical,vertical,1,1.01175779306664,green,4,NaN,742.637481142314,351.535633479765,NaN,NaN,857.362518857686,848.464366520235,1043.85771277057,674.554784704298,986.495193912888,426.090418184063,742.637481142314,351.535633479765,556.142287229426,525.445215295702,613.504806087112,773.909581815937,0,0,0,4,0,0,horizontal,vertical,horizontal,vertical,vertical,vertical
1d,1,100206,2,24,88,22,F,NA,constant,homogeneous,6,absent,0.676293134689331,1,vertical,vertical,1,0.717645083733325,green,1,NaN,899.636437764765,834.728737630372,NaN,NaN,899.636437764765,834.728737630372,1053.09926866854,631.076682568313,953.462830903772,396.34794493794,700.363562235235,365.271262369628,546.900731331463,568.923317431687,646.537169096228,803.65205506206,4,0,0,0,0,0,vertical,horizontal,vertical,vertical,horizontal,vertical
1d,1,100206,2,25,89,22,F,NA,constant,homogeneous,3,absent,0.482994079589844,1,horizontal,horizontal,1,0.847054675839982,green,1,NaN,586.139005173917,738.882953928832,NaN,NaN,586.139005173917,738.882953928832,1027.20666366803,715.767577433584,786.654331158049,345.349468637584,NaN,NaN,NaN,NaN,NaN,NaN,4,0,0,NaN,NaN,NaN,horizontal,horizontal,horizontal,none,none,none
1d,1,100206,2,26,90,22,F,NA,constant,homogeneous,5,present,0.693438053131104,0,vertical,horizontal,1,1.02352230143997,green,5,3,546.900731331463,631.076682568313,986.495193912888,426.090418184063,751.343706178981,850.314931779154,1023.02802532055,723.626453162816,986.495193912888,426.090418184063,692.232343256122,368.891514305654,546.900731331463,631.076682568313,NaN,NaN,0,0,0,0,4,NaN,vertical,vertical,vertical,horizontal,vertical,none
1d,1,100206,2,27,91,22,F,NA,constant,homogeneous,3,present,0.628401041030884,0,horizontal,vertical,1,1.04705131818663,green,2,1,1023.02802532055,723.626453162816,581.422338320961,731.334709102064,581.422338320961,731.334709102064,1023.02802532055,723.626453162816,795.549636358493,345.03883773512,NaN,NaN,NaN,NaN,NaN,NaN,0,4,0,NaN,NaN,NaN,horizontal,horizontal,vertical,none,none,none
1d,1,100206,2,28,92,22,F,NA,constant,homogeneous,6,present,0.674588918685913,1,vertical,vertical,1,1.0705803349333,green,2,3,931.334709102064,818.577661679039,1054.96116226488,595.549636358493,676.373546837184,823.028025320546,931.334709102064,818.577661679039,1054.96116226488,595.549636358493,923.626453162816,376.971974679454,668.665290897936,381.422338320961,545.03883773512,604.450363641507,0,4,0,0,0,0,horizontal,vertical,vertical,vertical,vertical,horizontal
1d,1,100206,2,29,93,22,F,NA,constant,homogeneous,3,present,0.733959913253784,1,vertical,vertical,1,0.682351558613327,green,2,1,1020.83647796503,472.5,800,855,800,855,1020.83647796503,472.5,579.163522034968,472.5,NaN,NaN,NaN,NaN,NaN,NaN,0,4,0,NaN,NaN,NaN,horizontal,vertical,vertical,none,none,none
1d,1,100206,2,30,94,22,F,NA,constant,homogeneous,4,absent,0.714733839035034,1,horizontal,horizontal,1,1.09410935167996,green,3,NaN,696.282156015671,367.045908301137,NaN,NaN,903.717843984329,832.954091698863,1032.95409169886,496.282156015671,696.282156015671,367.045908301137,567.045908301137,703.717843984329,NaN,NaN,NaN,NaN,0,0,4,0,NaN,NaN,vertical,vertical,horizontal,horizontal,none,none
1d,1,100206,2,31,95,22,F,NA,constant,homogeneous,5,absent,0.900837182998657,1,vertical,vertical,1,0.999993284693304,green,3,NaN,942.594190385041,388.595418998464,NaN,NaN,808.899371659138,854.844660889869,1045.12173246427,670.287525733335,942.594190385041,388.595418998464,643.006323791957,399.057257830286,560.378381699593,687.215136548046,NaN,NaN,0,0,4,0,0,NaN,horizontal,horizontal,vertical,vertical,vertical,none
1d,1,100206,2,32,96,22,F,NA,constant,homogeneous,3,absent,0.733850955963135,1,horizontal,horizontal,1,0.74117410047999,green,3,NaN,708.616172865948,361.936991243214,NaN,NaN,639.523300282292,798.172220171528,1051.86052685176,639.890788585259,708.616172865948,361.936991243214,NaN,NaN,NaN,NaN,NaN,NaN,0,0,4,NaN,NaN,NaN,vertical,horizontal,horizontal,none,none,none
1d,1,100206,2,33,97,22,F,NA,constant,homogeneous,4,present,0.795261144638062,1,vertical,vertical,1,0.917641726079977,green,4,1,552.574589799621,661.690083377915,861.690083377915,847.425410200379,861.690083377915,847.425410200379,1047.42541020038,538.309916622085,738.309916622085,352.574589799621,552.574589799621,661.690083377915,NaN,NaN,NaN,NaN,0,0,0,4,NaN,NaN,horizontal,horizontal,horizontal,vertical,none,none
1d,1,100206,2,34,98,22,F,NA,constant,homogeneous,5,present,0.691615104675293,1,horizontal,horizontal,1,0.823525659093317,green,5,3,549.685068220846,551.343706178981,1031.10848569435,492.232343256122,676.373546837184,823.028025320546,973.909581815937,786.495193912888,1031.10848569435,492.232343256122,768.923317431687,346.900731331463,549.685068220846,551.343706178981,NaN,NaN,0,0,0,0,4,NaN,vertical,horizontal,vertical,vertical,horizontal,none
1d,1,100206,2,35,99,22,F,NA,constant,homogeneous,5,absent,1.05033898353577,1,horizontal,horizontal,1,0.635293525119997,green,1,NaN,777.775285599347,854.029648013395,NaN,NaN,777.775285599347,854.029648013395,1034.72873763037,699.636437764765,967.295052392579,407.549057043193,668.665290897936,381.422338320961,551.535633479765,657.362518857686,NaN,NaN,4,0,0,0,0,NaN,horizontal,horizontal,vertical,vertical,horizontal,none
1d,1,100206,2,36,100,22,F,NA,constant,homogeneous,3,absent,0.806018114089966,1,horizontal,horizontal,1,0.929406234453309,green,2,NaN,1047.42541020038,538.309916622085,NaN,NaN,729.712474266665,845.121732464271,1047.42541020038,538.309916622085,622.862115532956,416.568350913644,NaN,NaN,NaN,NaN,NaN,NaN,0,4,0,NaN,NaN,NaN,horizontal,horizontal,vertical,none,none,none
1d,1,100206,2,37,101,22,F,NA,constant,homogeneous,3,present,0.57536792755127,1,horizontal,horizontal,1,1.05881582655997,green,3,2,570.807518193712,488.215357568785,1011.40458100154,457.40580961496,817.787900804752,854.378832816255,1011.40458100154,457.40580961496,570.807518193712,488.215357568785,NaN,NaN,NaN,NaN,NaN,NaN,0,0,4,NaN,NaN,NaN,vertical,vertical,horizontal,none,none,none
1d,1,100206,2,38,102,22,F,NA,constant,homogeneous,5,present,0.768112182617188,1,horizontal,horizontal,1,1.0352868098133,green,1,2,708.616172865948,838.063008756786,998.172220171528,760.476699717708,708.616172865948,838.063008756786,998.172220171528,760.476699717708,1013.86099482608,461.117046071168,734.001143498857,353.688914296288,545.349468637584,586.654331158049,NaN,NaN,4,0,0,0,0,NaN,horizontal,vertical,horizontal,horizontal,vertical,none
1d,1,100206,2,39,103,22,F,NA,constant,homogeneous,4,absent,0.724365949630737,1,vertical,vertical,1,0.635293525119997,green,4,NaN,545.155339110131,591.100628340862,NaN,NaN,791.100628340862,854.844660889869,1054.84466088987,608.899371659138,808.899371659138,345.155339110131,545.155339110131,591.100628340862,NaN,NaN,NaN,NaN,0,0,0,4,NaN,NaN,horizontal,horizontal,vertical,vertical,none,none
1d,1,100206,2,40,104,22,F,NA,constant,homogeneous,4,present,0.667233943939209,1,vertical,vertical,1,0.623529016746665,green,4,1,568.891514305654,492.232343256122,692.232343256122,831.108485694346,692.232343256122,831.108485694346,1031.10848569435,707.767656743878,907.767656743878,368.891514305654,568.891514305654,492.232343256122,NaN,NaN,NaN,NaN,0,0,0,4,NaN,NaN,horizontal,horizontal,horizontal,vertical,none,none
1d,1,100206,2,41,105,22,F,NA,constant,homogeneous,3,present,0.636286973953247,1,vertical,vertical,1,0.976464267946639,green,2,1,1054.96116226488,595.549636358493,676.373546837184,823.028025320546,676.373546837184,823.028025320546,1054.96116226488,595.549636358493,668.665290897936,381.422338320961,NaN,NaN,NaN,NaN,NaN,NaN,0,4,0,NaN,NaN,NaN,horizontal,vertical,vertical,none,none,none
1d,1,100206,2,42,106,22,F,NA,constant,homogeneous,5,absent,0.761982917785645,1,horizontal,horizontal,1,0.83529016746665,green,1,NaN,755.719714694933,851.125977018113,NaN,NaN,755.719714694933,851.125977018113,1025.15163617903,719.715248510402,983.431649086356,422.862115532956,688.215357568785,370.807518193712,547.481642470899,635.489140744817,NaN,NaN,4,0,0,0,0,NaN,horizontal,horizontal,vertical,vertical,vertical,none
1d,1,100206,2,43,107,22,F,NA,constant,homogeneous,4,present,0.695003986358643,1,horizontal,horizontal,1,0.894112709333312,green,3,4,946.261991269517,391.116228706307,591.116228706307,453.738008730483,653.738008730483,808.883771293693,1008.88377129369,746.261991269517,946.261991269517,391.116228706307,591.116228706307,453.738008730483,NaN,NaN,NaN,NaN,0,0,4,0,NaN,NaN,vertical,vertical,horizontal,vertical,none,none
1d,1,100206,2,44,108,22,F,NA,constant,homogeneous,6,present,0.63285493850708,1,vertical,vertical,1,0.764703117226655,green,2,5,1053.09926866854,631.076682568313,546.900731331463,568.923317431687,899.636437764765,834.728737630372,1053.09926866854,631.076682568313,953.462830903772,396.34794493794,700.363562235235,365.271262369628,546.900731331463,568.923317431687,646.537169096228,803.65205506206,0,4,0,0,0,0,vertical,vertical,horizontal,vertical,horizontal,horizontal
1d,1,100206,2,45,109,22,F,NA,constant,homogeneous,3,present,0.679427146911621,1,vertical,vertical,1,1.09410935167996,green,2,1,1053.60308331891,573.345241866748,696.282156015671,832.954091698863,696.282156015671,832.954091698863,1053.60308331891,573.345241866748,650.114760665419,393.700666434388,NaN,NaN,NaN,NaN,NaN,NaN,0,4,0,NaN,NaN,NaN,horizontal,vertical,vertical,none,none,none
1d,1,100206,2,46,110,22,F,NA,constant,homogeneous,6,absent,0.629423856735229,1,horizontal,horizontal,1,0.823525659093317,green,3,NaN,1050.31493177915,551.343706178981,NaN,NaN,716.980120613425,841.107236777826,967.295052392579,792.450942956807,1050.31493177915,551.343706178981,883.019879386575,358.892763222174,632.704947607421,407.549057043193,549.685068220846,648.656293821019,0,0,4,0,0,0,horizontal,horizontal,horizontal,horizontal,vertical,horizontal
1d,1,100206,2,47,111,22,F,NA,constant,homogeneous,3,present,0.463783025741577,1,horizontal,horizontal,1,1.08234484330663,green,3,1,546.39691668109,573.345241866748,903.717843984329,832.954091698863,903.717843984329,832.954091698863,949.885239334581,393.700666434388,546.39691668109,573.345241866748,NaN,NaN,NaN,NaN,NaN,NaN,0,0,4,NaN,NaN,NaN,horizontal,vertical,horizontal,none,none,none
1d,1,100206,2,48,112,22,F,NA,constant,homogeneous,3,present,0.518774032592773,1,vertical,vertical,1,1.08234484330663,green,1,3,960.476699717708,798.172220171528,548.13947314824,639.890788585259,960.476699717708,798.172220171528,891.383827134052,361.936991243214,548.13947314824,639.890788585259,NaN,NaN,NaN,NaN,NaN,NaN,4,0,0,NaN,NaN,NaN,vertical,vertical,horizontal,none,none,none
1d,1,100206,2,49,113,22,F,NA,constant,homogeneous,4,absent,0.928653955459595,1,horizontal,horizontal,1,0.764703117226655,green,1,NaN,696.282156015671,832.954091698863,NaN,NaN,696.282156015671,832.954091698863,1032.95409169886,703.717843984329,903.717843984329,367.045908301137,567.045908301137,496.282156015671,NaN,NaN,NaN,NaN,4,0,0,0,NaN,NaN,horizontal,vertical,vertical,vertical,none,none
1d,1,100206,2,50,114,22,F,NA,constant,homogeneous,4,absent,0.724477052688599,1,horizontal,horizontal,1,1.04705131818663,green,3,NaN,676.373546837184,376.971974679454,NaN,NaN,923.626453162816,823.028025320546,1023.02802532055,476.373546837184,676.373546837184,376.971974679454,576.971974679454,723.626453162816,NaN,NaN,NaN,NaN,0,0,4,0,NaN,NaN,vertical,vertical,horizontal,vertical,none,none
1d,1,100206,2,51,115,22,F,NA,constant,homogeneous,3,absent,0.747678995132446,1,vertical,vertical,1,0.823525659093317,green,1,NaN,907.767656743878,831.108485694346,NaN,NaN,907.767656743878,831.108485694346,946.261991269517,391.116228706307,545.970351986605,577.775285599347,NaN,NaN,NaN,NaN,NaN,NaN,4,0,0,NaN,NaN,NaN,vertical,vertical,vertical,none,none,none
1d,1,100206,2,52,116,22,F,NA,constant,homogeneous,4,absent,0.849385976791382,1,horizontal,horizontal,1,0.929406234453309,green,4,NaN,581.422338320961,731.334709102064,NaN,NaN,931.334709102064,818.577661679039,1018.57766167904,468.665290897936,668.665290897936,381.422338320961,581.422338320961,731.334709102064,NaN,NaN,NaN,NaN,0,0,0,4,NaN,NaN,vertical,horizontal,vertical,horizontal,none,none
1d,1,100206,2,53,117,22,F,NA,constant,homogeneous,4,absent,0.739119052886963,1,vertical,vertical,1,0.83529016746665,green,4,NaN,551.535633479765,542.637481142314,NaN,NaN,742.637481142314,848.464366520235,1048.46436652023,657.362518857686,857.362518857686,351.535633479765,551.535633479765,542.637481142314,NaN,NaN,NaN,NaN,0,0,0,4,NaN,NaN,vertical,vertical,vertical,vertical,none,none
1d,1,100206,2,54,118,22,F,NA,constant,homogeneous,6,present,0.86775803565979,1,vertical,vertical,1,0.682351558613327,green,1,6,874.554784704298,843.857712770574,626.090418184063,786.495193912888,874.554784704298,843.857712770574,1048.46436652023,657.362518857686,973.909581815937,413.504806087112,725.445215295702,356.142287229426,551.535633479765,542.637481142314,626.090418184063,786.495193912888,4,0,0,0,0,0,vertical,vertical,horizontal,horizontal,vertical,horizontal
1d,1,100206,2,55,119,22,F,NA,constant,homogeneous,5,absent,0.786202192306519,1,vertical,vertical,1,1.05881582655997,green,1,NaN,680.284751489598,825.151636179026,NaN,NaN,680.284751489598,825.151636179026,977.137884467044,783.431649086356,1029.19248180629,488.215357568785,764.510859255183,347.4816424709,548.874022981887,555.719714694933,NaN,NaN,4,0,0,0,0,NaN,vertical,vertical,vertical,horizontal,horizontal,none
1d,1,100206,2,56,120,22,F,NA,constant,homogeneous,5,absent,1.10606002807617,1,horizontal,horizontal,1,1.01175779306664,green,2,NaN,1050.31493177915,551.343706178981,NaN,NaN,923.626453162816,823.028025320546,1050.31493177915,551.343706178981,831.076682568313,346.900731331463,568.891514305654,492.232343256122,626.090418184063,786.495193912888,NaN,NaN,0,4,0,0,0,NaN,horizontal,horizontal,vertical,vertical,horizontal,none
1d,1,100206,2,57,121,22,F,NA,constant,homogeneous,5,absent,0.747860908508301,1,vertical,vertical,1,0.752938608853322,green,3,NaN,977.137884467044,416.568350913644,NaN,NaN,764.510859255183,852.518357529101,1029.19248180629,711.784642431215,977.137884467044,416.568350913644,680.284751489598,374.848363820974,548.874022981887,644.280285305067,NaN,NaN,0,0,4,0,0,NaN,horizontal,horizontal,vertical,horizontal,vertical,none
1d,1,100206,2,58,122,22,F,NA,constant,homogeneous,5,absent,0.64054799079895,1,horizontal,horizontal,1,0.882348200959979,green,3,NaN,1027.20666366803,484.232422566416,NaN,NaN,684.232422566416,827.206663668034,980.31222920257,780.31222920257,1027.20666366803,484.232422566416,760.109211414741,348.13947314824,548.13947314824,560.109211414741,NaN,NaN,0,0,4,0,0,NaN,vertical,vertical,horizontal,horizontal,vertical,none
1d,1,100206,2,59,123,22,F,NA,constant,homogeneous,4,present,0.565186977386475,1,horizontal,horizontal,1,0.78823213397332,green,2,3,1006.29933356561,450.114760665419,650.114760665419,393.700666434388,949.885239334581,806.299333565612,1006.29933356561,450.114760665419,650.114760665419,393.700666434388,593.700666434388,749.885239334581,NaN,NaN,NaN,NaN,0,4,0,0,NaN,NaN,horizontal,horizontal,horizontal,horizontal,none,none
1d,1,100206,2,60,124,22,F,NA,constant,homogeneous,3,present,0.48720908164978,1,horizontal,horizontal,1,0.917641726079977,green,3,2,574.848363820974,719.715248510402,808.899371659138,345.155339110131,1016.25226451989,735.129412379467,808.899371659138,345.155339110131,574.848363820974,719.715248510402,NaN,NaN,NaN,NaN,NaN,NaN,0,0,4,NaN,NaN,NaN,horizontal,vertical,horizontal,none,none,none
1d,1,100206,2,61,125,22,F,NA,constant,homogeneous,6,absent,0.5989089012146,1,vertical,vertical,1,0.682351558613327,green,3,NaN,1049.42763818712,546.982518841471,NaN,NaN,721.200666434388,842.519411655264,970.628304621509,789.501930496736,1049.42763818712,546.982518841471,878.799333565612,357.480588344736,629.371695378491,410.498069503264,550.57236181288,653.017481158529,0,0,4,0,0,0,vertical,vertical,vertical,vertical,horizontal,vertical
1d,1,100206,2,62,126,22,F,NA,constant,homogeneous,6,present,0.53532600402832,1,horizontal,horizontal,1,0.611764508373332,green,6,4,548.13947314824,639.890788585259,891.383827134052,361.936991243214,708.616172865948,838.063008756786,960.476699717708,798.172220171528,1051.86052685176,560.109211414741,891.383827134052,361.936991243214,639.523300282292,401.827779828472,548.13947314824,639.890788585259,0,0,0,0,0,4,horizontal,vertical,vertical,horizontal,horizontal,horizontal
1d,1,100206,2,63,127,22,F,NA,constant,homogeneous,5,present,0.604125022888184,1,vertical,vertical,1,0.894112709333312,green,1,5,755.719714694933,851.125977018113,547.481642470899,635.489140744817,755.719714694933,851.125977018113,1025.15163617903,719.715248510402,983.431649086356,422.862115532956,688.215357568785,370.807518193712,547.481642470899,635.489140744817,NaN,NaN,4,0,0,0,0,NaN,vertical,horizontal,vertical,vertical,vertical,none
1d,1,100206,2,64,128,22,F,NA,constant,homogeneous,5,present,0.602159976959229,1,vertical,vertical,1,0.894112709333312,green,3,1,992.450942956807,432.704947607421,742.637481142314,848.464366520235,742.637481142314,848.464366520235,1018.57766167904,731.334709102064,992.450942956807,432.704947607421,700.363562235235,365.271262369628,545.970351986605,622.224714400653,NaN,NaN,0,0,4,0,0,NaN,horizontal,horizontal,vertical,vertical,horizontal,none
1d,1,100206,3,1,129,22,F,NA,constant,homogeneous,5,present,0.81883716583252,1,vertical,vertical,1,0.905877217706644,green,4,1,729.712474266665,354.878267535729,712.784863451954,839.621618300407,712.784863451954,839.621618300407,1000.94274216971,756.993676208043,1011.40458100154,457.40580961496,729.712474266665,354.878267535729,545.155339110131,591.100628340862,NaN,NaN,0,0,0,4,0,NaN,vertical,horizontal,vertical,vertical,vertical,none
1d,1,100206,3,2,130,22,F,NA,constant,homogeneous,6,absent,0.546718120574951,1,vertical,vertical,1,0.976464267946639,green,5,NaN,639.523300282292,401.827779828472,NaN,NaN,708.616172865948,838.063008756786,960.476699717708,798.172220171528,1051.86052685176,560.109211414741,891.383827134052,361.936991243214,639.523300282292,401.827779828472,548.13947314824,639.890788585259,0,0,0,0,4,0,vertical,vertical,horizontal,horizontal,vertical,vertical
1d,1,100206,3,3,131,22,F,NA,constant,homogeneous,5,present,0.710085153579712,1,horizontal,horizontal,1,0.611764508373332,green,4,3,725.445215295702,356.142287229426,1008.88377129369,453.738008730483,716.980120613425,841.107236777826,1003.65205506206,753.462830903772,1008.88377129369,453.738008730483,725.445215295702,356.142287229426,545.03883773512,595.549636358493,NaN,NaN,0,0,0,4,0,NaN,horizontal,vertical,horizontal,horizontal,vertical,none
1d,1,100206,3,4,132,22,F,NA,constant,homogeneous,3,absent,0.53000807762146,1,vertical,vertical,1,1.0705803349333,green,2,NaN,1023.02802532055,476.373546837184,NaN,NaN,795.549636358493,854.96116226488,1023.02802532055,476.373546837184,581.422338320961,468.665290897936,NaN,NaN,NaN,NaN,NaN,NaN,0,4,0,NaN,NaN,NaN,horizontal,vertical,vertical,none,none,none
1d,1,100206,3,5,133,22,F,NA,constant,homogeneous,6,absent,0.939250946044922,1,vertical,vertical,1,0.929406234453309,green,4,NaN,835.489140744817,347.4816424709,NaN,NaN,764.510859255183,852.518357529101,1000.94274216971,756.993676208043,1036.43188291453,504.475318678942,835.489140744817,347.4816424709,599.057257830286,443.006323791957,563.568117085469,695.524681321058,0,0,0,4,0,0,vertical,vertical,horizontal,vertical,horizontal,horizontal
1d,1,100206,3,6,134,22,F,NA,constant,homogeneous,6,absent,0.700671911239624,1,horizontal,horizontal,1,0.729409592106657,green,4,NaN,857.362518857686,351.535633479765,NaN,NaN,742.637481142314,848.464366520235,986.495193912888,773.909581815937,1043.85771277057,525.445215295702,857.362518857686,351.535633479765,613.504806087112,426.090418184063,556.142287229426,674.554784704298,0,0,0,4,0,0,horizontal,horizontal,horizontal,horizontal,vertical,vertical
1d,1,100206,3,7,135,22,F,NA,constant,homogeneous,3,present,0.703091859817505,1,vertical,vertical,1,0.611764508373332,green,1,2,657.405809614959,811.404581001536,1054.37883281626,617.787900804752,657.405809614959,811.404581001536,1054.37883281626,617.787900804752,688.215357568785,370.807518193712,NaN,NaN,NaN,NaN,NaN,NaN,4,0,0,NaN,NaN,NaN,vertical,vertical,vertical,none,none,none
1d,1,100206,3,8,136,22,F,NA,constant,homogeneous,3,present,0.583501100540161,1,vertical,vertical,1,0.917641726079977,green,3,2,601.827779828472,439.523300282291,1038.06300875679,508.616172865948,760.109211414741,851.86052685176,1038.06300875679,508.616172865948,601.827779828472,439.523300282291,NaN,NaN,NaN,NaN,NaN,NaN,0,0,4,NaN,NaN,NaN,horizontal,horizontal,vertical,none,none,none
1d,1,100206,3,9,137,22,F,NA,constant,homogeneous,5,absent,0.509360074996948,1,vertical,vertical,1,0.894112709333312,green,3,NaN,1039.62161830041,512.784863451954,NaN,NaN,657.405809614959,811.404581001536,956.993676208043,800.942742169714,1039.62161830041,512.784863451954,791.100628340862,345.155339110131,554.878267535729,529.712474266665,NaN,NaN,0,0,4,0,0,NaN,vertical,horizontal,vertical,horizontal,horizontal,none
1d,1,100206,3,10,138,22,F,NA,constant,homogeneous,3,present,0.623471975326538,1,horizontal,horizontal,1,0.6,green,2,3,1016.25226451989,464.870587620533,574.848363820974,480.284751489598,808.899371659138,854.844660889869,1016.25226451989,464.870587620533,574.848363820974,480.284751489598,NaN,NaN,NaN,NaN,NaN,NaN,0,4,0,NaN,NaN,NaN,vertical,horizontal,vertical,none,none,none
1d,1,100206,3,11,139,22,F,NA,constant,homogeneous,6,absent,0.695607900619507,1,horizontal,horizontal,1,0.764703117226655,green,1,NaN,822.224714400653,854.029648013395,NaN,NaN,822.224714400653,854.029648013395,1031.10848569435,707.767656743878,1008.88377129369,453.738008730483,777.775285599347,345.970351986605,568.891514305654,492.232343256122,591.116228706307,746.261991269517,4,0,0,0,0,0,horizontal,horizontal,vertical,vertical,horizontal,horizontal
1d,1,100206,3,12,140,22,F,NA,constant,homogeneous,3,present,0.597347974777222,1,horizontal,horizontal,1,0.976464267946639,green,3,2,632.704947607421,407.549057043193,1050.31493177915,551.343706178981,716.980120613425,841.107236777826,1050.31493177915,551.343706178981,632.704947607421,407.549057043193,NaN,NaN,NaN,NaN,NaN,NaN,0,0,4,NaN,NaN,NaN,vertical,horizontal,horizontal,none,none,none
1d,1,100206,3,13,141,22,F,NA,constant,homogeneous,3,present,0.387163877487183,1,vertical,vertical,1,1.08234484330663,green,2,1,956.993676208043,399.057257830286,895.524681321058,836.431882914531,895.524681321058,836.431882914531,956.993676208043,399.057257830286,547.481642470899,564.510859255183,NaN,NaN,NaN,NaN,NaN,NaN,0,4,0,NaN,NaN,NaN,horizontal,vertical,horizontal,none,none,none
1d,1,100206,3,14,142,22,F,NA,constant,homogeneous,4,absent,0.459957122802734,1,vertical,vertical,1,0.847054675839982,green,3,NaN,927.5,379.163522034968,NaN,NaN,672.5,820.836477965032,1020.83647796503,727.5,927.5,379.163522034968,579.163522034968,472.5,NaN,NaN,NaN,NaN,0,0,4,0,NaN,NaN,horizontal,vertical,vertical,horizontal,none,none
1d,1,100206,3,15,143,22,F,NA,constant,homogeneous,4,present,0.548509836196899,1,vertical,vertical,1,0.952935251199974,green,1,4,865.998856501143,846.311085703712,553.688914296288,665.998856501143,865.998856501143,846.311085703712,1046.31108570371,534.001143498857,734.001143498857,353.688914296288,553.688914296288,665.998856501143,NaN,NaN,NaN,NaN,4,0,0,0,NaN,NaN,vertical,vertical,horizontal,horizontal,none,none
1d,1,100206,3,16,144,22,F,NA,constant,homogeneous,3,absent,0.54010796546936,1,horizontal,horizontal,1,0.823525659093317,green,1,NaN,848.656293821019,850.314931779154,NaN,NaN,848.656293821019,850.314931779154,992.450942956807,432.704947607421,558.892763222174,516.980120613425,NaN,NaN,NaN,NaN,NaN,NaN,4,0,0,NaN,NaN,NaN,horizontal,vertical,horizontal,none,none,none
1d,1,100206,3,17,145,22,F,NA,constant,homogeneous,4,present,0.599821090698242,1,vertical,vertical,1,0.83529016746665,green,2,1,1054.96116226488,604.450363641507,795.549636358493,854.96116226488,795.549636358493,854.96116226488,1054.96116226488,604.450363641507,804.450363641507,345.03883773512,545.03883773512,595.549636358493,NaN,NaN,NaN,NaN,0,4,0,0,NaN,NaN,vertical,vertical,vertical,horizontal,none,none
1d,1,100206,3,18,146,22,F,NA,constant,homogeneous,5,present,0.481304883956909,1,vertical,vertical,1,0.858819184213314,green,2,3,995.341332995339,763.910840470068,1016.25226451989,464.870587620533,704.475318678942,836.431882914531,995.341332995339,763.910840470068,1016.25226451989,464.870587620533,738.309916622085,352.574589799621,545.621167183745,582.212099195248,NaN,NaN,0,4,0,0,0,NaN,horizontal,vertical,horizontal,horizontal,vertical,none
1d,1,100206,3,19,147,22,F,NA,constant,homogeneous,5,absent,0.525527000427246,1,horizontal,horizontal,1,0.917641726079977,green,4,NaN,574.848363820974,480.284751489598,NaN,NaN,911.784642431215,829.192481806288,1052.5183575291,564.510859255183,844.280285305067,348.874022981887,574.848363820974,480.284751489598,616.568350913644,777.137884467044,NaN,NaN,0,0,0,4,0,NaN,horizontal,horizontal,vertical,horizontal,vertical,none
1d,1,100206,3,20,148,22,F,NA,constant,homogeneous,4,present,0.60516095161438,1,horizontal,horizontal,1,1.04705131818663,green,2,3,1054.96116226488,595.549636358493,795.549636358493,345.03883773512,804.450363641507,854.96116226488,1054.96116226488,595.549636358493,795.549636358493,345.03883773512,545.03883773512,604.450363641507,NaN,NaN,NaN,NaN,0,4,0,0,NaN,NaN,horizontal,horizontal,vertical,horizontal,none,none
1d,1,100206,3,21,149,22,F,NA,constant,homogeneous,5,absent,0.533339977264404,1,horizontal,horizontal,1,0.78823213397332,green,3,NaN,949.885239334581,393.700666434388,NaN,NaN,800,855,1042.51941165526,678.799333565612,949.885239334581,393.700666434388,650.114760665419,393.700666434388,557.480588344736,678.799333565612,NaN,NaN,0,0,4,0,0,NaN,horizontal,horizontal,horizontal,vertical,vertical,none
1d,1,100206,3,22,150,22,F,NA,constant,homogeneous,3,absent,0.637595891952515,1,horizontal,horizontal,1,0.682351558613327,green,3,NaN,607.549057043193,432.704947607421,NaN,NaN,751.343706178981,850.314931779154,1041.10723677783,516.980120613425,607.549057043193,432.704947607421,NaN,NaN,NaN,NaN,NaN,NaN,0,0,4,NaN,NaN,NaN,vertical,vertical,horizontal,none,none,none
1d,1,100206,3,23,151,22,F,NA,constant,homogeneous,5,present,0.831050157546997,1,vertical,vertical,1,0.623529016746665,green,3,2,977.137884467044,416.568350913644,1029.19248180629,711.784642431215,764.510859255183,852.518357529101,1029.19248180629,711.784642431215,977.137884467044,416.568350913644,680.284751489598,374.848363820974,548.874022981887,644.280285305067,NaN,NaN,0,0,4,0,0,NaN,vertical,horizontal,vertical,vertical,horizontal,none
1d,1,100206,3,24,152,22,F,NA,constant,homogeneous,4,present,0.601356029510498,1,vertical,vertical,1,1.08234484330663,green,2,1,995.341332995339,436.089159529932,963.910840470068,795.341332995339,963.910840470068,795.341332995339,995.341332995339,436.089159529932,636.089159529932,404.658667004661,604.658667004661,763.910840470068,NaN,NaN,NaN,NaN,0,4,0,0,NaN,NaN,vertical,vertical,vertical,horizontal,none,none
1d,1,100206,3,25,153,22,F,NA,constant,homogeneous,3,absent,0.675350904464722,1,horizontal,horizontal,1,0.682351558613327,green,1,NaN,992.450942956807,767.295052392579,NaN,NaN,992.450942956807,767.295052392579,848.656293821019,349.685068220846,558.892763222174,683.019879386575,NaN,NaN,NaN,NaN,NaN,NaN,4,0,0,NaN,NaN,NaN,horizontal,horizontal,vertical,none,none,none
1d,1,100206,3,26,154,22,F,NA,constant,homogeneous,4,absent,0.568547010421753,1,vertical,vertical,1,0.976464267946639,green,1,NaN,919.715248510402,825.151636179026,NaN,NaN,919.715248510402,825.151636179026,1025.15163617903,480.284751489598,680.284751489598,374.848363820974,574.848363820974,719.715248510402,NaN,NaN,NaN,NaN,4,0,0,0,NaN,NaN,vertical,horizontal,horizontal,horizontal,none,none
1d,1,100206,3,27,155,22,F,NA,constant,homogeneous,5,present,0.591030836105347,1,horizontal,horizontal,1,0.752938608853322,green,4,5,629.371695378491,410.498069503264,567.045908301137,703.717843984329,826.654758133252,853.60308331891,1049.42763818712,653.017481158529,927.5,379.163522034968,629.371695378491,410.498069503264,567.045908301137,703.717843984329,NaN,NaN,0,0,0,4,0,NaN,vertical,vertical,horizontal,horizontal,horizontal,none
1d,1,100206,3,28,156,22,F,NA,constant,homogeneous,3,present,0.738911151885986,1,vertical,vertical,1,1.01175779306664,green,1,3,579.163522034968,727.5,800,345,579.163522034968,727.5,1020.83647796503,727.5,800,345,NaN,NaN,NaN,NaN,NaN,NaN,4,0,0,NaN,NaN,NaN,vertical,vertical,horizontal,none,none,none
1d,1,100206,3,29,157,22,F,NA,constant,homogeneous,6,present,0.605747938156128,1,vertical,vertical,1,0.776467625599987,green,2,4,1031.10848569435,707.767656743878,777.775285599347,345.970351986605,822.224714400653,854.029648013395,1031.10848569435,707.767656743878,1008.88377129369,453.738008730483,777.775285599347,345.970351986605,568.891514305654,492.232343256122,591.116228706307,746.261991269517,0,4,0,0,0,0,horizontal,vertical,horizontal,vertical,horizontal,vertical
1d,1,100206,3,30,158,22,F,NA,constant,homogeneous,6,present,0.69774603843689,1,vertical,vertical,1,0.776467625599987,green,4,6,700.363562235235,365.271262369628,646.537169096228,803.65205506206,899.636437764765,834.728737630372,1053.09926866854,631.076682568313,953.462830903772,396.34794493794,700.363562235235,365.271262369628,546.900731331463,568.923317431687,646.537169096228,803.65205506206,0,0,0,4,0,0,horizontal,horizontal,vertical,vertical,horizontal,horizontal
1d,1,100206,3,31,159,22,F,NA,constant,homogeneous,4,present,0.701653957366943,1,horizontal,horizontal,1,0.905877217706644,green,3,4,692.232343256122,368.891514305654,568.891514305654,707.767656743878,907.767656743878,831.108485694346,1031.10848569435,492.232343256122,692.232343256122,368.891514305654,568.891514305654,707.767656743878,NaN,NaN,NaN,NaN,0,0,4,0,NaN,NaN,vertical,horizontal,horizontal,horizontal,none,none
1d,1,100206,3,32,160,22,F,NA,constant,homogeneous,3,absent,0.666109800338745,1,horizontal,horizontal,1,0.905877217706644,green,1,NaN,629.371695378491,789.501930496736,NaN,NaN,629.371695378491,789.501930496736,1049.42763818712,653.017481158529,721.200666434388,357.480588344736,NaN,NaN,NaN,NaN,NaN,NaN,4,0,0,NaN,NaN,NaN,horizontal,vertical,vertical,none,none,none
1d,1,100206,3,33,161,22,F,NA,constant,homogeneous,6,absent,0.525238037109375,1,vertical,vertical,1,0.69411606698666,green,6,NaN,619.68777079743,780.31222920257,NaN,NaN,865.998856501143,846.311085703712,1046.31108570371,665.998856501143,980.31222920257,419.68777079743,734.001143498857,353.688914296288,553.688914296288,534.001143498857,619.68777079743,780.31222920257,0,0,0,0,0,4,vertical,horizontal,vertical,horizontal,horizontal,vertical
1d,1,100206,3,34,162,22,F,NA,constant,homogeneous,6,present,0.572443008422852,1,horizontal,horizontal,1,1.02352230143997,green,1,2,817.787900804752,854.378832816255,1029.19248180629,711.784642431215,817.787900804752,854.378832816255,1029.19248180629,711.784642431215,1011.40458100154,457.40580961496,782.212099195248,345.621167183745,570.807518193712,488.215357568785,588.595418998464,742.594190385041,4,0,0,0,0,0,horizontal,horizontal,horizontal,horizontal,vertical,vertical
1d,1,100206,3,35,163,22,F,NA,constant,homogeneous,5,absent,0.694427013397217,1,horizontal,horizontal,1,0.717645083733325,green,2,NaN,1052.5183575291,635.489140744817,NaN,NaN,844.280285305067,851.125977018113,1052.5183575291,635.489140744817,911.784642431215,370.807518193712,616.568350913644,422.862115532956,574.848363820974,719.715248510402,NaN,NaN,0,4,0,0,0,NaN,vertical,horizontal,vertical,horizontal,vertical,none
1d,1,100206,3,36,164,22,F,NA,constant,homogeneous,3,present,0.719423055648804,1,horizontal,horizontal,1,0.74117410047999,green,1,3,708.616172865948,838.063008756786,639.523300282292,401.827779828472,708.616172865948,838.063008756786,1051.86052685176,560.109211414741,639.523300282292,401.827779828472,NaN,NaN,NaN,NaN,NaN,NaN,4,0,0,NaN,NaN,NaN,horizontal,horizontal,horizontal,none,none,none
1d,1,100206,3,37,165,22,F,NA,constant,homogeneous,5,present,0.803589105606079,1,horizontal,horizontal,1,0.882348200959979,green,4,5,692.232343256122,368.891514305654,546.900731331463,631.076682568313,751.343706178981,850.314931779154,1023.02802532055,723.626453162816,986.495193912888,426.090418184063,692.232343256122,368.891514305654,546.900731331463,631.076682568313,NaN,NaN,0,0,0,4,0,NaN,vertical,horizontal,horizontal,horizontal,vertical,none
1d,1,100206,3,38,166,22,F,NA,constant,homogeneous,6,present,0.989920854568481,1,horizontal,horizontal,1,0.682351558613327,green,1,2,725.445215295702,843.857712770574,973.909581815937,786.495193912888,725.445215295702,843.857712770574,973.909581815937,786.495193912888,1048.46436652023,542.637481142314,874.554784704298,356.142287229426,626.090418184063,413.504806087112,551.535633479765,657.362518857686,4,0,0,0,0,0,horizontal,horizontal,vertical,vertical,horizontal,vertical
1d,1,100206,3,39,167,22,F,NA,constant,homogeneous,4,present,0.598613023757935,1,horizontal,horizontal,1,0.847054675839982,green,1,2,626.090418184063,786.495193912888,986.495193912888,773.909581815937,626.090418184063,786.495193912888,986.495193912888,773.909581815937,973.909581815937,413.504806087112,613.504806087112,426.090418184063,NaN,NaN,NaN,NaN,4,0,0,0,NaN,NaN,horizontal,horizontal,vertical,horizontal,none,none
1d,1,100206,3,40,168,22,F,NA,constant,homogeneous,4,absent,0.617733955383301,1,horizontal,horizontal,1,0.752938608853322,green,1,NaN,960.476699717708,798.172220171528,NaN,NaN,960.476699717708,798.172220171528,998.172220171528,439.523300282291,639.523300282292,401.827779828472,601.827779828472,760.476699717708,NaN,NaN,NaN,NaN,4,0,0,0,NaN,NaN,horizontal,horizontal,horizontal,horizontal,none,none
1d,1,100206,3,41,169,22,F,NA,constant,homogeneous,5,absent,0.559558868408203,1,vertical,vertical,1,0.658822541866662,green,1,NaN,672.5,820.836477965032,NaN,NaN,672.5,820.836477965032,970.628304621509,789.501930496736,1032.95409169886,496.282156015671,773.345241866748,346.39691668109,550.57236181288,546.982518841471,NaN,NaN,4,0,0,0,0,NaN,vertical,horizontal,vertical,horizontal,vertical,none
1d,1,100206,3,42,170,22,F,NA,constant,homogeneous,4,absent,0.693583011627197,1,vertical,vertical,1,0.74117410047999,green,4,NaN,545.349468637584,586.654331158049,NaN,NaN,786.654331158049,854.650531362416,1054.65053136242,613.345668841951,813.345668841951,345.349468637584,545.349468637584,586.654331158049,NaN,NaN,NaN,NaN,0,0,0,4,NaN,NaN,vertical,vertical,horizontal,vertical,none,none
1d,1,100206,3,43,171,22,F,NA,constant,homogeneous,5,present,0.744927883148193,1,horizontal,horizontal,1,0.858819184213314,green,1,5,813.345668841951,854.650531362416,561.936991243214,691.383827134052,813.345668841951,854.650531362416,1046.31108570371,665.998856501143,938.882953928832,386.139005173917,639.523300282292,401.827779828472,561.936991243214,691.383827134052,NaN,NaN,4,0,0,0,0,NaN,horizontal,vertical,vertical,horizontal,vertical,none
1d,1,100206,3,44,172,22,F,NA,constant,homogeneous,3,absent,0.707320928573608,1,vertical,vertical,1,0.964699759573307,green,3,NaN,545.155339110131,608.899371659138,NaN,NaN,935.129412379467,816.252264519889,919.715248510402,374.848363820974,545.155339110131,608.899371659138,NaN,NaN,NaN,NaN,NaN,NaN,0,0,4,NaN,NaN,NaN,vertical,vertical,vertical,none,none,none
1d,1,100206,3,45,173,22,F,NA,constant,homogeneous,6,absent,0.608626127243042,1,vertical,vertical,1,0.941170742826642,green,1,NaN,915.767577433584,827.206663668034,NaN,NaN,915.767577433584,827.206663668034,1054.65053136242,613.345668841951,938.882953928832,386.139005173917,684.232422566416,372.793336331966,545.349468637584,586.654331158049,661.117046071168,813.860994826083,4,0,0,0,0,0,vertical,vertical,horizontal,vertical,vertical,horizontal
1d,1,100206,3,46,174,22,F,NA,constant,homogeneous,5,absent,0.974216938018799,1,vertical,vertical,1,1.0705803349333,green,5,NaN,545.621167183745,582.212099195248,NaN,NaN,704.475318678942,836.431882914531,995.341332995339,763.910840470068,1016.25226451989,464.870587620533,738.309916622085,352.574589799621,545.621167183745,582.212099195248,NaN,NaN,0,0,0,0,4,NaN,horizontal,vertical,horizontal,horizontal,vertical,none
1d,1,100206,3,47,175,22,F,NA,constant,homogeneous,4,absent,0.849909067153931,1,horizontal,horizontal,1,1.01175779306664,green,4,NaN,599.057257830286,443.006323791957,NaN,NaN,643.006323791957,800.942742169714,1000.94274216971,756.993676208043,956.993676208043,399.057257830286,599.057257830286,443.006323791957,NaN,NaN,NaN,NaN,0,0,0,4,NaN,NaN,horizontal,horizontal,horizontal,horizontal,none,none
1d,1,100206,3,48,176,22,F,NA,constant,homogeneous,4,absent,0.607778072357178,1,vertical,vertical,1,1.02352230143997,green,4,NaN,549.685068220846,648.656293821019,NaN,NaN,848.656293821019,850.314931779154,1050.31493177915,551.343706178981,751.343706178981,349.685068220846,549.685068220846,648.656293821019,NaN,NaN,NaN,NaN,0,0,0,4,NaN,NaN,horizontal,horizontal,vertical,vertical,none,none
1d,1,100206,3,49,177,22,F,NA,constant,homogeneous,5,absent,0.663329124450684,1,vertical,vertical,1,0.964699759573307,green,2,NaN,1055,600,NaN,NaN,878.799333565612,842.519411655264,1055,600,878.799333565612,357.480588344736,593.700666434388,450.114760665419,593.700666434388,749.885239334581,NaN,NaN,0,4,0,0,0,NaN,horizontal,vertical,vertical,vertical,vertical,none
1d,1,100206,3,50,178,22,F,NA,constant,homogeneous,4,present,0.698585033416748,1,vertical,vertical,1,1.09410935167996,green,4,1,545.155339110131,591.100628340862,791.100628340862,854.844660889869,791.100628340862,854.844660889869,1054.84466088987,608.899371659138,808.899371659138,345.155339110131,545.155339110131,591.100628340862,NaN,NaN,NaN,NaN,0,0,0,4,NaN,NaN,vertical,vertical,vertical,vertical,none,none
1d,1,100206,3,51,179,22,F,NA,constant,homogeneous,3,absent,0.571465969085693,1,vertical,vertical,1,0.74117410047999,green,2,NaN,1047.42541020038,538.309916622085,NaN,NaN,729.712474266665,845.121732464271,1047.42541020038,538.309916622085,622.862115532956,416.568350913644,NaN,NaN,NaN,NaN,NaN,NaN,0,4,0,NaN,NaN,NaN,vertical,vertical,horizontal,none,none,none
1d,1,100206,3,52,180,22,F,NA,constant,homogeneous,4,present,0.510701894760132,1,horizontal,horizontal,1,0.78823213397332,green,1,2,716.980120613425,841.107236777826,1041.10723677783,683.019879386575,716.980120613425,841.107236777826,1041.10723677783,683.019879386575,883.019879386575,358.892763222174,558.892763222174,516.980120613425,NaN,NaN,NaN,NaN,4,0,0,0,NaN,NaN,horizontal,horizontal,vertical,vertical,none,none
1d,1,100206,3,53,181,22,F,NA,constant,homogeneous,3,absent,0.712756872177124,1,vertical,vertical,1,0.776467625599987,green,3,NaN,545.03883773512,595.549636358493,NaN,NaN,923.626453162816,823.028025320546,931.334709102064,381.422338320961,545.03883773512,595.549636358493,NaN,NaN,NaN,NaN,NaN,NaN,0,0,4,NaN,NaN,NaN,horizontal,horizontal,vertical,none,none,none
1d,1,100206,3,54,182,22,F,NA,constant,homogeneous,6,absent,0.619956970214844,1,horizontal,horizontal,1,0.847054675839982,green,6,NaN,583.747735480111,735.129412379467,NaN,NaN,808.899371659138,854.844660889869,1025.15163617903,719.715248510402,1016.25226451989,464.870587620533,791.100628340862,345.155339110131,574.848363820974,480.284751489598,583.747735480111,735.129412379467,0,0,0,0,0,4,vertical,vertical,horizontal,vertical,horizontal,horizontal
1d,1,100206,3,55,183,22,F,NA,constant,homogeneous,6,absent,0.610435009002686,0,horizontal,vertical,1,0.882348200959979,green,2,NaN,946.261991269517,808.883771293693,NaN,NaN,692.232343256122,831.108485694346,946.261991269517,808.883771293693,1054.0296480134,577.775285599347,907.767656743878,368.891514305654,653.738008730483,391.116228706307,545.970351986605,622.224714400653,0,4,0,0,0,0,horizontal,horizontal,vertical,horizontal,vertical,vertical
1d,1,100206,3,56,184,22,F,NA,constant,homogeneous,5,present,0.794890165328979,1,vertical,vertical,1,0.6,green,5,4,551.535633479765,542.637481142314,777.775285599347,345.970351986605,668.665290897936,818.577661679039,967.295052392579,792.450942956807,1034.72873763037,500.363562235235,777.775285599347,345.970351986605,551.535633479765,542.637481142314,NaN,NaN,0,0,0,0,4,NaN,horizontal,horizontal,horizontal,horizontal,vertical,none
1d,1,100206,3,57,185,22,F,NA,constant,homogeneous,4,absent,0.664026021957397,1,horizontal,horizontal,1,0.858819184213314,green,1,NaN,835.489140744817,852.518357529101,NaN,NaN,835.489140744817,852.518357529101,1052.5183575291,564.510859255183,764.510859255183,347.4816424709,547.481642470899,635.489140744817,NaN,NaN,NaN,NaN,4,0,0,0,NaN,NaN,horizontal,horizontal,horizontal,horizontal,none,none
1d,1,100206,3,58,186,22,F,NA,constant,homogeneous,6,present,1.26971292495728,0,horizontal,vertical,1,0.611764508373332,green,5,1,646.537169096228,396.34794493794,700.363562235235,834.728737630372,700.363562235235,834.728737630372,953.462830903772,803.65205506206,1053.09926866854,568.923317431687,899.636437764765,365.271262369628,646.537169096228,396.34794493794,546.900731331463,631.076682568313,0,0,0,0,4,0,vertical,horizontal,vertical,horizontal,horizontal,vertical
1d,1,100206,3,59,187,22,F,NA,constant,homogeneous,6,present,1.13035893440247,1,horizontal,horizontal,1,0.752938608853322,green,5,6,545.349468637584,586.654331158049,661.117046071168,813.860994826083,915.767577433584,827.206663668034,1054.65053136242,613.345668841951,938.882953928832,386.139005173917,684.232422566416,372.793336331966,545.349468637584,586.654331158049,661.117046071168,813.860994826083,0,0,0,0,4,0,vertical,vertical,horizontal,vertical,horizontal,vertical
1d,1,100206,3,60,188,22,F,NA,constant,homogeneous,3,present,0.638368129730225,1,horizontal,horizontal,1,0.847054675839982,green,1,3,931.334709102064,818.577661679039,545.03883773512,604.450363641507,931.334709102064,818.577661679039,923.626453162816,376.971974679454,545.03883773512,604.450363641507,NaN,NaN,NaN,NaN,NaN,NaN,4,0,0,NaN,NaN,NaN,horizontal,vertical,vertical,none,none,none
1d,1,100206,3,61,189,22,F,NA,constant,homogeneous,5,absent,0.55762505531311,1,horizontal,horizontal,1,0.729409592106657,green,3,NaN,1034.72873763037,500.363562235235,NaN,NaN,668.665290897936,818.577661679039,967.295052392579,792.450942956807,1034.72873763037,500.363562235235,777.775285599347,345.970351986605,551.535633479765,542.637481142314,NaN,NaN,0,0,4,0,0,NaN,horizontal,vertical,horizontal,horizontal,horizontal,none
1d,1,100206,3,62,190,22,F,NA,constant,homogeneous,6,present,0.655492067337036,1,vertical,vertical,1,0.929406234453309,green,5,3,613.504806087112,426.090418184063,1043.85771277057,525.445215295702,742.637481142314,848.464366520235,986.495193912888,773.909581815937,1043.85771277057,525.445215295702,857.362518857686,351.535633479765,613.504806087112,426.090418184063,556.142287229426,674.554784704298,0,0,0,0,4,0,horizontal,vertical,horizontal,horizontal,vertical,vertical
1d,1,100206,3,63,191,22,F,NA,constant,homogeneous,6,present,0.701416969299316,1,vertical,vertical,1,0.823525659093317,green,6,5,545.970351986605,622.224714400653,653.738008730483,391.116228706307,692.232343256122,831.108485694346,946.261991269517,808.883771293693,1054.0296480134,577.775285599347,907.767656743878,368.891514305654,653.738008730483,391.116228706307,545.970351986605,622.224714400653,0,0,0,0,0,4,horizontal,vertical,horizontal,vertical,horizontal,vertical
1d,1,100206,3,64,192,22,F,NA,constant,homogeneous,4,absent,0.665086030960083,1,horizontal,horizontal,1,0.882348200959979,green,3,NaN,777.775285599347,345.970351986605,NaN,NaN,822.224714400653,854.029648013395,1054.0296480134,577.775285599347,777.775285599347,345.970351986605,545.970351986605,622.224714400653,NaN,NaN,NaN,NaN,0,0,4,0,NaN,NaN,vertical,horizontal,horizontal,vertical,none,none
1d,1,100206,4,1,193,22,F,NA,constant,homogeneous,5,absent,0.62048602104187,1,horizontal,horizontal,1,1.0705803349333,green,2,NaN,1034.72873763037,699.636437764765,NaN,NaN,777.775285599347,854.029648013395,1034.72873763037,699.636437764765,967.295052392579,407.549057043193,668.665290897936,381.422338320961,551.535633479765,657.362518857686,NaN,NaN,0,4,0,0,0,NaN,vertical,horizontal,vertical,horizontal,vertical,none
1d,1,100206,4,2,194,22,F,NA,constant,homogeneous,6,present,0.558923006057739,1,vertical,vertical,1,0.894112709333312,green,2,3,1053.09926866854,631.076682568313,953.462830903772,396.34794493794,899.636437764765,834.728737630372,1053.09926866854,631.076682568313,953.462830903772,396.34794493794,700.363562235235,365.271262369628,546.900731331463,568.923317431687,646.537169096228,803.65205506206,0,4,0,0,0,0,horizontal,vertical,horizontal,vertical,vertical,vertical
1d,1,100206,4,3,195,22,F,NA,constant,homogeneous,3,present,0.476578950881958,1,vertical,vertical,1,0.917641726079977,green,1,2,973.909581815937,786.495193912888,874.554784704298,356.142287229426,973.909581815937,786.495193912888,874.554784704298,356.142287229426,551.535633479765,657.362518857686,NaN,NaN,NaN,NaN,NaN,NaN,4,0,0,NaN,NaN,NaN,vertical,horizontal,horizontal,none,none,none
1d,1,100206,4,4,196,22,F,NA,constant,homogeneous,4,present,0.573127031326294,1,horizontal,horizontal,1,0.74117410047999,green,1,3,664.870587620533,816.252264519889,935.129412379467,383.747735480111,664.870587620533,816.252264519889,1016.25226451989,735.129412379467,935.129412379467,383.747735480111,583.747735480111,464.870587620533,NaN,NaN,NaN,NaN,4,0,0,0,NaN,NaN,horizontal,vertical,horizontal,vertical,none,none
1d,1,100206,4,5,197,22,F,NA,constant,homogeneous,3,absent,0.812663078308105,1,vertical,vertical,1,0.999993284693304,green,3,NaN,676.373546837184,376.971974679454,NaN,NaN,668.665290897936,818.577661679039,1054.96116226488,604.450363641507,676.373546837184,376.971974679454,NaN,NaN,NaN,NaN,NaN,NaN,0,0,4,NaN,NaN,NaN,vertical,vertical,vertical,none,none,none
1d,1,100206,4,6,198,22,F,NA,constant,homogeneous,5,present,0.547588109970093,1,horizontal,horizontal,1,0.729409592106657,green,4,2,668.665290897936,381.422338320961,1034.72873763037,699.636437764765,777.775285599347,854.029648013395,1034.72873763037,699.636437764765,967.295052392579,407.549057043193,668.665290897936,381.422338320961,551.535633479765,657.362518857686,NaN,NaN,0,0,0,4,0,NaN,vertical,vertical,vertical,horizontal,vertical,none
1d,1,100206,4,7,199,22,F,NA,constant,homogeneous,5,present,0.695014953613281,1,vertical,vertical,1,0.811761150719984,green,3,4,895.524681321058,363.568117085469,604.658667004661,436.089159529932,861.690083377915,847.425410200379,1054.37883281626,617.787900804752,895.524681321058,363.568117085469,604.658667004661,436.089159529932,583.747735480111,735.129412379467,NaN,NaN,0,0,4,0,0,NaN,horizontal,horizontal,vertical,horizontal,horizontal,none
1d,1,100206,4,8,200,22,F,NA,constant,homogeneous,5,present,0.552004098892212,1,vertical,vertical,1,0.74117410047999,green,4,2,572.793336331966,484.232422566416,1051.86052685176,560.109211414741,915.767577433584,827.206663668034,1051.86052685176,560.109211414741,839.890788585259,348.13947314824,572.793336331966,484.232422566416,619.68777079743,780.31222920257,NaN,NaN,0,0,0,4,0,NaN,horizontal,vertical,vertical,vertical,horizontal,none
1d,1,100206,4,9,201,22,F,NA,constant,homogeneous,5,absent,0.561594009399414,1,vertical,vertical,1,0.705880575359992,green,4,NaN,561.936991243214,508.616172865948,NaN,NaN,938.882953928832,813.860994826083,1046.31108570371,534.001143498857,813.345668841951,345.349468637584,561.936991243214,508.616172865948,639.523300282292,798.172220171528,NaN,NaN,0,0,0,4,0,NaN,vertical,horizontal,vertical,vertical,vertical,none
1d,1,100206,4,10,202,22,F,NA,constant,homogeneous,6,present,0.681931018829346,1,horizontal,horizontal,1,0.858819184213314,green,2,5,1000.94274216971,756.993676208043,599.057257830286,443.006323791957,764.510859255183,852.518357529101,1000.94274216971,756.993676208043,1036.43188291453,504.475318678942,835.489140744817,347.4816424709,599.057257830286,443.006323791957,563.568117085469,695.524681321058,0,4,0,0,0,0,vertical,horizontal,horizontal,horizontal,horizontal,horizontal
1d,1,100206,4,11,203,22,F,NA,constant,homogeneous,3,present,0.566916942596436,0,horizontal,vertical,1,0.941170742826642,green,3,2,552.574589799621,661.690083377915,870.287525733335,354.878267535729,977.137884467044,783.431649086356,870.287525733335,354.878267535729,552.574589799621,661.690083377915,NaN,NaN,NaN,NaN,NaN,NaN,0,0,4,NaN,NaN,NaN,horizontal,horizontal,horizontal,none,none,none
1d,1,100206,4,12,204,22,F,NA,constant,homogeneous,5,present,0.772544860839844,1,horizontal,horizontal,1,0.705880575359992,green,4,5,751.343706178981,349.685068220846,546.900731331463,568.923317431687,692.232343256122,831.108485694346,986.495193912888,773.909581815937,1023.02802532055,476.373546837184,751.343706178981,349.685068220846,546.900731331463,568.923317431687,NaN,NaN,0,0,0,4,0,NaN,horizontal,vertical,vertical,horizontal,horizontal,none
1d,1,100206,4,13,205,22,F,NA,constant,homogeneous,4,present,0.686547040939331,1,vertical,vertical,1,0.74117410047999,green,1,3,716.980120613425,841.107236777826,883.019879386575,358.892763222174,716.980120613425,841.107236777826,1041.10723677783,683.019879386575,883.019879386575,358.892763222174,558.892763222174,516.980120613425,NaN,NaN,NaN,NaN,4,0,0,0,NaN,NaN,vertical,vertical,horizontal,horizontal,none,none
1d,1,100206,4,14,206,22,F,NA,constant,homogeneous,4,absent,0.62189507484436,1,vertical,vertical,1,1.05881582655997,green,1,NaN,795.549636358493,854.96116226488,NaN,NaN,795.549636358493,854.96116226488,1054.96116226488,604.450363641507,804.450363641507,345.03883773512,545.03883773512,595.549636358493,NaN,NaN,NaN,NaN,4,0,0,0,NaN,NaN,vertical,vertical,horizontal,horizontal,none,none
1d,1,100206,4,15,207,22,F,NA,constant,homogeneous,4,present,0.998276948928833,1,vertical,vertical,1,0.999993284693304,green,2,4,1025.15163617903,480.284751489598,574.848363820974,719.715248510402,919.715248510402,825.151636179026,1025.15163617903,480.284751489598,680.284751489598,374.848363820974,574.848363820974,719.715248510402,NaN,NaN,NaN,NaN,0,4,0,0,NaN,NaN,horizontal,vertical,horizontal,vertical,none,none
1d,1,100206,4,16,208,22,F,NA,constant,homogeneous,6,absent,0.863101005554199,1,vertical,vertical,1,1.04705131818663,green,1,NaN,692.232343256122,831.108485694346,NaN,NaN,692.232343256122,831.108485694346,946.261991269517,808.883771293693,1054.0296480134,577.775285599347,907.767656743878,368.891514305654,653.738008730483,391.116228706307,545.970351986605,622.224714400653,4,0,0,0,0,0,vertical,horizontal,vertical,vertical,vertical,vertical
1d,1,100206,4,17,209,22,F,NA,constant,homogeneous,6,absent,0.679945945739746,1,vertical,vertical,1,0.752938608853322,green,3,NaN,1054.37883281626,582.212099195248,NaN,NaN,688.215357568785,829.192481806288,942.594190385041,811.404581001536,1054.37883281626,582.212099195248,911.784642431215,370.807518193712,657.405809614959,388.595418998464,545.621167183745,617.787900804752,0,0,4,0,0,0,vertical,vertical,vertical,vertical,vertical,vertical
1d,1,100206,4,18,210,22,F,NA,constant,homogeneous,3,present,0.646828174591064,0,horizontal,vertical,1,0.670587050239995,green,3,1,734.001143498857,353.688914296288,619.68777079743,780.31222920257,619.68777079743,780.31222920257,1046.31108570371,665.998856501143,734.001143498857,353.688914296288,NaN,NaN,NaN,NaN,NaN,NaN,0,0,4,NaN,NaN,NaN,vertical,horizontal,horizontal,none,none,none
1d,1,100206,4,19,211,22,F,NA,constant,homogeneous,4,present,0.613379001617432,1,horizontal,horizontal,1,0.670587050239995,green,3,1,626.090418184063,413.504806087112,973.909581815937,786.495193912888,973.909581815937,786.495193912888,986.495193912888,426.090418184063,626.090418184063,413.504806087112,613.504806087112,773.909581815937,NaN,NaN,NaN,NaN,0,0,4,0,NaN,NaN,vertical,vertical,horizontal,vertical,none,none
1d,1,100206,4,20,212,22,F,NA,constant,homogeneous,3,absent,0.643332958221436,1,vertical,vertical,1,1.05881582655997,green,2,NaN,911.784642431215,370.807518193712,NaN,NaN,942.594190385041,811.404581001536,911.784642431215,370.807518193712,545.621167183745,617.787900804752,NaN,NaN,NaN,NaN,NaN,NaN,0,4,0,NaN,NaN,NaN,horizontal,vertical,horizontal,none,none,none
1d,1,100206,4,21,213,22,F,NA,constant,homogeneous,4,present,0.609200000762939,1,horizontal,horizontal,1,1.05881582655997,green,3,4,942.594190385041,388.595418998464,588.595418998464,457.40580961496,657.405809614959,811.404581001536,1011.40458100154,742.594190385041,942.594190385041,388.595418998464,588.595418998464,457.40580961496,NaN,NaN,NaN,NaN,0,0,4,0,NaN,NaN,horizontal,vertical,horizontal,horizontal,none,none
1d,1,100206,4,22,214,22,F,NA,constant,homogeneous,5,absent,0.603034973144531,1,horizontal,horizontal,1,1.08234484330663,green,5,NaN,551.535633479765,657.362518857686,NaN,NaN,777.775285599347,854.029648013395,1034.72873763037,699.636437764765,967.295052392579,407.549057043193,668.665290897936,381.422338320961,551.535633479765,657.362518857686,NaN,NaN,0,0,0,0,4,NaN,horizontal,horizontal,vertical,horizontal,horizontal,none
1d,1,100206,4,23,215,22,F,NA,constant,homogeneous,5,present,0.517189025878906,1,vertical,vertical,1,0.682351558613327,green,3,2,1011.40458100154,457.40580961496,1000.94274216971,756.993676208043,712.784863451954,839.621618300407,1000.94274216971,756.993676208043,1011.40458100154,457.40580961496,729.712474266665,354.878267535729,545.155339110131,591.100628340862,NaN,NaN,0,0,4,0,0,NaN,vertical,vertical,vertical,vertical,vertical,none
1d,1,100206,4,24,216,22,F,NA,constant,homogeneous,6,present,0.67133903503418,1,vertical,vertical,1,0.988228776319972,green,2,5,998.172220171528,760.476699717708,601.827779828472,439.523300282291,760.109211414741,851.86052685176,998.172220171528,760.476699717708,1038.06300875679,508.616172865948,839.890788585259,348.13947314824,601.827779828472,439.523300282291,561.936991243214,691.383827134052,0,4,0,0,0,0,horizontal,vertical,vertical,horizontal,horizontal,horizontal
1d,1,100206,4,25,217,22,F,NA,constant,homogeneous,3,present,0.574635982513428,1,horizontal,horizontal,1,0.870583692586647,green,2,3,1051.12597701811,644.280285305067,712.784863451954,360.378381699593,636.089159529932,795.341332995339,1051.12597701811,644.280285305067,712.784863451954,360.378381699593,NaN,NaN,NaN,NaN,NaN,NaN,0,4,0,NaN,NaN,NaN,horizontal,horizontal,horizontal,none,none,none
1d,1,100206,4,26,218,22,F,NA,constant,homogeneous,3,present,0.654920101165771,1,vertical,vertical,1,1.04705131818663,green,3,2,548.874022981887,644.280285305067,887.215136548046,360.378381699593,963.910840470068,795.341332995339,887.215136548046,360.378381699593,548.874022981887,644.280285305067,NaN,NaN,NaN,NaN,NaN,NaN,0,0,4,NaN,NaN,NaN,horizontal,horizontal,vertical,none,none,none
1d,1,100206,4,27,219,22,F,NA,constant,homogeneous,3,absent,0.55553412437439,1,vertical,vertical,1,0.752938608853322,green,3,NaN,552.574589799621,538.309916622085,NaN,NaN,870.287525733335,845.121732464271,977.137884467044,416.568350913644,552.574589799621,538.309916622085,NaN,NaN,NaN,NaN,NaN,NaN,0,0,4,NaN,NaN,NaN,vertical,horizontal,vertical,none,none,none
1d,1,100206,4,28,220,22,F,NA,constant,homogeneous,6,absent,0.551129102706909,1,horizontal,horizontal,1,0.623529016746665,green,3,NaN,992.450942956807,432.704947607421,NaN,NaN,848.656293821019,850.314931779154,1041.10723677783,683.019879386575,992.450942956807,432.704947607421,751.343706178981,349.685068220846,558.892763222174,516.980120613425,607.549057043193,767.295052392579,0,0,4,0,0,0,vertical,horizontal,horizontal,vertical,vertical,vertical
1d,1,100206,4,29,221,22,F,NA,constant,homogeneous,6,absent,0.77867603302002,1,horizontal,horizontal,1,0.811761150719984,green,2,NaN,1025.15163617903,719.715248510402,NaN,NaN,808.899371659138,854.844660889869,1025.15163617903,719.715248510402,1016.25226451989,464.870587620533,791.100628340862,345.155339110131,574.848363820974,480.284751489598,583.747735480111,735.129412379467,0,4,0,0,0,0,vertical,horizontal,horizontal,vertical,horizontal,vertical
1d,1,100206,4,30,222,22,F,NA,constant,homogeneous,5,present,0.650786161422729,1,horizontal,horizontal,1,0.83529016746665,green,5,3,549.685068220846,648.656293821019,973.909581815937,413.504806087112,768.923317431687,853.099268668537,1031.10848569435,707.767656743878,973.909581815937,413.504806087112,676.373546837184,376.971974679454,549.685068220846,648.656293821019,NaN,NaN,0,0,0,0,4,NaN,vertical,horizontal,vertical,horizontal,horizontal,none
1d,1,100206,4,31,223,22,F,NA,constant,homogeneous,3,absent,0.838677883148193,1,horizontal,horizontal,1,0.929406234453309,green,1,NaN,583.747735480111,735.129412379467,NaN,NaN,583.747735480111,735.129412379467,1025.15163617903,719.715248510402,791.100628340862,345.155339110131,NaN,NaN,NaN,NaN,NaN,NaN,4,0,0,NaN,NaN,NaN,horizontal,vertical,horizontal,none,none,none
1d,1,100206,4,32,224,22,F,NA,constant,homogeneous,6,present,0.708106994628906,1,horizontal,horizontal,1,0.611764508373332,green,3,2,1045.12173246427,529.712474266665,983.431649086356,777.137884467044,738.309916622085,847.425410200379,983.431649086356,777.137884467044,1045.12173246427,529.712474266665,861.690083377915,352.574589799621,616.568350913644,422.862115532956,554.878267535729,670.287525733335,0,0,4,0,0,0,horizontal,vertical,horizontal,vertical,vertical,vertical
1d,1,100206,4,33,225,22,F,NA,constant,homogeneous,4,absent,0.665148973464966,1,horizontal,horizontal,1,0.941170742826642,green,2,NaN,1000.94274216971,443.006323791957,NaN,NaN,956.993676208043,800.942742169714,1000.94274216971,443.006323791957,643.006323791957,399.057257830286,599.057257830286,756.993676208043,NaN,NaN,NaN,NaN,0,4,0,0,NaN,NaN,vertical,horizontal,horizontal,horizontal,none,none
1d,1,100206,4,34,226,22,F,NA,constant,homogeneous,4,absent,0.718679904937744,1,horizontal,horizontal,1,0.611764508373332,green,1,NaN,664.870587620533,816.252264519889,NaN,NaN,664.870587620533,816.252264519889,1016.25226451989,735.129412379467,935.129412379467,383.747735480111,583.747735480111,464.870587620533,NaN,NaN,NaN,NaN,4,0,0,0,NaN,NaN,horizontal,horizontal,horizontal,horizontal,none,none
1d,1,100206,4,35,227,22,F,NA,constant,homogeneous,5,absent,0.474552154541016,1,horizontal,horizontal,1,0.858819184213314,green,5,NaN,646.537169096228,803.65205506206,NaN,NaN,946.261991269517,808.883771293693,1043.85771277057,525.445215295702,804.450363641507,345.03883773512,558.892763222174,516.980120613425,646.537169096228,803.65205506206,NaN,NaN,0,0,0,0,4,NaN,horizontal,horizontal,vertical,vertical,horizontal,none
1d,1,100206,4,36,228,22,F,NA,constant,homogeneous,5,present,0.640752077102661,1,horizontal,horizontal,1,1.02352230143997,green,3,1,1023.02802532055,476.373546837184,692.232343256122,831.108485694346,692.232343256122,831.108485694346,986.495193912888,773.909581815937,1023.02802532055,476.373546837184,751.343706178981,349.685068220846,546.900731331463,568.923317431687,NaN,NaN,0,0,4,0,0,NaN,horizontal,horizontal,horizontal,horizontal,vertical,none
1d,1,100206,4,37,229,22,F,NA,constant,homogeneous,3,absent,0.453645944595337,1,horizontal,horizontal,1,1.01175779306664,green,3,NaN,553.688914296288,665.998856501143,NaN,NaN,980.31222920257,780.31222920257,865.998856501143,353.688914296288,553.688914296288,665.998856501143,NaN,NaN,NaN,NaN,NaN,NaN,0,0,4,NaN,NaN,NaN,vertical,horizontal,horizontal,none,none,none
1d,1,100206,4,38,230,22,F,NA,constant,homogeneous,3,absent,0.553992986679077,1,horizontal,horizontal,1,0.729409592106657,green,1,NaN,692.232343256122,831.108485694346,NaN,NaN,692.232343256122,831.108485694346,1054.0296480134,577.775285599347,653.738008730483,391.116228706307,NaN,NaN,NaN,NaN,NaN,NaN,4,0,0,NaN,NaN,NaN,horizontal,vertical,vertical,none,none,none
1d,1,100206,4,39,231,22,F,NA,constant,homogeneous,6,absent,0.618643999099731,1,vertical,vertical,1,1.08234484330663,green,2,NaN,1000.94274216971,756.993676208043,NaN,NaN,764.510859255183,852.518357529101,1000.94274216971,756.993676208043,1036.43188291453,504.475318678942,835.489140744817,347.4816424709,599.057257830286,443.006323791957,563.568117085469,695.524681321058,0,4,0,0,0,0,horizontal,vertical,vertical,horizontal,horizontal,horizontal
1d,1,100206,4,40,232,22,F,NA,constant,homogeneous,5,absent,0.531792163848877,1,vertical,vertical,1,0.823525659093317,green,2,NaN,1042.51941165526,678.799333565612,NaN,NaN,800,855,1042.51941165526,678.799333565612,949.885239334581,393.700666434388,650.114760665419,393.700666434388,557.480588344736,678.799333565612,NaN,NaN,0,4,0,0,0,NaN,horizontal,vertical,horizontal,vertical,horizontal,none
1d,1,100206,4,41,233,22,F,NA,constant,homogeneous,6,absent,0.482790946960449,1,vertical,vertical,1,0.611764508373332,green,2,NaN,1054.84466088987,608.899371659138,NaN,NaN,919.715248510402,825.151636179026,1054.84466088987,608.899371659138,935.129412379467,383.747735480111,680.284751489598,374.848363820974,545.155339110131,591.100628340862,664.870587620533,816.252264519889,0,4,0,0,0,0,horizontal,vertical,horizontal,vertical,vertical,horizontal
1d,1,100206,4,42,234,22,F,NA,constant,homogeneous,3,present,0.544467926025391,1,horizontal,horizontal,1,0.78823213397332,green,2,3,1047.42541020038,538.309916622085,622.862115532956,416.568350913644,729.712474266665,845.121732464271,1047.42541020038,538.309916622085,622.862115532956,416.568350913644,NaN,NaN,NaN,NaN,NaN,NaN,0,4,0,NaN,NaN,NaN,horizontal,horizontal,vertical,none,none,none
1d,1,100206,4,43,235,22,F,NA,constant,homogeneous,4,present,1.7025990486145,1,vertical,vertical,1,0.952935251199974,green,3,4,895.524681321058,363.568117085469,563.568117085469,504.475318678942,704.475318678942,836.431882914531,1036.43188291453,695.524681321058,895.524681321058,363.568117085469,563.568117085469,504.475318678942,NaN,NaN,NaN,NaN,0,0,4,0,NaN,NaN,horizontal,horizontal,vertical,horizontal,none,none
1d,1,100206,4,44,236,22,F,NA,constant,homogeneous,5,absent,0.838219881057739,1,vertical,vertical,1,1.0705803349333,green,2,NaN,1053.60308331891,573.345241866748,NaN,NaN,903.717843984329,832.954091698863,1053.60308331891,573.345241866748,853.017481158529,350.57236181288,579.163522034968,472.5,610.498069503264,770.628304621509,NaN,NaN,0,4,0,0,0,NaN,vertical,vertical,vertical,horizontal,vertical,none
1d,1,100206,4,45,237,22,F,NA,constant,homogeneous,4,absent,1.06926798820496,1,horizontal,horizontal,1,0.705880575359992,green,3,NaN,804.450363641507,345.03883773512,NaN,NaN,795.549636358493,854.96116226488,1054.96116226488,604.450363641507,804.450363641507,345.03883773512,545.03883773512,595.549636358493,NaN,NaN,NaN,NaN,0,0,4,0,NaN,NaN,horizontal,horizontal,horizontal,vertical,none,none
1d,1,100206,4,46,238,22,F,NA,constant,homogeneous,3,present,0.659897089004517,1,vertical,vertical,1,0.64705803349333,green,3,2,632.704947607421,407.549057043193,1050.31493177915,551.343706178981,716.980120613425,841.107236777826,1050.31493177915,551.343706178981,632.704947607421,407.549057043193,NaN,NaN,NaN,NaN,NaN,NaN,0,0,4,NaN,NaN,NaN,vertical,horizontal,vertical,none,none,none
1d,1,100206,4,47,239,22,F,NA,constant,homogeneous,4,absent,0.688129901885986,1,vertical,vertical,1,0.74117410047999,green,1,NaN,672.5,820.836477965032,NaN,NaN,672.5,820.836477965032,1020.83647796503,727.5,927.5,379.163522034968,579.163522034968,472.5,NaN,NaN,NaN,NaN,4,0,0,0,NaN,NaN,vertical,vertical,horizontal,horizontal,none,none
1d,1,100206,4,48,240,22,F,NA,constant,homogeneous,4,absent,0.64209508895874,1,vertical,vertical,1,0.799996642346652,green,1,NaN,915.767577433584,827.206663668034,NaN,NaN,915.767577433584,827.206663668034,1027.20666366803,484.232422566416,684.232422566416,372.793336331966,572.793336331966,715.767577433584,NaN,NaN,NaN,NaN,4,0,0,0,NaN,NaN,vertical,vertical,vertical,horizontal,none,none
