experiment,subject,uniqueID,block,trial,trial_cumulative,age,gender,color_cond_blocking,color_history,shape_type,set_size,distractor,rt,acc,target_orient,response_key,response_made,iti,target_color,target_item,distractor_item,target_X,target_Y,distractor_X,distractor_Y,item1_X,item1_Y,item2_X,item2_Y,item3_X,item3_Y,item4_X,item4_Y,item5_X,item5_Y,item6_X,item6_Y,item1_shape,item2_shape,item3_shape,item4_shape,item5_shape,item6_shape,item1_line,item2_line,item3_line,item4_line,item5_line,item6_line
1d,20,100243,1,1,1,19,F,NA,constant,homogeneous,5,present,0.519994974136353,1,horizontal,horizontal,1,0.776463744470051,red,4,1,591.116228706307,453.738008730483,883.019879386575,841.107236777826,883.019879386575,841.107236777826,1054.96116226488,595.549636358493,874.554784704298,356.142287229426,591.116228706307,453.738008730483,596.34794493794,753.462830903772,NaN,NaN,0,0,0,4,0,NaN,vertical,horizontal,horizontal,horizontal,horizontal,none
1d,20,100243,1,2,2,19,F,NA,constant,homogeneous,5,absent,0.507912874221802,1,horizontal,horizontal,1,0.882341991152082,red,2,NaN,1039.62161830041,687.215136548046,NaN,NaN,791.100628340862,854.844660889869,1039.62161830041,687.215136548046,956.993676208043,399.057257830286,657.405809614959,388.595418998464,554.878267535729,670.287525733335,NaN,NaN,0,4,0,0,0,NaN,horizontal,horizontal,vertical,horizontal,horizontal,none
1d,20,100243,1,3,3,19,F,NA,constant,homogeneous,4,absent,0.391261100769043,1,horizontal,horizontal,1,0.647056998525347,red,2,NaN,1006.29933356561,749.885239334581,NaN,NaN,650.114760665419,806.299333565612,1006.29933356561,749.885239334581,949.885239334581,393.700666434388,593.700666434388,450.114760665419,NaN,NaN,NaN,NaN,0,4,0,0,NaN,NaN,horizontal,horizontal,horizontal,vertical,none,none
1d,20,100243,1,4,4,19,F,NA,constant,homogeneous,6,present,0.726541042327881,1,vertical,vertical,1,0.952927488940103,red,4,1,680.284751489598,374.848363820974,919.715248510402,825.151636179026,919.715248510402,825.151636179026,1054.84466088987,608.899371659138,935.129412379467,383.747735480111,680.284751489598,374.848363820974,545.155339110131,591.100628340862,664.870587620533,816.252264519889,0,0,0,4,0,0,vertical,horizontal,horizontal,vertical,vertical,horizontal
1d,20,100243,1,5,5,19,F,NA,constant,homogeneous,6,present,0.569371938705444,1,vertical,vertical,1,0.835284992626735,red,6,3,672.5,820.836477965032,927.5,379.163522034968,927.5,820.836477965032,1055,600,927.5,379.163522034968,672.5,379.163522034968,545,600,672.5,820.836477965032,0,0,0,0,0,4,vertical,vertical,horizontal,vertical,horizontal,vertical
1d,20,100243,1,6,6,19,F,NA,constant,homogeneous,6,present,0.733886957168579,0,horizontal,vertical,1,0.63529274889401,red,5,3,567.045908301137,496.282156015671,1006.29933356561,450.114760665419,826.654758133252,853.60308331891,1032.95409169886,703.717843984329,1006.29933356561,450.114760665419,773.345241866748,346.39691668109,567.045908301137,496.282156015671,593.700666434388,749.885239334581,0,0,0,0,4,0,horizontal,horizontal,horizontal,horizontal,horizontal,vertical
1d,20,100243,1,7,7,19,F,NA,constant,homogeneous,3,present,0.487212181091309,1,vertical,vertical,1,0.729406745944704,red,2,3,1052.5183575291,564.510859255183,643.006323791957,399.057257830286,704.475318678942,836.431882914531,1052.5183575291,564.510859255183,643.006323791957,399.057257830286,NaN,NaN,NaN,NaN,NaN,NaN,0,4,0,NaN,NaN,NaN,horizontal,vertical,horizontal,none,none,none
1d,20,100243,1,8,8,19,F,NA,constant,homogeneous,4,present,0.559860944747925,0,vertical,horizontal,1,0.929398989677429,red,1,4,704.475318678942,836.431882914531,563.568117085469,504.475318678942,704.475318678942,836.431882914531,1036.43188291453,695.524681321058,895.524681321058,363.568117085469,563.568117085469,504.475318678942,NaN,NaN,NaN,NaN,4,0,0,0,NaN,NaN,vertical,horizontal,horizontal,vertical,none,none
1d,20,100243,1,9,9,19,F,NA,constant,homogeneous,4,absent,0.536211013793945,1,horizontal,horizontal,1,1.05880573562213,red,1,NaN,956.993676208043,800.942742169714,NaN,NaN,956.993676208043,800.942742169714,1000.94274216971,443.006323791957,643.006323791957,399.057257830286,599.057257830286,756.993676208043,NaN,NaN,NaN,NaN,4,0,0,0,NaN,NaN,horizontal,vertical,vertical,vertical,none,none
1d,20,100243,1,10,10,19,F,NA,constant,homogeneous,3,absent,0.664353847503662,1,vertical,vertical,1,0.658821248156684,red,2,NaN,848.656293821019,349.685068220846,NaN,NaN,992.450942956807,767.295052392579,848.656293821019,349.685068220846,558.892763222174,683.019879386575,NaN,NaN,NaN,NaN,NaN,NaN,0,4,0,NaN,NaN,NaN,horizontal,vertical,vertical,none,none,none
1d,20,100243,1,11,11,19,F,NA,constant,homogeneous,5,absent,0.486773014068604,1,vertical,vertical,1,1.03527723635946,red,3,NaN,1041.10723677783,516.980120613425,NaN,NaN,653.738008730483,808.883771293693,953.462830903772,803.65205506206,1041.10723677783,516.980120613425,795.549636358493,345.03883773512,556.142287229426,525.445215295702,NaN,NaN,0,0,4,0,0,NaN,horizontal,vertical,vertical,vertical,horizontal,none
1d,20,100243,1,12,12,19,F,NA,constant,homogeneous,5,absent,0.589071989059448,1,vertical,vertical,1,0.835284992626735,red,3,NaN,844.280285305067,348.874022981887,NaN,NaN,911.784642431215,829.192481806288,1052.5183575291,564.510859255183,844.280285305067,348.874022981887,574.848363820974,480.284751489598,616.568350913644,777.137884467044,NaN,NaN,0,0,4,0,0,NaN,horizontal,horizontal,vertical,horizontal,vertical,none
1d,20,100243,1,13,13,19,F,NA,constant,homogeneous,5,absent,0.82083797454834,1,horizontal,horizontal,1,0.776463744470051,red,4,NaN,596.34794493794,446.537169096228,NaN,NaN,874.554784704298,843.857712770574,1054.96116226488,604.450363641507,883.019879386575,358.892763222174,596.34794493794,446.537169096228,591.116228706307,746.261991269517,NaN,NaN,0,0,0,4,0,NaN,horizontal,vertical,horizontal,horizontal,vertical,none
1d,20,100243,1,14,14,19,F,NA,constant,homogeneous,6,present,0.837023973464966,0,horizontal,vertical,1,0.799992243732725,red,4,3,729.712474266665,354.878267535729,977.137884467044,416.568350913644,870.287525733335,845.121732464271,1047.42541020038,661.690083377915,977.137884467044,416.568350913644,729.712474266665,354.878267535729,552.574589799621,538.309916622085,622.862115532956,783.431649086356,0,0,0,4,0,0,horizontal,vertical,vertical,horizontal,horizontal,horizontal
1d,20,100243,1,15,15,19,F,NA,constant,homogeneous,6,absent,0.575927972793579,1,vertical,vertical,1,0.894106240783419,red,4,NaN,883.019879386575,358.892763222174,NaN,NaN,716.980120613425,841.107236777826,967.295052392579,792.450942956807,1050.31493177915,551.343706178981,883.019879386575,358.892763222174,632.704947607421,407.549057043193,549.685068220846,648.656293821019,0,0,0,4,0,0,horizontal,horizontal,horizontal,vertical,vertical,horizontal
1d,20,100243,1,16,16,19,F,NA,constant,homogeneous,4,absent,0.644750118255615,1,vertical,vertical,1,0.647056998525347,red,4,NaN,547.481642470899,635.489140744817,NaN,NaN,835.489140744817,852.518357529101,1052.5183575291,564.510859255183,764.510859255183,347.4816424709,547.481642470899,635.489140744817,NaN,NaN,NaN,NaN,0,0,0,4,NaN,NaN,vertical,horizontal,vertical,vertical,none,none
1d,20,100243,1,17,17,19,F,NA,constant,homogeneous,4,present,0.400027990341187,1,vertical,vertical,1,0.717642496313368,red,3,1,839.890788585259,348.13947314824,760.109211414741,851.86052685176,760.109211414741,851.86052685176,1051.86052685176,639.890788585259,839.890788585259,348.13947314824,548.13947314824,560.109211414741,NaN,NaN,NaN,NaN,0,0,4,0,NaN,NaN,horizontal,horizontal,vertical,vertical,none,none
1d,20,100243,1,18,18,19,F,NA,constant,homogeneous,3,present,0.470311164855957,1,vertical,vertical,1,0.894106240783419,red,1,2,891.383827134052,838.063008756786,960.476699717708,401.827779828472,891.383827134052,838.063008756786,960.476699717708,401.827779828472,548.13947314824,560.109211414741,NaN,NaN,NaN,NaN,NaN,NaN,4,0,0,NaN,NaN,NaN,vertical,vertical,horizontal,none,none,none
1d,20,100243,1,19,19,19,F,NA,constant,homogeneous,6,present,0.608374118804932,1,vertical,vertical,1,0.611764249631337,red,2,6,1054.96116226488,604.450363641507,668.665290897936,818.577661679039,923.626453162816,823.028025320546,1054.96116226488,604.450363641507,931.334709102064,381.422338320961,676.373546837184,376.971974679454,545.03883773512,595.549636358493,668.665290897936,818.577661679039,0,4,0,0,0,0,vertical,vertical,vertical,horizontal,horizontal,vertical
1d,20,100243,1,20,20,19,F,NA,constant,homogeneous,5,absent,0.527402877807617,1,vertical,vertical,1,0.741170995576041,red,5,NaN,557.480588344736,678.799333565612,NaN,NaN,800,855,1042.51941165526,678.799333565612,949.885239334581,393.700666434388,650.114760665419,393.700666434388,557.480588344736,678.799333565612,NaN,NaN,0,0,0,0,4,NaN,vertical,horizontal,horizontal,horizontal,vertical,none
1d,20,100243,1,21,21,19,F,NA,constant,homogeneous,6,present,0.658928871154785,1,horizontal,horizontal,1,0.858813491889409,red,2,5,983.431649086356,777.137884467044,616.568350913644,422.862115532956,738.309916622085,847.425410200379,983.431649086356,777.137884467044,1045.12173246427,529.712474266665,861.690083377915,352.574589799621,616.568350913644,422.862115532956,554.878267535729,670.287525733335,0,4,0,0,0,0,horizontal,horizontal,horizontal,vertical,horizontal,vertical
1d,20,100243,1,22,22,19,F,NA,constant,homogeneous,3,absent,0.660351037979126,0,horizontal,vertical,1,0.799992243732725,red,3,NaN,755.719714694933,348.874022981887,NaN,NaN,604.658667004661,763.910840470068,1039.62161830041,687.215136548046,755.719714694933,348.874022981887,NaN,NaN,NaN,NaN,NaN,NaN,0,0,4,NaN,NaN,NaN,vertical,vertical,horizontal,none,none,none
1d,20,100243,1,23,23,19,F,NA,constant,homogeneous,5,present,0.696209907531738,1,horizontal,horizontal,1,0.917634740046092,red,4,2,768.923317431687,346.900731331463,973.909581815937,786.495193912888,676.373546837184,823.028025320546,973.909581815937,786.495193912888,1031.10848569435,492.232343256122,768.923317431687,346.900731331463,549.685068220846,551.343706178981,NaN,NaN,0,0,0,4,0,NaN,horizontal,horizontal,vertical,horizontal,horizontal,none
1d,20,100243,1,24,24,19,F,NA,constant,homogeneous,4,absent,0.579982042312622,0,vertical,horizontal,1,1.08233423488481,red,4,NaN,616.568350913644,422.862115532956,NaN,NaN,622.862115532956,783.431649086356,983.431649086356,777.137884467044,977.137884467044,416.568350913644,616.568350913644,422.862115532956,NaN,NaN,NaN,NaN,0,0,0,4,NaN,NaN,vertical,vertical,horizontal,vertical,none,none
1d,20,100243,1,25,25,19,F,NA,constant,homogeneous,4,present,0.60216212272644,1,horizontal,horizontal,1,0.917634740046092,red,4,2,570.807518193712,488.215357568785,1029.19248180629,711.784642431215,688.215357568785,829.192481806288,1029.19248180629,711.784642431215,911.784642431215,370.807518193712,570.807518193712,488.215357568785,NaN,NaN,NaN,NaN,0,0,0,4,NaN,NaN,horizontal,horizontal,horizontal,horizontal,none,none
1d,20,100243,1,26,26,19,F,NA,constant,homogeneous,6,absent,0.924031019210815,0,horizontal,vertical,1,0.682349747419357,red,4,NaN,895.524681321058,363.568117085469,NaN,NaN,704.475318678942,836.431882914531,956.993676208043,800.942742169714,1052.5183575291,564.510859255183,895.524681321058,363.568117085469,643.006323791957,399.057257830286,547.481642470899,635.489140744817,0,0,0,4,0,0,horizontal,horizontal,horizontal,horizontal,vertical,horizontal
1d,20,100243,1,27,27,19,F,NA,constant,homogeneous,3,absent,0.704275131225586,1,horizontal,horizontal,1,0.882341991152082,red,1,NaN,911.784642431215,829.192481806288,NaN,NaN,911.784642431215,829.192481806288,942.594190385041,388.595418998464,545.621167183745,582.212099195248,NaN,NaN,NaN,NaN,NaN,NaN,4,0,0,NaN,NaN,NaN,horizontal,vertical,vertical,none,none,none
1d,20,100243,1,28,28,19,F,NA,constant,homogeneous,4,present,0.508157014846802,1,horizontal,horizontal,1,0.882341991152082,red,4,3,593.700666434388,450.114760665419,949.885239334581,393.700666434388,650.114760665419,806.299333565612,1006.29933356561,749.885239334581,949.885239334581,393.700666434388,593.700666434388,450.114760665419,NaN,NaN,NaN,NaN,0,0,0,4,NaN,NaN,vertical,horizontal,vertical,horizontal,none,none
1d,20,100243,1,29,29,19,F,NA,constant,homogeneous,5,absent,0.549997091293335,1,horizontal,horizontal,1,0.776463744470051,red,3,NaN,935.129412379467,383.747735480111,NaN,NaN,817.787900804752,854.378832816255,1047.42541020038,661.690083377915,935.129412379467,383.747735480111,636.089159529932,404.658667004661,563.568117085469,695.524681321058,NaN,NaN,0,0,4,0,0,NaN,horizontal,vertical,horizontal,horizontal,vertical,none
1d,20,100243,1,30,30,19,F,NA,constant,homogeneous,3,absent,0.481312990188599,1,horizontal,horizontal,1,0.611764249631337,red,2,NaN,983.431649086356,422.862115532956,NaN,NaN,861.690083377915,847.425410200379,983.431649086356,422.862115532956,554.878267535729,529.712474266665,NaN,NaN,NaN,NaN,NaN,NaN,0,4,0,NaN,NaN,NaN,vertical,horizontal,horizontal,none,none,none
1d,20,100243,1,31,31,19,F,NA,constant,homogeneous,6,absent,0.925113916397095,1,vertical,vertical,1,0.694113997050694,red,1,NaN,804.450363641507,854.96116226488,NaN,NaN,804.450363641507,854.96116226488,1023.02802532055,723.626453162816,1018.57766167904,468.665290897936,795.549636358493,345.03883773512,576.971974679454,476.373546837184,581.422338320961,731.334709102064,4,0,0,0,0,0,vertical,vertical,vertical,horizontal,vertical,vertical
1d,20,100243,1,32,32,19,F,NA,constant,homogeneous,5,absent,0.570786952972412,1,vertical,vertical,1,0.752935245207378,red,2,NaN,1023.02802532055,723.626453162816,NaN,NaN,751.343706178981,850.314931779154,1023.02802532055,723.626453162816,986.495193912888,426.090418184063,692.232343256122,368.891514305654,546.900731331463,631.076682568313,NaN,NaN,0,4,0,0,0,NaN,vertical,vertical,vertical,vertical,vertical,none
1d,20,100243,1,33,33,19,F,NA,constant,homogeneous,3,present,0.623011112213135,1,horizontal,horizontal,1,0.63529274889401,red,2,1,992.450942956807,432.704947607421,848.656293821019,850.314931779154,848.656293821019,850.314931779154,992.450942956807,432.704947607421,558.892763222174,516.980120613425,NaN,NaN,NaN,NaN,NaN,NaN,0,4,0,NaN,NaN,NaN,vertical,horizontal,horizontal,none,none,none
1d,20,100243,1,34,34,19,F,NA,constant,homogeneous,3,absent,0.592950820922852,0,horizontal,vertical,1,1.05880573562213,red,2,NaN,1054.84466088987,608.899371659138,NaN,NaN,664.870587620533,816.252264519889,1054.84466088987,608.899371659138,680.284751489598,374.848363820974,NaN,NaN,NaN,NaN,NaN,NaN,0,4,0,NaN,NaN,NaN,vertical,horizontal,horizontal,none,none,none
1d,20,100243,1,35,35,19,F,NA,constant,homogeneous,3,present,0.805632829666138,1,horizontal,horizontal,1,0.835284992626735,red,1,2,782.212099195248,854.378832816255,1029.19248180629,488.215357568785,782.212099195248,854.378832816255,1029.19248180629,488.215357568785,588.595418998464,457.40580961496,NaN,NaN,NaN,NaN,NaN,NaN,4,0,0,NaN,NaN,NaN,horizontal,horizontal,horizontal,none,none,none
1d,20,100243,1,36,36,19,F,NA,constant,homogeneous,5,present,0.771242141723633,1,vertical,vertical,1,0.870577741520745,red,5,1,636.089159529932,795.341332995339,935.129412379467,816.252264519889,935.129412379467,816.252264519889,1047.42541020038,538.309916622085,817.787900804752,345.621167183745,563.568117085469,504.475318678942,636.089159529932,795.341332995339,NaN,NaN,0,0,0,0,4,NaN,vertical,horizontal,vertical,vertical,vertical,none
1d,20,100243,1,37,37,19,F,NA,constant,homogeneous,6,absent,1.26794600486755,0,horizontal,vertical,1,0.647056998525347,red,5,NaN,572.793336331966,484.232422566416,NaN,NaN,813.345668841951,854.650531362416,1027.20666366803,715.767577433584,1013.86099482608,461.117046071168,786.654331158049,345.349468637584,572.793336331966,484.232422566416,586.139005173917,738.882953928832,0,0,0,0,4,0,horizontal,vertical,vertical,vertical,horizontal,horizontal
1d,20,100243,1,38,38,19,F,NA,constant,homogeneous,5,present,0.917342901229858,1,horizontal,horizontal,1,0.99998448746545,red,1,5,865.998856501143,846.311085703712,586.139005173917,738.882953928832,865.998856501143,846.311085703712,1054.65053136242,613.345668841951,891.383827134052,361.936991243214,601.827779828472,439.523300282291,586.139005173917,738.882953928832,NaN,NaN,4,0,0,0,0,NaN,horizontal,horizontal,horizontal,horizontal,vertical,none
1d,20,100243,1,39,39,19,F,NA,constant,homogeneous,6,absent,0.961047172546387,1,horizontal,horizontal,1,1.05880573562213,red,4,NaN,895.524681321058,363.568117085469,NaN,NaN,704.475318678942,836.431882914531,956.993676208043,800.942742169714,1052.5183575291,564.510859255183,895.524681321058,363.568117085469,643.006323791957,399.057257830286,547.481642470899,635.489140744817,0,0,0,4,0,0,vertical,horizontal,horizontal,horizontal,horizontal,vertical
1d,20,100243,1,40,40,19,F,NA,constant,homogeneous,4,present,0.660789966583252,1,vertical,vertical,1,0.823520742995398,red,2,1,1052.5183575291,564.510859255183,835.489140744817,852.518357529101,835.489140744817,852.518357529101,1052.5183575291,564.510859255183,764.510859255183,347.4816424709,547.481642470899,635.489140744817,NaN,NaN,NaN,NaN,0,4,0,0,NaN,NaN,vertical,vertical,vertical,vertical,none,none
1d,20,100243,1,41,41,19,F,NA,constant,homogeneous,6,absent,0.673666954040527,0,horizontal,vertical,1,0.764699494838715,red,6,NaN,657.405809614959,811.404581001536,NaN,NaN,911.784642431215,829.192481806288,1054.37883281626,617.787900804752,942.594190385041,388.595418998464,688.215357568785,370.807518193712,545.621167183745,582.212099195248,657.405809614959,811.404581001536,0,0,0,0,0,4,horizontal,horizontal,horizontal,horizontal,horizontal,horizontal
1d,20,100243,1,42,42,19,F,NA,constant,homogeneous,6,present,0.735261917114258,1,horizontal,horizontal,1,0.99998448746545,red,3,4,977.137884467044,416.568350913644,729.712474266665,354.878267535729,870.287525733335,845.121732464271,1047.42541020038,661.690083377915,977.137884467044,416.568350913644,729.712474266665,354.878267535729,552.574589799621,538.309916622085,622.862115532956,783.431649086356,0,0,4,0,0,0,horizontal,horizontal,horizontal,horizontal,vertical,vertical
1d,20,100243,1,43,43,19,F,NA,constant,homogeneous,6,absent,1.08162903785706,1,vertical,vertical,1,0.976455988202776,red,2,NaN,1018.57766167904,731.334709102064,NaN,NaN,795.549636358493,854.96116226488,1018.57766167904,731.334709102064,1023.02802532055,476.373546837184,804.450363641507,345.03883773512,581.422338320961,468.665290897936,576.971974679454,723.626453162816,0,4,0,0,0,0,horizontal,vertical,vertical,horizontal,vertical,vertical
1d,20,100243,1,44,44,19,F,NA,constant,homogeneous,5,present,0.572511911392212,1,vertical,vertical,1,1.0470414859908,red,1,5,835.489140744817,852.518357529101,570.807518193712,711.784642431215,835.489140744817,852.518357529101,1051.12597701811,644.280285305067,919.715248510402,374.848363820974,622.862115532956,416.568350913644,570.807518193712,711.784642431215,NaN,NaN,4,0,0,0,0,NaN,vertical,vertical,horizontal,vertical,vertical,none
1d,20,100243,1,45,45,19,F,NA,constant,homogeneous,4,absent,0.491091012954712,1,horizontal,horizontal,1,0.752935245207378,red,4,NaN,601.827779828472,439.523300282291,NaN,NaN,639.523300282292,798.172220171528,998.172220171528,760.476699717708,960.476699717708,401.827779828472,601.827779828472,439.523300282291,NaN,NaN,NaN,NaN,0,0,0,4,NaN,NaN,horizontal,vertical,vertical,horizontal,none,none
1d,20,100243,1,46,46,19,F,NA,constant,homogeneous,4,present,0.827176094055176,1,horizontal,horizontal,1,0.905870490414756,red,1,3,967.295052392579,792.450942956807,632.704947607421,407.549057043193,967.295052392579,792.450942956807,992.450942956807,432.704947607421,632.704947607421,407.549057043193,607.549057043193,767.295052392579,NaN,NaN,NaN,NaN,4,0,0,0,NaN,NaN,horizontal,vertical,vertical,vertical,none,none
1d,20,100243,1,47,47,19,F,NA,constant,homogeneous,5,present,0.531213998794556,1,vertical,vertical,1,0.964691738571439,red,2,3,1032.95409169886,703.717843984329,970.628304621509,410.498069503264,773.345241866748,853.60308331891,1032.95409169886,703.717843984329,970.628304621509,410.498069503264,672.5,379.163522034968,550.57236181288,653.017481158529,NaN,NaN,0,4,0,0,0,NaN,horizontal,vertical,vertical,horizontal,vertical,none
1d,20,100243,1,48,48,19,F,NA,constant,homogeneous,5,present,0.783277034759521,1,vertical,vertical,1,0.647056998525347,red,3,5,923.626453162816,376.971974679454,568.891514305654,707.767656743878,831.076682568313,853.099268668537,1050.31493177915,648.656293821019,923.626453162816,376.971974679454,626.090418184063,413.504806087112,568.891514305654,707.767656743878,NaN,NaN,0,0,4,0,0,NaN,horizontal,horizontal,vertical,horizontal,vertical,none
1d,20,100243,1,49,49,19,F,NA,constant,homogeneous,4,absent,0.614506006240845,1,vertical,vertical,1,0.988220237834113,red,1,NaN,791.100628340862,854.844660889869,NaN,NaN,791.100628340862,854.844660889869,1054.84466088987,608.899371659138,808.899371659138,345.155339110131,545.155339110131,591.100628340862,NaN,NaN,NaN,NaN,4,0,0,0,NaN,NaN,vertical,horizontal,vertical,vertical,none,none
1d,20,100243,1,50,50,19,F,NA,constant,homogeneous,4,absent,0.477108001708984,1,vertical,vertical,1,0.705878246682031,red,4,NaN,567.045908301137,496.282156015671,NaN,NaN,696.282156015671,832.954091698863,1032.95409169886,703.717843984329,903.717843984329,367.045908301137,567.045908301137,496.282156015671,NaN,NaN,NaN,NaN,0,0,0,4,NaN,NaN,vertical,vertical,vertical,vertical,none,none
1d,20,100243,1,51,51,19,F,NA,constant,homogeneous,4,absent,0.556659936904907,1,horizontal,horizontal,1,0.894106240783419,red,4,NaN,613.504806087112,426.090418184063,NaN,NaN,626.090418184063,786.495193912888,986.495193912888,773.909581815937,973.909581815937,413.504806087112,613.504806087112,426.090418184063,NaN,NaN,NaN,NaN,0,0,0,4,NaN,NaN,horizontal,horizontal,horizontal,horizontal,none,none
1d,20,100243,1,52,52,19,F,NA,constant,homogeneous,3,present,0.618365049362183,1,vertical,vertical,1,0.917634740046092,red,3,2,795.549636358493,345.03883773512,1023.02802532055,723.626453162816,581.422338320961,731.334709102064,1023.02802532055,723.626453162816,795.549636358493,345.03883773512,NaN,NaN,NaN,NaN,NaN,NaN,0,0,4,NaN,NaN,NaN,vertical,horizontal,vertical,none,none,none
1d,20,100243,1,53,53,19,F,NA,constant,homogeneous,3,absent,0.528017044067383,0,vertical,horizontal,1,0.858813491889409,red,1,NaN,593.700666434388,749.885239334581,NaN,NaN,593.700666434388,749.885239334581,1032.95409169886,703.717843984329,773.345241866748,346.39691668109,NaN,NaN,NaN,NaN,NaN,NaN,4,0,0,NaN,NaN,NaN,vertical,vertical,vertical,none,none,none
1d,20,100243,1,54,54,19,F,NA,constant,homogeneous,3,present,0.586830854415894,1,horizontal,horizontal,1,0.799992243732725,red,3,2,773.345241866748,346.39691668109,1032.95409169886,703.717843984329,593.700666434388,749.885239334581,1032.95409169886,703.717843984329,773.345241866748,346.39691668109,NaN,NaN,NaN,NaN,NaN,NaN,0,0,4,NaN,NaN,NaN,horizontal,horizontal,horizontal,none,none,none
1d,20,100243,1,55,55,19,F,NA,constant,homogeneous,4,present,0.654803991317749,1,vertical,vertical,1,1.01174873709679,red,2,1,1011.40458100154,742.594190385041,657.405809614959,811.404581001536,657.405809614959,811.404581001536,1011.40458100154,742.594190385041,942.594190385041,388.595418998464,588.595418998464,457.40580961496,NaN,NaN,NaN,NaN,0,4,0,0,NaN,NaN,vertical,vertical,vertical,horizontal,none,none
1d,20,100243,1,56,56,19,F,NA,constant,homogeneous,3,absent,0.571991920471191,1,vertical,vertical,1,0.976455988202776,red,1,NaN,895.524681321058,836.431882914531,NaN,NaN,895.524681321058,836.431882914531,956.993676208043,399.057257830286,547.481642470899,564.510859255183,NaN,NaN,NaN,NaN,NaN,NaN,4,0,0,NaN,NaN,NaN,vertical,horizontal,vertical,none,none,none
1d,20,100243,1,57,57,19,F,NA,constant,homogeneous,5,absent,0.624787092208862,1,horizontal,horizontal,1,0.658821248156684,red,4,NaN,616.568350913644,422.862115532956,NaN,NaN,844.280285305067,851.125977018113,1052.5183575291,635.489140744817,911.784642431215,370.807518193712,616.568350913644,422.862115532956,574.848363820974,719.715248510402,NaN,NaN,0,0,0,4,0,NaN,vertical,vertical,vertical,horizontal,vertical,none
1d,20,100243,1,58,58,19,F,NA,constant,homogeneous,3,present,0.920670032501221,1,horizontal,horizontal,1,0.964691738571439,red,1,2,700.363562235235,834.728737630372,1053.09926866854,568.923317431687,700.363562235235,834.728737630372,1053.09926866854,568.923317431687,646.537169096228,396.34794493794,NaN,NaN,NaN,NaN,NaN,NaN,4,0,0,NaN,NaN,NaN,horizontal,vertical,horizontal,none,none,none
1d,20,100243,1,59,59,19,F,NA,constant,homogeneous,5,present,0.477745056152344,1,horizontal,horizontal,1,0.729406745944704,red,5,3,548.874022981887,644.280285305067,977.137884467044,416.568350913644,764.510859255183,852.518357529101,1029.19248180629,711.784642431215,977.137884467044,416.568350913644,680.284751489598,374.848363820974,548.874022981887,644.280285305067,NaN,NaN,0,0,0,0,4,NaN,horizontal,vertical,horizontal,horizontal,horizontal,none
1d,20,100243,1,60,60,19,F,NA,constant,homogeneous,4,present,0.500225067138672,1,horizontal,horizontal,1,0.623528499262674,red,2,4,1008.88377129369,453.738008730483,591.116228706307,746.261991269517,946.261991269517,808.883771293693,1008.88377129369,453.738008730483,653.738008730483,391.116228706307,591.116228706307,746.261991269517,NaN,NaN,NaN,NaN,0,4,0,0,NaN,NaN,horizontal,horizontal,vertical,horizontal,none,none
1d,20,100243,1,61,61,19,F,NA,constant,homogeneous,6,absent,0.521681070327759,1,vertical,vertical,1,0.976455988202776,red,3,NaN,1000.94274216971,443.006323791957,NaN,NaN,835.489140744817,852.518357529101,1036.43188291453,695.524681321058,1000.94274216971,443.006323791957,764.510859255183,347.4816424709,563.568117085469,504.475318678942,599.057257830286,756.993676208043,0,0,4,0,0,0,horizontal,horizontal,vertical,horizontal,vertical,horizontal
1d,20,100243,1,62,62,19,F,NA,constant,homogeneous,3,present,1.0900890827179,1,vertical,vertical,1,0.694113997050694,red,1,3,700.363562235235,834.728737630372,646.537169096228,396.34794493794,700.363562235235,834.728737630372,1053.09926866854,568.923317431687,646.537169096228,396.34794493794,NaN,NaN,NaN,NaN,NaN,NaN,4,0,0,NaN,NaN,NaN,vertical,horizontal,horizontal,none,none,none
1d,20,100243,1,63,63,19,F,NA,constant,homogeneous,6,present,0.680269002914429,1,vertical,vertical,1,0.811756493364062,red,5,2,558.892763222174,516.980120613425,1041.10723677783,683.019879386575,848.656293821019,850.314931779154,1041.10723677783,683.019879386575,992.450942956807,432.704947607421,751.343706178981,349.685068220846,558.892763222174,516.980120613425,607.549057043193,767.295052392579,0,0,0,0,4,0,horizontal,vertical,horizontal,horizontal,vertical,horizontal
1d,20,100243,1,64,64,19,F,NA,constant,homogeneous,3,absent,0.567435026168823,1,vertical,vertical,1,1.07056998525347,red,1,NaN,835.489140744817,852.518357529101,NaN,NaN,835.489140744817,852.518357529101,1000.94274216971,443.006323791957,563.568117085469,504.475318678942,NaN,NaN,NaN,NaN,NaN,NaN,4,0,0,NaN,NaN,NaN,vertical,horizontal,vertical,none,none,none
1d,20,100243,2,1,65,19,F,NA,constant,homogeneous,4,present,0.503568887710571,1,horizontal,horizontal,1,1.08233423488481,red,2,3,1029.19248180629,711.784642431215,911.784642431215,370.807518193712,688.215357568785,829.192481806288,1029.19248180629,711.784642431215,911.784642431215,370.807518193712,570.807518193712,488.215357568785,NaN,NaN,NaN,NaN,0,4,0,0,NaN,NaN,horizontal,horizontal,horizontal,horizontal,none,none
1d,20,100243,2,2,66,19,F,NA,constant,homogeneous,6,absent,0.711228132247925,1,horizontal,horizontal,1,1.07056998525347,red,3,NaN,995.341332995339,436.089159529932,NaN,NaN,844.280285305067,851.125977018113,1039.62161830041,687.215136548046,995.341332995339,436.089159529932,755.719714694933,348.874022981887,560.378381699593,512.784863451954,604.658667004661,763.910840470068,0,0,4,0,0,0,vertical,horizontal,horizontal,vertical,horizontal,vertical
1d,20,100243,2,3,67,19,F,NA,constant,homogeneous,3,present,0.57141900062561,1,vertical,vertical,1,0.694113997050694,red,3,1,560.378381699593,687.215136548046,995.341332995339,763.910840470068,995.341332995339,763.910840470068,844.280285305067,348.874022981887,560.378381699593,687.215136548046,NaN,NaN,NaN,NaN,NaN,NaN,0,0,4,NaN,NaN,NaN,vertical,vertical,vertical,none,none,none
1d,20,100243,2,4,68,19,F,NA,constant,homogeneous,6,absent,1.02213191986084,1,vertical,vertical,1,0.764699494838715,red,3,NaN,1011.40458100154,457.40580961496,NaN,NaN,817.787900804752,854.378832816255,1029.19248180629,711.784642431215,1011.40458100154,457.40580961496,782.212099195248,345.621167183745,570.807518193712,488.215357568785,588.595418998464,742.594190385041,0,0,4,0,0,0,vertical,horizontal,vertical,vertical,horizontal,horizontal
1d,20,100243,2,5,69,19,F,NA,constant,homogeneous,3,present,0.411959886550903,1,vertical,vertical,1,1.0470414859908,red,2,1,956.993676208043,399.057257830286,895.524681321058,836.431882914531,895.524681321058,836.431882914531,956.993676208043,399.057257830286,547.481642470899,564.510859255183,NaN,NaN,NaN,NaN,NaN,NaN,0,4,0,NaN,NaN,NaN,vertical,vertical,horizontal,none,none,none
1d,20,100243,2,6,70,19,F,NA,constant,homogeneous,6,present,0.660984992980957,1,horizontal,horizontal,1,0.623528499262674,red,4,6,826.654758133252,346.39691668109,567.045908301137,703.717843984329,773.345241866748,853.60308331891,1006.29933356561,749.885239334581,1032.95409169886,496.282156015671,826.654758133252,346.39691668109,593.700666434388,450.114760665419,567.045908301137,703.717843984329,0,0,0,4,0,0,vertical,vertical,vertical,horizontal,vertical,horizontal
1d,20,100243,2,7,71,19,F,NA,constant,homogeneous,4,absent,0.514875173568726,0,vertical,horizontal,1,1.03527723635946,red,4,NaN,581.422338320961,468.665290897936,NaN,NaN,668.665290897936,818.577661679039,1018.57766167904,731.334709102064,931.334709102064,381.422338320961,581.422338320961,468.665290897936,NaN,NaN,NaN,NaN,0,0,0,4,NaN,NaN,horizontal,horizontal,horizontal,vertical,none,none
1d,20,100243,2,8,72,19,F,NA,constant,homogeneous,4,absent,0.596806049346924,1,vertical,vertical,1,0.776463744470051,red,4,NaN,548.874022981887,644.280285305067,NaN,NaN,844.280285305067,851.125977018113,1051.12597701811,555.719714694933,755.719714694933,348.874022981887,548.874022981887,644.280285305067,NaN,NaN,NaN,NaN,0,0,0,4,NaN,NaN,horizontal,vertical,vertical,vertical,none,none
1d,20,100243,2,9,73,19,F,NA,constant,homogeneous,5,absent,0.517393112182617,1,vertical,vertical,1,0.623528499262674,red,5,NaN,557.480588344736,521.200666434388,NaN,NaN,650.114760665419,806.299333565612,949.885239334581,806.299333565612,1042.51941165526,521.200666434388,800,345,557.480588344736,521.200666434388,NaN,NaN,0,0,0,0,4,NaN,horizontal,horizontal,vertical,vertical,vertical,none
1d,20,100243,2,10,74,19,F,NA,constant,homogeneous,3,absent,0.375662088394165,1,vertical,vertical,1,0.788227994101388,red,3,NaN,593.700666434388,450.114760665419,NaN,NaN,773.345241866748,853.60308331891,1032.95409169886,496.282156015671,593.700666434388,450.114760665419,NaN,NaN,NaN,NaN,NaN,NaN,0,0,4,NaN,NaN,NaN,vertical,vertical,vertical,none,none,none
1d,20,100243,2,11,75,19,F,NA,constant,homogeneous,5,absent,0.521730899810791,1,vertical,vertical,1,0.905870490414756,red,1,NaN,672.5,820.836477965032,NaN,NaN,672.5,820.836477965032,970.628304621509,789.501930496736,1032.95409169886,496.282156015671,773.345241866748,346.39691668109,550.57236181288,546.982518841471,NaN,NaN,4,0,0,0,0,NaN,vertical,vertical,horizontal,horizontal,vertical,none
1d,20,100243,2,12,76,19,F,NA,constant,homogeneous,3,present,0.406896829605103,1,vertical,vertical,1,0.929398989677429,red,3,1,668.665290897936,381.422338320961,676.373546837184,823.028025320546,676.373546837184,823.028025320546,1054.96116226488,595.549636358493,668.665290897936,381.422338320961,NaN,NaN,NaN,NaN,NaN,NaN,0,0,4,NaN,NaN,NaN,horizontal,vertical,vertical,none,none,none
1d,20,100243,2,13,77,19,F,NA,constant,homogeneous,6,present,0.515033006668091,1,vertical,vertical,1,0.99998448746545,red,6,2,558.892763222174,683.019879386575,992.450942956807,767.295052392579,751.343706178981,850.314931779154,992.450942956807,767.295052392579,1041.10723677783,516.980120613425,848.656293821019,349.685068220846,607.549057043193,432.704947607421,558.892763222174,683.019879386575,0,0,0,0,0,4,vertical,vertical,horizontal,horizontal,vertical,vertical
1d,20,100243,2,14,78,19,F,NA,constant,homogeneous,5,present,0.485517024993896,1,vertical,vertical,1,0.99998448746545,red,4,5,760.109211414741,348.13947314824,548.13947314824,560.109211414741,684.232422566416,827.206663668034,980.31222920257,780.31222920257,1027.20666366803,484.232422566416,760.109211414741,348.13947314824,548.13947314824,560.109211414741,NaN,NaN,0,0,0,4,0,NaN,horizontal,horizontal,horizontal,vertical,horizontal,none
1d,20,100243,2,15,79,19,F,NA,constant,homogeneous,4,absent,0.817240953445435,1,horizontal,horizontal,1,0.694113997050694,red,2,NaN,1013.86099482608,738.882953928832,NaN,NaN,661.117046071168,813.860994826083,1013.86099482608,738.882953928832,938.882953928832,386.139005173917,586.139005173917,461.117046071168,NaN,NaN,NaN,NaN,0,4,0,0,NaN,NaN,vertical,horizontal,horizontal,vertical,none,none
1d,20,100243,2,16,80,19,F,NA,constant,homogeneous,4,present,0.459705114364624,1,horizontal,horizontal,1,1.09409848451614,red,2,4,992.450942956807,432.704947607421,607.549057043193,767.295052392579,967.295052392579,792.450942956807,992.450942956807,432.704947607421,632.704947607421,407.549057043193,607.549057043193,767.295052392579,NaN,NaN,NaN,NaN,0,4,0,0,NaN,NaN,vertical,horizontal,horizontal,horizontal,none,none
1d,20,100243,2,17,81,19,F,NA,constant,homogeneous,5,absent,0.60106086730957,1,horizontal,horizontal,1,1.01174873709679,red,4,NaN,646.537169096228,396.34794493794,NaN,NaN,804.450363641507,854.96116226488,1043.85771277057,674.554784704298,946.261991269517,391.116228706307,646.537169096228,396.34794493794,558.892763222174,683.019879386575,NaN,NaN,0,0,0,4,0,NaN,vertical,horizontal,vertical,horizontal,horizontal,none
1d,20,100243,2,18,82,19,F,NA,constant,homogeneous,3,present,0.664729833602905,1,horizontal,horizontal,1,0.741170995576041,red,1,2,891.383827134052,838.063008756786,960.476699717708,401.827779828472,891.383827134052,838.063008756786,960.476699717708,401.827779828472,548.13947314824,560.109211414741,NaN,NaN,NaN,NaN,NaN,NaN,4,0,0,NaN,NaN,NaN,horizontal,horizontal,horizontal,none,none,none
1d,20,100243,2,19,83,19,F,NA,constant,homogeneous,4,present,0.779829978942871,1,vertical,vertical,1,0.694113997050694,red,2,4,1027.20666366803,484.232422566416,572.793336331966,715.767577433584,915.767577433584,827.206663668034,1027.20666366803,484.232422566416,684.232422566416,372.793336331966,572.793336331966,715.767577433584,NaN,NaN,NaN,NaN,0,4,0,0,NaN,NaN,vertical,vertical,vertical,horizontal,none,none
1d,20,100243,2,20,84,19,F,NA,constant,homogeneous,6,absent,0.730475187301636,1,horizontal,horizontal,1,0.941163239308766,red,3,NaN,1034.72873763037,500.363562235235,NaN,NaN,768.923317431687,853.099268668537,1003.65205506206,753.462830903772,1034.72873763037,500.363562235235,831.076682568313,346.900731331463,596.34794493794,446.537169096228,565.271262369628,699.636437764765,0,0,4,0,0,0,vertical,vertical,horizontal,vertical,horizontal,horizontal
1d,20,100243,2,21,85,19,F,NA,constant,homogeneous,3,absent,0.782187938690186,1,vertical,vertical,1,0.847049242258072,red,1,NaN,586.139005173917,738.882953928832,NaN,NaN,586.139005173917,738.882953928832,1027.20666366803,715.767577433584,786.654331158049,345.349468637584,NaN,NaN,NaN,NaN,NaN,NaN,4,0,0,NaN,NaN,NaN,vertical,horizontal,horizontal,none,none,none
1d,20,100243,2,22,86,19,F,NA,constant,homogeneous,6,absent,1.2114360332489,1,vertical,vertical,1,0.870577741520745,red,3,NaN,1050.31493177915,551.343706178981,NaN,NaN,716.980120613425,841.107236777826,967.295052392579,792.450942956807,1050.31493177915,551.343706178981,883.019879386575,358.892763222174,632.704947607421,407.549057043193,549.685068220846,648.656293821019,0,0,4,0,0,0,horizontal,horizontal,vertical,horizontal,horizontal,vertical
1d,20,100243,2,23,87,19,F,NA,constant,homogeneous,4,absent,0.612497091293335,1,horizontal,horizontal,1,1.02351298672812,red,4,NaN,551.535633479765,542.637481142314,NaN,NaN,742.637481142314,848.464366520235,1048.46436652023,657.362518857686,857.362518857686,351.535633479765,551.535633479765,542.637481142314,NaN,NaN,NaN,NaN,0,0,0,4,NaN,NaN,vertical,horizontal,horizontal,horizontal,none,none
1d,20,100243,2,24,88,19,F,NA,constant,homogeneous,6,present,0.689802885055542,1,horizontal,horizontal,1,0.63529274889401,red,1,4,853.017481158529,849.42763818712,746.982518841471,350.57236181288,853.017481158529,849.42763818712,1042.51941165526,678.799333565612,989.501930496736,429.371695378491,746.982518841471,350.57236181288,557.480588344736,521.200666434388,610.498069503264,770.628304621509,4,0,0,0,0,0,horizontal,vertical,horizontal,horizontal,vertical,horizontal
1d,20,100243,2,25,89,19,F,NA,constant,homogeneous,5,present,0.427948951721191,1,horizontal,horizontal,1,1.02351298672812,red,2,3,998.172220171528,760.476699717708,1013.86099482608,461.117046071168,708.616172865948,838.063008756786,998.172220171528,760.476699717708,1013.86099482608,461.117046071168,734.001143498857,353.688914296288,545.349468637584,586.654331158049,NaN,NaN,0,4,0,0,0,NaN,vertical,horizontal,horizontal,horizontal,vertical,none
1d,20,100243,2,26,90,19,F,NA,constant,homogeneous,4,present,0.416763067245483,1,horizontal,horizontal,1,0.99998448746545,red,1,2,760.109211414741,851.86052685176,1051.86052685176,639.890788585259,760.109211414741,851.86052685176,1051.86052685176,639.890788585259,839.890788585259,348.13947314824,548.13947314824,560.109211414741,NaN,NaN,NaN,NaN,4,0,0,0,NaN,NaN,horizontal,vertical,horizontal,horizontal,none,none
1d,20,100243,2,27,91,19,F,NA,constant,homogeneous,4,present,0.660569906234741,1,vertical,vertical,1,0.964691738571439,red,2,1,1025.15163617903,480.284751489598,919.715248510402,825.151636179026,919.715248510402,825.151636179026,1025.15163617903,480.284751489598,680.284751489598,374.848363820974,574.848363820974,719.715248510402,NaN,NaN,NaN,NaN,0,4,0,0,NaN,NaN,horizontal,vertical,vertical,vertical,none,none
1d,20,100243,2,28,92,19,F,NA,constant,homogeneous,6,present,0.647851943969727,1,vertical,vertical,1,0.894106240783419,red,4,2,822.224714400653,345.970351986605,1008.88377129369,746.261991269517,777.775285599347,854.029648013395,1008.88377129369,746.261991269517,1031.10848569435,492.232343256122,822.224714400653,345.970351986605,591.116228706307,453.738008730483,568.891514305654,707.767656743878,0,0,0,4,0,0,vertical,vertical,horizontal,vertical,vertical,vertical
1d,20,100243,2,29,93,19,F,NA,constant,homogeneous,4,absent,0.667630910873413,1,horizontal,horizontal,1,0.929398989677429,red,3,NaN,861.690083377915,352.574589799621,NaN,NaN,738.309916622085,847.425410200379,1047.42541020038,661.690083377915,861.690083377915,352.574589799621,552.574589799621,538.309916622085,NaN,NaN,NaN,NaN,0,0,4,0,NaN,NaN,vertical,horizontal,horizontal,horizontal,none,none
1d,20,100243,2,30,94,19,F,NA,constant,homogeneous,5,absent,0.96976113319397,1,horizontal,horizontal,1,0.63529274889401,red,1,NaN,751.343706178981,850.314931779154,NaN,NaN,751.343706178981,850.314931779154,1023.02802532055,723.626453162816,986.495193912888,426.090418184063,692.232343256122,368.891514305654,546.900731331463,631.076682568313,NaN,NaN,4,0,0,0,0,NaN,horizontal,vertical,vertical,vertical,horizontal,none
1d,20,100243,2,31,95,19,F,NA,constant,homogeneous,6,present,0.527470111846924,1,horizontal,horizontal,1,0.905870490414756,red,6,3,672.5,820.836477965032,927.5,379.163522034968,927.5,820.836477965032,1055,600,927.5,379.163522034968,672.5,379.163522034968,545,600,672.5,820.836477965032,0,0,0,0,0,4,vertical,vertical,horizontal,vertical,vertical,horizontal
1d,20,100243,2,32,96,19,F,NA,constant,homogeneous,5,present,0.480467796325684,1,horizontal,horizontal,1,0.717642496313368,red,3,2,956.993676208043,399.057257830286,1039.62161830041,687.215136548046,791.100628340862,854.844660889869,1039.62161830041,687.215136548046,956.993676208043,399.057257830286,657.405809614959,388.595418998464,554.878267535729,670.287525733335,NaN,NaN,0,0,4,0,0,NaN,horizontal,vertical,horizontal,vertical,vertical,none
1d,20,100243,2,33,97,19,F,NA,constant,homogeneous,3,present,0.454149961471558,1,horizontal,horizontal,1,0.799992243732725,red,2,3,1031.10848569435,707.767656743878,777.775285599347,345.970351986605,591.116228706307,746.261991269517,1031.10848569435,707.767656743878,777.775285599347,345.970351986605,NaN,NaN,NaN,NaN,NaN,NaN,0,4,0,NaN,NaN,NaN,horizontal,horizontal,vertical,none,none,none
1d,20,100243,2,34,98,19,F,NA,constant,homogeneous,3,absent,0.544861078262329,1,horizontal,horizontal,1,0.882341991152082,red,1,NaN,708.616172865948,838.063008756786,NaN,NaN,708.616172865948,838.063008756786,1051.86052685176,560.109211414741,639.523300282292,401.827779828472,NaN,NaN,NaN,NaN,NaN,NaN,4,0,0,NaN,NaN,NaN,horizontal,horizontal,vertical,none,none,none
1d,20,100243,2,35,99,19,F,NA,constant,homogeneous,3,absent,0.590467929840088,1,vertical,vertical,1,0.929398989677429,red,1,NaN,764.510859255183,852.518357529101,NaN,NaN,764.510859255183,852.518357529101,1036.43188291453,504.475318678942,599.057257830286,443.006323791957,NaN,NaN,NaN,NaN,NaN,NaN,4,0,0,NaN,NaN,NaN,vertical,vertical,vertical,none,none,none
1d,20,100243,2,36,100,19,F,NA,constant,homogeneous,6,absent,0.562641143798828,1,horizontal,horizontal,1,1.01174873709679,red,6,NaN,553.688914296288,665.998856501143,NaN,NaN,734.001143498857,846.311085703712,980.31222920257,780.31222920257,1046.31108570371,534.001143498857,865.998856501143,353.688914296288,619.68777079743,419.68777079743,553.688914296288,665.998856501143,0,0,0,0,0,4,vertical,vertical,horizontal,vertical,horizontal,horizontal
1d,20,100243,2,37,101,19,F,NA,constant,homogeneous,5,absent,0.831053018569946,1,horizontal,horizontal,1,1.0470414859908,red,2,NaN,1045.12173246427,670.287525733335,NaN,NaN,808.899371659138,854.844660889869,1045.12173246427,670.287525733335,942.594190385041,388.595418998464,643.006323791957,399.057257830286,560.378381699593,687.215136548046,NaN,NaN,0,4,0,0,0,NaN,horizontal,horizontal,vertical,vertical,vertical,none
1d,20,100243,2,38,102,19,F,NA,constant,homogeneous,4,absent,0.469822883605957,1,horizontal,horizontal,1,0.694113997050694,red,4,NaN,545.621167183745,617.787900804752,NaN,NaN,817.787900804752,854.378832816255,1054.37883281626,582.212099195248,782.212099195248,345.621167183745,545.621167183745,617.787900804752,NaN,NaN,NaN,NaN,0,0,0,4,NaN,NaN,horizontal,horizontal,vertical,horizontal,none,none
1d,20,100243,2,39,103,19,F,NA,constant,homogeneous,6,absent,0.493277072906494,1,horizontal,horizontal,1,0.894106240783419,red,5,NaN,616.568350913644,422.862115532956,NaN,NaN,738.309916622085,847.425410200379,983.431649086356,777.137884467044,1045.12173246427,529.712474266665,861.690083377915,352.574589799621,616.568350913644,422.862115532956,554.878267535729,670.287525733335,0,0,0,0,4,0,horizontal,vertical,vertical,horizontal,horizontal,vertical
1d,20,100243,2,40,104,19,F,NA,constant,homogeneous,5,present,0.763924121856689,1,horizontal,horizontal,1,0.623528499262674,red,1,3,782.212099195248,854.378832816255,963.910840470068,404.658667004661,782.212099195248,854.378832816255,1036.43188291453,695.524681321058,963.910840470068,404.658667004661,664.870587620533,383.747735480111,552.574589799621,661.690083377915,NaN,NaN,4,0,0,0,0,NaN,horizontal,vertical,horizontal,vertical,horizontal,none
1d,20,100243,2,41,105,19,F,NA,constant,homogeneous,4,absent,0.608052968978882,1,vertical,vertical,1,0.835284992626735,red,2,NaN,1011.40458100154,457.40580961496,NaN,NaN,942.594190385041,811.404581001536,1011.40458100154,457.40580961496,657.405809614959,388.595418998464,588.595418998464,742.594190385041,NaN,NaN,NaN,NaN,0,4,0,0,NaN,NaN,vertical,vertical,vertical,horizontal,none,none
1d,20,100243,2,42,106,19,F,NA,constant,homogeneous,3,present,0.610041856765747,1,horizontal,horizontal,1,0.882341991152082,red,1,2,760.109211414741,851.86052685176,1038.06300875679,508.616172865948,760.109211414741,851.86052685176,1038.06300875679,508.616172865948,601.827779828472,439.523300282291,NaN,NaN,NaN,NaN,NaN,NaN,4,0,0,NaN,NaN,NaN,horizontal,vertical,vertical,none,none,none
1d,20,100243,2,43,107,19,F,NA,constant,homogeneous,3,present,1.10420203208923,1,vertical,vertical,1,0.882341991152082,red,2,1,1048.46436652023,542.637481142314,725.445215295702,843.857712770574,725.445215295702,843.857712770574,1048.46436652023,542.637481142314,626.090418184063,413.504806087112,NaN,NaN,NaN,NaN,NaN,NaN,0,4,0,NaN,NaN,NaN,horizontal,vertical,vertical,none,none,none
1d,20,100243,2,44,108,19,F,NA,constant,homogeneous,3,absent,0.494876861572266,1,horizontal,horizontal,1,1.02351298672812,red,2,NaN,899.636437764765,365.271262369628,NaN,NaN,953.462830903772,803.65205506206,899.636437764765,365.271262369628,546.900731331463,631.076682568313,NaN,NaN,NaN,NaN,NaN,NaN,0,4,0,NaN,NaN,NaN,vertical,horizontal,horizontal,none,none,none
1d,20,100243,2,45,109,19,F,NA,constant,homogeneous,6,absent,0.573447942733765,1,vertical,vertical,1,0.823520742995398,red,5,NaN,579.163522034968,472.5,NaN,NaN,800,855,1020.83647796503,727.5,1020.83647796503,472.5,800,345,579.163522034968,472.5,579.163522034968,727.5,0,0,0,0,4,0,vertical,vertical,horizontal,vertical,vertical,horizontal
1d,20,100243,2,46,110,19,F,NA,constant,homogeneous,5,absent,0.822633028030396,1,vertical,vertical,1,0.670585497788021,red,2,NaN,1000.94274216971,756.993676208043,NaN,NaN,712.784863451954,839.621618300407,1000.94274216971,756.993676208043,1011.40458100154,457.40580961496,729.712474266665,354.878267535729,545.155339110131,591.100628340862,NaN,NaN,0,4,0,0,0,NaN,vertical,vertical,horizontal,horizontal,vertical,none
1d,20,100243,2,47,111,19,F,NA,constant,homogeneous,4,absent,0.701977968215942,1,vertical,vertical,1,0.741170995576041,red,3,NaN,973.909581815937,413.504806087112,NaN,NaN,626.090418184063,786.495193912888,986.495193912888,773.909581815937,973.909581815937,413.504806087112,613.504806087112,426.090418184063,NaN,NaN,NaN,NaN,0,0,4,0,NaN,NaN,vertical,horizontal,vertical,horizontal,none,none
1d,20,100243,2,48,112,19,F,NA,constant,homogeneous,4,present,0.464741945266724,1,vertical,vertical,1,0.835284992626735,red,2,4,1031.10848569435,492.232343256122,568.891514305654,707.767656743878,907.767656743878,831.108485694346,1031.10848569435,492.232343256122,692.232343256122,368.891514305654,568.891514305654,707.767656743878,NaN,NaN,NaN,NaN,0,4,0,0,NaN,NaN,horizontal,vertical,horizontal,vertical,none,none
1d,20,100243,2,49,113,19,F,NA,constant,homogeneous,5,present,1.15097904205322,1,vertical,vertical,1,0.835284992626735,red,1,2,800,855,1042.51941165526,678.799333565612,800,855,1042.51941165526,678.799333565612,949.885239334581,393.700666434388,650.114760665419,393.700666434388,557.480588344736,678.799333565612,NaN,NaN,4,0,0,0,0,NaN,vertical,horizontal,horizontal,vertical,vertical,none
1d,20,100243,2,50,114,19,F,NA,constant,homogeneous,6,present,0.543262004852295,1,vertical,vertical,1,0.870577741520745,red,4,2,874.554784704298,356.142287229426,973.909581815937,786.495193912888,725.445215295702,843.857712770574,973.909581815937,786.495193912888,1048.46436652023,542.637481142314,874.554784704298,356.142287229426,626.090418184063,413.504806087112,551.535633479765,657.362518857686,0,0,0,4,0,0,vertical,horizontal,horizontal,vertical,horizontal,horizontal
1d,20,100243,2,51,115,19,F,NA,constant,homogeneous,3,absent,0.41734790802002,1,vertical,vertical,1,0.941163239308766,red,3,NaN,791.100628340862,345.155339110131,NaN,NaN,583.747735480111,735.129412379467,1025.15163617903,719.715248510402,791.100628340862,345.155339110131,NaN,NaN,NaN,NaN,NaN,NaN,0,0,4,NaN,NaN,NaN,horizontal,vertical,vertical,none,none,none
1d,20,100243,2,52,116,19,F,NA,constant,homogeneous,6,present,0.508278846740723,1,vertical,vertical,1,0.717642496313368,red,6,2,551.535633479765,657.362518857686,973.909581815937,786.495193912888,725.445215295702,843.857712770574,973.909581815937,786.495193912888,1048.46436652023,542.637481142314,874.554784704298,356.142287229426,626.090418184063,413.504806087112,551.535633479765,657.362518857686,0,0,0,0,0,4,vertical,horizontal,horizontal,vertical,horizontal,vertical
1d,20,100243,2,53,117,19,F,NA,constant,homogeneous,4,present,0.31994891166687,1,vertical,vertical,1,1.07056998525347,red,4,1,570.807518193712,711.784642431215,911.784642431215,829.192481806288,911.784642431215,829.192481806288,1029.19248180629,488.215357568785,688.215357568785,370.807518193712,570.807518193712,711.784642431215,NaN,NaN,NaN,NaN,0,0,0,4,NaN,NaN,horizontal,horizontal,vertical,vertical,none,none
1d,20,100243,2,54,118,19,F,NA,constant,homogeneous,5,present,0.524346113204956,1,vertical,vertical,1,0.882341991152082,red,3,5,853.017481158529,350.57236181288,610.498069503264,770.628304621509,903.717843984329,832.954091698863,1053.60308331891,573.345241866748,853.017481158529,350.57236181288,579.163522034968,472.5,610.498069503264,770.628304621509,NaN,NaN,0,0,4,0,0,NaN,vertical,horizontal,vertical,horizontal,horizontal,none
1d,20,100243,2,55,119,19,F,NA,constant,homogeneous,6,present,0.560337066650391,0,horizontal,vertical,1,0.882341991152082,red,1,5,676.373546837184,823.028025320546,668.665290897936,381.422338320961,676.373546837184,823.028025320546,931.334709102064,818.577661679039,1054.96116226488,595.549636358493,923.626453162816,376.971974679454,668.665290897936,381.422338320961,545.03883773512,604.450363641507,4,0,0,0,0,0,horizontal,horizontal,horizontal,horizontal,horizontal,vertical
1d,20,100243,2,56,120,19,F,NA,constant,homogeneous,5,absent,0.503745079040527,1,vertical,vertical,1,1.01174873709679,red,2,NaN,1011.40458100154,742.594190385041,NaN,NaN,729.712474266665,845.121732464271,1011.40458100154,742.594190385041,1000.94274216971,443.006323791957,712.784863451954,360.378381699593,545.155339110131,608.899371659138,NaN,NaN,0,4,0,0,0,NaN,vertical,vertical,vertical,horizontal,vertical,none
1d,20,100243,2,57,121,19,F,NA,constant,homogeneous,3,present,0.922883987426758,1,horizontal,horizontal,1,0.63529274889401,red,1,2,725.445215295702,843.857712770574,1048.46436652023,542.637481142314,725.445215295702,843.857712770574,1048.46436652023,542.637481142314,626.090418184063,413.504806087112,NaN,NaN,NaN,NaN,NaN,NaN,4,0,0,NaN,NaN,NaN,horizontal,vertical,horizontal,none,none,none
1d,20,100243,2,58,122,19,F,NA,constant,homogeneous,5,present,0.743227005004883,1,vertical,vertical,1,0.682349747419357,red,5,4,567.045908301137,703.717843984329,629.371695378491,410.498069503264,826.654758133252,853.60308331891,1049.42763818712,653.017481158529,927.5,379.163522034968,629.371695378491,410.498069503264,567.045908301137,703.717843984329,NaN,NaN,0,0,0,0,4,NaN,vertical,vertical,vertical,horizontal,vertical,none
1d,20,100243,2,59,123,19,F,NA,constant,homogeneous,5,present,0.528692960739136,1,horizontal,horizontal,1,0.717642496313368,red,2,3,1050.31493177915,648.656293821019,923.626453162816,376.971974679454,831.076682568313,853.099268668537,1050.31493177915,648.656293821019,923.626453162816,376.971974679454,626.090418184063,413.504806087112,568.891514305654,707.767656743878,NaN,NaN,0,4,0,0,0,NaN,horizontal,horizontal,horizontal,horizontal,vertical,none
1d,20,100243,2,60,124,19,F,NA,constant,homogeneous,3,absent,0.581856966018677,1,horizontal,horizontal,1,0.717642496313368,red,3,NaN,751.343706178981,349.685068220846,NaN,NaN,607.549057043193,767.295052392579,1041.10723677783,683.019879386575,751.343706178981,349.685068220846,NaN,NaN,NaN,NaN,NaN,NaN,0,0,4,NaN,NaN,NaN,vertical,horizontal,horizontal,none,none,none
1d,20,100243,2,61,125,19,F,NA,constant,homogeneous,6,absent,0.577954053878784,1,vertical,vertical,1,0.823520742995398,red,1,NaN,899.636437764765,834.728737630372,NaN,NaN,899.636437764765,834.728737630372,1053.09926866854,631.076682568313,953.462830903772,396.34794493794,700.363562235235,365.271262369628,546.900731331463,568.923317431687,646.537169096228,803.65205506206,4,0,0,0,0,0,vertical,horizontal,horizontal,horizontal,horizontal,horizontal
1d,20,100243,2,62,126,19,F,NA,constant,homogeneous,5,absent,0.657737016677856,1,horizontal,horizontal,1,1.01174873709679,red,1,NaN,870.287525733335,845.121732464271,NaN,NaN,870.287525733335,845.121732464271,1054.84466088987,608.899371659138,887.215136548046,360.378381699593,599.057257830286,443.006323791957,588.595418998464,742.594190385041,NaN,NaN,4,0,0,0,0,NaN,horizontal,horizontal,horizontal,horizontal,horizontal,none
1d,20,100243,2,63,127,19,F,NA,constant,homogeneous,3,absent,0.453385829925537,0,horizontal,vertical,1,0.894106240783419,red,2,NaN,986.495193912888,426.090418184063,NaN,NaN,857.362518857686,848.464366520235,986.495193912888,426.090418184063,556.142287229426,525.445215295702,NaN,NaN,NaN,NaN,NaN,NaN,0,4,0,NaN,NaN,NaN,vertical,horizontal,vertical,none,none,none
1d,20,100243,2,64,128,19,F,NA,constant,homogeneous,4,present,0.469337940216064,1,horizontal,horizontal,1,0.941163239308766,red,2,3,1023.02802532055,723.626453162816,923.626453162816,376.971974679454,676.373546837184,823.028025320546,1023.02802532055,723.626453162816,923.626453162816,376.971974679454,576.971974679454,476.373546837184,NaN,NaN,NaN,NaN,0,4,0,0,NaN,NaN,horizontal,horizontal,horizontal,horizontal,none,none
1d,20,100243,3,1,129,19,F,NA,constant,homogeneous,5,present,0.729881048202515,1,horizontal,horizontal,1,0.823520742995398,red,1,5,835.489140744817,852.518357529101,570.807518193712,711.784642431215,835.489140744817,852.518357529101,1051.12597701811,644.280285305067,919.715248510402,374.848363820974,622.862115532956,416.568350913644,570.807518193712,711.784642431215,NaN,NaN,4,0,0,0,0,NaN,horizontal,vertical,horizontal,horizontal,vertical,none
1d,20,100243,3,2,130,19,F,NA,constant,homogeneous,6,absent,0.874767065048218,1,vertical,vertical,1,0.705878246682031,red,2,NaN,1046.31108570371,665.998856501143,NaN,NaN,865.998856501143,846.311085703712,1046.31108570371,665.998856501143,980.31222920257,419.68777079743,734.001143498857,353.688914296288,553.688914296288,534.001143498857,619.68777079743,780.31222920257,0,4,0,0,0,0,vertical,vertical,vertical,vertical,horizontal,horizontal
1d,20,100243,3,3,131,19,F,NA,constant,homogeneous,5,present,0.473356008529663,1,vertical,vertical,1,1.0470414859908,red,4,2,760.109211414741,348.13947314824,980.31222920257,780.31222920257,684.232422566416,827.206663668034,980.31222920257,780.31222920257,1027.20666366803,484.232422566416,760.109211414741,348.13947314824,548.13947314824,560.109211414741,NaN,NaN,0,0,0,4,0,NaN,horizontal,vertical,horizontal,vertical,horizontal,none
1d,20,100243,3,4,132,19,F,NA,constant,homogeneous,3,absent,0.328008890151978,0,horizontal,vertical,1,0.847049242258072,red,2,NaN,1050.31493177915,551.343706178981,NaN,NaN,716.980120613425,841.107236777826,1050.31493177915,551.343706178981,632.704947607421,407.549057043193,NaN,NaN,NaN,NaN,NaN,NaN,0,4,0,NaN,NaN,NaN,horizontal,horizontal,horizontal,none,none,none
1d,20,100243,3,5,133,19,F,NA,constant,homogeneous,6,absent,0.466938018798828,1,horizontal,horizontal,1,0.6,red,3,NaN,1048.46436652023,542.637481142314,NaN,NaN,725.445215295702,843.857712770574,973.909581815937,786.495193912888,1048.46436652023,542.637481142314,874.554784704298,356.142287229426,626.090418184063,413.504806087112,551.535633479765,657.362518857686,0,0,4,0,0,0,vertical,horizontal,horizontal,horizontal,horizontal,vertical
1d,20,100243,3,6,134,19,F,NA,constant,homogeneous,5,absent,0.477190017700195,1,vertical,vertical,1,1.0470414859908,red,2,NaN,977.137884467044,783.431649086356,NaN,NaN,680.284751489598,825.151636179026,977.137884467044,783.431649086356,1029.19248180629,488.215357568785,764.510859255183,347.4816424709,548.874022981887,555.719714694933,NaN,NaN,0,4,0,0,0,NaN,horizontal,vertical,horizontal,vertical,horizontal,none
1d,20,100243,3,7,135,19,F,NA,constant,homogeneous,5,absent,0.343029022216797,0,horizontal,vertical,1,0.611764249631337,red,2,NaN,1054.37883281626,617.787900804752,NaN,NaN,861.690083377915,847.425410200379,1054.37883281626,617.787900804752,895.524681321058,363.568117085469,604.658667004661,436.089159529932,583.747735480111,735.129412379467,NaN,NaN,0,4,0,0,0,NaN,horizontal,horizontal,vertical,vertical,vertical,none
1d,20,100243,3,8,136,19,F,NA,constant,homogeneous,4,present,0.49901008605957,1,horizontal,horizontal,1,1.03527723635946,red,2,4,1023.02802532055,723.626453162816,576.971974679454,476.373546837184,676.373546837184,823.028025320546,1023.02802532055,723.626453162816,923.626453162816,376.971974679454,576.971974679454,476.373546837184,NaN,NaN,NaN,NaN,0,4,0,0,NaN,NaN,horizontal,horizontal,vertical,vertical,none,none
1d,20,100243,3,9,137,19,F,NA,constant,homogeneous,4,present,0.409885883331299,1,vertical,vertical,1,0.647056998525347,red,4,3,591.116228706307,746.261991269517,653.738008730483,391.116228706307,946.261991269517,808.883771293693,1008.88377129369,453.738008730483,653.738008730483,391.116228706307,591.116228706307,746.261991269517,NaN,NaN,NaN,NaN,0,0,0,4,NaN,NaN,vertical,vertical,horizontal,vertical,none,none
1d,20,100243,3,10,138,19,F,NA,constant,homogeneous,4,absent,0.607954978942871,1,vertical,vertical,1,1.09409848451614,red,1,NaN,773.345241866748,853.60308331891,NaN,NaN,773.345241866748,853.60308331891,1053.60308331891,626.654758133252,826.654758133252,346.39691668109,546.39691668109,573.345241866748,NaN,NaN,NaN,NaN,4,0,0,0,NaN,NaN,vertical,horizontal,vertical,horizontal,none,none
1d,20,100243,3,11,139,19,F,NA,constant,homogeneous,3,present,0.396008968353271,1,horizontal,horizontal,1,0.776463744470051,red,1,3,581.422338320961,731.334709102064,795.549636358493,345.03883773512,581.422338320961,731.334709102064,1023.02802532055,723.626453162816,795.549636358493,345.03883773512,NaN,NaN,NaN,NaN,NaN,NaN,4,0,0,NaN,NaN,NaN,horizontal,horizontal,horizontal,none,none,none
1d,20,100243,3,12,140,19,F,NA,constant,homogeneous,3,absent,0.550869941711426,1,horizontal,horizontal,1,0.941163239308766,red,2,NaN,1054.37883281626,617.787900804752,NaN,NaN,657.405809614959,811.404581001536,1054.37883281626,617.787900804752,688.215357568785,370.807518193712,NaN,NaN,NaN,NaN,NaN,NaN,0,4,0,NaN,NaN,NaN,horizontal,horizontal,vertical,none,none,none
1d,20,100243,3,13,141,19,F,NA,constant,homogeneous,4,absent,0.441640853881836,1,horizontal,horizontal,1,0.988220237834113,red,4,NaN,604.658667004661,436.089159529932,NaN,NaN,636.089159529932,795.341332995339,995.341332995339,763.910840470068,963.910840470068,404.658667004661,604.658667004661,436.089159529932,NaN,NaN,NaN,NaN,0,0,0,4,NaN,NaN,horizontal,vertical,vertical,horizontal,none,none
1d,20,100243,3,14,142,19,F,NA,constant,homogeneous,6,present,0.699044942855835,1,vertical,vertical,1,1.02351298672812,red,2,5,1016.25226451989,735.129412379467,583.747735480111,464.870587620533,791.100628340862,854.844660889869,1016.25226451989,735.129412379467,1025.15163617903,480.284751489598,808.899371659138,345.155339110131,583.747735480111,464.870587620533,574.848363820974,719.715248510402,0,4,0,0,0,0,horizontal,vertical,vertical,horizontal,horizontal,vertical
1d,20,100243,3,15,143,19,F,NA,constant,homogeneous,4,absent,0.501394987106323,1,horizontal,horizontal,1,0.811756493364062,red,4,NaN,565.271262369628,500.363562235235,NaN,NaN,700.363562235235,834.728737630372,1034.72873763037,699.636437764765,899.636437764765,365.271262369628,565.271262369628,500.363562235235,NaN,NaN,NaN,NaN,0,0,0,4,NaN,NaN,vertical,horizontal,vertical,horizontal,none,none
1d,20,100243,3,16,144,19,F,NA,constant,homogeneous,5,present,1.19715404510498,0,vertical,horizontal,1,0.670585497788021,red,5,2,548.874022981887,644.280285305067,1029.19248180629,711.784642431215,764.510859255183,852.518357529101,1029.19248180629,711.784642431215,977.137884467044,416.568350913644,680.284751489598,374.848363820974,548.874022981887,644.280285305067,NaN,NaN,0,0,0,0,4,NaN,vertical,vertical,vertical,horizontal,vertical,none
1d,20,100243,3,17,145,19,F,NA,constant,homogeneous,6,absent,0.79559588432312,1,vertical,vertical,1,0.929398989677429,red,2,NaN,1055,600,NaN,NaN,927.5,820.836477965032,1055,600,927.5,379.163522034968,672.5,379.163522034968,545,600,672.5,820.836477965032,0,4,0,0,0,0,horizontal,vertical,vertical,horizontal,horizontal,horizontal
1d,20,100243,3,18,146,19,F,NA,constant,homogeneous,6,present,0.444509029388428,1,vertical,vertical,1,0.647056998525347,red,3,1,1046.31108570371,534.001143498857,734.001143498857,846.311085703712,734.001143498857,846.311085703712,980.31222920257,780.31222920257,1046.31108570371,534.001143498857,865.998856501143,353.688914296288,619.68777079743,419.68777079743,553.688914296288,665.998856501143,0,0,4,0,0,0,vertical,vertical,vertical,horizontal,vertical,vertical
1d,20,100243,3,19,147,19,F,NA,constant,homogeneous,4,absent,0.514888048171997,1,horizontal,horizontal,1,1.08233423488481,red,4,NaN,557.480588344736,521.200666434388,NaN,NaN,721.200666434388,842.519411655264,1042.51941165526,678.799333565612,878.799333565612,357.480588344736,557.480588344736,521.200666434388,NaN,NaN,NaN,NaN,0,0,0,4,NaN,NaN,horizontal,vertical,horizontal,horizontal,none,none
1d,20,100243,3,20,148,19,F,NA,constant,homogeneous,6,present,0.84838080406189,1,vertical,vertical,1,0.941163239308766,red,4,5,768.923317431687,346.900731331463,565.271262369628,500.363562235235,831.076682568313,853.099268668537,1034.72873763037,699.636437764765,1003.65205506206,446.537169096228,768.923317431687,346.900731331463,565.271262369628,500.363562235235,596.34794493794,753.462830903772,0,0,0,4,0,0,vertical,vertical,horizontal,vertical,vertical,horizontal
1d,20,100243,3,21,149,19,F,NA,constant,homogeneous,4,absent,0.518131971359253,1,vertical,vertical,1,0.823520742995398,red,4,NaN,545.970351986605,622.224714400653,NaN,NaN,822.224714400653,854.029648013395,1054.0296480134,577.775285599347,777.775285599347,345.970351986605,545.970351986605,622.224714400653,NaN,NaN,NaN,NaN,0,0,0,4,NaN,NaN,vertical,horizontal,horizontal,vertical,none,none
1d,20,100243,3,22,150,19,F,NA,constant,homogeneous,3,present,0.531255960464478,1,vertical,vertical,1,0.929398989677429,red,3,1,550.57236181288,653.017481158529,970.628304621509,789.501930496736,970.628304621509,789.501930496736,878.799333565612,357.480588344736,550.57236181288,653.017481158529,NaN,NaN,NaN,NaN,NaN,NaN,0,0,4,NaN,NaN,NaN,vertical,vertical,vertical,none,none,none
1d,20,100243,3,23,151,19,F,NA,constant,homogeneous,4,present,0.579380989074707,1,vertical,vertical,1,1.05880573562213,red,1,3,899.636437764765,834.728737630372,700.363562235235,365.271262369628,899.636437764765,834.728737630372,1034.72873763037,500.363562235235,700.363562235235,365.271262369628,565.271262369628,699.636437764765,NaN,NaN,NaN,NaN,4,0,0,0,NaN,NaN,vertical,vertical,horizontal,horizontal,none,none
1d,20,100243,3,24,152,19,F,NA,constant,homogeneous,4,present,0.441874027252197,1,horizontal,horizontal,1,0.741170995576041,red,1,2,619.68777079743,780.31222920257,980.31222920257,780.31222920257,619.68777079743,780.31222920257,980.31222920257,780.31222920257,980.31222920257,419.68777079743,619.68777079743,419.68777079743,NaN,NaN,NaN,NaN,4,0,0,0,NaN,NaN,horizontal,horizontal,horizontal,horizontal,none,none
1d,20,100243,3,25,153,19,F,NA,constant,homogeneous,6,absent,1.26723885536194,1,vertical,vertical,1,1.02351298672812,red,3,NaN,1000.94274216971,443.006323791957,NaN,NaN,835.489140744817,852.518357529101,1036.43188291453,695.524681321058,1000.94274216971,443.006323791957,764.510859255183,347.4816424709,563.568117085469,504.475318678942,599.057257830286,756.993676208043,0,0,4,0,0,0,horizontal,vertical,vertical,vertical,horizontal,vertical
1d,20,100243,3,26,154,19,F,NA,constant,homogeneous,5,present,0.687612056732178,1,horizontal,horizontal,1,0.941163239308766,red,3,1,817.787900804752,345.621167183745,935.129412379467,816.252264519889,935.129412379467,816.252264519889,1047.42541020038,538.309916622085,817.787900804752,345.621167183745,563.568117085469,504.475318678942,636.089159529932,795.341332995339,NaN,NaN,0,0,4,0,0,NaN,horizontal,horizontal,horizontal,horizontal,horizontal,none
1d,20,100243,3,27,155,19,F,NA,constant,homogeneous,3,absent,0.537010908126831,1,horizontal,horizontal,1,0.776463744470051,red,3,NaN,721.200666434388,357.480588344736,NaN,NaN,629.371695378491,789.501930496736,1049.42763818712,653.017481158529,721.200666434388,357.480588344736,NaN,NaN,NaN,NaN,NaN,NaN,0,0,4,NaN,NaN,NaN,horizontal,vertical,horizontal,none,none,none
1d,20,100243,3,28,156,19,F,NA,constant,homogeneous,5,absent,0.519016981124878,1,horizontal,horizontal,1,0.764699494838715,red,4,NaN,768.923317431687,346.900731331463,NaN,NaN,676.373546837184,823.028025320546,973.909581815937,786.495193912888,1031.10848569435,492.232343256122,768.923317431687,346.900731331463,549.685068220846,551.343706178981,NaN,NaN,0,0,0,4,0,NaN,horizontal,horizontal,horizontal,horizontal,vertical,none
1d,20,100243,3,29,157,19,F,NA,constant,homogeneous,6,absent,0.476774930953979,1,horizontal,horizontal,1,0.952927488940103,red,5,NaN,599.057257830286,443.006323791957,NaN,NaN,764.510859255183,852.518357529101,1000.94274216971,756.993676208043,1036.43188291453,504.475318678942,835.489140744817,347.4816424709,599.057257830286,443.006323791957,563.568117085469,695.524681321058,0,0,0,0,4,0,vertical,vertical,horizontal,vertical,horizontal,horizontal
1d,20,100243,3,30,158,19,F,NA,constant,homogeneous,3,present,0.608179807662964,1,vertical,vertical,1,0.882341991152082,red,3,2,545.155339110131,591.100628340862,935.129412379467,383.747735480111,919.715248510402,825.151636179026,935.129412379467,383.747735480111,545.155339110131,591.100628340862,NaN,NaN,NaN,NaN,NaN,NaN,0,0,4,NaN,NaN,NaN,horizontal,horizontal,vertical,none,none,none
1d,20,100243,3,31,159,19,F,NA,constant,homogeneous,3,present,0.525377035140991,1,horizontal,horizontal,1,1.0470414859908,red,3,1,795.549636358493,345.03883773512,581.422338320961,731.334709102064,581.422338320961,731.334709102064,1023.02802532055,723.626453162816,795.549636358493,345.03883773512,NaN,NaN,NaN,NaN,NaN,NaN,0,0,4,NaN,NaN,NaN,vertical,vertical,horizontal,none,none,none
1d,20,100243,3,32,160,19,F,NA,constant,homogeneous,5,absent,0.585668087005615,1,vertical,vertical,1,0.882341991152082,red,1,NaN,895.524681321058,836.431882914531,NaN,NaN,895.524681321058,836.431882914531,1054.37883281626,582.212099195248,861.690083377915,352.574589799621,583.747735480111,464.870587620533,604.658667004661,763.910840470068,NaN,NaN,4,0,0,0,0,NaN,vertical,vertical,vertical,vertical,vertical,none
1d,20,100243,3,33,161,19,F,NA,constant,homogeneous,3,absent,0.728547096252441,1,vertical,vertical,1,0.964691738571439,red,1,NaN,725.445215295702,843.857712770574,NaN,NaN,725.445215295702,843.857712770574,1048.46436652023,542.637481142314,626.090418184063,413.504806087112,NaN,NaN,NaN,NaN,NaN,NaN,4,0,0,NaN,NaN,NaN,vertical,vertical,horizontal,none,none,none
1d,20,100243,3,34,162,19,F,NA,constant,homogeneous,6,present,0.644065856933594,0,horizontal,vertical,1,0.823520742995398,red,5,4,636.089159529932,404.658667004661,887.215136548046,360.378381699593,712.784863451954,839.621618300407,963.910840470068,795.341332995339,1051.12597701811,555.719714694933,887.215136548046,360.378381699593,636.089159529932,404.658667004661,548.874022981887,644.280285305067,0,0,0,0,4,0,vertical,vertical,horizontal,horizontal,horizontal,horizontal
1d,20,100243,3,35,163,19,F,NA,constant,homogeneous,4,present,1.10945987701416,1,vertical,vertical,1,0.823520742995398,red,2,4,1053.60308331891,573.345241866748,546.39691668109,626.654758133252,826.654758133252,853.60308331891,1053.60308331891,573.345241866748,773.345241866748,346.39691668109,546.39691668109,626.654758133252,NaN,NaN,NaN,NaN,0,4,0,0,NaN,NaN,horizontal,vertical,vertical,horizontal,none,none
1d,20,100243,3,36,164,19,F,NA,constant,homogeneous,3,present,0.584857940673828,1,vertical,vertical,1,0.647056998525347,red,2,3,1020.83647796503,727.5,800,345,579.163522034968,727.5,1020.83647796503,727.5,800,345,NaN,NaN,NaN,NaN,NaN,NaN,0,4,0,NaN,NaN,NaN,horizontal,vertical,horizontal,none,none,none
1d,20,100243,3,37,165,19,F,NA,constant,homogeneous,5,absent,0.575476169586182,1,horizontal,horizontal,1,0.941163239308766,red,1,NaN,907.767656743878,831.108485694346,NaN,NaN,907.767656743878,831.108485694346,1053.09926866854,568.923317431687,848.656293821019,349.685068220846,576.971974679454,476.373546837184,613.504806087112,773.909581815937,NaN,NaN,4,0,0,0,0,NaN,horizontal,vertical,horizontal,vertical,vertical,none
1d,20,100243,3,38,166,19,F,NA,constant,homogeneous,3,absent,0.663944959640503,1,horizontal,horizontal,1,0.63529274889401,red,1,NaN,668.665290897936,818.577661679039,NaN,NaN,668.665290897936,818.577661679039,1054.96116226488,604.450363641507,676.373546837184,376.971974679454,NaN,NaN,NaN,NaN,NaN,NaN,4,0,0,NaN,NaN,NaN,horizontal,horizontal,horizontal,none,none,none
1d,20,100243,3,39,167,19,F,NA,constant,homogeneous,5,absent,0.958096981048584,1,vertical,vertical,1,1.03527723635946,red,1,NaN,680.284751489598,825.151636179026,NaN,NaN,680.284751489598,825.151636179026,977.137884467044,783.431649086356,1029.19248180629,488.215357568785,764.510859255183,347.4816424709,548.874022981887,555.719714694933,NaN,NaN,4,0,0,0,0,NaN,vertical,horizontal,horizontal,vertical,horizontal,none
1d,20,100243,3,40,168,19,F,NA,constant,homogeneous,5,present,1.04189705848694,1,vertical,vertical,1,0.823520742995398,red,2,4,1054.37883281626,582.212099195248,583.747735480111,464.870587620533,895.524681321058,836.431882914531,1054.37883281626,582.212099195248,861.690083377915,352.574589799621,583.747735480111,464.870587620533,604.658667004661,763.910840470068,NaN,NaN,0,4,0,0,0,NaN,vertical,vertical,horizontal,horizontal,vertical,none
1d,20,100243,3,41,169,19,F,NA,constant,homogeneous,5,absent,0.880512952804565,1,horizontal,horizontal,1,0.682349747419357,red,1,NaN,672.5,820.836477965032,NaN,NaN,672.5,820.836477965032,970.628304621509,789.501930496736,1032.95409169886,496.282156015671,773.345241866748,346.39691668109,550.57236181288,546.982518841471,NaN,NaN,4,0,0,0,0,NaN,horizontal,horizontal,horizontal,vertical,vertical,none
1d,20,100243,3,42,170,19,F,NA,constant,homogeneous,4,absent,0.647508859634399,1,vertical,vertical,1,0.870577741520745,red,2,NaN,1013.86099482608,738.882953928832,NaN,NaN,661.117046071168,813.860994826083,1013.86099482608,738.882953928832,938.882953928832,386.139005173917,586.139005173917,461.117046071168,NaN,NaN,NaN,NaN,0,4,0,0,NaN,NaN,horizontal,vertical,vertical,horizontal,none,none
1d,20,100243,3,43,171,19,F,NA,constant,homogeneous,4,present,0.722471952438354,1,horizontal,horizontal,1,0.682349747419357,red,2,3,1054.65053136242,613.345668841951,813.345668841951,345.349468637584,786.654331158049,854.650531362416,1054.65053136242,613.345668841951,813.345668841951,345.349468637584,545.349468637584,586.654331158049,NaN,NaN,NaN,NaN,0,4,0,0,NaN,NaN,vertical,horizontal,horizontal,horizontal,none,none
1d,20,100243,3,44,172,19,F,NA,constant,homogeneous,5,present,0.777971982955933,1,horizontal,horizontal,1,1.0470414859908,red,5,1,556.142287229426,525.445215295702,653.738008730483,808.883771293693,653.738008730483,808.883771293693,953.462830903772,803.65205506206,1041.10723677783,516.980120613425,795.549636358493,345.03883773512,556.142287229426,525.445215295702,NaN,NaN,0,0,0,0,4,NaN,horizontal,horizontal,horizontal,vertical,horizontal,none
1d,20,100243,3,45,173,19,F,NA,constant,homogeneous,4,present,0.626914978027344,1,horizontal,horizontal,1,1.05880573562213,red,2,4,1025.15163617903,480.284751489598,574.848363820974,719.715248510402,919.715248510402,825.151636179026,1025.15163617903,480.284751489598,680.284751489598,374.848363820974,574.848363820974,719.715248510402,NaN,NaN,NaN,NaN,0,4,0,0,NaN,NaN,vertical,horizontal,vertical,vertical,none,none
1d,20,100243,3,46,174,19,F,NA,constant,homogeneous,5,absent,0.90181303024292,1,vertical,vertical,1,0.905870490414756,red,4,NaN,572.793336331966,484.232422566416,NaN,NaN,915.767577433584,827.206663668034,1051.86052685176,560.109211414741,839.890788585259,348.13947314824,572.793336331966,484.232422566416,619.68777079743,780.31222920257,NaN,NaN,0,0,0,4,0,NaN,vertical,horizontal,horizontal,vertical,horizontal,none
1d,20,100243,3,47,175,19,F,NA,constant,homogeneous,6,present,0.988424062728882,1,vertical,vertical,1,0.823520742995398,red,2,3,995.341332995339,763.910840470068,1039.62161830041,512.784863451954,755.719714694933,851.125977018113,995.341332995339,763.910840470068,1039.62161830041,512.784863451954,844.280285305067,348.874022981887,604.658667004661,436.089159529932,560.378381699593,687.215136548046,0,4,0,0,0,0,vertical,vertical,horizontal,horizontal,horizontal,horizontal
1d,20,100243,3,48,176,19,F,NA,constant,homogeneous,4,absent,0.78709888458252,1,vertical,vertical,1,0.929398989677429,red,3,NaN,839.890788585259,348.13947314824,NaN,NaN,760.109211414741,851.86052685176,1051.86052685176,639.890788585259,839.890788585259,348.13947314824,548.13947314824,560.109211414741,NaN,NaN,NaN,NaN,0,0,4,0,NaN,NaN,vertical,horizontal,vertical,horizontal,none,none
1d,20,100243,3,49,177,19,F,NA,constant,homogeneous,6,present,0.639003992080688,1,horizontal,horizontal,1,0.988220237834113,red,5,2,650.114760665419,393.700666434388,949.885239334581,806.299333565612,696.282156015671,832.954091698863,949.885239334581,806.299333565612,1053.60308331891,573.345241866748,903.717843984329,367.045908301137,650.114760665419,393.700666434388,546.39691668109,626.654758133252,0,0,0,0,4,0,vertical,vertical,horizontal,vertical,horizontal,horizontal
1d,20,100243,3,50,178,19,F,NA,constant,homogeneous,6,absent,0.512526988983154,1,horizontal,horizontal,1,1.02351298672812,red,5,NaN,545.349468637584,586.654331158049,NaN,NaN,915.767577433584,827.206663668034,1054.65053136242,613.345668841951,938.882953928832,386.139005173917,684.232422566416,372.793336331966,545.349468637584,586.654331158049,661.117046071168,813.860994826083,0,0,0,0,4,0,vertical,vertical,horizontal,horizontal,horizontal,horizontal
1d,20,100243,3,51,179,19,F,NA,constant,homogeneous,3,absent,0.499780893325806,0,vertical,horizontal,1,0.847049242258072,red,3,NaN,646.537169096228,396.34794493794,NaN,NaN,700.363562235235,834.728737630372,1053.09926866854,568.923317431687,646.537169096228,396.34794493794,NaN,NaN,NaN,NaN,NaN,NaN,0,0,4,NaN,NaN,NaN,vertical,vertical,vertical,none,none,none
1d,20,100243,3,52,180,19,F,NA,constant,homogeneous,3,absent,0.508139848709106,0,vertical,horizontal,1,0.717642496313368,red,1,NaN,583.747735480111,735.129412379467,NaN,NaN,583.747735480111,735.129412379467,1025.15163617903,719.715248510402,791.100628340862,345.155339110131,NaN,NaN,NaN,NaN,NaN,NaN,4,0,0,NaN,NaN,NaN,vertical,vertical,horizontal,none,none,none
1d,20,100243,3,53,181,19,F,NA,constant,homogeneous,3,present,0.84131908416748,1,horizontal,horizontal,1,0.941163239308766,red,1,3,777.775285599347,854.029648013395,591.116228706307,453.738008730483,777.775285599347,854.029648013395,1031.10848569435,492.232343256122,591.116228706307,453.738008730483,NaN,NaN,NaN,NaN,NaN,NaN,4,0,0,NaN,NaN,NaN,horizontal,vertical,vertical,none,none,none
1d,20,100243,3,54,182,19,F,NA,constant,homogeneous,4,present,0.631092071533203,1,vertical,vertical,1,0.835284992626735,red,4,2,560.378381699593,512.784863451954,1039.62161830041,687.215136548046,712.784863451954,839.621618300407,1039.62161830041,687.215136548046,887.215136548046,360.378381699593,560.378381699593,512.784863451954,NaN,NaN,NaN,NaN,0,0,0,4,NaN,NaN,horizontal,vertical,vertical,vertical,none,none
1d,20,100243,3,55,183,19,F,NA,constant,homogeneous,3,absent,0.479952812194824,1,vertical,vertical,1,0.611764249631337,red,2,NaN,1042.51941165526,678.799333565612,NaN,NaN,610.498069503264,770.628304621509,1042.51941165526,678.799333565612,746.982518841471,350.57236181288,NaN,NaN,NaN,NaN,NaN,NaN,0,4,0,NaN,NaN,NaN,vertical,vertical,vertical,none,none,none
1d,20,100243,3,56,184,19,F,NA,constant,homogeneous,5,present,0.55113697052002,1,horizontal,horizontal,1,0.870577741520745,red,2,1,1051.12597701811,555.719714694933,919.715248510402,825.151636179026,919.715248510402,825.151636179026,1051.12597701811,555.719714694933,835.489140744817,347.4816424709,570.807518193712,488.215357568785,622.862115532956,783.431649086356,NaN,NaN,0,4,0,0,0,NaN,vertical,horizontal,horizontal,vertical,vertical,none
1d,20,100243,3,57,185,19,F,NA,constant,homogeneous,6,absent,0.678864002227783,0,horizontal,vertical,1,0.847049242258072,red,5,NaN,657.405809614959,388.595418998464,NaN,NaN,688.215357568785,829.192481806288,942.594190385041,811.404581001536,1054.37883281626,582.212099195248,911.784642431215,370.807518193712,657.405809614959,388.595418998464,545.621167183745,617.787900804752,0,0,0,0,4,0,vertical,horizontal,horizontal,horizontal,horizontal,horizontal
1d,20,100243,3,58,186,19,F,NA,constant,homogeneous,3,present,0.485339879989624,0,vertical,horizontal,1,1.0470414859908,red,1,3,791.100628340862,854.844660889869,583.747735480111,464.870587620533,791.100628340862,854.844660889869,1025.15163617903,480.284751489598,583.747735480111,464.870587620533,NaN,NaN,NaN,NaN,NaN,NaN,4,0,0,NaN,NaN,NaN,vertical,horizontal,horizontal,none,none,none
1d,20,100243,3,59,187,19,F,NA,constant,homogeneous,6,present,0.608992099761963,1,horizontal,horizontal,1,0.670585497788021,red,1,6,692.232343256122,831.108485694346,545.970351986605,622.224714400653,692.232343256122,831.108485694346,946.261991269517,808.883771293693,1054.0296480134,577.775285599347,907.767656743878,368.891514305654,653.738008730483,391.116228706307,545.970351986605,622.224714400653,4,0,0,0,0,0,horizontal,vertical,vertical,vertical,horizontal,horizontal
1d,20,100243,3,60,188,19,F,NA,constant,homogeneous,5,present,0.431165218353271,0,vertical,horizontal,1,0.694113997050694,red,5,2,632.704947607421,792.450942956807,1048.46436652023,542.637481142314,931.334709102064,818.577661679039,1048.46436652023,542.637481142314,822.224714400653,345.970351986605,565.271262369628,500.363562235235,632.704947607421,792.450942956807,NaN,NaN,0,0,0,0,4,NaN,vertical,horizontal,vertical,vertical,vertical,none
1d,20,100243,3,61,189,19,F,NA,constant,homogeneous,6,present,0.601868867874146,0,horizontal,vertical,1,0.705878246682031,red,3,4,963.910840470068,404.658667004661,712.784863451954,360.378381699593,887.215136548046,839.621618300407,1051.12597701811,644.280285305067,963.910840470068,404.658667004661,712.784863451954,360.378381699593,548.874022981887,555.719714694933,636.089159529932,795.341332995339,0,0,4,0,0,0,horizontal,vertical,horizontal,horizontal,horizontal,horizontal
1d,20,100243,3,62,190,19,F,NA,constant,homogeneous,3,present,0.663326978683472,1,horizontal,horizontal,1,0.647056998525347,red,1,3,895.524681321058,836.431882914531,547.481642470899,564.510859255183,895.524681321058,836.431882914531,956.993676208043,399.057257830286,547.481642470899,564.510859255183,NaN,NaN,NaN,NaN,NaN,NaN,4,0,0,NaN,NaN,NaN,horizontal,horizontal,vertical,none,none,none
1d,20,100243,3,63,191,19,F,NA,constant,homogeneous,6,absent,0.555062055587769,1,vertical,vertical,1,0.717642496313368,red,2,NaN,1052.5183575291,635.489140744817,NaN,NaN,895.524681321058,836.431882914531,1052.5183575291,635.489140744817,956.993676208043,399.057257830286,704.475318678942,363.568117085469,547.481642470899,564.510859255183,643.006323791957,800.942742169714,0,4,0,0,0,0,horizontal,vertical,vertical,horizontal,horizontal,horizontal
1d,20,100243,3,64,192,19,F,NA,constant,homogeneous,4,absent,0.665491104125977,1,horizontal,horizontal,1,0.764699494838715,red,2,NaN,1008.88377129369,746.261991269517,NaN,NaN,653.738008730483,808.883771293693,1008.88377129369,746.261991269517,946.261991269517,391.116228706307,591.116228706307,453.738008730483,NaN,NaN,NaN,NaN,0,4,0,0,NaN,NaN,vertical,horizontal,vertical,vertical,none,none
1d,20,100243,4,1,193,19,F,NA,constant,homogeneous,5,absent,0.515166997909546,1,horizontal,horizontal,1,0.988220237834113,red,5,NaN,579.163522034968,727.5,NaN,NaN,853.017481158529,849.42763818712,1053.60308331891,626.654758133252,903.717843984329,367.045908301137,610.498069503264,429.371695378491,579.163522034968,727.5,NaN,NaN,0,0,0,0,4,NaN,horizontal,vertical,vertical,horizontal,horizontal,none
1d,20,100243,4,2,194,19,F,NA,constant,homogeneous,6,absent,0.614073991775513,1,vertical,vertical,1,0.623528499262674,red,5,NaN,632.704947607421,407.549057043193,NaN,NaN,716.980120613425,841.107236777826,967.295052392579,792.450942956807,1050.31493177915,551.343706178981,883.019879386575,358.892763222174,632.704947607421,407.549057043193,549.685068220846,648.656293821019,0,0,0,0,4,0,horizontal,vertical,vertical,horizontal,vertical,horizontal
1d,20,100243,4,3,195,19,F,NA,constant,homogeneous,3,present,0.739089965820312,1,vertical,vertical,1,1.03527723635946,red,1,3,887.215136548046,839.621618300407,548.874022981887,555.719714694933,887.215136548046,839.621618300407,963.910840470068,404.658667004661,548.874022981887,555.719714694933,NaN,NaN,NaN,NaN,NaN,NaN,4,0,0,NaN,NaN,NaN,vertical,horizontal,vertical,none,none,none
1d,20,100243,4,4,196,19,F,NA,constant,homogeneous,6,present,0.563417911529541,1,horizontal,horizontal,1,0.858813491889409,red,4,2,734.001143498857,353.688914296288,1046.31108570371,665.998856501143,865.998856501143,846.311085703712,1046.31108570371,665.998856501143,980.31222920257,419.68777079743,734.001143498857,353.688914296288,553.688914296288,534.001143498857,619.68777079743,780.31222920257,0,0,0,4,0,0,horizontal,vertical,vertical,horizontal,vertical,vertical
1d,20,100243,4,5,197,19,F,NA,constant,homogeneous,5,present,0.675380945205688,1,vertical,vertical,1,0.623528499262674,red,3,2,931.334709102064,381.422338320961,1048.46436652023,657.362518857686,822.224714400653,854.029648013395,1048.46436652023,657.362518857686,931.334709102064,381.422338320961,632.704947607421,407.549057043193,565.271262369628,699.636437764765,NaN,NaN,0,0,4,0,0,NaN,vertical,horizontal,vertical,vertical,horizontal,none
1d,20,100243,4,6,198,19,F,NA,constant,homogeneous,3,present,0.622412919998169,1,horizontal,horizontal,1,0.682349747419357,red,3,1,553.688914296288,534.001143498857,865.998856501143,846.311085703712,865.998856501143,846.311085703712,980.31222920257,419.68777079743,553.688914296288,534.001143498857,NaN,NaN,NaN,NaN,NaN,NaN,0,0,4,NaN,NaN,NaN,vertical,horizontal,horizontal,none,none,none
1d,20,100243,4,7,199,19,F,NA,constant,homogeneous,5,absent,0.623702049255371,1,vertical,vertical,1,0.611764249631337,red,4,NaN,639.523300282292,401.827779828472,NaN,NaN,813.345668841951,854.650531362416,1046.31108570371,665.998856501143,938.882953928832,386.139005173917,639.523300282292,401.827779828472,561.936991243214,691.383827134052,NaN,NaN,0,0,0,4,0,NaN,vertical,vertical,vertical,vertical,vertical,none
1d,20,100243,4,8,200,19,F,NA,constant,homogeneous,4,absent,0.781546115875244,1,vertical,vertical,1,1.07056998525347,red,2,NaN,1052.5183575291,635.489140744817,NaN,NaN,764.510859255183,852.518357529101,1052.5183575291,635.489140744817,835.489140744817,347.4816424709,547.481642470899,564.510859255183,NaN,NaN,NaN,NaN,0,4,0,0,NaN,NaN,horizontal,vertical,vertical,vertical,none,none
1d,20,100243,4,9,201,19,F,NA,constant,homogeneous,6,absent,0.626361846923828,1,vertical,vertical,1,0.647056998525347,red,1,NaN,857.362518857686,848.464366520235,NaN,NaN,857.362518857686,848.464366520235,1043.85771277057,674.554784704298,986.495193912888,426.090418184063,742.637481142314,351.535633479765,556.142287229426,525.445215295702,613.504806087112,773.909581815937,4,0,0,0,0,0,vertical,horizontal,horizontal,horizontal,horizontal,horizontal
1d,20,100243,4,10,202,19,F,NA,constant,homogeneous,6,present,0.697957038879395,1,vertical,vertical,1,0.741170995576041,red,2,4,1034.72873763037,699.636437764765,768.923317431687,346.900731331463,831.076682568313,853.099268668537,1034.72873763037,699.636437764765,1003.65205506206,446.537169096228,768.923317431687,346.900731331463,565.271262369628,500.363562235235,596.34794493794,753.462830903772,0,4,0,0,0,0,vertical,vertical,vertical,vertical,horizontal,vertical
1d,20,100243,4,11,203,19,F,NA,constant,homogeneous,5,present,0.481227874755859,1,horizontal,horizontal,1,0.847049242258072,red,4,3,664.870587620533,383.747735480111,963.910840470068,404.658667004661,782.212099195248,854.378832816255,1036.43188291453,695.524681321058,963.910840470068,404.658667004661,664.870587620533,383.747735480111,552.574589799621,661.690083377915,NaN,NaN,0,0,0,4,0,NaN,horizontal,vertical,horizontal,horizontal,vertical,none
1d,20,100243,4,12,204,19,F,NA,constant,homogeneous,5,present,0.533642053604126,1,vertical,vertical,1,0.941163239308766,red,1,2,848.656293821019,850.314931779154,1053.09926866854,631.076682568313,848.656293821019,850.314931779154,1053.09926866854,631.076682568313,907.767656743878,368.891514305654,613.504806087112,426.090418184063,576.971974679454,723.626453162816,NaN,NaN,4,0,0,0,0,NaN,vertical,vertical,horizontal,vertical,horizontal,none
1d,20,100243,4,13,205,19,F,NA,constant,homogeneous,6,present,0.785579919815063,1,vertical,vertical,1,0.847049242258072,red,6,2,607.549057043193,767.295052392579,1041.10723677783,683.019879386575,848.656293821019,850.314931779154,1041.10723677783,683.019879386575,992.450942956807,432.704947607421,751.343706178981,349.685068220846,558.892763222174,516.980120613425,607.549057043193,767.295052392579,0,0,0,0,0,4,vertical,horizontal,vertical,horizontal,horizontal,vertical
1d,20,100243,4,14,206,19,F,NA,constant,homogeneous,4,absent,0.507078886032104,1,horizontal,horizontal,1,1.08233423488481,red,1,NaN,786.654331158049,854.650531362416,NaN,NaN,786.654331158049,854.650531362416,1054.65053136242,613.345668841951,813.345668841951,345.349468637584,545.349468637584,586.654331158049,NaN,NaN,NaN,NaN,4,0,0,0,NaN,NaN,horizontal,horizontal,vertical,horizontal,none,none
1d,20,100243,4,15,207,19,F,NA,constant,homogeneous,6,absent,0.59349799156189,1,horizontal,horizontal,1,0.811756493364062,red,5,NaN,545.155339110131,591.100628340862,NaN,NaN,919.715248510402,825.151636179026,1054.84466088987,608.899371659138,935.129412379467,383.747735480111,680.284751489598,374.848363820974,545.155339110131,591.100628340862,664.870587620533,816.252264519889,0,0,0,0,4,0,horizontal,vertical,vertical,horizontal,horizontal,vertical
1d,20,100243,4,16,208,19,F,NA,constant,homogeneous,5,absent,0.728722810745239,1,vertical,vertical,1,0.752935245207378,red,1,NaN,808.899371659138,854.844660889869,NaN,NaN,808.899371659138,854.844660889869,1045.12173246427,670.287525733335,942.594190385041,388.595418998464,643.006323791957,399.057257830286,560.378381699593,687.215136548046,NaN,NaN,4,0,0,0,0,NaN,vertical,vertical,horizontal,horizontal,horizontal,none
1d,20,100243,4,17,209,19,F,NA,constant,homogeneous,4,present,0.553698062896729,1,horizontal,horizontal,1,0.905870490414756,red,3,4,956.993676208043,399.057257830286,599.057257830286,443.006323791957,643.006323791957,800.942742169714,1000.94274216971,756.993676208043,956.993676208043,399.057257830286,599.057257830286,443.006323791957,NaN,NaN,NaN,NaN,0,0,4,0,NaN,NaN,vertical,vertical,horizontal,vertical,none,none
1d,20,100243,4,18,210,19,F,NA,constant,homogeneous,5,absent,0.672801971435547,1,vertical,vertical,1,0.788227994101388,red,4,NaN,632.704947607421,407.549057043193,NaN,NaN,822.224714400653,854.029648013395,1048.46436652023,657.362518857686,931.334709102064,381.422338320961,632.704947607421,407.549057043193,565.271262369628,699.636437764765,NaN,NaN,0,0,0,4,0,NaN,vertical,horizontal,horizontal,vertical,horizontal,none
1d,20,100243,4,19,211,19,F,NA,constant,homogeneous,6,present,0.558564901351929,1,horizontal,horizontal,1,0.799992243732725,red,1,6,700.363562235235,834.728737630372,546.900731331463,631.076682568313,700.363562235235,834.728737630372,953.462830903772,803.65205506206,1053.09926866854,568.923317431687,899.636437764765,365.271262369628,646.537169096228,396.34794493794,546.900731331463,631.076682568313,4,0,0,0,0,0,horizontal,vertical,horizontal,horizontal,vertical,horizontal
1d,20,100243,4,20,212,19,F,NA,constant,homogeneous,4,present,0.567142009735107,1,horizontal,horizontal,1,0.682349747419357,red,3,1,760.109211414741,348.13947314824,839.890788585259,851.86052685176,839.890788585259,851.86052685176,1051.86052685176,560.109211414741,760.109211414741,348.13947314824,548.13947314824,639.890788585259,NaN,NaN,NaN,NaN,0,0,4,0,NaN,NaN,vertical,vertical,horizontal,horizontal,none,none
1d,20,100243,4,21,213,19,F,NA,constant,homogeneous,3,absent,0.568092107772827,1,vertical,vertical,1,1.07056998525347,red,3,NaN,583.747735480111,464.870587620533,NaN,NaN,791.100628340862,854.844660889869,1025.15163617903,480.284751489598,583.747735480111,464.870587620533,NaN,NaN,NaN,NaN,NaN,NaN,0,0,4,NaN,NaN,NaN,vertical,horizontal,vertical,none,none,none
1d,20,100243,4,22,214,19,F,NA,constant,homogeneous,6,present,0.589794158935547,1,horizontal,horizontal,1,0.905870490414756,red,2,5,956.993676208043,800.942742169714,643.006323791957,399.057257830286,704.475318678942,836.431882914531,956.993676208043,800.942742169714,1052.5183575291,564.510859255183,895.524681321058,363.568117085469,643.006323791957,399.057257830286,547.481642470899,635.489140744817,0,4,0,0,0,0,vertical,horizontal,horizontal,vertical,vertical,vertical
1d,20,100243,4,23,215,19,F,NA,constant,homogeneous,3,absent,0.567409992218018,1,horizontal,horizontal,1,0.870577741520745,red,1,NaN,923.626453162816,823.028025320546,NaN,NaN,923.626453162816,823.028025320546,931.334709102064,381.422338320961,545.03883773512,595.549636358493,NaN,NaN,NaN,NaN,NaN,NaN,4,0,0,NaN,NaN,NaN,horizontal,vertical,vertical,none,none,none
1d,20,100243,4,24,216,19,F,NA,constant,homogeneous,5,present,0.512906074523926,1,vertical,vertical,1,0.894106240783419,red,2,4,1052.5183575291,635.489140744817,616.568350913644,422.862115532956,844.280285305067,851.125977018113,1052.5183575291,635.489140744817,911.784642431215,370.807518193712,616.568350913644,422.862115532956,574.848363820974,719.715248510402,NaN,NaN,0,4,0,0,0,NaN,horizontal,vertical,vertical,vertical,vertical,none
1d,20,100243,4,25,217,19,F,NA,constant,homogeneous,3,present,0.519881010055542,1,vertical,vertical,1,1.03527723635946,red,2,1,835.489140744817,347.4816424709,1000.94274216971,756.993676208043,1000.94274216971,756.993676208043,835.489140744817,347.4816424709,563.568117085469,695.524681321058,NaN,NaN,NaN,NaN,NaN,NaN,0,4,0,NaN,NaN,NaN,vertical,vertical,vertical,none,none,none
1d,20,100243,4,26,218,19,F,NA,constant,homogeneous,5,present,0.592858791351318,1,horizontal,horizontal,1,0.717642496313368,red,4,3,768.923317431687,346.900731331463,1031.10848569435,492.232343256122,676.373546837184,823.028025320546,973.909581815937,786.495193912888,1031.10848569435,492.232343256122,768.923317431687,346.900731331463,549.685068220846,551.343706178981,NaN,NaN,0,0,0,4,0,NaN,horizontal,horizontal,horizontal,horizontal,vertical,none
1d,20,100243,4,27,219,19,F,NA,constant,homogeneous,6,present,0.601953983306885,1,horizontal,horizontal,1,0.647056998525347,red,3,2,1011.40458100154,457.40580961496,1029.19248180629,711.784642431215,817.787900804752,854.378832816255,1029.19248180629,711.784642431215,1011.40458100154,457.40580961496,782.212099195248,345.621167183745,570.807518193712,488.215357568785,588.595418998464,742.594190385041,0,0,4,0,0,0,vertical,horizontal,horizontal,horizontal,horizontal,vertical
1d,20,100243,4,28,220,19,F,NA,constant,homogeneous,5,absent,0.435839891433716,1,horizontal,horizontal,1,1.08233423488481,red,4,NaN,795.549636358493,345.03883773512,NaN,NaN,653.738008730483,808.883771293693,953.462830903772,803.65205506206,1041.10723677783,516.980120613425,795.549636358493,345.03883773512,556.142287229426,525.445215295702,NaN,NaN,0,0,0,4,0,NaN,vertical,horizontal,vertical,horizontal,horizontal,none
1d,20,100243,4,29,221,19,F,NA,constant,homogeneous,4,absent,0.541664123535156,1,vertical,vertical,1,0.847049242258072,red,2,NaN,1048.46436652023,657.362518857686,NaN,NaN,742.637481142314,848.464366520235,1048.46436652023,657.362518857686,857.362518857686,351.535633479765,551.535633479765,542.637481142314,NaN,NaN,NaN,NaN,0,4,0,0,NaN,NaN,horizontal,vertical,horizontal,vertical,none,none
1d,20,100243,4,30,222,19,F,NA,constant,homogeneous,3,absent,0.532802820205688,1,vertical,vertical,1,0.99998448746545,red,3,NaN,773.345241866748,346.39691668109,NaN,NaN,593.700666434388,749.885239334581,1032.95409169886,703.717843984329,773.345241866748,346.39691668109,NaN,NaN,NaN,NaN,NaN,NaN,0,0,4,NaN,NaN,NaN,vertical,horizontal,vertical,none,none,none
1d,20,100243,4,31,223,19,F,NA,constant,homogeneous,4,absent,0.501360893249512,1,horizontal,horizontal,1,1.08233423488481,red,2,NaN,1003.65205506206,446.537169096228,NaN,NaN,953.462830903772,803.65205506206,1003.65205506206,446.537169096228,646.537169096228,396.34794493794,596.34794493794,753.462830903772,NaN,NaN,NaN,NaN,0,4,0,0,NaN,NaN,horizontal,horizontal,horizontal,horizontal,none,none
1d,20,100243,4,32,224,19,F,NA,constant,homogeneous,4,present,0.544723987579346,0,vertical,horizontal,1,0.858813491889409,red,2,4,983.431649086356,422.862115532956,616.568350913644,777.137884467044,977.137884467044,783.431649086356,983.431649086356,422.862115532956,622.862115532956,416.568350913644,616.568350913644,777.137884467044,NaN,NaN,NaN,NaN,0,4,0,0,NaN,NaN,horizontal,vertical,horizontal,vertical,none,none
1d,20,100243,4,33,225,19,F,NA,constant,homogeneous,4,absent,0.461838960647583,1,vertical,vertical,1,0.905870490414756,red,2,NaN,1020.83647796503,472.5,NaN,NaN,927.5,820.836477965032,1020.83647796503,472.5,672.5,379.163522034968,579.163522034968,727.5,NaN,NaN,NaN,NaN,0,4,0,0,NaN,NaN,vertical,vertical,horizontal,horizontal,none,none
1d,20,100243,4,34,226,19,F,NA,constant,homogeneous,3,present,0.529926061630249,1,horizontal,horizontal,1,0.741170995576041,red,2,1,899.636437764765,365.271262369628,953.462830903772,803.65205506206,953.462830903772,803.65205506206,899.636437764765,365.271262369628,546.900731331463,631.076682568313,NaN,NaN,NaN,NaN,NaN,NaN,0,4,0,NaN,NaN,NaN,vertical,horizontal,horizontal,none,none,none
1d,20,100243,4,35,227,19,F,NA,constant,homogeneous,3,absent,0.929125070571899,1,horizontal,horizontal,1,0.811756493364062,red,1,NaN,619.68777079743,780.31222920257,NaN,NaN,619.68777079743,780.31222920257,1046.31108570371,665.998856501143,734.001143498857,353.688914296288,NaN,NaN,NaN,NaN,NaN,NaN,4,0,0,NaN,NaN,NaN,horizontal,vertical,vertical,none,none,none
1d,20,100243,4,36,228,19,F,NA,constant,homogeneous,3,absent,0.572053909301758,1,horizontal,horizontal,1,0.799992243732725,red,2,NaN,895.524681321058,363.568117085469,NaN,NaN,956.993676208043,800.942742169714,895.524681321058,363.568117085469,547.481642470899,635.489140744817,NaN,NaN,NaN,NaN,NaN,NaN,0,4,0,NaN,NaN,NaN,vertical,horizontal,horizontal,none,none,none
1d,20,100243,4,37,229,19,F,NA,constant,homogeneous,6,absent,0.638504981994629,1,horizontal,horizontal,1,0.741170995576041,red,1,NaN,857.362518857686,848.464366520235,NaN,NaN,857.362518857686,848.464366520235,1043.85771277057,674.554784704298,986.495193912888,426.090418184063,742.637481142314,351.535633479765,556.142287229426,525.445215295702,613.504806087112,773.909581815937,4,0,0,0,0,0,horizontal,vertical,horizontal,vertical,vertical,vertical
1d,20,100243,4,38,230,19,F,NA,constant,homogeneous,3,present,0.514811992645264,1,horizontal,horizontal,1,0.964691738571439,red,1,3,1016.25226451989,735.129412379467,574.848363820974,719.715248510402,1016.25226451989,735.129412379467,808.899371659138,345.155339110131,574.848363820974,719.715248510402,NaN,NaN,NaN,NaN,NaN,NaN,4,0,0,NaN,NaN,NaN,horizontal,horizontal,vertical,none,none,none
1d,20,100243,4,39,231,19,F,NA,constant,homogeneous,6,absent,0.649338006973267,1,vertical,vertical,1,0.611764249631337,red,3,NaN,935.129412379467,383.747735480111,NaN,NaN,919.715248510402,825.151636179026,1054.84466088987,608.899371659138,935.129412379467,383.747735480111,680.284751489598,374.848363820974,545.155339110131,591.100628340862,664.870587620533,816.252264519889,0,0,4,0,0,0,vertical,horizontal,vertical,vertical,vertical,horizontal
1d,20,100243,4,40,232,19,F,NA,constant,homogeneous,4,present,0.620594024658203,1,horizontal,horizontal,1,0.905870490414756,red,4,1,588.595418998464,457.40580961496,657.405809614959,811.404581001536,657.405809614959,811.404581001536,1011.40458100154,742.594190385041,942.594190385041,388.595418998464,588.595418998464,457.40580961496,NaN,NaN,NaN,NaN,0,0,0,4,NaN,NaN,horizontal,vertical,horizontal,horizontal,none,none
1d,20,100243,4,41,233,19,F,NA,constant,homogeneous,5,absent,0.769966125488281,1,horizontal,horizontal,1,0.835284992626735,red,3,NaN,980.31222920257,419.68777079743,NaN,NaN,760.109211414741,851.86052685176,1027.20666366803,715.767577433584,980.31222920257,419.68777079743,684.232422566416,372.793336331966,548.13947314824,639.890788585259,NaN,NaN,0,0,4,0,0,NaN,vertical,horizontal,horizontal,horizontal,vertical,none
1d,20,100243,4,42,234,19,F,NA,constant,homogeneous,4,present,0.848783016204834,1,horizontal,horizontal,1,0.776463744470051,red,2,1,1020.83647796503,727.5,672.5,820.836477965032,672.5,820.836477965032,1020.83647796503,727.5,927.5,379.163522034968,579.163522034968,472.5,NaN,NaN,NaN,NaN,0,4,0,0,NaN,NaN,horizontal,horizontal,vertical,vertical,none,none
1d,20,100243,4,43,235,19,F,NA,constant,homogeneous,4,present,0.63595986366272,1,vertical,vertical,1,1.08233423488481,red,3,2,661.117046071168,386.139005173917,1013.86099482608,461.117046071168,938.882953928832,813.860994826083,1013.86099482608,461.117046071168,661.117046071168,386.139005173917,586.139005173917,738.882953928832,NaN,NaN,NaN,NaN,0,0,4,0,NaN,NaN,horizontal,vertical,vertical,vertical,none,none
1d,20,100243,4,44,236,19,F,NA,constant,homogeneous,6,present,0.639704942703247,1,vertical,vertical,1,0.941163239308766,red,1,6,822.224714400653,854.029648013395,591.116228706307,746.261991269517,822.224714400653,854.029648013395,1031.10848569435,707.767656743878,1008.88377129369,453.738008730483,777.775285599347,345.970351986605,568.891514305654,492.232343256122,591.116228706307,746.261991269517,4,0,0,0,0,0,vertical,vertical,horizontal,vertical,vertical,horizontal
1d,20,100243,4,45,237,19,F,NA,constant,homogeneous,3,present,0.592916965484619,1,vertical,vertical,1,0.823520742995398,red,2,1,1043.85771277057,525.445215295702,742.637481142314,848.464366520235,742.637481142314,848.464366520235,1043.85771277057,525.445215295702,613.504806087112,426.090418184063,NaN,NaN,NaN,NaN,NaN,NaN,0,4,0,NaN,NaN,NaN,horizontal,vertical,vertical,none,none,none
1d,20,100243,4,46,238,19,F,NA,constant,homogeneous,5,absent,0.747393846511841,1,horizontal,horizontal,1,0.717642496313368,red,1,NaN,708.616172865948,838.063008756786,NaN,NaN,708.616172865948,838.063008756786,998.172220171528,760.476699717708,1013.86099482608,461.117046071168,734.001143498857,353.688914296288,545.349468637584,586.654331158049,NaN,NaN,4,0,0,0,0,NaN,horizontal,horizontal,horizontal,horizontal,horizontal,none
1d,20,100243,4,47,239,19,F,NA,constant,homogeneous,5,present,0.544207096099854,1,horizontal,horizontal,1,1.08233423488481,red,1,5,891.383827134052,838.063008756786,601.827779828472,760.476699717708,891.383827134052,838.063008756786,1054.65053136242,586.654331158049,865.998856501143,353.688914296288,586.139005173917,461.117046071168,601.827779828472,760.476699717708,NaN,NaN,4,0,0,0,0,NaN,horizontal,horizontal,vertical,horizontal,vertical,none
1d,20,100243,4,48,240,19,F,NA,constant,homogeneous,6,absent,0.690206050872803,1,horizontal,horizontal,1,0.964691738571439,red,3,NaN,949.885239334581,393.700666434388,NaN,NaN,903.717843984329,832.954091698863,1053.60308331891,626.654758133252,949.885239334581,393.700666434388,696.282156015671,367.045908301137,546.39691668109,573.345241866748,650.114760665419,806.299333565612,0,0,4,0,0,0,vertical,horizontal,horizontal,horizontal,vertical,vertical
1d,20,100243,4,49,241,19,F,NA,constant,homogeneous,6,absent,0.845266103744507,1,vertical,vertical,1,0.647056998525347,red,1,NaN,700.363562235235,834.728737630372,NaN,NaN,700.363562235235,834.728737630372,953.462830903772,803.65205506206,1053.09926866854,568.923317431687,899.636437764765,365.271262369628,646.537169096228,396.34794493794,546.900731331463,631.076682568313,4,0,0,0,0,0,vertical,horizontal,vertical,vertical,horizontal,horizontal
