experiment,subject,uniqueID,block,trial,trial_cumulative,age,gender,color_cond_blocking,color_history,shape_type,set_size,distractor,rt,acc,target_orient,response_key,response_made,iti,target_color,target_item,distractor_item,target_X,target_Y,distractor_X,distractor_Y,item1_X,item1_Y,item2_X,item2_Y,item3_X,item3_Y,item4_X,item4_Y,item5_X,item5_Y,item6_X,item6_Y,item1_shape,item2_shape,item3_shape,item4_shape,item5_shape,item6_shape,item1_line,item2_line,item3_line,item4_line,item5_line,item6_line
1d,21,100245,1,1,1,20,F,NA,constant,homogeneous,6,present,NaN,0,vertical,none,0,1.09411183390124,green,5,1,547.481642470899,564.510859255183,895.524681321058,836.431882914531,895.524681321058,836.431882914531,1052.5183575291,635.489140744817,956.993676208043,399.057257830286,704.475318678942,363.568117085469,547.481642470899,564.510859255183,643.006323791957,800.942742169714,0,0,0,0,4,0,horizontal,horizontal,horizontal,vertical,vertical,horizontal
1d,21,100245,1,2,2,20,F,NA,constant,homogeneous,4,present,0.783732891082764,1,horizontal,horizontal,1,0.623529134947678,green,2,3,1029.19248180629,488.215357568785,688.215357568785,370.807518193712,911.784642431215,829.192481806288,1029.19248180629,488.215357568785,688.215357568785,370.807518193712,570.807518193712,711.784642431215,NaN,NaN,NaN,NaN,0,4,0,0,NaN,NaN,vertical,horizontal,vertical,vertical,none,none
1d,21,100245,1,3,3,20,F,NA,constant,homogeneous,6,present,1.63006591796875,1,horizontal,horizontal,1,0.941172456741333,green,1,3,708.616172865948,838.063008756786,1051.86052685176,560.109211414741,708.616172865948,838.063008756786,960.476699717708,798.172220171528,1051.86052685176,560.109211414741,891.383827134052,361.936991243214,639.523300282292,401.827779828472,548.13947314824,639.890788585259,4,0,0,0,0,0,horizontal,vertical,vertical,vertical,horizontal,vertical
1d,21,100245,1,4,4,20,F,NA,constant,homogeneous,4,absent,0.742043018341064,1,horizontal,horizontal,1,0.788233079581425,green,3,NaN,946.261991269517,391.116228706307,NaN,NaN,653.738008730483,808.883771293693,1008.88377129369,746.261991269517,946.261991269517,391.116228706307,591.116228706307,453.738008730483,NaN,NaN,NaN,NaN,0,0,4,0,NaN,NaN,horizontal,horizontal,horizontal,vertical,none,none
1d,21,100245,1,5,5,20,F,NA,constant,homogeneous,3,absent,1.07900404930115,1,horizontal,horizontal,1,0.894114186845977,green,2,NaN,967.295052392579,407.549057043193,NaN,NaN,883.019879386575,841.107236777826,967.295052392579,407.549057043193,549.685068220846,551.343706178981,NaN,NaN,NaN,NaN,NaN,NaN,0,4,0,NaN,NaN,NaN,horizontal,horizontal,horizontal,none,none,none
1d,21,100245,1,6,6,20,F,NA,constant,homogeneous,4,present,0.467151165008545,1,vertical,vertical,1,0.905878754319816,green,2,3,1052.5183575291,635.489140744817,835.489140744817,347.4816424709,764.510859255183,852.518357529101,1052.5183575291,635.489140744817,835.489140744817,347.4816424709,547.481642470899,564.510859255183,NaN,NaN,NaN,NaN,0,4,0,0,NaN,NaN,horizontal,vertical,vertical,horizontal,none,none
1d,21,100245,1,7,7,20,F,NA,constant,homogeneous,5,absent,0.731534957885742,1,horizontal,horizontal,1,0.752939377159908,green,1,NaN,911.784642431215,829.192481806288,NaN,NaN,911.784642431215,829.192481806288,1052.5183575291,564.510859255183,844.280285305067,348.874022981887,574.848363820974,480.284751489598,616.568350913644,777.137884467044,NaN,NaN,4,0,0,0,0,NaN,horizontal,horizontal,vertical,horizontal,vertical,none
1d,21,100245,1,8,8,20,F,NA,constant,homogeneous,3,absent,0.717734098434448,1,vertical,vertical,1,0.776468512107586,green,2,NaN,1047.42541020038,538.309916622085,NaN,NaN,729.712474266665,845.121732464271,1047.42541020038,538.309916622085,622.862115532956,416.568350913644,NaN,NaN,NaN,NaN,NaN,NaN,0,4,0,NaN,NaN,NaN,horizontal,vertical,vertical,none,none,none
1d,21,100245,1,9,9,20,F,NA,constant,homogeneous,3,present,0.675539970397949,1,horizontal,horizontal,1,0.752939377159908,green,1,3,782.212099195248,854.378832816255,588.595418998464,457.40580961496,782.212099195248,854.378832816255,1029.19248180629,488.215357568785,588.595418998464,457.40580961496,NaN,NaN,NaN,NaN,NaN,NaN,4,0,0,NaN,NaN,NaN,horizontal,vertical,horizontal,none,none,none
1d,21,100245,1,10,10,20,F,NA,constant,homogeneous,3,present,0.631253004074097,1,vertical,vertical,1,0.705881107264552,green,2,1,1054.65053136242,586.654331158049,684.232422566416,827.206663668034,684.232422566416,827.206663668034,1054.65053136242,586.654331158049,661.117046071168,386.139005173917,NaN,NaN,NaN,NaN,NaN,NaN,0,4,0,NaN,NaN,NaN,horizontal,vertical,horizontal,none,none,none
1d,21,100245,1,11,11,20,F,NA,constant,homogeneous,5,absent,0.842049121856689,1,horizontal,horizontal,1,0.705881107264552,green,4,NaN,558.892763222174,516.980120613425,NaN,NaN,946.261991269517,808.883771293693,1043.85771277057,525.445215295702,804.450363641507,345.03883773512,558.892763222174,516.980120613425,646.537169096228,803.65205506206,NaN,NaN,0,0,0,4,0,NaN,horizontal,vertical,vertical,horizontal,vertical,none
1d,21,100245,1,12,12,20,F,NA,constant,homogeneous,6,absent,0.727656841278076,1,horizontal,horizontal,1,0.835291349476781,green,6,NaN,593.700666434388,749.885239334581,NaN,NaN,826.654758133252,853.60308331891,1032.95409169886,703.717843984329,1006.29933356561,450.114760665419,773.345241866748,346.39691668109,567.045908301137,496.282156015671,593.700666434388,749.885239334581,0,0,0,0,0,4,horizontal,horizontal,vertical,vertical,horizontal,horizontal
1d,21,100245,1,13,13,20,F,NA,constant,homogeneous,5,present,0.621740102767944,1,vertical,vertical,1,0.752939377159908,green,5,1,551.535633479765,657.362518857686,777.775285599347,854.029648013395,777.775285599347,854.029648013395,1034.72873763037,699.636437764765,967.295052392579,407.549057043193,668.665290897936,381.422338320961,551.535633479765,657.362518857686,NaN,NaN,0,0,0,0,4,NaN,vertical,horizontal,horizontal,horizontal,vertical,none
1d,21,100245,1,14,14,20,F,NA,constant,homogeneous,5,absent,0.800373077392578,1,vertical,vertical,1,0.717645674738391,green,5,NaN,545.621167183745,617.787900804752,NaN,NaN,738.309916622085,847.425410200379,1016.25226451989,735.129412379467,995.341332995339,436.089159529932,704.475318678942,363.568117085469,545.621167183745,617.787900804752,NaN,NaN,0,0,0,0,4,NaN,vertical,vertical,vertical,vertical,vertical,none
1d,21,100245,1,15,15,20,F,NA,constant,homogeneous,5,absent,0.482278108596802,1,horizontal,horizontal,1,0.882349619372138,green,5,NaN,545.03883773512,604.450363641507,NaN,NaN,725.445215295702,843.857712770574,1008.88377129369,746.261991269517,1003.65205506206,446.537169096228,716.980120613425,358.892763222174,545.03883773512,604.450363641507,NaN,NaN,0,0,0,0,4,NaN,horizontal,horizontal,horizontal,vertical,horizontal,none
1d,21,100245,1,16,16,20,F,NA,constant,homogeneous,4,absent,0.947755813598633,1,vertical,vertical,1,0.97646615916285,green,3,NaN,826.654758133252,346.39691668109,NaN,NaN,773.345241866748,853.60308331891,1053.60308331891,626.654758133252,826.654758133252,346.39691668109,546.39691668109,573.345241866748,NaN,NaN,NaN,NaN,0,0,4,0,NaN,NaN,vertical,vertical,vertical,horizontal,none,none
1d,21,100245,1,17,17,20,F,NA,constant,homogeneous,6,present,0.743530988693237,1,horizontal,horizontal,1,0.835291349476781,green,2,3,973.909581815937,786.495193912888,1048.46436652023,542.637481142314,725.445215295702,843.857712770574,973.909581815937,786.495193912888,1048.46436652023,542.637481142314,874.554784704298,356.142287229426,626.090418184063,413.504806087112,551.535633479765,657.362518857686,0,4,0,0,0,0,horizontal,horizontal,vertical,horizontal,horizontal,horizontal
1d,21,100245,1,18,18,20,F,NA,constant,homogeneous,5,present,1.10958695411682,1,horizontal,horizontal,1,0.752939377159908,green,5,3,547.481642470899,635.489140744817,983.431649086356,422.862115532956,755.719714694933,851.125977018113,1025.15163617903,719.715248510402,983.431649086356,422.862115532956,688.215357568785,370.807518193712,547.481642470899,635.489140744817,NaN,NaN,0,0,0,0,4,NaN,vertical,horizontal,vertical,vertical,horizontal,none
1d,21,100245,1,19,19,20,F,NA,constant,homogeneous,3,present,0.637224197387695,1,horizontal,horizontal,1,0.858820484424459,green,2,3,923.626453162816,376.971974679454,545.03883773512,604.450363641507,931.334709102064,818.577661679039,923.626453162816,376.971974679454,545.03883773512,604.450363641507,NaN,NaN,NaN,NaN,NaN,NaN,0,4,0,NaN,NaN,NaN,horizontal,horizontal,vertical,none,none,none
1d,21,100245,1,20,20,20,F,NA,constant,homogeneous,4,absent,0.533265829086304,1,horizontal,horizontal,1,0.752939377159908,green,4,NaN,549.685068220846,551.343706178981,NaN,NaN,751.343706178981,850.314931779154,1050.31493177915,648.656293821019,848.656293821019,349.685068220846,549.685068220846,551.343706178981,NaN,NaN,NaN,NaN,0,0,0,4,NaN,NaN,vertical,horizontal,vertical,horizontal,none,none
1d,21,100245,1,21,21,20,F,NA,constant,homogeneous,4,present,0.613137006759644,1,horizontal,horizontal,1,1.05881813147972,green,2,3,1051.12597701811,644.280285305067,844.280285305067,348.874022981887,755.719714694933,851.125977018113,1051.12597701811,644.280285305067,844.280285305067,348.874022981887,548.874022981887,555.719714694933,NaN,NaN,NaN,NaN,0,4,0,0,NaN,NaN,horizontal,horizontal,horizontal,horizontal,none,none
1d,21,100245,1,22,22,20,F,NA,constant,homogeneous,4,present,0.479200124740601,1,vertical,vertical,1,0.870585051898298,green,2,4,986.495193912888,426.090418184063,613.504806087112,773.909581815937,973.909581815937,786.495193912888,986.495193912888,426.090418184063,626.090418184063,413.504806087112,613.504806087112,773.909581815937,NaN,NaN,NaN,NaN,0,4,0,0,NaN,NaN,horizontal,vertical,horizontal,vertical,none,none
1d,21,100245,1,23,23,20,F,NA,constant,homogeneous,3,present,0.433036088943481,1,horizontal,horizontal,1,0.811762214529103,green,3,2,554.878267535729,529.712474266665,983.431649086356,422.862115532956,861.690083377915,847.425410200379,983.431649086356,422.862115532956,554.878267535729,529.712474266665,NaN,NaN,NaN,NaN,NaN,NaN,0,0,4,NaN,NaN,NaN,vertical,horizontal,horizontal,none,none,none
1d,21,100245,1,24,24,20,F,NA,constant,homogeneous,4,absent,0.629728078842163,0,horizontal,vertical,1,0.6,green,1,NaN,977.137884467044,783.431649086356,NaN,NaN,977.137884467044,783.431649086356,983.431649086356,422.862115532956,622.862115532956,416.568350913644,616.568350913644,777.137884467044,NaN,NaN,NaN,NaN,4,0,0,0,NaN,NaN,horizontal,horizontal,horizontal,vertical,none,none
1d,21,100245,1,25,25,20,F,NA,constant,homogeneous,5,present,0.867209911346436,1,horizontal,horizontal,1,1.04705356400588,green,5,1,551.535633479765,657.362518857686,777.775285599347,854.029648013395,777.775285599347,854.029648013395,1034.72873763037,699.636437764765,967.295052392579,407.549057043193,668.665290897936,381.422338320961,551.535633479765,657.362518857686,NaN,NaN,0,0,0,0,4,NaN,horizontal,vertical,vertical,horizontal,horizontal,none
1d,21,100245,1,26,26,20,F,NA,constant,homogeneous,6,absent,0.530490875244141,1,horizontal,horizontal,1,1.0823472664274,green,3,NaN,1055,600,NaN,NaN,672.5,820.836477965032,927.5,820.836477965032,1055,600,927.5,379.163522034968,672.5,379.163522034968,545,600,0,0,4,0,0,0,horizontal,horizontal,horizontal,vertical,vertical,horizontal
1d,21,100245,1,27,27,20,F,NA,constant,homogeneous,4,absent,0.517796039581299,1,horizontal,horizontal,1,1.02352442905821,green,4,NaN,586.139005173917,738.882953928832,NaN,NaN,938.882953928832,813.860994826083,1013.86099482608,461.117046071168,661.117046071168,386.139005173917,586.139005173917,738.882953928832,NaN,NaN,NaN,NaN,0,0,0,4,NaN,NaN,horizontal,vertical,horizontal,horizontal,none,none
1d,21,100245,1,28,28,20,F,NA,constant,homogeneous,5,present,0.8177330493927,1,horizontal,horizontal,1,0.658822837369195,green,4,5,643.006323791957,399.057257830286,560.378381699593,687.215136548046,808.899371659138,854.844660889869,1045.12173246427,670.287525733335,942.594190385041,388.595418998464,643.006323791957,399.057257830286,560.378381699593,687.215136548046,NaN,NaN,0,0,0,4,0,NaN,horizontal,vertical,horizontal,horizontal,horizontal,none
1d,21,100245,1,29,29,20,F,NA,constant,homogeneous,6,absent,0.849756956100464,1,vertical,vertical,1,0.776468512107586,green,5,NaN,616.568350913644,422.862115532956,NaN,NaN,738.309916622085,847.425410200379,983.431649086356,777.137884467044,1045.12173246427,529.712474266665,861.690083377915,352.574589799621,616.568350913644,422.862115532956,554.878267535729,670.287525733335,0,0,0,0,4,0,vertical,horizontal,vertical,vertical,vertical,vertical
1d,21,100245,1,30,30,20,F,NA,constant,homogeneous,4,present,0.763108968734741,1,horizontal,horizontal,1,0.811762214529103,green,1,2,672.5,820.836477965032,1020.83647796503,727.5,672.5,820.836477965032,1020.83647796503,727.5,927.5,379.163522034968,579.163522034968,472.5,NaN,NaN,NaN,NaN,4,0,0,0,NaN,NaN,horizontal,vertical,horizontal,vertical,none,none
1d,21,100245,1,31,31,20,F,NA,constant,homogeneous,6,absent,0.72930908203125,1,vertical,vertical,1,0.741174809686069,green,6,NaN,548.13947314824,639.890788585259,NaN,NaN,708.616172865948,838.063008756786,960.476699717708,798.172220171528,1051.86052685176,560.109211414741,891.383827134052,361.936991243214,639.523300282292,401.827779828472,548.13947314824,639.890788585259,0,0,0,0,0,4,horizontal,vertical,vertical,vertical,vertical,vertical
1d,21,100245,1,32,32,20,F,NA,constant,homogeneous,6,absent,0.669978857040405,1,vertical,vertical,1,0.694116539790713,green,3,NaN,949.885239334581,393.700666434388,NaN,NaN,903.717843984329,832.954091698863,1053.60308331891,626.654758133252,949.885239334581,393.700666434388,696.282156015671,367.045908301137,546.39691668109,573.345241866748,650.114760665419,806.299333565612,0,0,4,0,0,0,vertical,horizontal,vertical,vertical,vertical,vertical
1d,21,100245,1,33,33,20,F,NA,constant,homogeneous,5,present,0.621785879135132,1,vertical,vertical,1,0.917643321793655,green,4,2,567.045908301137,496.282156015671,1049.42763818712,546.982518841471,927.5,820.836477965032,1049.42763818712,546.982518841471,826.654758133252,346.39691668109,567.045908301137,496.282156015671,629.371695378491,789.501930496736,NaN,NaN,0,0,0,4,0,NaN,vertical,horizontal,horizontal,vertical,vertical,none
1d,21,100245,1,34,34,20,F,NA,constant,homogeneous,5,absent,0.532213926315308,1,vertical,vertical,1,1.0823472664274,green,4,NaN,558.892763222174,516.980120613425,NaN,NaN,946.261991269517,808.883771293693,1043.85771277057,525.445215295702,804.450363641507,345.03883773512,558.892763222174,516.980120613425,646.537169096228,803.65205506206,NaN,NaN,0,0,0,4,0,NaN,vertical,vertical,vertical,vertical,horizontal,none
1d,21,100245,1,35,35,20,F,NA,constant,homogeneous,4,present,0.604675054550171,1,vertical,vertical,1,1.0823472664274,green,3,1,874.554784704298,356.142287229426,725.445215295702,843.857712770574,725.445215295702,843.857712770574,1043.85771277057,674.554784704298,874.554784704298,356.142287229426,556.142287229426,525.445215295702,NaN,NaN,NaN,NaN,0,0,4,0,NaN,NaN,horizontal,vertical,vertical,vertical,none,none
1d,21,100245,1,36,36,20,F,NA,constant,homogeneous,6,absent,0.608741998672485,1,vertical,vertical,1,0.999995294110528,green,5,NaN,546.900731331463,568.923317431687,NaN,NaN,899.636437764765,834.728737630372,1053.09926866854,631.076682568313,953.462830903772,396.34794493794,700.363562235235,365.271262369628,546.900731331463,568.923317431687,646.537169096228,803.65205506206,0,0,0,0,4,0,vertical,vertical,horizontal,vertical,vertical,vertical
1d,21,100245,1,37,37,20,F,NA,constant,homogeneous,3,absent,0.676623106002808,1,vertical,vertical,1,0.776468512107586,green,2,NaN,831.076682568313,346.900731331463,NaN,NaN,1003.65205506206,753.462830903772,831.076682568313,346.900731331463,565.271262369628,699.636437764765,NaN,NaN,NaN,NaN,NaN,NaN,0,4,0,NaN,NaN,NaN,horizontal,vertical,horizontal,none,none,none
1d,21,100245,1,38,38,20,F,NA,constant,homogeneous,5,absent,0.646994829177856,1,vertical,vertical,1,0.835291349476781,green,5,NaN,546.39691668109,573.345241866748,NaN,NaN,696.282156015671,832.954091698863,989.501930496736,770.628304621509,1020.83647796503,472.5,746.982518841471,350.57236181288,546.39691668109,573.345241866748,NaN,NaN,0,0,0,0,4,NaN,vertical,horizontal,vertical,horizontal,vertical,none
1d,21,100245,1,39,39,20,F,NA,constant,homogeneous,3,absent,0.443395853042603,1,vertical,vertical,1,0.952937024215172,green,3,NaN,567.045908301137,703.717843984329,NaN,NaN,1006.29933356561,749.885239334581,826.654758133252,346.39691668109,567.045908301137,703.717843984329,NaN,NaN,NaN,NaN,NaN,NaN,0,0,4,NaN,NaN,NaN,vertical,vertical,vertical,none,none,none
1d,21,100245,1,40,40,20,F,NA,constant,homogeneous,6,present,0.824635028839111,1,horizontal,horizontal,1,0.611764567473839,green,1,3,865.998856501143,846.311085703712,980.31222920257,419.68777079743,865.998856501143,846.311085703712,1046.31108570371,665.998856501143,980.31222920257,419.68777079743,734.001143498857,353.688914296288,553.688914296288,534.001143498857,619.68777079743,780.31222920257,4,0,0,0,0,0,horizontal,horizontal,vertical,horizontal,vertical,vertical
1d,21,100245,1,41,41,20,F,NA,constant,homogeneous,6,absent,0.646758079528809,0,horizontal,vertical,1,1.07058269895356,green,5,NaN,661.117046071168,386.139005173917,NaN,NaN,684.232422566416,827.206663668034,938.882953928832,813.860994826083,1054.65053136242,586.654331158049,915.767577433584,372.793336331966,661.117046071168,386.139005173917,545.349468637584,613.345668841951,0,0,0,0,4,0,horizontal,vertical,vertical,vertical,horizontal,horizontal
1d,21,100245,1,42,42,20,F,NA,constant,homogeneous,6,present,0.892215967178345,1,vertical,vertical,1,0.823526782002942,green,6,2,599.057257830286,756.993676208043,1036.43188291453,695.524681321058,835.489140744817,852.518357529101,1036.43188291453,695.524681321058,1000.94274216971,443.006323791957,764.510859255183,347.4816424709,563.568117085469,504.475318678942,599.057257830286,756.993676208043,0,0,0,0,0,4,horizontal,horizontal,vertical,vertical,vertical,vertical
1d,21,100245,1,43,43,20,F,NA,constant,homogeneous,3,absent,0.519798040390015,1,horizontal,horizontal,1,0.870585051898298,green,1,NaN,664.870587620533,816.252264519889,NaN,NaN,664.870587620533,816.252264519889,1054.84466088987,608.899371659138,680.284751489598,374.848363820974,NaN,NaN,NaN,NaN,NaN,NaN,4,0,0,NaN,NaN,NaN,horizontal,vertical,horizontal,none,none,none
1d,21,100245,1,44,44,20,F,NA,constant,homogeneous,3,present,0.665143013000488,1,vertical,vertical,1,0.941172456741333,green,2,3,883.019879386575,358.892763222174,549.685068220846,648.656293821019,967.295052392579,792.450942956807,883.019879386575,358.892763222174,549.685068220846,648.656293821019,NaN,NaN,NaN,NaN,NaN,NaN,0,4,0,NaN,NaN,NaN,horizontal,vertical,vertical,none,none,none
1d,21,100245,1,45,45,20,F,NA,constant,homogeneous,5,present,0.49194598197937,1,horizontal,horizontal,1,1.07058269895356,green,2,4,1054.84466088987,591.100628340862,588.595418998464,457.40580961496,887.215136548046,839.621618300407,1054.84466088987,591.100628340862,870.287525733335,354.878267535729,588.595418998464,457.40580961496,599.057257830286,756.993676208043,NaN,NaN,0,4,0,0,0,NaN,horizontal,horizontal,horizontal,horizontal,horizontal,none
1d,21,100245,1,46,46,20,F,NA,constant,homogeneous,3,absent,0.65764307975769,1,horizontal,horizontal,1,0.988230726636689,green,1,NaN,861.690083377915,847.425410200379,NaN,NaN,861.690083377915,847.425410200379,983.431649086356,422.862115532956,554.878267535729,529.712474266665,NaN,NaN,NaN,NaN,NaN,NaN,4,0,0,NaN,NaN,NaN,horizontal,horizontal,vertical,none,none,none
1d,21,100245,1,47,47,20,F,NA,constant,homogeneous,4,present,0.652887105941772,1,vertical,vertical,1,0.694116539790713,green,2,4,1029.19248180629,711.784642431215,570.807518193712,488.215357568785,688.215357568785,829.192481806288,1029.19248180629,711.784642431215,911.784642431215,370.807518193712,570.807518193712,488.215357568785,NaN,NaN,NaN,NaN,0,4,0,0,NaN,NaN,vertical,vertical,horizontal,vertical,none,none
1d,21,100245,1,48,48,20,F,NA,constant,homogeneous,3,absent,0.790343046188354,1,vertical,vertical,1,0.611764567473839,green,1,NaN,668.665290897936,818.577661679039,NaN,NaN,668.665290897936,818.577661679039,1054.96116226488,604.450363641507,676.373546837184,376.971974679454,NaN,NaN,NaN,NaN,NaN,NaN,4,0,0,NaN,NaN,NaN,vertical,vertical,vertical,none,none,none
1d,21,100245,1,49,49,20,F,NA,constant,homogeneous,5,present,1.83170390129089,1,vertical,vertical,1,1.07058269895356,green,4,1,729.712474266665,354.878267535729,712.784863451954,839.621618300407,712.784863451954,839.621618300407,1000.94274216971,756.993676208043,1011.40458100154,457.40580961496,729.712474266665,354.878267535729,545.155339110131,591.100628340862,NaN,NaN,0,0,0,4,0,NaN,vertical,horizontal,horizontal,vertical,horizontal,none
1d,21,100245,1,50,50,20,F,NA,constant,homogeneous,6,absent,0.613825798034668,1,horizontal,horizontal,1,0.870585051898298,green,2,NaN,992.450942956807,767.295052392579,NaN,NaN,751.343706178981,850.314931779154,992.450942956807,767.295052392579,1041.10723677783,516.980120613425,848.656293821019,349.685068220846,607.549057043193,432.704947607421,558.892763222174,683.019879386575,0,4,0,0,0,0,horizontal,horizontal,horizontal,horizontal,horizontal,vertical
1d,21,100245,1,51,51,20,F,NA,constant,homogeneous,3,present,0.66417384147644,1,vertical,vertical,1,0.894114186845977,green,1,2,613.504806087112,773.909581815937,1043.85771277057,674.554784704298,613.504806087112,773.909581815937,1043.85771277057,674.554784704298,742.637481142314,351.535633479765,NaN,NaN,NaN,NaN,NaN,NaN,4,0,0,NaN,NaN,NaN,vertical,horizontal,vertical,none,none,none
1d,21,100245,1,52,52,20,F,NA,constant,homogeneous,3,absent,0.872853994369507,1,horizontal,horizontal,1,0.752939377159908,green,1,NaN,804.450363641507,854.96116226488,NaN,NaN,804.450363641507,854.96116226488,1018.57766167904,468.665290897936,576.971974679454,476.373546837184,NaN,NaN,NaN,NaN,NaN,NaN,4,0,0,NaN,NaN,NaN,horizontal,vertical,vertical,none,none,none
1d,21,100245,1,53,53,20,F,NA,constant,homogeneous,6,present,0.785577058792114,1,horizontal,horizontal,1,0.964701591689011,green,3,6,1038.06300875679,508.616172865948,561.936991243214,691.383827134052,760.109211414741,851.86052685176,998.172220171528,760.476699717708,1038.06300875679,508.616172865948,839.890788585259,348.13947314824,601.827779828472,439.523300282291,561.936991243214,691.383827134052,0,0,4,0,0,0,horizontal,vertical,horizontal,horizontal,horizontal,horizontal
1d,21,100245,1,54,54,20,F,NA,constant,homogeneous,5,absent,0.688425064086914,1,vertical,vertical,1,0.941172456741333,green,3,NaN,1036.43188291453,504.475318678942,NaN,NaN,664.870587620533,816.252264519889,963.910840470068,795.341332995339,1036.43188291453,504.475318678942,782.212099195248,345.621167183745,552.574589799621,538.309916622085,NaN,NaN,0,0,4,0,0,NaN,horizontal,horizontal,vertical,vertical,vertical,none
1d,21,100245,1,55,55,20,F,NA,constant,homogeneous,6,present,0.714766979217529,1,vertical,vertical,1,1.02352442905821,green,1,6,684.232422566416,827.206663668034,545.349468637584,613.345668841951,684.232422566416,827.206663668034,938.882953928832,813.860994826083,1054.65053136242,586.654331158049,915.767577433584,372.793336331966,661.117046071168,386.139005173917,545.349468637584,613.345668841951,4,0,0,0,0,0,vertical,horizontal,horizontal,horizontal,horizontal,vertical
1d,21,100245,1,56,56,20,F,NA,constant,homogeneous,3,present,0.623054981231689,1,vertical,vertical,1,0.894114186845977,green,3,1,558.892763222174,683.019879386575,992.450942956807,767.295052392579,992.450942956807,767.295052392579,848.656293821019,349.685068220846,558.892763222174,683.019879386575,NaN,NaN,NaN,NaN,NaN,NaN,0,0,4,NaN,NaN,NaN,vertical,vertical,vertical,none,none,none
1d,21,100245,1,57,57,20,F,NA,constant,homogeneous,4,absent,0.568590879440308,1,vertical,vertical,1,1.03528899653205,green,4,NaN,545.970351986605,622.224714400653,NaN,NaN,822.224714400653,854.029648013395,1054.0296480134,577.775285599347,777.775285599347,345.970351986605,545.970351986605,622.224714400653,NaN,NaN,NaN,NaN,0,0,0,4,NaN,NaN,vertical,vertical,vertical,vertical,none,none
1d,21,100245,1,58,58,20,F,NA,constant,homogeneous,6,present,0.816931009292603,1,vertical,vertical,1,0.647058269895356,green,1,3,786.654331158049,854.650531362416,1027.20666366803,484.232422566416,786.654331158049,854.650531362416,1013.86099482608,738.882953928832,1027.20666366803,484.232422566416,813.345668841951,345.349468637584,586.139005173917,461.117046071168,572.793336331966,715.767577433584,4,0,0,0,0,0,vertical,vertical,vertical,vertical,vertical,horizontal
1d,21,100245,1,59,59,20,F,NA,constant,homogeneous,5,absent,0.930871963500977,1,horizontal,horizontal,1,0.870585051898298,green,4,NaN,729.712474266665,354.878267535729,NaN,NaN,712.784863451954,839.621618300407,1000.94274216971,756.993676208043,1011.40458100154,457.40580961496,729.712474266665,354.878267535729,545.155339110131,591.100628340862,NaN,NaN,0,0,0,4,0,NaN,horizontal,vertical,horizontal,horizontal,vertical,none
1d,21,100245,1,60,60,20,F,NA,constant,homogeneous,5,present,0.838556051254272,1,vertical,vertical,1,0.84705591695062,green,2,1,1054.84466088987,608.899371659138,870.287525733335,845.121732464271,870.287525733335,845.121732464271,1054.84466088987,608.899371659138,887.215136548046,360.378381699593,599.057257830286,443.006323791957,588.595418998464,742.594190385041,NaN,NaN,0,4,0,0,0,NaN,vertical,vertical,horizontal,vertical,vertical,none
1d,21,100245,1,61,61,20,F,NA,constant,homogeneous,4,present,0.760989904403687,1,horizontal,horizontal,1,0.670587404843034,green,1,3,942.594190385041,811.404581001536,657.405809614959,388.595418998464,942.594190385041,811.404581001536,1011.40458100154,457.40580961496,657.405809614959,388.595418998464,588.595418998464,742.594190385041,NaN,NaN,NaN,NaN,4,0,0,0,NaN,NaN,horizontal,horizontal,horizontal,vertical,none,none
1d,21,100245,1,62,62,20,F,NA,constant,homogeneous,3,present,0.562414169311523,1,horizontal,horizontal,1,0.905878754319816,green,1,3,946.261991269517,808.883771293693,545.970351986605,622.224714400653,946.261991269517,808.883771293693,907.767656743878,368.891514305654,545.970351986605,622.224714400653,NaN,NaN,NaN,NaN,NaN,NaN,4,0,0,NaN,NaN,NaN,horizontal,vertical,vertical,none,none,none
1d,21,100245,1,63,63,20,F,NA,constant,homogeneous,4,absent,0.638725996017456,1,vertical,vertical,1,0.84705591695062,green,4,NaN,593.700666434388,450.114760665419,NaN,NaN,650.114760665419,806.299333565612,1006.29933356561,749.885239334581,949.885239334581,393.700666434388,593.700666434388,450.114760665419,NaN,NaN,NaN,NaN,0,0,0,4,NaN,NaN,vertical,vertical,vertical,vertical,none,none
1d,21,100245,1,64,64,20,F,NA,constant,homogeneous,4,absent,0.849159002304077,1,vertical,vertical,1,0.870585051898298,green,2,NaN,1047.42541020038,661.690083377915,NaN,NaN,738.309916622085,847.425410200379,1047.42541020038,661.690083377915,861.690083377915,352.574589799621,552.574589799621,538.309916622085,NaN,NaN,NaN,NaN,0,4,0,0,NaN,NaN,vertical,vertical,vertical,horizontal,none,none
1d,21,100245,2,1,65,20,F,NA,constant,homogeneous,6,present,0.733430862426758,1,horizontal,horizontal,1,0.694116539790713,green,3,4,1020.83647796503,472.5,800,345,800,855,1020.83647796503,727.5,1020.83647796503,472.5,800,345,579.163522034968,472.5,579.163522034968,727.5,0,0,4,0,0,0,horizontal,horizontal,horizontal,horizontal,vertical,horizontal
1d,21,100245,2,2,66,20,F,NA,constant,homogeneous,5,present,0.533900022506714,1,vertical,vertical,1,0.882349619372138,green,5,3,548.874022981887,644.280285305067,977.137884467044,416.568350913644,764.510859255183,852.518357529101,1029.19248180629,711.784642431215,977.137884467044,416.568350913644,680.284751489598,374.848363820974,548.874022981887,644.280285305067,NaN,NaN,0,0,0,0,4,NaN,vertical,horizontal,vertical,horizontal,vertical,none
1d,21,100245,2,3,67,20,F,NA,constant,homogeneous,5,absent,0.517853975296021,1,vertical,vertical,1,0.658822837369195,green,3,NaN,1016.25226451989,464.870587620533,NaN,NaN,704.475318678942,836.431882914531,995.341332995339,763.910840470068,1016.25226451989,464.870587620533,738.309916622085,352.574589799621,545.621167183745,582.212099195248,NaN,NaN,0,0,4,0,0,NaN,vertical,vertical,vertical,vertical,vertical,none
1d,21,100245,2,4,68,20,F,NA,constant,homogeneous,6,present,0.618654012680054,1,horizontal,horizontal,1,0.905878754319816,green,2,4,1054.37883281626,617.787900804752,688.215357568785,370.807518193712,911.784642431215,829.192481806288,1054.37883281626,617.787900804752,942.594190385041,388.595418998464,688.215357568785,370.807518193712,545.621167183745,582.212099195248,657.405809614959,811.404581001536,0,4,0,0,0,0,vertical,horizontal,horizontal,horizontal,vertical,horizontal
1d,21,100245,2,5,69,20,F,NA,constant,homogeneous,3,present,0.454992055892944,1,vertical,vertical,1,1.01175986158437,green,2,3,1054.96116226488,604.450363641507,676.373546837184,376.971974679454,668.665290897936,818.577661679039,1054.96116226488,604.450363641507,676.373546837184,376.971974679454,NaN,NaN,NaN,NaN,NaN,NaN,0,4,0,NaN,NaN,NaN,horizontal,vertical,vertical,none,none,none
1d,21,100245,2,6,70,20,F,NA,constant,homogeneous,6,absent,0.633260011672974,1,horizontal,horizontal,1,0.835291349476781,green,6,NaN,546.900731331463,631.076682568313,NaN,NaN,700.363562235235,834.728737630372,953.462830903772,803.65205506206,1053.09926866854,568.923317431687,899.636437764765,365.271262369628,646.537169096228,396.34794493794,546.900731331463,631.076682568313,0,0,0,0,0,4,horizontal,horizontal,vertical,horizontal,horizontal,horizontal
1d,21,100245,2,7,71,20,F,NA,constant,homogeneous,3,absent,0.565846920013428,1,horizontal,horizontal,1,0.999995294110528,green,2,NaN,1034.72873763037,500.363562235235,NaN,NaN,768.923317431687,853.099268668537,1034.72873763037,500.363562235235,596.34794493794,446.537169096228,NaN,NaN,NaN,NaN,NaN,NaN,0,4,0,NaN,NaN,NaN,vertical,horizontal,horizontal,none,none,none
1d,21,100245,2,8,72,20,F,NA,constant,homogeneous,6,absent,0.72700309753418,1,horizontal,horizontal,1,1.07058269895356,green,2,NaN,992.450942956807,767.295052392579,NaN,NaN,751.343706178981,850.314931779154,992.450942956807,767.295052392579,1041.10723677783,516.980120613425,848.656293821019,349.685068220846,607.549057043193,432.704947607421,558.892763222174,683.019879386575,0,4,0,0,0,0,vertical,horizontal,vertical,vertical,horizontal,horizontal
1d,21,100245,2,9,73,20,F,NA,constant,homogeneous,6,absent,0.826708078384399,1,vertical,vertical,1,0.658822837369195,green,3,NaN,1051.86052685176,560.109211414741,NaN,NaN,708.616172865948,838.063008756786,960.476699717708,798.172220171528,1051.86052685176,560.109211414741,891.383827134052,361.936991243214,639.523300282292,401.827779828472,548.13947314824,639.890788585259,0,0,4,0,0,0,horizontal,horizontal,vertical,vertical,vertical,horizontal
1d,21,100245,2,10,74,20,F,NA,constant,homogeneous,6,absent,0.647920846939087,1,vertical,vertical,1,0.623529134947678,green,6,NaN,619.68777079743,780.31222920257,NaN,NaN,865.998856501143,846.311085703712,1046.31108570371,665.998856501143,980.31222920257,419.68777079743,734.001143498857,353.688914296288,553.688914296288,534.001143498857,619.68777079743,780.31222920257,0,0,0,0,0,4,vertical,horizontal,horizontal,horizontal,vertical,vertical
1d,21,100245,2,11,75,20,F,NA,constant,homogeneous,3,present,0.526175975799561,1,vertical,vertical,1,1.04705356400588,green,1,2,588.595418998464,742.594190385041,1029.19248180629,711.784642431215,588.595418998464,742.594190385041,1029.19248180629,711.784642431215,782.212099195248,345.621167183745,NaN,NaN,NaN,NaN,NaN,NaN,4,0,0,NaN,NaN,NaN,vertical,horizontal,horizontal,none,none,none
1d,21,100245,2,12,76,20,F,NA,constant,homogeneous,6,absent,0.541990995407104,1,vertical,vertical,1,1.07058269895356,green,5,NaN,545.03883773512,595.549636358493,NaN,NaN,923.626453162816,823.028025320546,1054.96116226488,604.450363641507,931.334709102064,381.422338320961,676.373546837184,376.971974679454,545.03883773512,595.549636358493,668.665290897936,818.577661679039,0,0,0,0,4,0,vertical,horizontal,horizontal,vertical,vertical,vertical
1d,21,100245,2,13,77,20,F,NA,constant,homogeneous,4,present,0.562355041503906,1,horizontal,horizontal,1,1.05881813147972,green,3,1,622.862115532956,416.568350913644,977.137884467044,783.431649086356,977.137884467044,783.431649086356,983.431649086356,422.862115532956,622.862115532956,416.568350913644,616.568350913644,777.137884467044,NaN,NaN,NaN,NaN,0,0,4,0,NaN,NaN,horizontal,horizontal,horizontal,horizontal,none,none
1d,21,100245,2,14,78,20,F,NA,constant,homogeneous,5,absent,0.797101974487305,1,horizontal,horizontal,1,0.97646615916285,green,4,NaN,768.923317431687,346.900731331463,NaN,NaN,676.373546837184,823.028025320546,973.909581815937,786.495193912888,1031.10848569435,492.232343256122,768.923317431687,346.900731331463,549.685068220846,551.343706178981,NaN,NaN,0,0,0,4,0,NaN,horizontal,horizontal,vertical,horizontal,horizontal,none
1d,21,100245,2,15,79,20,F,NA,constant,homogeneous,5,absent,0.571913003921509,1,vertical,vertical,1,0.929407889267494,green,1,NaN,746.982518841471,849.42763818712,NaN,NaN,746.982518841471,849.42763818712,1020.83647796503,727.5,989.501930496736,429.371695378491,696.282156015671,367.045908301137,546.39691668109,626.654758133252,NaN,NaN,4,0,0,0,0,NaN,vertical,vertical,vertical,horizontal,vertical,none
1d,21,100245,2,16,80,20,F,NA,constant,homogeneous,3,absent,0.541378021240234,1,vertical,vertical,1,0.894114186845977,green,1,NaN,953.462830903772,803.65205506206,NaN,NaN,953.462830903772,803.65205506206,899.636437764765,365.271262369628,546.900731331463,631.076682568313,NaN,NaN,NaN,NaN,NaN,NaN,4,0,0,NaN,NaN,NaN,vertical,horizontal,vertical,none,none,none
1d,21,100245,2,17,81,20,F,NA,constant,homogeneous,5,absent,0.507876873016357,1,vertical,vertical,1,0.776468512107586,green,1,NaN,661.117046071168,813.860994826083,NaN,NaN,661.117046071168,813.860994826083,960.476699717708,798.172220171528,1038.06300875679,508.616172865948,786.654331158049,345.349468637584,553.688914296288,534.001143498857,NaN,NaN,4,0,0,0,0,NaN,vertical,vertical,vertical,vertical,horizontal,none
1d,21,100245,2,18,82,20,F,NA,constant,homogeneous,3,absent,0.59909200668335,1,vertical,vertical,1,0.84705591695062,green,2,NaN,946.261991269517,391.116228706307,NaN,NaN,907.767656743878,831.108485694346,946.261991269517,391.116228706307,545.970351986605,577.775285599347,NaN,NaN,NaN,NaN,NaN,NaN,0,4,0,NaN,NaN,NaN,vertical,vertical,vertical,none,none,none
1d,21,100245,2,19,83,20,F,NA,constant,homogeneous,5,absent,0.747533082962036,1,vertical,vertical,1,0.6,green,4,NaN,795.549636358493,345.03883773512,NaN,NaN,653.738008730483,808.883771293693,953.462830903772,803.65205506206,1041.10723677783,516.980120613425,795.549636358493,345.03883773512,556.142287229426,525.445215295702,NaN,NaN,0,0,0,4,0,NaN,vertical,horizontal,horizontal,vertical,horizontal,none
1d,21,100245,2,20,84,20,F,NA,constant,homogeneous,6,absent,0.652994871139526,1,horizontal,horizontal,1,0.717645674738391,green,4,NaN,692.232343256122,368.891514305654,NaN,NaN,907.767656743878,831.108485694346,1054.0296480134,622.224714400653,946.261991269517,391.116228706307,692.232343256122,368.891514305654,545.970351986605,577.775285599347,653.738008730483,808.883771293693,0,0,0,4,0,0,vertical,horizontal,vertical,horizontal,vertical,horizontal
1d,21,100245,2,21,85,20,F,NA,constant,homogeneous,3,present,0.5034499168396,1,horizontal,horizontal,1,0.658822837369195,green,3,2,704.475318678942,363.568117085469,1052.5183575291,635.489140744817,643.006323791957,800.942742169714,1052.5183575291,635.489140744817,704.475318678942,363.568117085469,NaN,NaN,NaN,NaN,NaN,NaN,0,0,4,NaN,NaN,NaN,horizontal,vertical,horizontal,none,none,none
1d,21,100245,2,22,86,20,F,NA,constant,homogeneous,6,present,0.592984914779663,1,vertical,vertical,1,0.988230726636689,green,1,2,746.982518841471,849.42763818712,989.501930496736,770.628304621509,746.982518841471,849.42763818712,989.501930496736,770.628304621509,1042.51941165526,521.200666434388,853.017481158529,350.57236181288,610.498069503264,429.371695378491,557.480588344736,678.799333565612,4,0,0,0,0,0,vertical,horizontal,horizontal,vertical,vertical,horizontal
1d,21,100245,2,23,87,20,F,NA,constant,homogeneous,4,present,0.638467073440552,1,vertical,vertical,1,0.858820484424459,green,3,2,696.282156015671,367.045908301137,1032.95409169886,496.282156015671,903.717843984329,832.954091698863,1032.95409169886,496.282156015671,696.282156015671,367.045908301137,567.045908301137,703.717843984329,NaN,NaN,NaN,NaN,0,0,4,0,NaN,NaN,vertical,vertical,vertical,horizontal,none,none
1d,21,100245,2,24,88,20,F,NA,constant,homogeneous,4,present,0.532011032104492,1,vertical,vertical,1,0.835291349476781,green,1,2,716.980120613425,841.107236777826,1041.10723677783,683.019879386575,716.980120613425,841.107236777826,1041.10723677783,683.019879386575,883.019879386575,358.892763222174,558.892763222174,516.980120613425,NaN,NaN,NaN,NaN,4,0,0,0,NaN,NaN,vertical,vertical,vertical,horizontal,none,none
1d,21,100245,2,25,89,20,F,NA,constant,homogeneous,5,present,0.524598121643066,1,vertical,vertical,1,1.0823472664274,green,2,3,1052.5183575291,564.510859255183,844.280285305067,348.874022981887,911.784642431215,829.192481806288,1052.5183575291,564.510859255183,844.280285305067,348.874022981887,574.848363820974,480.284751489598,616.568350913644,777.137884467044,NaN,NaN,0,4,0,0,0,NaN,vertical,vertical,vertical,vertical,vertical,none
1d,21,100245,2,26,90,20,F,NA,constant,homogeneous,4,present,0.689718008041382,1,horizontal,horizontal,1,0.72941024221223,green,3,2,684.232422566416,372.793336331966,1027.20666366803,484.232422566416,915.767577433584,827.206663668034,1027.20666366803,484.232422566416,684.232422566416,372.793336331966,572.793336331966,715.767577433584,NaN,NaN,NaN,NaN,0,0,4,0,NaN,NaN,vertical,horizontal,horizontal,horizontal,none,none
1d,21,100245,2,27,91,20,F,NA,constant,homogeneous,3,present,0.805171012878418,1,horizontal,horizontal,1,0.870585051898298,green,1,3,742.637481142314,848.464366520235,613.504806087112,426.090418184063,742.637481142314,848.464366520235,1043.85771277057,525.445215295702,613.504806087112,426.090418184063,NaN,NaN,NaN,NaN,NaN,NaN,4,0,0,NaN,NaN,NaN,horizontal,vertical,vertical,none,none,none
1d,21,100245,2,28,92,20,F,NA,constant,homogeneous,6,absent,0.606472969055176,1,horizontal,horizontal,1,0.858820484424459,green,4,NaN,883.019879386575,358.892763222174,NaN,NaN,716.980120613425,841.107236777826,967.295052392579,792.450942956807,1050.31493177915,551.343706178981,883.019879386575,358.892763222174,632.704947607421,407.549057043193,549.685068220846,648.656293821019,0,0,0,4,0,0,horizontal,vertical,horizontal,horizontal,vertical,vertical
1d,21,100245,2,29,93,20,F,NA,constant,homogeneous,4,absent,0.586207151412964,1,horizontal,horizontal,1,0.97646615916285,green,1,NaN,835.489140744817,852.518357529101,NaN,NaN,835.489140744817,852.518357529101,1052.5183575291,564.510859255183,764.510859255183,347.4816424709,547.481642470899,635.489140744817,NaN,NaN,NaN,NaN,4,0,0,0,NaN,NaN,horizontal,horizontal,vertical,vertical,none,none
1d,21,100245,2,30,94,20,F,NA,constant,homogeneous,6,present,0.647059917449951,1,vertical,vertical,1,0.647058269895356,green,1,4,831.076682568313,853.099268668537,768.923317431687,346.900731331463,831.076682568313,853.099268668537,1034.72873763037,699.636437764765,1003.65205506206,446.537169096228,768.923317431687,346.900731331463,565.271262369628,500.363562235235,596.34794493794,753.462830903772,4,0,0,0,0,0,vertical,horizontal,vertical,vertical,vertical,horizontal
1d,21,100245,2,31,95,20,F,NA,constant,homogeneous,3,absent,0.563488006591797,1,horizontal,horizontal,1,0.752939377159908,green,2,NaN,1049.42763818712,653.017481158529,NaN,NaN,629.371695378491,789.501930496736,1049.42763818712,653.017481158529,721.200666434388,357.480588344736,NaN,NaN,NaN,NaN,NaN,NaN,0,4,0,NaN,NaN,NaN,horizontal,horizontal,vertical,none,none,none
1d,21,100245,2,32,96,20,F,NA,constant,homogeneous,3,absent,0.579198837280273,1,horizontal,horizontal,1,0.623529134947678,green,3,NaN,576.971974679454,723.626453162816,NaN,NaN,1018.57766167904,731.334709102064,804.450363641507,345.03883773512,576.971974679454,723.626453162816,NaN,NaN,NaN,NaN,NaN,NaN,0,0,4,NaN,NaN,NaN,vertical,horizontal,horizontal,none,none,none
1d,21,100245,2,33,97,20,F,NA,constant,homogeneous,5,present,0.682901859283447,1,vertical,vertical,1,0.988230726636689,green,4,2,696.282156015671,367.045908301137,1020.83647796503,727.5,746.982518841471,849.42763818712,1020.83647796503,727.5,989.501930496736,429.371695378491,696.282156015671,367.045908301137,546.39691668109,626.654758133252,NaN,NaN,0,0,0,4,0,NaN,horizontal,vertical,horizontal,vertical,horizontal,none
1d,21,100245,2,34,98,20,F,NA,constant,homogeneous,4,absent,0.970541954040527,1,vertical,vertical,1,1.0823472664274,green,2,NaN,1003.65205506206,446.537169096228,NaN,NaN,953.462830903772,803.65205506206,1003.65205506206,446.537169096228,646.537169096228,396.34794493794,596.34794493794,753.462830903772,NaN,NaN,NaN,NaN,0,4,0,0,NaN,NaN,vertical,vertical,horizontal,vertical,none,none
1d,21,100245,2,35,99,20,F,NA,constant,homogeneous,5,present,0.652417898178101,1,horizontal,horizontal,1,0.717645674738391,green,4,2,684.232422566416,372.793336331966,1027.20666366803,715.767577433584,760.109211414741,851.86052685176,1027.20666366803,715.767577433584,980.31222920257,419.68777079743,684.232422566416,372.793336331966,548.13947314824,639.890788585259,NaN,NaN,0,0,0,4,0,NaN,horizontal,vertical,vertical,horizontal,horizontal,none
1d,21,100245,2,36,100,20,F,NA,constant,homogeneous,4,absent,0.540909051895142,0,vertical,horizontal,1,0.764703944633747,green,2,NaN,1032.95409169886,496.282156015671,NaN,NaN,903.717843984329,832.954091698863,1032.95409169886,496.282156015671,696.282156015671,367.045908301137,567.045908301137,703.717843984329,NaN,NaN,NaN,NaN,0,4,0,0,NaN,NaN,horizontal,vertical,horizontal,horizontal,none,none
1d,21,100245,2,37,101,20,F,NA,constant,homogeneous,5,absent,0.833220958709717,1,horizontal,horizontal,1,0.658822837369195,green,5,NaN,548.874022981887,555.719714694933,NaN,NaN,680.284751489598,825.151636179026,977.137884467044,783.431649086356,1029.19248180629,488.215357568785,764.510859255183,347.4816424709,548.874022981887,555.719714694933,NaN,NaN,0,0,0,0,4,NaN,horizontal,horizontal,vertical,horizontal,horizontal,none
1d,21,100245,2,38,102,20,F,NA,constant,homogeneous,4,present,0.822951078414917,1,vertical,vertical,1,1.04705356400588,green,1,3,786.654331158049,854.650531362416,813.345668841951,345.349468637584,786.654331158049,854.650531362416,1054.65053136242,613.345668841951,813.345668841951,345.349468637584,545.349468637584,586.654331158049,NaN,NaN,NaN,NaN,4,0,0,0,NaN,NaN,vertical,vertical,vertical,horizontal,none,none
1d,21,100245,2,39,103,20,F,NA,constant,homogeneous,4,absent,0.914141893386841,1,horizontal,horizontal,1,0.929407889267494,green,1,NaN,755.719714694933,851.125977018113,NaN,NaN,755.719714694933,851.125977018113,1051.12597701811,644.280285305067,844.280285305067,348.874022981887,548.874022981887,555.719714694933,NaN,NaN,NaN,NaN,4,0,0,0,NaN,NaN,horizontal,horizontal,horizontal,vertical,none,none
1d,21,100245,2,40,104,20,F,NA,constant,homogeneous,6,present,0.626887083053589,1,vertical,vertical,1,0.72941024221223,green,6,1,556.142287229426,674.554784704298,742.637481142314,848.464366520235,742.637481142314,848.464366520235,986.495193912888,773.909581815937,1043.85771277057,525.445215295702,857.362518857686,351.535633479765,613.504806087112,426.090418184063,556.142287229426,674.554784704298,0,0,0,0,0,4,horizontal,vertical,horizontal,horizontal,vertical,vertical
1d,21,100245,2,41,105,20,F,NA,constant,homogeneous,3,present,0.445075988769531,1,vertical,vertical,1,0.858820484424459,green,3,1,548.874022981887,644.280285305067,963.910840470068,795.341332995339,963.910840470068,795.341332995339,887.215136548046,360.378381699593,548.874022981887,644.280285305067,NaN,NaN,NaN,NaN,NaN,NaN,0,0,4,NaN,NaN,NaN,horizontal,horizontal,vertical,none,none,none
1d,21,100245,2,42,106,20,F,NA,constant,homogeneous,4,absent,0.496833086013794,1,vertical,vertical,1,0.941172456741333,green,1,NaN,636.089159529932,795.341332995339,NaN,NaN,636.089159529932,795.341332995339,995.341332995339,763.910840470068,963.910840470068,404.658667004661,604.658667004661,436.089159529932,NaN,NaN,NaN,NaN,4,0,0,0,NaN,NaN,vertical,horizontal,vertical,vertical,none,none
1d,21,100245,2,43,107,20,F,NA,constant,homogeneous,6,present,0.626585006713867,1,vertical,vertical,1,0.788233079581425,green,3,1,927.5,379.163522034968,927.5,820.836477965032,927.5,820.836477965032,1055,600,927.5,379.163522034968,672.5,379.163522034968,545,600,672.5,820.836477965032,0,0,4,0,0,0,horizontal,horizontal,vertical,horizontal,horizontal,vertical
1d,21,100245,2,44,108,20,F,NA,constant,homogeneous,4,present,0.613737106323242,1,horizontal,horizontal,1,0.705881107264552,green,2,4,1034.72873763037,699.636437764765,565.271262369628,500.363562235235,700.363562235235,834.728737630372,1034.72873763037,699.636437764765,899.636437764765,365.271262369628,565.271262369628,500.363562235235,NaN,NaN,NaN,NaN,0,4,0,0,NaN,NaN,horizontal,horizontal,vertical,vertical,none,none
1d,21,100245,2,45,109,20,F,NA,constant,homogeneous,4,present,0.625936985015869,1,horizontal,horizontal,1,1.01175986158437,green,4,1,574.848363820974,719.715248510402,919.715248510402,825.151636179026,919.715248510402,825.151636179026,1025.15163617903,480.284751489598,680.284751489598,374.848363820974,574.848363820974,719.715248510402,NaN,NaN,NaN,NaN,0,0,0,4,NaN,NaN,vertical,vertical,horizontal,horizontal,none,none
1d,21,100245,2,46,110,20,F,NA,constant,homogeneous,3,absent,0.771066188812256,1,vertical,vertical,1,0.611764567473839,green,3,NaN,616.568350913644,422.862115532956,NaN,NaN,738.309916622085,847.425410200379,1045.12173246427,529.712474266665,616.568350913644,422.862115532956,NaN,NaN,NaN,NaN,NaN,NaN,0,0,4,NaN,NaN,NaN,horizontal,vertical,vertical,none,none,none
1d,21,100245,2,47,111,20,F,NA,constant,homogeneous,4,absent,0.479536771774292,1,horizontal,horizontal,1,1.03528899653205,green,4,NaN,553.688914296288,665.998856501143,NaN,NaN,865.998856501143,846.311085703712,1046.31108570371,534.001143498857,734.001143498857,353.688914296288,553.688914296288,665.998856501143,NaN,NaN,NaN,NaN,0,0,0,4,NaN,NaN,vertical,horizontal,vertical,horizontal,none,none
1d,21,100245,2,48,112,20,F,NA,constant,homogeneous,4,absent,0.667565107345581,1,vertical,vertical,1,0.929407889267494,green,3,NaN,643.006323791957,399.057257830286,NaN,NaN,956.993676208043,800.942742169714,1000.94274216971,443.006323791957,643.006323791957,399.057257830286,599.057257830286,756.993676208043,NaN,NaN,NaN,NaN,0,0,4,0,NaN,NaN,horizontal,vertical,vertical,vertical,none,none
1d,21,100245,2,49,113,20,F,NA,constant,homogeneous,5,present,0.622642993927002,1,horizontal,horizontal,1,1.07058269895356,green,1,5,708.616172865948,838.063008756786,545.349468637584,586.654331158049,708.616172865948,838.063008756786,998.172220171528,760.476699717708,1013.86099482608,461.117046071168,734.001143498857,353.688914296288,545.349468637584,586.654331158049,NaN,NaN,4,0,0,0,0,NaN,horizontal,vertical,vertical,horizontal,horizontal,none
1d,21,100245,2,50,114,20,F,NA,constant,homogeneous,6,absent,0.84840202331543,1,vertical,vertical,1,0.658822837369195,green,3,NaN,1054.65053136242,586.654331158049,NaN,NaN,684.232422566416,827.206663668034,938.882953928832,813.860994826083,1054.65053136242,586.654331158049,915.767577433584,372.793336331966,661.117046071168,386.139005173917,545.349468637584,613.345668841951,0,0,4,0,0,0,vertical,horizontal,vertical,vertical,horizontal,horizontal
1d,21,100245,2,51,115,20,F,NA,constant,homogeneous,3,absent,0.567022085189819,1,horizontal,horizontal,1,0.670587404843034,green,2,NaN,1025.15163617903,480.284751489598,NaN,NaN,791.100628340862,854.844660889869,1025.15163617903,480.284751489598,583.747735480111,464.870587620533,NaN,NaN,NaN,NaN,NaN,NaN,0,4,0,NaN,NaN,NaN,horizontal,horizontal,vertical,none,none,none
1d,21,100245,2,52,116,20,F,NA,constant,homogeneous,3,absent,0.768515825271606,1,vertical,vertical,1,0.694116539790713,green,1,NaN,970.628304621509,789.501930496736,NaN,NaN,970.628304621509,789.501930496736,878.799333565612,357.480588344736,550.57236181288,653.017481158529,NaN,NaN,NaN,NaN,NaN,NaN,4,0,0,NaN,NaN,NaN,vertical,vertical,vertical,none,none,none
1d,21,100245,2,53,117,20,F,NA,constant,homogeneous,6,present,0.759875059127808,1,horizontal,horizontal,1,0.799997647055264,green,3,5,1054.37883281626,582.212099195248,657.405809614959,388.595418998464,688.215357568785,829.192481806288,942.594190385041,811.404581001536,1054.37883281626,582.212099195248,911.784642431215,370.807518193712,657.405809614959,388.595418998464,545.621167183745,617.787900804752,0,0,4,0,0,0,vertical,horizontal,horizontal,vertical,horizontal,horizontal
1d,21,100245,2,54,118,20,F,NA,constant,homogeneous,5,present,1.01227307319641,1,horizontal,horizontal,1,1.04705356400588,green,2,3,1050.31493177915,551.343706178981,831.076682568313,346.900731331463,923.626453162816,823.028025320546,1050.31493177915,551.343706178981,831.076682568313,346.900731331463,568.891514305654,492.232343256122,626.090418184063,786.495193912888,NaN,NaN,0,4,0,0,0,NaN,horizontal,horizontal,horizontal,vertical,horizontal,none
1d,21,100245,2,55,119,20,F,NA,constant,homogeneous,6,present,0.570992946624756,1,horizontal,horizontal,1,0.905878754319816,green,2,3,1054.96116226488,604.450363641507,931.334709102064,381.422338320961,923.626453162816,823.028025320546,1054.96116226488,604.450363641507,931.334709102064,381.422338320961,676.373546837184,376.971974679454,545.03883773512,595.549636358493,668.665290897936,818.577661679039,0,4,0,0,0,0,vertical,horizontal,horizontal,horizontal,horizontal,vertical
1d,21,100245,2,56,120,20,F,NA,constant,homogeneous,3,present,0.660761117935181,1,horizontal,horizontal,1,0.917643321793655,green,2,3,1013.86099482608,461.117046071168,572.793336331966,484.232422566416,813.345668841951,854.650531362416,1013.86099482608,461.117046071168,572.793336331966,484.232422566416,NaN,NaN,NaN,NaN,NaN,NaN,0,4,0,NaN,NaN,NaN,horizontal,horizontal,horizontal,none,none,none
1d,21,100245,2,57,121,20,F,NA,constant,homogeneous,4,present,0.738469123840332,1,vertical,vertical,1,1.01175986158437,green,1,4,813.345668841951,854.650531362416,545.349468637584,613.345668841951,813.345668841951,854.650531362416,1054.65053136242,586.654331158049,786.654331158049,345.349468637584,545.349468637584,613.345668841951,NaN,NaN,NaN,NaN,4,0,0,0,NaN,NaN,vertical,horizontal,horizontal,vertical,none,none
1d,21,100245,2,58,122,20,F,NA,constant,homogeneous,5,absent,1.18416213989258,1,horizontal,horizontal,1,0.941172456741333,green,4,NaN,773.345241866748,346.39691668109,NaN,NaN,672.5,820.836477965032,970.628304621509,789.501930496736,1032.95409169886,496.282156015671,773.345241866748,346.39691668109,550.57236181288,546.982518841471,NaN,NaN,0,0,0,4,0,NaN,horizontal,vertical,vertical,horizontal,vertical,none
1d,21,100245,2,59,123,20,F,NA,constant,homogeneous,5,present,0.613393783569336,1,vertical,vertical,1,0.870585051898298,green,4,2,746.982518841471,350.57236181288,989.501930496736,770.628304621509,696.282156015671,832.954091698863,989.501930496736,770.628304621509,1020.83647796503,472.5,746.982518841471,350.57236181288,546.39691668109,573.345241866748,NaN,NaN,0,0,0,4,0,NaN,horizontal,horizontal,horizontal,vertical,horizontal,none
1d,21,100245,2,60,124,20,F,NA,constant,homogeneous,5,absent,0.623826026916504,1,horizontal,horizontal,1,0.694116539790713,green,3,NaN,953.462830903772,396.34794493794,NaN,NaN,795.549636358493,854.96116226488,1041.10723677783,683.019879386575,953.462830903772,396.34794493794,653.738008730483,391.116228706307,556.142287229426,674.554784704298,NaN,NaN,0,0,4,0,0,NaN,horizontal,vertical,horizontal,horizontal,vertical,none
1d,21,100245,2,61,125,20,F,NA,constant,homogeneous,4,absent,0.9603431224823,1,horizontal,horizontal,1,0.788233079581425,green,2,NaN,983.431649086356,777.137884467044,NaN,NaN,622.862115532956,783.431649086356,983.431649086356,777.137884467044,977.137884467044,416.568350913644,616.568350913644,422.862115532956,NaN,NaN,NaN,NaN,0,4,0,0,NaN,NaN,vertical,horizontal,vertical,vertical,none,none
1d,21,100245,2,62,126,20,F,NA,constant,homogeneous,3,present,0.705626964569092,1,vertical,vertical,1,0.905878754319816,green,3,2,561.936991243214,508.616172865948,998.172220171528,439.523300282291,839.890788585259,851.86052685176,998.172220171528,439.523300282291,561.936991243214,508.616172865948,NaN,NaN,NaN,NaN,NaN,NaN,0,0,4,NaN,NaN,NaN,vertical,vertical,vertical,none,none,none
1d,21,100245,2,63,127,20,F,NA,constant,homogeneous,3,present,0.541294097900391,1,horizontal,horizontal,1,0.647058269895356,green,2,3,1048.46436652023,542.637481142314,626.090418184063,413.504806087112,725.445215295702,843.857712770574,1048.46436652023,542.637481142314,626.090418184063,413.504806087112,NaN,NaN,NaN,NaN,NaN,NaN,0,4,0,NaN,NaN,NaN,vertical,horizontal,vertical,none,none,none
1d,21,100245,2,64,128,20,F,NA,constant,homogeneous,5,present,0.521685838699341,1,horizontal,horizontal,1,0.682351972316874,green,4,5,692.232343256122,368.891514305654,546.900731331463,631.076682568313,751.343706178981,850.314931779154,1023.02802532055,723.626453162816,986.495193912888,426.090418184063,692.232343256122,368.891514305654,546.900731331463,631.076682568313,NaN,NaN,0,0,0,4,0,NaN,vertical,vertical,horizontal,horizontal,vertical,none
1d,21,100245,3,1,129,20,F,NA,constant,homogeneous,5,absent,0.77538013458252,0,vertical,horizontal,1,0.917643321793655,green,3,NaN,883.019879386575,358.892763222174,NaN,NaN,874.554784704298,843.857712770574,1054.96116226488,604.450363641507,883.019879386575,358.892763222174,596.34794493794,446.537169096228,591.116228706307,746.261991269517,NaN,NaN,0,0,4,0,0,NaN,vertical,horizontal,vertical,vertical,horizontal,none
1d,21,100245,3,2,130,20,F,NA,constant,homogeneous,5,present,0.552972078323364,1,horizontal,horizontal,1,1.0823472664274,green,3,4,907.767656743878,368.891514305654,613.504806087112,426.090418184063,848.656293821019,850.314931779154,1053.09926866854,631.076682568313,907.767656743878,368.891514305654,613.504806087112,426.090418184063,576.971974679454,723.626453162816,NaN,NaN,0,0,4,0,0,NaN,horizontal,horizontal,horizontal,vertical,horizontal,none
1d,21,100245,3,3,131,20,F,NA,constant,homogeneous,4,present,0.709259033203125,1,vertical,vertical,1,0.84705591695062,green,3,4,684.232422566416,372.793336331966,572.793336331966,715.767577433584,915.767577433584,827.206663668034,1027.20666366803,484.232422566416,684.232422566416,372.793336331966,572.793336331966,715.767577433584,NaN,NaN,NaN,NaN,0,0,4,0,NaN,NaN,vertical,horizontal,vertical,horizontal,none,none
1d,21,100245,3,4,132,20,F,NA,constant,homogeneous,4,absent,0.472474098205566,1,vertical,vertical,1,0.84705591695062,green,3,NaN,795.549636358493,345.03883773512,NaN,NaN,804.450363641507,854.96116226488,1054.96116226488,595.549636358493,795.549636358493,345.03883773512,545.03883773512,604.450363641507,NaN,NaN,NaN,NaN,0,0,4,0,NaN,NaN,horizontal,vertical,vertical,vertical,none,none
1d,21,100245,3,5,133,20,F,NA,constant,homogeneous,6,absent,0.836184024810791,1,horizontal,horizontal,1,0.705881107264552,green,6,NaN,557.480588344736,678.799333565612,NaN,NaN,746.982518841471,849.42763818712,989.501930496736,770.628304621509,1042.51941165526,521.200666434388,853.017481158529,350.57236181288,610.498069503264,429.371695378491,557.480588344736,678.799333565612,0,0,0,0,0,4,horizontal,vertical,vertical,horizontal,vertical,horizontal
1d,21,100245,3,6,134,20,F,NA,constant,homogeneous,5,present,0.783137083053589,1,vertical,vertical,1,1.09411183390124,green,4,1,764.510859255183,347.4816424709,680.284751489598,825.151636179026,680.284751489598,825.151636179026,977.137884467044,783.431649086356,1029.19248180629,488.215357568785,764.510859255183,347.4816424709,548.874022981887,555.719714694933,NaN,NaN,0,0,0,4,0,NaN,vertical,vertical,vertical,vertical,horizontal,none
1d,21,100245,3,7,135,20,F,NA,constant,homogeneous,3,present,0.504205942153931,1,horizontal,horizontal,1,1.05881813147972,green,2,3,1036.43188291453,504.475318678942,599.057257830286,443.006323791957,764.510859255183,852.518357529101,1036.43188291453,504.475318678942,599.057257830286,443.006323791957,NaN,NaN,NaN,NaN,NaN,NaN,0,4,0,NaN,NaN,NaN,vertical,horizontal,vertical,none,none,none
1d,21,100245,3,8,136,20,F,NA,constant,homogeneous,6,absent,0.566627025604248,1,vertical,vertical,1,0.823526782002942,green,5,NaN,607.549057043193,432.704947607421,NaN,NaN,751.343706178981,850.314931779154,992.450942956807,767.295052392579,1041.10723677783,516.980120613425,848.656293821019,349.685068220846,607.549057043193,432.704947607421,558.892763222174,683.019879386575,0,0,0,0,4,0,vertical,horizontal,vertical,vertical,vertical,horizontal
1d,21,100245,3,9,137,20,F,NA,constant,homogeneous,3,present,0.592168092727661,0,horizontal,vertical,1,0.694116539790713,green,1,2,887.215136548046,839.621618300407,963.910840470068,404.658667004661,887.215136548046,839.621618300407,963.910840470068,404.658667004661,548.874022981887,555.719714694933,NaN,NaN,NaN,NaN,NaN,NaN,4,0,0,NaN,NaN,NaN,horizontal,horizontal,horizontal,none,none,none
1d,21,100245,3,10,138,20,F,NA,constant,homogeneous,4,present,0.571010112762451,1,horizontal,horizontal,1,0.941172456741333,green,3,4,804.450363641507,345.03883773512,545.03883773512,595.549636358493,795.549636358493,854.96116226488,1054.96116226488,604.450363641507,804.450363641507,345.03883773512,545.03883773512,595.549636358493,NaN,NaN,NaN,NaN,0,0,4,0,NaN,NaN,horizontal,horizontal,horizontal,horizontal,none,none
1d,21,100245,3,11,139,20,F,NA,constant,homogeneous,3,present,0.500471830368042,1,horizontal,horizontal,1,0.694116539790713,green,1,3,764.510859255183,852.518357529101,599.057257830286,443.006323791957,764.510859255183,852.518357529101,1036.43188291453,504.475318678942,599.057257830286,443.006323791957,NaN,NaN,NaN,NaN,NaN,NaN,4,0,0,NaN,NaN,NaN,horizontal,horizontal,horizontal,none,none,none
1d,21,100245,3,12,140,20,F,NA,constant,homogeneous,3,absent,0.563058853149414,1,vertical,vertical,1,0.823526782002942,green,1,NaN,1008.88377129369,746.261991269517,NaN,NaN,1008.88377129369,746.261991269517,822.224714400653,345.970351986605,568.891514305654,707.767656743878,NaN,NaN,NaN,NaN,NaN,NaN,4,0,0,NaN,NaN,NaN,vertical,vertical,horizontal,none,none,none
1d,21,100245,3,13,141,20,F,NA,constant,homogeneous,6,absent,1.03953886032104,1,vertical,vertical,1,1.07058269895356,green,4,NaN,700.363562235235,365.271262369628,NaN,NaN,899.636437764765,834.728737630372,1053.09926866854,631.076682568313,953.462830903772,396.34794493794,700.363562235235,365.271262369628,546.900731331463,568.923317431687,646.537169096228,803.65205506206,0,0,0,4,0,0,vertical,vertical,horizontal,vertical,vertical,vertical
1d,21,100245,3,14,142,20,F,NA,constant,homogeneous,4,present,0.560739994049072,1,horizontal,horizontal,1,0.999995294110528,green,2,3,1053.60308331891,573.345241866748,773.345241866748,346.39691668109,826.654758133252,853.60308331891,1053.60308331891,573.345241866748,773.345241866748,346.39691668109,546.39691668109,626.654758133252,NaN,NaN,NaN,NaN,0,4,0,0,NaN,NaN,vertical,horizontal,vertical,horizontal,none,none
1d,21,100245,3,15,143,20,F,NA,constant,homogeneous,5,absent,0.584292888641357,1,vertical,vertical,1,0.611764567473839,green,5,NaN,551.535633479765,542.637481142314,NaN,NaN,668.665290897936,818.577661679039,967.295052392579,792.450942956807,1034.72873763037,500.363562235235,777.775285599347,345.970351986605,551.535633479765,542.637481142314,NaN,NaN,0,0,0,0,4,NaN,horizontal,vertical,horizontal,horizontal,vertical,none
1d,21,100245,3,16,144,20,F,NA,constant,homogeneous,5,present,0.621587991714478,1,vertical,vertical,1,1.07058269895356,green,5,2,601.827779828472,760.476699717708,1054.65053136242,586.654331158049,891.383827134052,838.063008756786,1054.65053136242,586.654331158049,865.998856501143,353.688914296288,586.139005173917,461.117046071168,601.827779828472,760.476699717708,NaN,NaN,0,0,0,0,4,NaN,vertical,vertical,horizontal,vertical,vertical,none
1d,21,100245,3,17,145,20,F,NA,constant,homogeneous,6,absent,0.559416055679321,1,vertical,vertical,1,0.670587404843034,green,3,NaN,1041.10723677783,516.980120613425,NaN,NaN,751.343706178981,850.314931779154,992.450942956807,767.295052392579,1041.10723677783,516.980120613425,848.656293821019,349.685068220846,607.549057043193,432.704947607421,558.892763222174,683.019879386575,0,0,4,0,0,0,horizontal,horizontal,vertical,vertical,vertical,vertical
1d,21,100245,3,18,146,20,F,NA,constant,homogeneous,3,present,0.422598123550415,1,horizontal,horizontal,1,1.01175986158437,green,3,1,610.498069503264,429.371695378491,746.982518841471,849.42763818712,746.982518841471,849.42763818712,1042.51941165526,521.200666434388,610.498069503264,429.371695378491,NaN,NaN,NaN,NaN,NaN,NaN,0,0,4,NaN,NaN,NaN,vertical,vertical,horizontal,none,none,none
1d,21,100245,3,19,147,20,F,NA,constant,homogeneous,6,present,0.931720972061157,1,horizontal,horizontal,1,0.799997647055264,green,1,3,742.637481142314,848.464366520235,1043.85771277057,525.445215295702,742.637481142314,848.464366520235,986.495193912888,773.909581815937,1043.85771277057,525.445215295702,857.362518857686,351.535633479765,613.504806087112,426.090418184063,556.142287229426,674.554784704298,4,0,0,0,0,0,horizontal,vertical,horizontal,vertical,horizontal,horizontal
1d,21,100245,3,20,148,20,F,NA,constant,homogeneous,4,absent,0.594841957092285,1,vertical,vertical,1,0.611764567473839,green,4,NaN,586.139005173917,738.882953928832,NaN,NaN,938.882953928832,813.860994826083,1013.86099482608,461.117046071168,661.117046071168,386.139005173917,586.139005173917,738.882953928832,NaN,NaN,NaN,NaN,0,0,0,4,NaN,NaN,vertical,horizontal,horizontal,vertical,none,none
1d,21,100245,3,21,149,20,F,NA,constant,homogeneous,4,present,0.607331991195679,0,vertical,horizontal,1,0.635293702421517,green,2,1,1032.95409169886,496.282156015671,903.717843984329,832.954091698863,903.717843984329,832.954091698863,1032.95409169886,496.282156015671,696.282156015671,367.045908301137,567.045908301137,703.717843984329,NaN,NaN,NaN,NaN,0,4,0,0,NaN,NaN,vertical,vertical,horizontal,vertical,none,none
1d,21,100245,3,22,150,20,F,NA,constant,homogeneous,6,present,0.650366067886353,1,vertical,vertical,1,0.929407889267494,green,5,4,583.747735480111,464.870587620533,808.899371659138,345.155339110131,791.100628340862,854.844660889869,1016.25226451989,735.129412379467,1025.15163617903,480.284751489598,808.899371659138,345.155339110131,583.747735480111,464.870587620533,574.848363820974,719.715248510402,0,0,0,0,4,0,horizontal,horizontal,vertical,horizontal,vertical,vertical
1d,21,100245,3,23,151,20,F,NA,constant,homogeneous,6,present,0.586859226226807,1,horizontal,horizontal,1,0.764703944633747,green,6,3,570.807518193712,711.784642431215,1029.19248180629,488.215357568785,782.212099195248,854.378832816255,1011.40458100154,742.594190385041,1029.19248180629,488.215357568785,817.787900804752,345.621167183745,588.595418998464,457.40580961496,570.807518193712,711.784642431215,0,0,0,0,0,4,vertical,horizontal,vertical,horizontal,horizontal,horizontal
1d,21,100245,3,24,152,20,F,NA,constant,homogeneous,3,absent,0.646375894546509,1,horizontal,horizontal,1,0.764703944633747,green,2,NaN,956.993676208043,399.057257830286,NaN,NaN,895.524681321058,836.431882914531,956.993676208043,399.057257830286,547.481642470899,564.510859255183,NaN,NaN,NaN,NaN,NaN,NaN,0,4,0,NaN,NaN,NaN,horizontal,horizontal,horizontal,none,none,none
1d,21,100245,3,25,153,20,F,NA,constant,homogeneous,5,present,0.585077047348022,1,vertical,vertical,1,0.682351972316874,green,5,4,556.142287229426,674.554784704298,653.738008730483,391.116228706307,795.549636358493,854.96116226488,1041.10723677783,683.019879386575,953.462830903772,396.34794493794,653.738008730483,391.116228706307,556.142287229426,674.554784704298,NaN,NaN,0,0,0,0,4,NaN,vertical,horizontal,horizontal,vertical,vertical,none
1d,21,100245,3,26,154,20,F,NA,constant,homogeneous,4,present,0.7450110912323,1,horizontal,horizontal,1,0.611764567473839,green,3,1,865.998856501143,353.688914296288,734.001143498857,846.311085703712,734.001143498857,846.311085703712,1046.31108570371,665.998856501143,865.998856501143,353.688914296288,553.688914296288,534.001143498857,NaN,NaN,NaN,NaN,0,0,4,0,NaN,NaN,horizontal,vertical,horizontal,horizontal,none,none
1d,21,100245,3,27,155,20,F,NA,constant,homogeneous,6,present,0.799643993377686,1,horizontal,horizontal,1,0.776468512107586,green,5,3,664.870587620533,383.747735480111,1054.84466088987,591.100628340862,680.284751489598,825.151636179026,935.129412379467,816.252264519889,1054.84466088987,591.100628340862,919.715248510402,374.848363820974,664.870587620533,383.747735480111,545.155339110131,608.899371659138,0,0,0,0,4,0,horizontal,vertical,vertical,vertical,horizontal,horizontal
1d,21,100245,3,28,156,20,F,NA,constant,homogeneous,3,present,0.648151159286499,1,vertical,vertical,1,0.811762214529103,green,2,1,899.636437764765,365.271262369628,953.462830903772,803.65205506206,953.462830903772,803.65205506206,899.636437764765,365.271262369628,546.900731331463,631.076682568313,NaN,NaN,NaN,NaN,NaN,NaN,0,4,0,NaN,NaN,NaN,horizontal,vertical,horizontal,none,none,none
1d,21,100245,3,29,157,20,F,NA,constant,homogeneous,6,present,0.569588184356689,1,horizontal,horizontal,1,0.811762214529103,green,4,2,786.654331158049,345.349468637584,1027.20666366803,715.767577433584,813.345668841951,854.650531362416,1027.20666366803,715.767577433584,1013.86099482608,461.117046071168,786.654331158049,345.349468637584,572.793336331966,484.232422566416,586.139005173917,738.882953928832,0,0,0,4,0,0,horizontal,horizontal,vertical,horizontal,horizontal,vertical
1d,21,100245,3,30,158,20,F,NA,constant,homogeneous,6,present,0.778573036193848,1,vertical,vertical,1,0.670587404843034,green,5,1,579.163522034968,472.5,800,855,800,855,1020.83647796503,727.5,1020.83647796503,472.5,800,345,579.163522034968,472.5,579.163522034968,727.5,0,0,0,0,4,0,horizontal,horizontal,horizontal,vertical,vertical,vertical
1d,21,100245,3,31,159,20,F,NA,constant,homogeneous,5,present,0.497622013092041,1,vertical,vertical,1,0.964701591689011,green,4,5,558.892763222174,516.980120613425,646.537169096228,803.65205506206,946.261991269517,808.883771293693,1043.85771277057,525.445215295702,804.450363641507,345.03883773512,558.892763222174,516.980120613425,646.537169096228,803.65205506206,NaN,NaN,0,0,0,4,0,NaN,vertical,horizontal,vertical,vertical,horizontal,none
1d,21,100245,3,32,160,20,F,NA,constant,homogeneous,6,absent,0.766098976135254,1,horizontal,horizontal,1,0.905878754319816,green,6,NaN,596.34794493794,753.462830903772,NaN,NaN,831.076682568313,853.099268668537,1034.72873763037,699.636437764765,1003.65205506206,446.537169096228,768.923317431687,346.900731331463,565.271262369628,500.363562235235,596.34794493794,753.462830903772,0,0,0,0,0,4,vertical,horizontal,vertical,vertical,horizontal,horizontal
1d,21,100245,3,33,161,20,F,NA,constant,homogeneous,3,absent,0.840276956558228,1,vertical,vertical,1,0.941172456741333,green,2,NaN,1054.65053136242,586.654331158049,NaN,NaN,684.232422566416,827.206663668034,1054.65053136242,586.654331158049,661.117046071168,386.139005173917,NaN,NaN,NaN,NaN,NaN,NaN,0,4,0,NaN,NaN,NaN,horizontal,vertical,vertical,none,none,none
1d,21,100245,3,34,162,20,F,NA,constant,homogeneous,3,absent,0.544777154922485,1,horizontal,horizontal,1,0.776468512107586,green,3,NaN,549.685068220846,648.656293821019,NaN,NaN,967.295052392579,792.450942956807,883.019879386575,358.892763222174,549.685068220846,648.656293821019,NaN,NaN,NaN,NaN,NaN,NaN,0,0,4,NaN,NaN,NaN,vertical,horizontal,horizontal,none,none,none
1d,21,100245,3,35,163,20,F,NA,constant,homogeneous,4,present,0.539633989334106,1,vertical,vertical,1,0.988230726636689,green,2,4,1054.65053136242,586.654331158049,545.349468637584,613.345668841951,813.345668841951,854.650531362416,1054.65053136242,586.654331158049,786.654331158049,345.349468637584,545.349468637584,613.345668841951,NaN,NaN,NaN,NaN,0,4,0,0,NaN,NaN,vertical,vertical,vertical,vertical,none,none
1d,21,100245,3,36,164,20,F,NA,constant,homogeneous,5,present,0.627293825149536,1,horizontal,horizontal,1,1.03528899653205,green,5,2,588.595418998464,742.594190385041,1054.84466088987,608.899371659138,870.287525733335,845.121732464271,1054.84466088987,608.899371659138,887.215136548046,360.378381699593,599.057257830286,443.006323791957,588.595418998464,742.594190385041,NaN,NaN,0,0,0,0,4,NaN,vertical,vertical,vertical,horizontal,horizontal,none
1d,21,100245,3,37,165,20,F,NA,constant,homogeneous,3,present,0.621078968048096,1,vertical,vertical,1,0.858820484424459,green,1,3,865.998856501143,846.311085703712,553.688914296288,534.001143498857,865.998856501143,846.311085703712,980.31222920257,419.68777079743,553.688914296288,534.001143498857,NaN,NaN,NaN,NaN,NaN,NaN,4,0,0,NaN,NaN,NaN,vertical,horizontal,vertical,none,none,none
1d,21,100245,3,38,166,20,F,NA,constant,homogeneous,6,present,0.885406970977783,1,vertical,vertical,1,0.6,green,4,5,704.475318678942,363.568117085469,547.481642470899,564.510859255183,895.524681321058,836.431882914531,1052.5183575291,635.489140744817,956.993676208043,399.057257830286,704.475318678942,363.568117085469,547.481642470899,564.510859255183,643.006323791957,800.942742169714,0,0,0,4,0,0,vertical,horizontal,vertical,vertical,vertical,vertical
1d,21,100245,3,39,167,20,F,NA,constant,homogeneous,4,absent,0.567840099334717,1,horizontal,horizontal,1,0.623529134947678,green,3,NaN,977.137884467044,416.568350913644,NaN,NaN,622.862115532956,783.431649086356,983.431649086356,777.137884467044,977.137884467044,416.568350913644,616.568350913644,422.862115532956,NaN,NaN,NaN,NaN,0,0,4,0,NaN,NaN,horizontal,horizontal,horizontal,vertical,none,none
1d,21,100245,3,40,168,20,F,NA,constant,homogeneous,5,absent,0.770643949508667,1,vertical,vertical,1,0.964701591689011,green,1,NaN,768.923317431687,853.099268668537,NaN,NaN,768.923317431687,853.099268668537,1031.10848569435,707.767656743878,973.909581815937,413.504806087112,676.373546837184,376.971974679454,549.685068220846,648.656293821019,NaN,NaN,4,0,0,0,0,NaN,vertical,vertical,vertical,horizontal,horizontal,none
1d,21,100245,3,41,169,20,F,NA,constant,homogeneous,6,absent,0.599411010742188,1,vertical,vertical,1,0.658822837369195,green,1,NaN,800,855,NaN,NaN,800,855,1020.83647796503,727.5,1020.83647796503,472.5,800,345,579.163522034968,472.5,579.163522034968,727.5,4,0,0,0,0,0,vertical,horizontal,vertical,horizontal,horizontal,vertical
1d,21,100245,3,42,170,20,F,NA,constant,homogeneous,5,absent,0.556778192520142,1,horizontal,horizontal,1,1.04705356400588,green,5,NaN,548.13947314824,560.109211414741,NaN,NaN,684.232422566416,827.206663668034,980.31222920257,780.31222920257,1027.20666366803,484.232422566416,760.109211414741,348.13947314824,548.13947314824,560.109211414741,NaN,NaN,0,0,0,0,4,NaN,horizontal,vertical,horizontal,horizontal,horizontal,none
1d,21,100245,3,43,171,20,F,NA,constant,homogeneous,4,absent,0.680631875991821,1,horizontal,horizontal,1,0.623529134947678,green,3,NaN,684.232422566416,372.793336331966,NaN,NaN,915.767577433584,827.206663668034,1027.20666366803,484.232422566416,684.232422566416,372.793336331966,572.793336331966,715.767577433584,NaN,NaN,NaN,NaN,0,0,4,0,NaN,NaN,vertical,vertical,horizontal,horizontal,none,none
1d,21,100245,3,44,172,20,F,NA,constant,homogeneous,4,absent,0.495443105697632,1,horizontal,horizontal,1,1.07058269895356,green,3,NaN,764.510859255183,347.4816424709,NaN,NaN,835.489140744817,852.518357529101,1052.5183575291,564.510859255183,764.510859255183,347.4816424709,547.481642470899,635.489140744817,NaN,NaN,NaN,NaN,0,0,4,0,NaN,NaN,vertical,horizontal,horizontal,horizontal,none,none
1d,21,100245,3,45,173,20,F,NA,constant,homogeneous,4,absent,0.710119962692261,1,vertical,vertical,1,0.623529134947678,green,4,NaN,565.271262369628,500.363562235235,NaN,NaN,700.363562235235,834.728737630372,1034.72873763037,699.636437764765,899.636437764765,365.271262369628,565.271262369628,500.363562235235,NaN,NaN,NaN,NaN,0,0,0,4,NaN,NaN,vertical,horizontal,vertical,vertical,none,none
1d,21,100245,3,46,174,20,F,NA,constant,homogeneous,4,present,0.566333055496216,0,vertical,horizontal,1,0.882349619372138,green,2,1,1046.31108570371,534.001143498857,865.998856501143,846.311085703712,865.998856501143,846.311085703712,1046.31108570371,534.001143498857,734.001143498857,353.688914296288,553.688914296288,665.998856501143,NaN,NaN,NaN,NaN,0,4,0,0,NaN,NaN,horizontal,vertical,vertical,horizontal,none,none
1d,21,100245,3,47,175,20,F,NA,constant,homogeneous,3,absent,0.642004013061523,1,vertical,vertical,1,0.611764567473839,green,1,NaN,599.057257830286,756.993676208043,NaN,NaN,599.057257830286,756.993676208043,1036.43188291453,695.524681321058,764.510859255183,347.4816424709,NaN,NaN,NaN,NaN,NaN,NaN,4,0,0,NaN,NaN,NaN,vertical,vertical,vertical,none,none,none
1d,21,100245,3,48,176,20,F,NA,constant,homogeneous,4,present,1.05009293556213,1,horizontal,horizontal,1,0.752939377159908,green,3,4,857.362518857686,351.535633479765,551.535633479765,542.637481142314,742.637481142314,848.464366520235,1048.46436652023,657.362518857686,857.362518857686,351.535633479765,551.535633479765,542.637481142314,NaN,NaN,NaN,NaN,0,0,4,0,NaN,NaN,vertical,vertical,horizontal,horizontal,none,none
1d,21,100245,3,49,177,20,F,NA,constant,homogeneous,6,present,0.529268980026245,0,vertical,horizontal,1,0.694116539790713,green,4,3,791.100628340862,345.155339110131,1016.25226451989,464.870587620533,808.899371659138,854.844660889869,1025.15163617903,719.715248510402,1016.25226451989,464.870587620533,791.100628340862,345.155339110131,574.848363820974,480.284751489598,583.747735480111,735.129412379467,0,0,0,4,0,0,horizontal,vertical,vertical,vertical,horizontal,horizontal
1d,21,100245,3,50,178,20,F,NA,constant,homogeneous,5,absent,0.910748958587646,0,vertical,horizontal,1,0.741174809686069,green,3,NaN,983.431649086356,422.862115532956,NaN,NaN,755.719714694933,851.125977018113,1025.15163617903,719.715248510402,983.431649086356,422.862115532956,688.215357568785,370.807518193712,547.481642470899,635.489140744817,NaN,NaN,0,0,4,0,0,NaN,vertical,vertical,vertical,horizontal,vertical,none
1d,21,100245,3,51,179,20,F,NA,constant,homogeneous,5,absent,0.872251987457275,1,horizontal,horizontal,1,0.752939377159908,green,1,NaN,768.923317431687,853.099268668537,NaN,NaN,768.923317431687,853.099268668537,1031.10848569435,707.767656743878,973.909581815937,413.504806087112,676.373546837184,376.971974679454,549.685068220846,648.656293821019,NaN,NaN,4,0,0,0,0,NaN,horizontal,vertical,vertical,vertical,horizontal,none
1d,21,100245,3,52,180,20,F,NA,constant,homogeneous,6,absent,0.761457920074463,1,horizontal,horizontal,1,0.764703944633747,green,1,NaN,738.309916622085,847.425410200379,NaN,NaN,738.309916622085,847.425410200379,983.431649086356,777.137884467044,1045.12173246427,529.712474266665,861.690083377915,352.574589799621,616.568350913644,422.862115532956,554.878267535729,670.287525733335,4,0,0,0,0,0,horizontal,horizontal,horizontal,horizontal,horizontal,horizontal
1d,21,100245,3,53,181,20,F,NA,constant,homogeneous,5,present,0.546642065048218,1,horizontal,horizontal,1,0.905878754319816,green,1,2,672.5,820.836477965032,970.628304621509,789.501930496736,672.5,820.836477965032,970.628304621509,789.501930496736,1032.95409169886,496.282156015671,773.345241866748,346.39691668109,550.57236181288,546.982518841471,NaN,NaN,4,0,0,0,0,NaN,horizontal,horizontal,vertical,horizontal,horizontal,none
1d,21,100245,3,54,182,20,F,NA,constant,homogeneous,6,absent,0.853634119033813,1,horizontal,horizontal,1,1.01175986158437,green,4,NaN,911.784642431215,370.807518193712,NaN,NaN,688.215357568785,829.192481806288,942.594190385041,811.404581001536,1054.37883281626,582.212099195248,911.784642431215,370.807518193712,657.405809614959,388.595418998464,545.621167183745,617.787900804752,0,0,0,4,0,0,horizontal,horizontal,horizontal,horizontal,horizontal,horizontal
1d,21,100245,3,55,183,20,F,NA,constant,homogeneous,4,absent,0.721878051757812,1,vertical,vertical,1,0.72941024221223,green,2,NaN,1041.10723677783,683.019879386575,NaN,NaN,716.980120613425,841.107236777826,1041.10723677783,683.019879386575,883.019879386575,358.892763222174,558.892763222174,516.980120613425,NaN,NaN,NaN,NaN,0,4,0,0,NaN,NaN,vertical,vertical,vertical,horizontal,none,none
1d,21,100245,3,56,184,20,F,NA,constant,homogeneous,3,absent,0.827178955078125,1,vertical,vertical,1,0.941172456741333,green,1,NaN,923.626453162816,823.028025320546,NaN,NaN,923.626453162816,823.028025320546,931.334709102064,381.422338320961,545.03883773512,595.549636358493,NaN,NaN,NaN,NaN,NaN,NaN,4,0,0,NaN,NaN,NaN,vertical,vertical,vertical,none,none,none
1d,21,100245,3,57,185,20,F,NA,constant,homogeneous,3,present,0.745357036590576,1,vertical,vertical,1,1.07058269895356,green,2,3,835.489140744817,347.4816424709,563.568117085469,695.524681321058,1000.94274216971,756.993676208043,835.489140744817,347.4816424709,563.568117085469,695.524681321058,NaN,NaN,NaN,NaN,NaN,NaN,0,4,0,NaN,NaN,NaN,horizontal,vertical,vertical,none,none,none
1d,21,100245,3,58,186,20,F,NA,constant,homogeneous,3,present,0.588170051574707,1,vertical,vertical,1,0.988230726636689,green,1,2,777.775285599347,854.029648013395,1031.10848569435,492.232343256122,777.775285599347,854.029648013395,1031.10848569435,492.232343256122,591.116228706307,453.738008730483,NaN,NaN,NaN,NaN,NaN,NaN,4,0,0,NaN,NaN,NaN,vertical,vertical,horizontal,none,none,none
1d,21,100245,3,59,187,20,F,NA,constant,homogeneous,4,absent,0.797613143920898,1,horizontal,horizontal,1,0.870585051898298,green,4,NaN,570.807518193712,711.784642431215,NaN,NaN,911.784642431215,829.192481806288,1029.19248180629,488.215357568785,688.215357568785,370.807518193712,570.807518193712,711.784642431215,NaN,NaN,NaN,NaN,0,0,0,4,NaN,NaN,horizontal,horizontal,vertical,horizontal,none,none
1d,21,100245,3,60,188,20,F,NA,constant,homogeneous,5,absent,0.656893968582153,1,horizontal,horizontal,1,0.764703944633747,green,3,NaN,808.899371659138,345.155339110131,NaN,NaN,942.594190385041,811.404581001536,1045.12173246427,529.712474266665,808.899371659138,345.155339110131,560.378381699593,512.784863451954,643.006323791957,800.942742169714,NaN,NaN,0,0,4,0,0,NaN,horizontal,horizontal,horizontal,horizontal,vertical,none
1d,21,100245,3,61,189,20,F,NA,constant,homogeneous,5,absent,0.58450984954834,1,horizontal,horizontal,1,0.917643321793655,green,2,NaN,956.993676208043,800.942742169714,NaN,NaN,657.405809614959,811.404581001536,956.993676208043,800.942742169714,1039.62161830041,512.784863451954,791.100628340862,345.155339110131,554.878267535729,529.712474266665,NaN,NaN,0,4,0,0,0,NaN,vertical,horizontal,vertical,vertical,horizontal,none
1d,21,100245,3,62,190,20,F,NA,constant,homogeneous,3,absent,0.526602029800415,1,horizontal,horizontal,1,0.717645674738391,green,1,NaN,646.537169096228,803.65205506206,NaN,NaN,646.537169096228,803.65205506206,1053.09926866854,631.076682568313,700.363562235235,365.271262369628,NaN,NaN,NaN,NaN,NaN,NaN,4,0,0,NaN,NaN,NaN,horizontal,vertical,vertical,none,none,none
1d,21,100245,3,63,191,20,F,NA,constant,homogeneous,5,present,0.578885078430176,1,horizontal,horizontal,1,0.682351972316874,green,3,4,899.636437764765,365.271262369628,607.549057043193,432.704947607421,857.362518857686,848.464366520235,1054.0296480134,622.224714400653,899.636437764765,365.271262369628,607.549057043193,432.704947607421,581.422338320961,731.334709102064,NaN,NaN,0,0,4,0,0,NaN,horizontal,vertical,horizontal,horizontal,vertical,none
1d,21,100245,3,64,192,20,F,NA,constant,homogeneous,3,absent,0.610504865646362,1,horizontal,horizontal,1,1.01175986158437,green,2,NaN,983.431649086356,422.862115532956,NaN,NaN,861.690083377915,847.425410200379,983.431649086356,422.862115532956,554.878267535729,529.712474266665,NaN,NaN,NaN,NaN,NaN,NaN,0,4,0,NaN,NaN,NaN,horizontal,horizontal,vertical,none,none,none
1d,21,100245,4,1,193,20,F,NA,constant,homogeneous,4,absent,0.599622964859009,1,horizontal,horizontal,1,0.694116539790713,green,4,NaN,572.793336331966,484.232422566416,NaN,NaN,684.232422566416,827.206663668034,1027.20666366803,715.767577433584,915.767577433584,372.793336331966,572.793336331966,484.232422566416,NaN,NaN,NaN,NaN,0,0,0,4,NaN,NaN,vertical,vertical,vertical,horizontal,none,none
1d,21,100245,4,2,194,20,F,NA,constant,homogeneous,4,present,0.581310987472534,1,horizontal,horizontal,1,0.670587404843034,green,2,3,1008.88377129369,746.261991269517,946.261991269517,391.116228706307,653.738008730483,808.883771293693,1008.88377129369,746.261991269517,946.261991269517,391.116228706307,591.116228706307,453.738008730483,NaN,NaN,NaN,NaN,0,4,0,0,NaN,NaN,horizontal,horizontal,vertical,vertical,none,none
1d,21,100245,4,3,195,20,F,NA,constant,homogeneous,3,present,0.654659986495972,1,horizontal,horizontal,1,0.682351972316874,green,1,3,800,855,579.163522034968,472.5,800,855,1020.83647796503,472.5,579.163522034968,472.5,NaN,NaN,NaN,NaN,NaN,NaN,4,0,0,NaN,NaN,NaN,horizontal,vertical,vertical,none,none,none
1d,21,100245,4,4,196,20,F,NA,constant,homogeneous,6,present,0.636348009109497,1,horizontal,horizontal,1,0.623529134947678,green,4,2,704.475318678942,363.568117085469,1052.5183575291,635.489140744817,895.524681321058,836.431882914531,1052.5183575291,635.489140744817,956.993676208043,399.057257830286,704.475318678942,363.568117085469,547.481642470899,564.510859255183,643.006323791957,800.942742169714,0,0,0,4,0,0,vertical,horizontal,vertical,horizontal,horizontal,vertical
1d,21,100245,4,5,197,20,F,NA,constant,homogeneous,4,absent,0.554112911224365,1,vertical,vertical,1,1.03528899653205,green,3,NaN,804.450363641507,345.03883773512,NaN,NaN,795.549636358493,854.96116226488,1054.96116226488,604.450363641507,804.450363641507,345.03883773512,545.03883773512,595.549636358493,NaN,NaN,NaN,NaN,0,0,4,0,NaN,NaN,vertical,vertical,vertical,vertical,none,none
1d,21,100245,4,6,198,20,F,NA,constant,homogeneous,6,present,0.493896007537842,1,vertical,vertical,1,0.823526782002942,green,5,2,619.68777079743,419.68777079743,980.31222920257,780.31222920257,734.001143498857,846.311085703712,980.31222920257,780.31222920257,1046.31108570371,534.001143498857,865.998856501143,353.688914296288,619.68777079743,419.68777079743,553.688914296288,665.998856501143,0,0,0,0,4,0,horizontal,vertical,vertical,vertical,vertical,horizontal
1d,21,100245,4,7,199,20,F,NA,constant,homogeneous,5,absent,0.472117900848389,1,horizontal,horizontal,1,0.811762214529103,green,5,NaN,547.481642470899,564.510859255183,NaN,NaN,688.215357568785,829.192481806288,983.431649086356,777.137884467044,1025.15163617903,480.284751489598,755.719714694933,348.874022981887,547.481642470899,564.510859255183,NaN,NaN,0,0,0,0,4,NaN,vertical,horizontal,horizontal,horizontal,horizontal,none
1d,21,100245,4,8,200,20,F,NA,constant,homogeneous,5,absent,0.532534122467041,1,vertical,vertical,1,0.929407889267494,green,5,NaN,561.936991243214,691.383827134052,NaN,NaN,813.345668841951,854.650531362416,1046.31108570371,665.998856501143,938.882953928832,386.139005173917,639.523300282292,401.827779828472,561.936991243214,691.383827134052,NaN,NaN,0,0,0,0,4,NaN,horizontal,vertical,vertical,vertical,vertical,none
1d,21,100245,4,9,201,20,F,NA,constant,homogeneous,5,absent,0.692584037780762,1,vertical,vertical,1,1.05881813147972,green,4,NaN,591.116228706307,453.738008730483,NaN,NaN,883.019879386575,841.107236777826,1054.96116226488,595.549636358493,874.554784704298,356.142287229426,591.116228706307,453.738008730483,596.34794493794,753.462830903772,NaN,NaN,0,0,0,4,0,NaN,horizontal,horizontal,horizontal,vertical,vertical,none
1d,21,100245,4,10,202,20,F,NA,constant,homogeneous,3,present,0.588643074035645,1,vertical,vertical,1,0.705881107264552,green,1,3,751.343706178981,850.314931779154,607.549057043193,432.704947607421,751.343706178981,850.314931779154,1041.10723677783,516.980120613425,607.549057043193,432.704947607421,NaN,NaN,NaN,NaN,NaN,NaN,4,0,0,NaN,NaN,NaN,vertical,vertical,vertical,none,none,none
1d,21,100245,4,11,203,20,F,NA,constant,homogeneous,3,absent,0.510993957519531,1,vertical,vertical,1,0.917643321793655,green,1,NaN,861.690083377915,847.425410200379,NaN,NaN,861.690083377915,847.425410200379,983.431649086356,422.862115532956,554.878267535729,529.712474266665,NaN,NaN,NaN,NaN,NaN,NaN,4,0,0,NaN,NaN,NaN,vertical,vertical,vertical,none,none,none
1d,21,100245,4,12,204,20,F,NA,constant,homogeneous,3,present,0.548176050186157,0,horizontal,vertical,1,0.741174809686069,green,2,3,891.383827134052,361.936991243214,548.13947314824,639.890788585259,960.476699717708,798.172220171528,891.383827134052,361.936991243214,548.13947314824,639.890788585259,NaN,NaN,NaN,NaN,NaN,NaN,0,4,0,NaN,NaN,NaN,vertical,horizontal,vertical,none,none,none
1d,21,100245,4,13,205,20,F,NA,constant,homogeneous,4,present,0.530339002609253,1,vertical,vertical,1,0.952937024215172,green,3,4,808.899371659138,345.155339110131,545.155339110131,591.100628340862,791.100628340862,854.844660889869,1054.84466088987,608.899371659138,808.899371659138,345.155339110131,545.155339110131,591.100628340862,NaN,NaN,NaN,NaN,0,0,4,0,NaN,NaN,horizontal,horizontal,vertical,vertical,none,none
1d,21,100245,4,14,206,20,F,NA,constant,homogeneous,3,present,0.601359128952026,1,horizontal,horizontal,1,0.811762214529103,green,2,3,1055,600,672.5,379.163522034968,672.5,820.836477965032,1055,600,672.5,379.163522034968,NaN,NaN,NaN,NaN,NaN,NaN,0,4,0,NaN,NaN,NaN,vertical,horizontal,vertical,none,none,none
1d,21,100245,4,15,207,20,F,NA,constant,homogeneous,6,absent,0.870964050292969,1,vertical,vertical,1,1.07058269895356,green,2,NaN,953.462830903772,803.65205506206,NaN,NaN,700.363562235235,834.728737630372,953.462830903772,803.65205506206,1053.09926866854,568.923317431687,899.636437764765,365.271262369628,646.537169096228,396.34794493794,546.900731331463,631.076682568313,0,4,0,0,0,0,horizontal,vertical,vertical,horizontal,horizontal,horizontal
1d,21,100245,4,16,208,20,F,NA,constant,homogeneous,4,present,0.719506978988647,1,horizontal,horizontal,1,0.741174809686069,green,2,1,1042.51941165526,521.200666434388,878.799333565612,842.519411655264,878.799333565612,842.519411655264,1042.51941165526,521.200666434388,721.200666434388,357.480588344736,557.480588344736,678.799333565612,NaN,NaN,NaN,NaN,0,4,0,0,NaN,NaN,horizontal,horizontal,vertical,horizontal,none,none
1d,21,100245,4,17,209,20,F,NA,constant,homogeneous,5,absent,0.629666090011597,1,horizontal,horizontal,1,0.97646615916285,green,3,NaN,1042.51941165526,521.200666434388,NaN,NaN,650.114760665419,806.299333565612,949.885239334581,806.299333565612,1042.51941165526,521.200666434388,800,345,557.480588344736,521.200666434388,NaN,NaN,0,0,4,0,0,NaN,horizontal,vertical,horizontal,vertical,vertical,none
1d,21,100245,4,18,210,20,F,NA,constant,homogeneous,5,present,0.69136905670166,1,horizontal,horizontal,1,0.647058269895356,green,2,3,1039.62161830041,687.215136548046,956.993676208043,399.057257830286,791.100628340862,854.844660889869,1039.62161830041,687.215136548046,956.993676208043,399.057257830286,657.405809614959,388.595418998464,554.878267535729,670.287525733335,NaN,NaN,0,4,0,0,0,NaN,horizontal,horizontal,vertical,horizontal,horizontal,none
1d,21,100245,4,19,211,20,F,NA,constant,homogeneous,4,absent,0.76668906211853,1,vertical,vertical,1,1.07058269895356,green,2,NaN,1036.43188291453,504.475318678942,NaN,NaN,895.524681321058,836.431882914531,1036.43188291453,504.475318678942,704.475318678942,363.568117085469,563.568117085469,695.524681321058,NaN,NaN,NaN,NaN,0,4,0,0,NaN,NaN,vertical,vertical,horizontal,horizontal,none,none
1d,21,100245,4,20,212,20,F,NA,constant,homogeneous,5,absent,0.770098924636841,1,vertical,vertical,1,1.01175986158437,green,4,NaN,795.549636358493,345.03883773512,NaN,NaN,653.738008730483,808.883771293693,953.462830903772,803.65205506206,1041.10723677783,516.980120613425,795.549636358493,345.03883773512,556.142287229426,525.445215295702,NaN,NaN,0,0,0,4,0,NaN,horizontal,horizontal,horizontal,vertical,vertical,none
1d,21,100245,4,21,213,20,F,NA,constant,homogeneous,5,absent,0.590270042419434,1,horizontal,horizontal,1,0.811762214529103,green,5,NaN,568.891514305654,707.767656743878,NaN,NaN,831.076682568313,853.099268668537,1050.31493177915,648.656293821019,923.626453162816,376.971974679454,626.090418184063,413.504806087112,568.891514305654,707.767656743878,NaN,NaN,0,0,0,0,4,NaN,vertical,horizontal,horizontal,vertical,horizontal,none
1d,21,100245,4,22,214,20,F,NA,constant,homogeneous,6,present,0.616146087646484,1,horizontal,horizontal,1,0.894114186845977,green,5,1,650.114760665419,393.700666434388,696.282156015671,832.954091698863,696.282156015671,832.954091698863,949.885239334581,806.299333565612,1053.60308331891,573.345241866748,903.717843984329,367.045908301137,650.114760665419,393.700666434388,546.39691668109,626.654758133252,0,0,0,0,4,0,horizontal,vertical,horizontal,vertical,horizontal,vertical
1d,21,100245,4,23,215,20,F,NA,constant,homogeneous,3,present,0.478746891021729,1,vertical,vertical,1,0.905878754319816,green,2,3,883.019879386575,358.892763222174,549.685068220846,648.656293821019,967.295052392579,792.450942956807,883.019879386575,358.892763222174,549.685068220846,648.656293821019,NaN,NaN,NaN,NaN,NaN,NaN,0,4,0,NaN,NaN,NaN,horizontal,vertical,vertical,none,none,none
1d,21,100245,4,24,216,20,F,NA,constant,homogeneous,6,present,0.566785097122192,0,vertical,horizontal,1,0.917643321793655,green,1,6,704.475318678942,836.431882914531,547.481642470899,635.489140744817,704.475318678942,836.431882914531,956.993676208043,800.942742169714,1052.5183575291,564.510859255183,895.524681321058,363.568117085469,643.006323791957,399.057257830286,547.481642470899,635.489140744817,4,0,0,0,0,0,vertical,vertical,horizontal,horizontal,horizontal,vertical
1d,21,100245,4,25,217,20,F,NA,constant,homogeneous,4,present,0.591752052307129,1,vertical,vertical,1,0.870585051898298,green,3,4,657.405809614959,388.595418998464,588.595418998464,742.594190385041,942.594190385041,811.404581001536,1011.40458100154,457.40580961496,657.405809614959,388.595418998464,588.595418998464,742.594190385041,NaN,NaN,NaN,NaN,0,0,4,0,NaN,NaN,horizontal,vertical,vertical,vertical,none,none
1d,21,100245,4,26,218,20,F,NA,constant,homogeneous,5,absent,0.488745927810669,1,vertical,vertical,1,0.84705591695062,green,5,NaN,604.658667004661,763.910840470068,NaN,NaN,895.524681321058,836.431882914531,1054.37883281626,582.212099195248,861.690083377915,352.574589799621,583.747735480111,464.870587620533,604.658667004661,763.910840470068,NaN,NaN,0,0,0,0,4,NaN,horizontal,horizontal,horizontal,vertical,vertical,none
1d,21,100245,4,27,219,20,F,NA,constant,homogeneous,5,absent,0.641714096069336,1,horizontal,horizontal,1,0.952937024215172,green,2,NaN,1011.40458100154,742.594190385041,NaN,NaN,729.712474266665,845.121732464271,1011.40458100154,742.594190385041,1000.94274216971,443.006323791957,712.784863451954,360.378381699593,545.155339110131,608.899371659138,NaN,NaN,0,4,0,0,0,NaN,vertical,horizontal,vertical,vertical,horizontal,none
1d,21,100245,4,28,220,20,F,NA,constant,homogeneous,3,absent,0.834613084793091,1,vertical,vertical,1,0.6,green,3,NaN,551.535633479765,657.362518857686,NaN,NaN,973.909581815937,786.495193912888,874.554784704298,356.142287229426,551.535633479765,657.362518857686,NaN,NaN,NaN,NaN,NaN,NaN,0,0,4,NaN,NaN,NaN,vertical,horizontal,vertical,none,none,none
1d,21,100245,4,29,221,20,F,NA,constant,homogeneous,4,present,0.550941944122314,1,horizontal,horizontal,1,0.764703944633747,green,4,1,599.057257830286,756.993676208043,956.993676208043,800.942742169714,956.993676208043,800.942742169714,1000.94274216971,443.006323791957,643.006323791957,399.057257830286,599.057257830286,756.993676208043,NaN,NaN,NaN,NaN,0,0,0,4,NaN,NaN,vertical,horizontal,horizontal,horizontal,none,none
1d,21,100245,4,30,222,20,F,NA,constant,homogeneous,5,present,0.568713903427124,1,vertical,vertical,1,0.741174809686069,green,5,1,552.574589799621,538.309916622085,664.870587620533,816.252264519889,664.870587620533,816.252264519889,963.910840470068,795.341332995339,1036.43188291453,504.475318678942,782.212099195248,345.621167183745,552.574589799621,538.309916622085,NaN,NaN,0,0,0,0,4,NaN,horizontal,horizontal,horizontal,vertical,vertical,none
1d,21,100245,4,31,223,20,F,NA,constant,homogeneous,5,present,0.489551067352295,1,vertical,vertical,1,0.670587404843034,green,4,1,607.549057043193,432.704947607421,857.362518857686,848.464366520235,857.362518857686,848.464366520235,1054.0296480134,622.224714400653,899.636437764765,365.271262369628,607.549057043193,432.704947607421,581.422338320961,731.334709102064,NaN,NaN,0,0,0,4,0,NaN,horizontal,vertical,horizontal,vertical,vertical,none
1d,21,100245,4,32,224,20,F,NA,constant,homogeneous,3,present,0.523716926574707,1,vertical,vertical,1,0.799997647055264,green,2,3,1054.84466088987,591.100628340862,664.870587620533,383.747735480111,680.284751489598,825.151636179026,1054.84466088987,591.100628340862,664.870587620533,383.747735480111,NaN,NaN,NaN,NaN,NaN,NaN,0,4,0,NaN,NaN,NaN,horizontal,vertical,vertical,none,none,none
1d,21,100245,4,33,225,20,F,NA,constant,homogeneous,4,absent,0.589548826217651,1,horizontal,horizontal,1,0.764703944633747,green,4,NaN,588.595418998464,742.594190385041,NaN,NaN,942.594190385041,811.404581001536,1011.40458100154,457.40580961496,657.405809614959,388.595418998464,588.595418998464,742.594190385041,NaN,NaN,NaN,NaN,0,0,0,4,NaN,NaN,horizontal,horizontal,vertical,horizontal,none,none
1d,21,100245,4,34,226,20,F,NA,constant,homogeneous,5,present,0.497368812561035,1,vertical,vertical,1,0.788233079581425,green,1,4,653.738008730483,808.883771293693,795.549636358493,345.03883773512,653.738008730483,808.883771293693,953.462830903772,803.65205506206,1041.10723677783,516.980120613425,795.549636358493,345.03883773512,556.142287229426,525.445215295702,NaN,NaN,4,0,0,0,0,NaN,vertical,horizontal,vertical,vertical,vertical,none
1d,21,100245,4,35,227,20,F,NA,constant,homogeneous,3,absent,0.859206914901733,1,horizontal,horizontal,1,0.988230726636689,green,1,NaN,938.882953928832,813.860994826083,NaN,NaN,938.882953928832,813.860994826083,915.767577433584,372.793336331966,545.349468637584,613.345668841951,NaN,NaN,NaN,NaN,NaN,NaN,4,0,0,NaN,NaN,NaN,horizontal,vertical,vertical,none,none,none
1d,21,100245,4,36,228,20,F,NA,constant,homogeneous,4,present,0.644159078598022,1,horizontal,horizontal,1,0.97646615916285,green,2,3,1052.5183575291,635.489140744817,835.489140744817,347.4816424709,764.510859255183,852.518357529101,1052.5183575291,635.489140744817,835.489140744817,347.4816424709,547.481642470899,564.510859255183,NaN,NaN,NaN,NaN,0,4,0,0,NaN,NaN,horizontal,horizontal,vertical,vertical,none,none
1d,21,100245,4,37,229,20,F,NA,constant,homogeneous,3,present,0.591439962387085,1,vertical,vertical,1,0.717645674738391,green,1,3,581.422338320961,731.334709102064,795.549636358493,345.03883773512,581.422338320961,731.334709102064,1023.02802532055,723.626453162816,795.549636358493,345.03883773512,NaN,NaN,NaN,NaN,NaN,NaN,4,0,0,NaN,NaN,NaN,vertical,horizontal,vertical,none,none,none
1d,21,100245,4,38,230,20,F,NA,constant,homogeneous,4,absent,0.652801990509033,1,horizontal,horizontal,1,0.858820484424459,green,3,NaN,646.537169096228,396.34794493794,NaN,NaN,953.462830903772,803.65205506206,1003.65205506206,446.537169096228,646.537169096228,396.34794493794,596.34794493794,753.462830903772,NaN,NaN,NaN,NaN,0,0,4,0,NaN,NaN,horizontal,vertical,horizontal,vertical,none,none
1d,21,100245,4,39,231,20,F,NA,constant,homogeneous,3,present,0.655622005462646,1,horizontal,horizontal,1,0.682351972316874,green,3,1,547.481642470899,635.489140744817,956.993676208043,800.942742169714,956.993676208043,800.942742169714,895.524681321058,363.568117085469,547.481642470899,635.489140744817,NaN,NaN,NaN,NaN,NaN,NaN,0,0,4,NaN,NaN,NaN,horizontal,horizontal,horizontal,none,none,none
1d,21,100245,4,40,232,20,F,NA,constant,homogeneous,5,present,1.14255309104919,1,horizontal,horizontal,1,0.694116539790713,green,1,3,742.637481142314,848.464366520235,992.450942956807,432.704947607421,742.637481142314,848.464366520235,1018.57766167904,731.334709102064,992.450942956807,432.704947607421,700.363562235235,365.271262369628,545.970351986605,622.224714400653,NaN,NaN,4,0,0,0,0,NaN,horizontal,vertical,vertical,horizontal,horizontal,none
1d,21,100245,4,41,233,20,F,NA,constant,homogeneous,3,absent,0.525796890258789,1,horizontal,horizontal,1,0.999995294110528,green,1,NaN,729.712474266665,845.121732464271,NaN,NaN,729.712474266665,845.121732464271,1047.42541020038,538.309916622085,622.862115532956,416.568350913644,NaN,NaN,NaN,NaN,NaN,NaN,4,0,0,NaN,NaN,NaN,horizontal,vertical,horizontal,none,none,none
1d,21,100245,4,42,234,20,F,NA,constant,homogeneous,5,present,0.651400089263916,1,vertical,vertical,1,0.752939377159908,green,1,2,768.923317431687,853.099268668537,1031.10848569435,707.767656743878,768.923317431687,853.099268668537,1031.10848569435,707.767656743878,973.909581815937,413.504806087112,676.373546837184,376.971974679454,549.685068220846,648.656293821019,NaN,NaN,4,0,0,0,0,NaN,vertical,vertical,horizontal,horizontal,horizontal,none
1d,21,100245,4,43,235,20,F,NA,constant,homogeneous,4,present,0.456192016601562,1,vertical,vertical,1,0.97646615916285,green,1,3,716.980120613425,841.107236777826,883.019879386575,358.892763222174,716.980120613425,841.107236777826,1041.10723677783,683.019879386575,883.019879386575,358.892763222174,558.892763222174,516.980120613425,NaN,NaN,NaN,NaN,4,0,0,0,NaN,NaN,vertical,horizontal,horizontal,vertical,none,none
1d,21,100245,4,44,236,20,F,NA,constant,homogeneous,6,present,0.588458061218262,0,vertical,horizontal,1,0.752939377159908,green,6,5,548.13947314824,639.890788585259,639.523300282292,401.827779828472,708.616172865948,838.063008756786,960.476699717708,798.172220171528,1051.86052685176,560.109211414741,891.383827134052,361.936991243214,639.523300282292,401.827779828472,548.13947314824,639.890788585259,0,0,0,0,0,4,vertical,vertical,horizontal,horizontal,vertical,vertical
1d,21,100245,4,45,237,20,F,NA,constant,homogeneous,5,present,0.865604162216187,0,horizontal,vertical,1,0.658822837369195,green,4,3,668.665290897936,381.422338320961,967.295052392579,407.549057043193,777.775285599347,854.029648013395,1034.72873763037,699.636437764765,967.295052392579,407.549057043193,668.665290897936,381.422338320961,551.535633479765,657.362518857686,NaN,NaN,0,0,0,4,0,NaN,vertical,horizontal,vertical,horizontal,vertical,none
1d,21,100245,4,46,238,20,F,NA,constant,homogeneous,6,present,0.667082071304321,1,horizontal,horizontal,1,0.799997647055264,green,3,4,927.5,379.163522034968,672.5,379.163522034968,927.5,820.836477965032,1055,600,927.5,379.163522034968,672.5,379.163522034968,545,600,672.5,820.836477965032,0,0,4,0,0,0,horizontal,horizontal,horizontal,vertical,horizontal,horizontal
1d,21,100245,4,47,239,20,F,NA,constant,homogeneous,3,absent,0.701925992965698,1,vertical,vertical,1,1.07058269895356,green,2,NaN,1054.65053136242,613.345668841951,NaN,NaN,661.117046071168,813.860994826083,1054.65053136242,613.345668841951,684.232422566416,372.793336331966,NaN,NaN,NaN,NaN,NaN,NaN,0,4,0,NaN,NaN,NaN,vertical,vertical,vertical,none,none,none
1d,21,100245,4,48,240,20,F,NA,constant,homogeneous,6,absent,0.756541967391968,1,horizontal,horizontal,1,0.823526782002942,green,3,NaN,1020.83647796503,472.5,NaN,NaN,800,855,1020.83647796503,727.5,1020.83647796503,472.5,800,345,579.163522034968,472.5,579.163522034968,727.5,0,0,4,0,0,0,vertical,vertical,horizontal,vertical,vertical,horizontal
1d,21,100245,4,49,241,20,F,NA,constant,homogeneous,6,absent,1.61819982528687,1,vertical,vertical,1,0.917643321793655,green,1,NaN,895.524681321058,836.431882914531,NaN,NaN,895.524681321058,836.431882914531,1052.5183575291,635.489140744817,956.993676208043,399.057257830286,704.475318678942,363.568117085469,547.481642470899,564.510859255183,643.006323791957,800.942742169714,4,0,0,0,0,0,vertical,vertical,horizontal,vertical,vertical,vertical
