experiment,subject,uniqueID,block,trial,trial_cumulative,age,gender,color_cond_blocking,color_history,shape_type,set_size,distractor,rt,acc,target_orient,response_key,response_made,iti,target_color,target_item,distractor_item,target_X,target_Y,distractor_X,distractor_Y,item1_X,item1_Y,item2_X,item2_Y,item3_X,item3_Y,item4_X,item4_Y,item5_X,item5_Y,item6_X,item6_Y,item1_shape,item2_shape,item3_shape,item4_shape,item5_shape,item6_shape,item1_line,item2_line,item3_line,item4_line,item5_line,item6_line
1d,22,100246,1,1,1,18,O,NA,constant,homogeneous,4,present,1.58737301826477,1,vertical,vertical,1,0.929409287192605,red,2,4,1031.10848569435,492.232343256122,568.891514305654,707.767656743878,907.767656743878,831.108485694346,1031.10848569435,492.232343256122,692.232343256122,368.891514305654,568.891514305654,707.767656743878,NaN,NaN,NaN,NaN,0,4,0,0,NaN,NaN,vertical,vertical,horizontal,horizontal,none,none
1d,22,100246,1,2,2,18,O,NA,constant,homogeneous,4,present,1.22553896903992,1,horizontal,horizontal,1,0.729410791397095,red,1,2,646.537169096228,803.65205506206,1003.65205506206,753.462830903772,646.537169096228,803.65205506206,1003.65205506206,753.462830903772,953.462830903772,396.34794493794,596.34794493794,446.537169096228,NaN,NaN,NaN,NaN,4,0,0,0,NaN,NaN,horizontal,vertical,horizontal,vertical,none,none
1d,22,100246,1,3,3,18,O,NA,constant,homogeneous,4,absent,1.41925692558289,1,horizontal,horizontal,1,0.858821582794189,red,3,NaN,712.784863451954,360.378381699593,NaN,NaN,887.215136548046,839.621618300407,1039.62161830041,512.784863451954,712.784863451954,360.378381699593,560.378381699593,687.215136548046,NaN,NaN,NaN,NaN,0,0,4,0,NaN,NaN,vertical,vertical,horizontal,horizontal,none,none
1d,22,100246,1,4,4,18,O,NA,constant,homogeneous,3,present,1.16717910766602,1,horizontal,horizontal,1,0.964703139391812,red,2,3,1018.57766167904,468.665290897936,576.971974679454,476.373546837184,804.450363641507,854.96116226488,1018.57766167904,468.665290897936,576.971974679454,476.373546837184,NaN,NaN,NaN,NaN,NaN,NaN,0,4,0,NaN,NaN,NaN,horizontal,horizontal,vertical,none,none,none
1d,22,100246,1,5,5,18,O,NA,constant,homogeneous,5,present,1.81110000610352,1,vertical,vertical,1,0.811763113195246,red,3,1,822.224714400653,345.970351986605,931.334709102064,818.577661679039,931.334709102064,818.577661679039,1048.46436652023,542.637481142314,822.224714400653,345.970351986605,565.271262369628,500.363562235235,632.704947607421,792.450942956807,NaN,NaN,0,0,4,0,0,NaN,vertical,horizontal,vertical,horizontal,vertical,none
1d,22,100246,1,6,6,18,O,NA,constant,homogeneous,5,present,NaN,0,vertical,none,0,1.09411393078891,red,2,1,1046.31108570371,665.998856501143,813.345668841951,854.650531362416,813.345668841951,854.650531362416,1046.31108570371,665.998856501143,938.882953928832,386.139005173917,639.523300282292,401.827779828472,561.936991243214,691.383827134052,NaN,NaN,0,4,0,0,0,NaN,horizontal,vertical,horizontal,vertical,horizontal,none
1d,22,100246,1,7,7,18,O,NA,constant,homogeneous,4,absent,0.797391891479492,1,horizontal,horizontal,1,0.788233878395774,red,3,NaN,751.343706178981,349.685068220846,NaN,NaN,848.656293821019,850.314931779154,1050.31493177915,551.343706178981,751.343706178981,349.685068220846,549.685068220846,648.656293821019,NaN,NaN,NaN,NaN,0,0,4,0,NaN,NaN,horizontal,horizontal,horizontal,vertical,none,none
1d,22,100246,1,8,8,18,O,NA,constant,homogeneous,6,present,1.07841515541077,1,horizontal,horizontal,1,0.847056965394454,red,3,6,1047.42541020038,538.309916622085,552.574589799621,661.690083377915,729.712474266665,845.121732464271,977.137884467044,783.431649086356,1047.42541020038,538.309916622085,870.287525733335,354.878267535729,622.862115532956,416.568350913644,552.574589799621,661.690083377915,0,0,4,0,0,0,horizontal,vertical,horizontal,horizontal,horizontal,vertical
1d,22,100246,1,9,9,18,O,NA,constant,homogeneous,6,present,0.931564092636108,1,vertical,vertical,1,0.776469260996038,red,5,2,546.900731331463,568.923317431687,1053.09926866854,631.076682568313,899.636437764765,834.728737630372,1053.09926866854,631.076682568313,953.462830903772,396.34794493794,700.363562235235,365.271262369628,546.900731331463,568.923317431687,646.537169096228,803.65205506206,0,0,0,0,4,0,horizontal,horizontal,vertical,vertical,vertical,vertical
1d,22,100246,1,10,10,18,O,NA,constant,homogeneous,3,absent,0.842834949493408,1,horizontal,horizontal,1,0.811763113195246,red,3,NaN,554.878267535729,529.712474266665,NaN,NaN,861.690083377915,847.425410200379,983.431649086356,422.862115532956,554.878267535729,529.712474266665,NaN,NaN,NaN,NaN,NaN,NaN,0,0,4,NaN,NaN,NaN,vertical,horizontal,horizontal,none,none,none
1d,22,100246,1,11,11,18,O,NA,constant,homogeneous,4,present,0.964165925979614,1,horizontal,horizontal,1,1.02352622639049,red,2,3,1003.65205506206,753.462830903772,953.462830903772,396.34794493794,646.537169096228,803.65205506206,1003.65205506206,753.462830903772,953.462830903772,396.34794493794,596.34794493794,446.537169096228,NaN,NaN,NaN,NaN,0,4,0,0,NaN,NaN,vertical,horizontal,vertical,horizontal,none,none
1d,22,100246,1,12,12,18,O,NA,constant,homogeneous,4,present,0.803144931793213,1,horizontal,horizontal,1,0.976467756791548,red,4,2,607.549057043193,767.295052392579,992.450942956807,432.704947607421,967.295052392579,792.450942956807,992.450942956807,432.704947607421,632.704947607421,407.549057043193,607.549057043193,767.295052392579,NaN,NaN,NaN,NaN,0,0,0,4,NaN,NaN,vertical,horizontal,vertical,horizontal,none,none
1d,22,100246,1,13,13,18,O,NA,constant,homogeneous,3,absent,1.01315093040466,1,vertical,vertical,1,0.882350817593661,red,2,NaN,980.31222920257,419.68777079743,NaN,NaN,865.998856501143,846.311085703712,980.31222920257,419.68777079743,553.688914296288,534.001143498857,NaN,NaN,NaN,NaN,NaN,NaN,0,4,0,NaN,NaN,NaN,vertical,vertical,horizontal,none,none,none
1d,22,100246,1,14,14,18,O,NA,constant,homogeneous,5,absent,0.778671026229858,1,horizontal,horizontal,1,1.0588200785897,red,3,NaN,804.450363641507,345.03883773512,NaN,NaN,946.261991269517,808.883771293693,1043.85771277057,525.445215295702,804.450363641507,345.03883773512,558.892763222174,516.980120613425,646.537169096228,803.65205506206,NaN,NaN,0,0,4,0,0,NaN,vertical,horizontal,horizontal,horizontal,vertical,none
1d,22,100246,1,15,15,18,O,NA,constant,homogeneous,5,absent,0.862611055374146,1,horizontal,horizontal,1,0.79999849579551,red,4,NaN,688.215357568785,370.807518193712,NaN,NaN,755.719714694933,851.125977018113,1025.15163617903,719.715248510402,983.431649086356,422.862115532956,688.215357568785,370.807518193712,547.481642470899,635.489140744817,NaN,NaN,0,0,0,4,0,NaN,horizontal,horizontal,horizontal,horizontal,vertical,none
1d,22,100246,1,16,16,18,O,NA,constant,homogeneous,4,present,0.932950019836426,1,vertical,vertical,1,1.03529084379023,red,4,1,549.685068220846,551.343706178981,751.343706178981,850.314931779154,751.343706178981,850.314931779154,1050.31493177915,648.656293821019,848.656293821019,349.685068220846,549.685068220846,551.343706178981,NaN,NaN,NaN,NaN,0,0,0,4,NaN,NaN,horizontal,vertical,vertical,vertical,none,none
1d,22,100246,1,17,17,18,O,NA,constant,homogeneous,5,absent,0.987404108047485,0,vertical,horizontal,1,0.988232374191284,red,2,NaN,1054.0296480134,622.224714400653,NaN,NaN,857.362518857686,848.464366520235,1054.0296480134,622.224714400653,899.636437764765,365.271262369628,607.549057043193,432.704947607421,581.422338320961,731.334709102064,NaN,NaN,0,4,0,0,0,NaN,vertical,vertical,vertical,vertical,horizontal,none
1d,22,100246,1,18,18,18,O,NA,constant,homogeneous,5,absent,0.962870121002197,0,vertical,horizontal,1,0.976467756791548,red,3,NaN,1025.15163617903,480.284751489598,NaN,NaN,688.215357568785,829.192481806288,983.431649086356,777.137884467044,1025.15163617903,480.284751489598,755.719714694933,348.874022981887,547.481642470899,564.510859255183,NaN,NaN,0,0,4,0,0,NaN,horizontal,horizontal,vertical,horizontal,vertical,none
1d,22,100246,1,19,19,18,O,NA,constant,homogeneous,4,present,0.820319175720215,0,horizontal,vertical,1,0.705881556597623,red,1,4,742.637481142314,848.464366520235,551.535633479765,542.637481142314,742.637481142314,848.464366520235,1048.46436652023,657.362518857686,857.362518857686,351.535633479765,551.535633479765,542.637481142314,NaN,NaN,NaN,NaN,4,0,0,0,NaN,NaN,horizontal,vertical,horizontal,horizontal,none,none
1d,22,100246,1,20,20,18,O,NA,constant,homogeneous,6,present,NaN,0,vertical,none,0,0.79999849579551,red,2,3,1018.57766167904,731.334709102064,1023.02802532055,476.373546837184,795.549636358493,854.96116226488,1018.57766167904,731.334709102064,1023.02802532055,476.373546837184,804.450363641507,345.03883773512,581.422338320961,468.665290897936,576.971974679454,723.626453162816,0,4,0,0,0,0,vertical,vertical,horizontal,horizontal,horizontal,vertical
1d,22,100246,1,21,21,18,O,NA,constant,homogeneous,6,absent,0.901460886001587,1,horizontal,horizontal,1,0.811763113195246,red,3,NaN,956.993676208043,399.057257830286,NaN,NaN,895.524681321058,836.431882914531,1052.5183575291,635.489140744817,956.993676208043,399.057257830286,704.475318678942,363.568117085469,547.481642470899,564.510859255183,643.006323791957,800.942742169714,0,0,4,0,0,0,vertical,horizontal,horizontal,vertical,vertical,vertical
1d,22,100246,1,22,22,18,O,NA,constant,homogeneous,5,absent,1.33955001831055,1,vertical,vertical,1,0.99999699159102,red,1,NaN,883.019879386575,841.107236777826,NaN,NaN,883.019879386575,841.107236777826,1054.96116226488,595.549636358493,874.554784704298,356.142287229426,591.116228706307,453.738008730483,596.34794493794,753.462830903772,NaN,NaN,4,0,0,0,0,NaN,vertical,horizontal,vertical,vertical,horizontal,none
1d,22,100246,1,23,23,18,O,NA,constant,homogeneous,5,present,0.718181133270264,1,horizontal,horizontal,1,0.976467756791548,red,4,3,764.510859255183,347.4816424709,1029.19248180629,488.215357568785,680.284751489598,825.151636179026,977.137884467044,783.431649086356,1029.19248180629,488.215357568785,764.510859255183,347.4816424709,548.874022981887,555.719714694933,NaN,NaN,0,0,0,4,0,NaN,vertical,vertical,vertical,horizontal,vertical,none
1d,22,100246,1,24,24,18,O,NA,constant,homogeneous,6,absent,1.06832194328308,1,vertical,vertical,1,0.79999849579551,red,1,NaN,782.212099195248,854.378832816255,NaN,NaN,782.212099195248,854.378832816255,1011.40458100154,742.594190385041,1029.19248180629,488.215357568785,817.787900804752,345.621167183745,588.595418998464,457.40580961496,570.807518193712,711.784642431215,4,0,0,0,0,0,vertical,vertical,horizontal,horizontal,vertical,horizontal
1d,22,100246,1,25,25,18,O,NA,constant,homogeneous,6,absent,0.890524864196777,1,horizontal,horizontal,1,0.635293852199208,red,1,NaN,831.076682568313,853.099268668537,NaN,NaN,831.076682568313,853.099268668537,1034.72873763037,699.636437764765,1003.65205506206,446.537169096228,768.923317431687,346.900731331463,565.271262369628,500.363562235235,596.34794493794,753.462830903772,4,0,0,0,0,0,horizontal,horizontal,horizontal,vertical,vertical,vertical
1d,22,100246,1,26,26,18,O,NA,constant,homogeneous,3,absent,1.04092597961426,0,horizontal,vertical,1,0.611764617399736,red,2,NaN,1050.31493177915,648.656293821019,NaN,NaN,632.704947607421,792.450942956807,1050.31493177915,648.656293821019,716.980120613425,358.892763222174,NaN,NaN,NaN,NaN,NaN,NaN,0,4,0,NaN,NaN,NaN,vertical,horizontal,horizontal,none,none,none
1d,22,100246,1,27,27,18,O,NA,constant,homogeneous,3,present,1.12778401374817,1,vertical,vertical,1,0.705881556597623,red,2,3,844.280285305067,348.874022981887,560.378381699593,687.215136548046,995.341332995339,763.910840470068,844.280285305067,348.874022981887,560.378381699593,687.215136548046,NaN,NaN,NaN,NaN,NaN,NaN,0,4,0,NaN,NaN,NaN,horizontal,vertical,horizontal,none,none,none
1d,22,100246,1,28,28,18,O,NA,constant,homogeneous,6,absent,0.815041065216064,1,horizontal,horizontal,1,0.823527730594982,red,5,NaN,672.5,379.163522034968,NaN,NaN,672.5,820.836477965032,927.5,820.836477965032,1055,600,927.5,379.163522034968,672.5,379.163522034968,545,600,0,0,0,0,4,0,vertical,vertical,horizontal,vertical,horizontal,vertical
1d,22,100246,1,29,29,18,O,NA,constant,homogeneous,3,present,0.84470796585083,1,horizontal,horizontal,1,1.0588200785897,red,3,2,643.006323791957,399.057257830286,1052.5183575291,564.510859255183,704.475318678942,836.431882914531,1052.5183575291,564.510859255183,643.006323791957,399.057257830286,NaN,NaN,NaN,NaN,NaN,NaN,0,0,4,NaN,NaN,NaN,vertical,vertical,horizontal,none,none,none
1d,22,100246,1,30,30,18,O,NA,constant,homogeneous,4,absent,0.866031169891357,1,vertical,vertical,1,0.611764617399736,red,2,NaN,1006.29933356561,450.114760665419,NaN,NaN,949.885239334581,806.299333565612,1006.29933356561,450.114760665419,650.114760665419,393.700666434388,593.700666434388,749.885239334581,NaN,NaN,NaN,NaN,0,4,0,0,NaN,NaN,vertical,vertical,vertical,horizontal,none,none
1d,22,100246,1,31,31,18,O,NA,constant,homogeneous,6,present,0.911334037780762,1,horizontal,horizontal,1,0.788233878395774,red,1,6,738.309916622085,847.425410200379,554.878267535729,670.287525733335,738.309916622085,847.425410200379,983.431649086356,777.137884467044,1045.12173246427,529.712474266665,861.690083377915,352.574589799621,616.568350913644,422.862115532956,554.878267535729,670.287525733335,4,0,0,0,0,0,horizontal,vertical,vertical,vertical,horizontal,vertical
1d,22,100246,1,32,32,18,O,NA,constant,homogeneous,4,absent,0.687734842300415,1,horizontal,horizontal,1,0.705881556597623,red,3,NaN,692.232343256122,368.891514305654,NaN,NaN,907.767656743878,831.108485694346,1031.10848569435,492.232343256122,692.232343256122,368.891514305654,568.891514305654,707.767656743878,NaN,NaN,NaN,NaN,0,0,4,0,NaN,NaN,horizontal,vertical,horizontal,vertical,none,none
1d,22,100246,1,33,33,18,O,NA,constant,homogeneous,4,absent,0.798629999160767,1,vertical,vertical,1,1.0588200785897,red,3,NaN,786.654331158049,345.349468637584,NaN,NaN,813.345668841951,854.650531362416,1054.65053136242,586.654331158049,786.654331158049,345.349468637584,545.349468637584,613.345668841951,NaN,NaN,NaN,NaN,0,0,4,0,NaN,NaN,horizontal,vertical,vertical,vertical,none,none
1d,22,100246,1,34,34,18,O,NA,constant,homogeneous,4,absent,0.756431102752686,1,horizontal,horizontal,1,0.870586200193925,red,4,NaN,607.549057043193,767.295052392579,NaN,NaN,967.295052392579,792.450942956807,992.450942956807,432.704947607421,632.704947607421,407.549057043193,607.549057043193,767.295052392579,NaN,NaN,NaN,NaN,0,0,0,4,NaN,NaN,vertical,vertical,vertical,horizontal,none,none
1d,22,100246,1,35,35,18,O,NA,constant,homogeneous,5,absent,0.990283966064453,1,horizontal,horizontal,1,0.729410791397095,red,2,NaN,986.495193912888,773.909581815937,NaN,NaN,692.232343256122,831.108485694346,986.495193912888,773.909581815937,1023.02802532055,476.373546837184,751.343706178981,349.685068220846,546.900731331463,568.923317431687,NaN,NaN,0,4,0,0,0,NaN,horizontal,horizontal,horizontal,vertical,vertical,none
1d,22,100246,1,36,36,18,O,NA,constant,homogeneous,3,absent,0.825178861618042,1,vertical,vertical,1,0.941173904592341,red,3,NaN,545.03883773512,595.549636358493,NaN,NaN,923.626453162816,823.028025320546,931.334709102064,381.422338320961,545.03883773512,595.549636358493,NaN,NaN,NaN,NaN,NaN,NaN,0,0,4,NaN,NaN,NaN,vertical,vertical,vertical,none,none,none
1d,22,100246,1,37,37,18,O,NA,constant,homogeneous,3,present,0.753850936889648,1,vertical,vertical,1,0.988232374191284,red,3,2,554.878267535729,529.712474266665,983.431649086356,422.862115532956,861.690083377915,847.425410200379,983.431649086356,422.862115532956,554.878267535729,529.712474266665,NaN,NaN,NaN,NaN,NaN,NaN,0,0,4,NaN,NaN,NaN,horizontal,vertical,vertical,none,none,none
1d,22,100246,1,38,38,18,O,NA,constant,homogeneous,3,absent,0.769227981567383,1,vertical,vertical,1,0.811763113195246,red,1,NaN,680.284751489598,825.151636179026,NaN,NaN,680.284751489598,825.151636179026,1054.84466088987,591.100628340862,664.870587620533,383.747735480111,NaN,NaN,NaN,NaN,NaN,NaN,4,0,0,NaN,NaN,NaN,vertical,horizontal,vertical,none,none,none
1d,22,100246,1,39,39,18,O,NA,constant,homogeneous,3,present,0.890975952148438,1,horizontal,horizontal,1,0.917644669792869,red,2,3,1027.20666366803,484.232422566416,586.139005173917,461.117046071168,786.654331158049,854.650531362416,1027.20666366803,484.232422566416,586.139005173917,461.117046071168,NaN,NaN,NaN,NaN,NaN,NaN,0,4,0,NaN,NaN,NaN,horizontal,horizontal,vertical,none,none,none
1d,22,100246,1,40,40,18,O,NA,constant,homogeneous,6,absent,0.927000045776367,1,vertical,vertical,1,0.894115434993397,red,5,NaN,643.006323791957,399.057257830286,NaN,NaN,704.475318678942,836.431882914531,956.993676208043,800.942742169714,1052.5183575291,564.510859255183,895.524681321058,363.568117085469,643.006323791957,399.057257830286,547.481642470899,635.489140744817,0,0,0,0,4,0,horizontal,vertical,vertical,vertical,vertical,horizontal
1d,22,100246,1,41,41,18,O,NA,constant,homogeneous,6,absent,0.851168155670166,1,horizontal,horizontal,1,1.08234931338917,red,1,NaN,764.510859255183,852.518357529101,NaN,NaN,764.510859255183,852.518357529101,1000.94274216971,756.993676208043,1036.43188291453,504.475318678942,835.489140744817,347.4816424709,599.057257830286,443.006323791957,563.568117085469,695.524681321058,4,0,0,0,0,0,horizontal,vertical,vertical,horizontal,horizontal,horizontal
1d,22,100246,1,42,42,18,O,NA,constant,homogeneous,6,present,0.880899906158447,1,vertical,vertical,1,0.623529234799472,red,2,5,1050.31493177915,648.656293821019,549.685068220846,551.343706178981,883.019879386575,841.107236777826,1050.31493177915,648.656293821019,967.295052392579,407.549057043193,716.980120613425,358.892763222174,549.685068220846,551.343706178981,632.704947607421,792.450942956807,0,4,0,0,0,0,vertical,vertical,vertical,horizontal,horizontal,horizontal
1d,22,100246,1,43,43,18,O,NA,constant,homogeneous,4,absent,0.743288993835449,1,vertical,vertical,1,0.835292347994718,red,3,NaN,708.616172865948,361.936991243214,NaN,NaN,891.383827134052,838.063008756786,1038.06300875679,508.616172865948,708.616172865948,361.936991243214,561.936991243214,691.383827134052,NaN,NaN,NaN,NaN,0,0,4,0,NaN,NaN,horizontal,horizontal,vertical,vertical,none,none
1d,22,100246,1,44,44,18,O,NA,constant,homogeneous,5,present,0.994696855545044,1,horizontal,horizontal,1,1.01176160899076,red,2,4,1036.43188291453,695.524681321058,664.870587620533,383.747735480111,782.212099195248,854.378832816255,1036.43188291453,695.524681321058,963.910840470068,404.658667004661,664.870587620533,383.747735480111,552.574589799621,661.690083377915,NaN,NaN,0,4,0,0,0,NaN,horizontal,horizontal,vertical,horizontal,vertical,none
1d,22,100246,1,45,45,18,O,NA,constant,homogeneous,3,absent,1.65363597869873,1,vertical,vertical,1,0.941173904592341,red,1,NaN,782.212099195248,854.378832816255,NaN,NaN,782.212099195248,854.378832816255,1029.19248180629,488.215357568785,588.595418998464,457.40580961496,NaN,NaN,NaN,NaN,NaN,NaN,4,0,0,NaN,NaN,NaN,vertical,horizontal,vertical,none,none,none
1d,22,100246,1,46,46,18,O,NA,constant,homogeneous,3,absent,1.03496885299683,1,horizontal,horizontal,1,0.6,red,3,NaN,657.405809614959,388.595418998464,NaN,NaN,688.215357568785,829.192481806288,1054.37883281626,582.212099195248,657.405809614959,388.595418998464,NaN,NaN,NaN,NaN,NaN,NaN,0,0,4,NaN,NaN,NaN,vertical,vertical,horizontal,none,none,none
1d,22,100246,1,47,47,18,O,NA,constant,homogeneous,5,present,1.27597999572754,1,vertical,vertical,1,0.79999849579551,red,1,5,729.712474266665,845.121732464271,545.155339110131,608.899371659138,729.712474266665,845.121732464271,1011.40458100154,742.594190385041,1000.94274216971,443.006323791957,712.784863451954,360.378381699593,545.155339110131,608.899371659138,NaN,NaN,4,0,0,0,0,NaN,vertical,vertical,vertical,vertical,horizontal,none
1d,22,100246,1,48,48,18,O,NA,constant,homogeneous,6,absent,0.653255939483643,1,vertical,vertical,1,0.988232374191284,red,4,NaN,782.212099195248,345.621167183745,NaN,NaN,817.787900804752,854.378832816255,1029.19248180629,711.784642431215,1011.40458100154,457.40580961496,782.212099195248,345.621167183745,570.807518193712,488.215357568785,588.595418998464,742.594190385041,0,0,0,4,0,0,horizontal,vertical,vertical,vertical,horizontal,vertical
1d,22,100246,1,49,49,18,O,NA,constant,homogeneous,5,absent,0.793600797653198,1,vertical,vertical,1,0.952938521992077,red,1,NaN,773.345241866748,853.60308331891,NaN,NaN,773.345241866748,853.60308331891,1032.95409169886,703.717843984329,970.628304621509,410.498069503264,672.5,379.163522034968,550.57236181288,653.017481158529,NaN,NaN,4,0,0,0,0,NaN,vertical,horizontal,vertical,vertical,horizontal,none
1d,22,100246,1,50,50,18,O,NA,constant,homogeneous,3,present,0.735719919204712,1,vertical,vertical,1,0.905880052393133,red,1,2,680.284751489598,825.151636179026,1054.84466088987,591.100628340862,680.284751489598,825.151636179026,1054.84466088987,591.100628340862,664.870587620533,383.747735480111,NaN,NaN,NaN,NaN,NaN,NaN,4,0,0,NaN,NaN,NaN,vertical,horizontal,horizontal,none,none,none
1d,22,100246,1,51,51,18,O,NA,constant,homogeneous,5,present,1.43500208854675,1,vertical,vertical,1,0.623529234799472,red,1,5,839.890788585259,851.86052685176,572.793336331966,715.767577433584,839.890788585259,851.86052685176,1051.86052685176,639.890788585259,915.767577433584,372.793336331966,619.68777079743,419.68777079743,572.793336331966,715.767577433584,NaN,NaN,4,0,0,0,0,NaN,vertical,vertical,horizontal,vertical,horizontal,none
1d,22,100246,1,52,52,18,O,NA,constant,homogeneous,4,present,1.1037700176239,1,vertical,vertical,1,0.988232374191284,red,4,1,545.155339110131,591.100628340862,791.100628340862,854.844660889869,791.100628340862,854.844660889869,1054.84466088987,608.899371659138,808.899371659138,345.155339110131,545.155339110131,591.100628340862,NaN,NaN,NaN,NaN,0,0,0,4,NaN,NaN,vertical,vertical,horizontal,vertical,none,none
1d,22,100246,1,53,53,18,O,NA,constant,homogeneous,6,present,0.919310808181763,1,horizontal,horizontal,1,1.07058469598944,red,4,6,804.450363641507,345.03883773512,576.971974679454,723.626453162816,795.549636358493,854.96116226488,1018.57766167904,731.334709102064,1023.02802532055,476.373546837184,804.450363641507,345.03883773512,581.422338320961,468.665290897936,576.971974679454,723.626453162816,0,0,0,4,0,0,horizontal,horizontal,vertical,horizontal,horizontal,horizontal
1d,22,100246,1,54,54,18,O,NA,constant,homogeneous,5,present,0.998448133468628,1,horizontal,horizontal,1,1.02352622639049,red,2,5,970.628304621509,789.501930496736,550.57236181288,546.982518841471,672.5,820.836477965032,970.628304621509,789.501930496736,1032.95409169886,496.282156015671,773.345241866748,346.39691668109,550.57236181288,546.982518841471,NaN,NaN,0,4,0,0,0,NaN,horizontal,horizontal,horizontal,horizontal,horizontal,none
1d,22,100246,1,55,55,18,O,NA,constant,homogeneous,4,absent,0.769340991973877,1,vertical,vertical,1,0.741175408796831,red,2,NaN,1011.40458100154,457.40580961496,NaN,NaN,942.594190385041,811.404581001536,1011.40458100154,457.40580961496,657.405809614959,388.595418998464,588.595418998464,742.594190385041,NaN,NaN,NaN,NaN,0,4,0,0,NaN,NaN,horizontal,vertical,horizontal,vertical,none,none
1d,22,100246,1,56,56,18,O,NA,constant,homogeneous,5,present,1.21606802940369,1,horizontal,horizontal,1,0.952938521992077,red,4,5,672.5,379.163522034968,550.57236181288,653.017481158529,773.345241866748,853.60308331891,1032.95409169886,703.717843984329,970.628304621509,410.498069503264,672.5,379.163522034968,550.57236181288,653.017481158529,NaN,NaN,0,0,0,4,0,NaN,horizontal,horizontal,horizontal,horizontal,horizontal,none
1d,22,100246,1,57,57,18,O,NA,constant,homogeneous,6,present,0.986301898956299,1,vertical,vertical,1,1.09411393078891,red,2,6,1046.31108570371,665.998856501143,619.68777079743,780.31222920257,865.998856501143,846.311085703712,1046.31108570371,665.998856501143,980.31222920257,419.68777079743,734.001143498857,353.688914296288,553.688914296288,534.001143498857,619.68777079743,780.31222920257,0,4,0,0,0,0,vertical,vertical,horizontal,vertical,horizontal,vertical
1d,22,100246,1,58,58,18,O,NA,constant,homogeneous,6,absent,1.00745987892151,1,vertical,vertical,1,0.670587704398415,red,4,NaN,835.489140744817,347.4816424709,NaN,NaN,764.510859255183,852.518357529101,1000.94274216971,756.993676208043,1036.43188291453,504.475318678942,835.489140744817,347.4816424709,599.057257830286,443.006323791957,563.568117085469,695.524681321058,0,0,0,4,0,0,horizontal,horizontal,vertical,vertical,horizontal,vertical
1d,22,100246,1,59,59,18,O,NA,constant,homogeneous,6,present,0.852699041366577,1,horizontal,horizontal,1,0.847056965394454,red,3,6,1032.95409169886,496.282156015671,567.045908301137,703.717843984329,773.345241866748,853.60308331891,1006.29933356561,749.885239334581,1032.95409169886,496.282156015671,826.654758133252,346.39691668109,593.700666434388,450.114760665419,567.045908301137,703.717843984329,0,0,4,0,0,0,horizontal,horizontal,horizontal,horizontal,horizontal,horizontal
1d,22,100246,1,60,60,18,O,NA,constant,homogeneous,3,present,0.744050025939941,1,horizontal,horizontal,1,0.882350817593661,red,3,2,704.475318678942,363.568117085469,1052.5183575291,635.489140744817,643.006323791957,800.942742169714,1052.5183575291,635.489140744817,704.475318678942,363.568117085469,NaN,NaN,NaN,NaN,NaN,NaN,0,0,4,NaN,NaN,NaN,vertical,horizontal,horizontal,none,none,none
1d,22,100246,1,61,61,18,O,NA,constant,homogeneous,5,absent,0.896188020706177,1,horizontal,horizontal,1,0.670587704398415,red,4,NaN,572.793336331966,484.232422566416,NaN,NaN,915.767577433584,827.206663668034,1051.86052685176,560.109211414741,839.890788585259,348.13947314824,572.793336331966,484.232422566416,619.68777079743,780.31222920257,NaN,NaN,0,0,0,4,0,NaN,horizontal,vertical,vertical,horizontal,horizontal,none
1d,22,100246,1,62,62,18,O,NA,constant,homogeneous,3,absent,0.650893926620483,1,horizontal,horizontal,1,1.03529084379023,red,3,NaN,712.784863451954,360.378381699593,NaN,NaN,636.089159529932,795.341332995339,1051.12597701811,644.280285305067,712.784863451954,360.378381699593,NaN,NaN,NaN,NaN,NaN,NaN,0,0,4,NaN,NaN,NaN,horizontal,vertical,horizontal,none,none,none
1d,22,100246,1,63,63,18,O,NA,constant,homogeneous,4,present,0.840626955032349,1,vertical,vertical,1,0.623529234799472,red,3,2,973.909581815937,413.504806087112,986.495193912888,773.909581815937,626.090418184063,786.495193912888,986.495193912888,773.909581815937,973.909581815937,413.504806087112,613.504806087112,426.090418184063,NaN,NaN,NaN,NaN,0,0,4,0,NaN,NaN,vertical,vertical,vertical,vertical,none,none
1d,22,100246,1,64,64,18,O,NA,constant,homogeneous,3,present,0.651939153671265,1,vertical,vertical,1,0.717646173997359,red,3,2,570.807518193712,488.215357568785,1011.40458100154,457.40580961496,817.787900804752,854.378832816255,1011.40458100154,457.40580961496,570.807518193712,488.215357568785,NaN,NaN,NaN,NaN,NaN,NaN,0,0,4,NaN,NaN,NaN,horizontal,horizontal,vertical,none,none,none
1d,22,100246,2,1,65,18,O,NA,constant,homogeneous,6,absent,1.12973093986511,1,horizontal,horizontal,1,0.729410791397095,red,6,NaN,604.658667004661,763.910840470068,NaN,NaN,844.280285305067,851.125977018113,1039.62161830041,687.215136548046,995.341332995339,436.089159529932,755.719714694933,348.874022981887,560.378381699593,512.784863451954,604.658667004661,763.910840470068,0,0,0,0,0,4,horizontal,vertical,horizontal,vertical,horizontal,horizontal
1d,22,100246,2,2,66,18,O,NA,constant,homogeneous,5,absent,0.87842583656311,1,horizontal,horizontal,1,0.694116939197887,red,2,NaN,998.172220171528,760.476699717708,NaN,NaN,708.616172865948,838.063008756786,998.172220171528,760.476699717708,1013.86099482608,461.117046071168,734.001143498857,353.688914296288,545.349468637584,586.654331158049,NaN,NaN,0,4,0,0,0,NaN,horizontal,horizontal,horizontal,horizontal,vertical,none
1d,22,100246,2,3,67,18,O,NA,constant,homogeneous,3,absent,0.716640949249268,1,vertical,vertical,1,0.623529234799472,red,2,NaN,1008.88377129369,453.738008730483,NaN,NaN,822.224714400653,854.029648013395,1008.88377129369,453.738008730483,568.891514305654,492.232343256122,NaN,NaN,NaN,NaN,NaN,NaN,0,4,0,NaN,NaN,NaN,vertical,vertical,vertical,none,none,none
1d,22,100246,2,4,68,18,O,NA,constant,homogeneous,5,present,0.811594009399414,1,vertical,vertical,1,0.623529234799472,red,5,1,583.747735480111,735.129412379467,861.690083377915,847.425410200379,861.690083377915,847.425410200379,1054.37883281626,617.787900804752,895.524681321058,363.568117085469,604.658667004661,436.089159529932,583.747735480111,735.129412379467,NaN,NaN,0,0,0,0,4,NaN,vertical,horizontal,horizontal,vertical,vertical,none
1d,22,100246,2,5,69,18,O,NA,constant,homogeneous,3,absent,0.735690832138062,1,horizontal,horizontal,1,0.988232374191284,red,2,NaN,995.341332995339,436.089159529932,NaN,NaN,844.280285305067,851.125977018113,995.341332995339,436.089159529932,560.378381699593,512.784863451954,NaN,NaN,NaN,NaN,NaN,NaN,0,4,0,NaN,NaN,NaN,vertical,horizontal,vertical,none,none,none
1d,22,100246,2,6,70,18,O,NA,constant,homogeneous,6,present,1.07384896278381,1,horizontal,horizontal,1,0.752940026196566,red,2,1,963.910840470068,795.341332995339,712.784863451954,839.621618300407,712.784863451954,839.621618300407,963.910840470068,795.341332995339,1051.12597701811,555.719714694933,887.215136548046,360.378381699593,636.089159529932,404.658667004661,548.874022981887,644.280285305067,0,4,0,0,0,0,vertical,horizontal,vertical,vertical,horizontal,vertical
1d,22,100246,2,7,71,18,O,NA,constant,homogeneous,5,absent,0.881244897842407,1,vertical,vertical,1,0.694116939197887,red,5,NaN,613.504806087112,773.909581815937,NaN,NaN,907.767656743878,831.108485694346,1053.09926866854,568.923317431687,848.656293821019,349.685068220846,576.971974679454,476.373546837184,613.504806087112,773.909581815937,NaN,NaN,0,0,0,0,4,NaN,horizontal,horizontal,vertical,vertical,vertical,none
1d,22,100246,2,8,72,18,O,NA,constant,homogeneous,3,absent,1.01524209976196,1,horizontal,horizontal,1,1.01176160899076,red,1,NaN,977.137884467044,783.431649086356,NaN,NaN,977.137884467044,783.431649086356,870.287525733335,354.878267535729,552.574589799621,661.690083377915,NaN,NaN,NaN,NaN,NaN,NaN,4,0,0,NaN,NaN,NaN,horizontal,horizontal,horizontal,none,none,none
1d,22,100246,2,9,73,18,O,NA,constant,homogeneous,4,absent,0.654577970504761,1,vertical,vertical,1,0.929409287192605,red,4,NaN,545.349468637584,586.654331158049,NaN,NaN,786.654331158049,854.650531362416,1054.65053136242,613.345668841951,813.345668841951,345.349468637584,545.349468637584,586.654331158049,NaN,NaN,NaN,NaN,0,0,0,4,NaN,NaN,vertical,vertical,horizontal,vertical,none,none
1d,22,100246,2,10,74,18,O,NA,constant,homogeneous,3,present,0.707880020141602,1,vertical,vertical,1,0.823527730594982,red,1,3,986.495193912888,773.909581815937,556.142287229426,674.554784704298,986.495193912888,773.909581815937,857.362518857686,351.535633479765,556.142287229426,674.554784704298,NaN,NaN,NaN,NaN,NaN,NaN,4,0,0,NaN,NaN,NaN,vertical,vertical,vertical,none,none,none
1d,22,100246,2,11,75,18,O,NA,constant,homogeneous,6,absent,0.920041084289551,0,vertical,horizontal,1,1.07058469598944,red,1,NaN,874.554784704298,843.857712770574,NaN,NaN,874.554784704298,843.857712770574,1048.46436652023,657.362518857686,973.909581815937,413.504806087112,725.445215295702,356.142287229426,551.535633479765,542.637481142314,626.090418184063,786.495193912888,4,0,0,0,0,0,vertical,horizontal,vertical,vertical,horizontal,horizontal
1d,22,100246,2,12,76,18,O,NA,constant,homogeneous,4,absent,1.8608021736145,1,vertical,vertical,1,0.705881556597623,red,1,NaN,664.870587620533,816.252264519889,NaN,NaN,664.870587620533,816.252264519889,1016.25226451989,735.129412379467,935.129412379467,383.747735480111,583.747735480111,464.870587620533,NaN,NaN,NaN,NaN,4,0,0,0,NaN,NaN,vertical,horizontal,vertical,vertical,none,none
1d,22,100246,2,13,77,18,O,NA,constant,homogeneous,6,present,0.790188074111938,1,horizontal,horizontal,1,0.79999849579551,red,2,6,1052.5183575291,635.489140744817,643.006323791957,800.942742169714,895.524681321058,836.431882914531,1052.5183575291,635.489140744817,956.993676208043,399.057257830286,704.475318678942,363.568117085469,547.481642470899,564.510859255183,643.006323791957,800.942742169714,0,4,0,0,0,0,vertical,horizontal,vertical,vertical,vertical,vertical
1d,22,100246,2,14,78,18,O,NA,constant,homogeneous,5,present,1.27923488616943,1,vertical,vertical,1,0.847056965394454,red,2,1,963.910840470068,795.341332995339,664.870587620533,816.252264519889,664.870587620533,816.252264519889,963.910840470068,795.341332995339,1036.43188291453,504.475318678942,782.212099195248,345.621167183745,552.574589799621,538.309916622085,NaN,NaN,0,4,0,0,0,NaN,horizontal,vertical,vertical,horizontal,vertical,none
1d,22,100246,2,15,79,18,O,NA,constant,homogeneous,3,present,1.06800699234009,1,horizontal,horizontal,1,0.952938521992077,red,1,3,708.616172865948,838.063008756786,639.523300282292,401.827779828472,708.616172865948,838.063008756786,1051.86052685176,560.109211414741,639.523300282292,401.827779828472,NaN,NaN,NaN,NaN,NaN,NaN,4,0,0,NaN,NaN,NaN,horizontal,horizontal,horizontal,none,none,none
1d,22,100246,2,16,80,18,O,NA,constant,homogeneous,6,absent,0.877417087554932,1,horizontal,horizontal,1,0.79999849579551,red,2,NaN,1054.37883281626,617.787900804752,NaN,NaN,911.784642431215,829.192481806288,1054.37883281626,617.787900804752,942.594190385041,388.595418998464,688.215357568785,370.807518193712,545.621167183745,582.212099195248,657.405809614959,811.404581001536,0,4,0,0,0,0,horizontal,horizontal,horizontal,vertical,vertical,vertical
1d,22,100246,2,17,81,18,O,NA,constant,homogeneous,4,present,0.858132839202881,1,horizontal,horizontal,1,0.752940026196566,red,1,3,716.980120613425,841.107236777826,883.019879386575,358.892763222174,716.980120613425,841.107236777826,1041.10723677783,683.019879386575,883.019879386575,358.892763222174,558.892763222174,516.980120613425,NaN,NaN,NaN,NaN,4,0,0,0,NaN,NaN,horizontal,horizontal,horizontal,vertical,none,none
1d,22,100246,2,18,82,18,O,NA,constant,homogeneous,6,absent,0.886319875717163,1,horizontal,horizontal,1,0.741175408796831,red,3,NaN,1032.95409169886,496.282156015671,NaN,NaN,773.345241866748,853.60308331891,1006.29933356561,749.885239334581,1032.95409169886,496.282156015671,826.654758133252,346.39691668109,593.700666434388,450.114760665419,567.045908301137,703.717843984329,0,0,4,0,0,0,horizontal,horizontal,horizontal,horizontal,horizontal,horizontal
1d,22,100246,2,19,83,18,O,NA,constant,homogeneous,3,present,0.625645875930786,1,horizontal,horizontal,1,1.07058469598944,red,2,3,1054.37883281626,617.787900804752,688.215357568785,370.807518193712,657.405809614959,811.404581001536,1054.37883281626,617.787900804752,688.215357568785,370.807518193712,NaN,NaN,NaN,NaN,NaN,NaN,0,4,0,NaN,NaN,NaN,vertical,horizontal,vertical,none,none,none
1d,22,100246,2,20,84,18,O,NA,constant,homogeneous,3,present,0.764570951461792,1,vertical,vertical,1,0.905880052393133,red,1,3,903.717843984329,832.954091698863,546.39691668109,573.345241866748,903.717843984329,832.954091698863,949.885239334581,393.700666434388,546.39691668109,573.345241866748,NaN,NaN,NaN,NaN,NaN,NaN,4,0,0,NaN,NaN,NaN,vertical,horizontal,vertical,none,none,none
1d,22,100246,2,21,85,18,O,NA,constant,homogeneous,3,present,0.855559110641479,1,vertical,vertical,1,0.764704643596302,red,3,2,545.970351986605,577.775285599347,946.261991269517,391.116228706307,907.767656743878,831.108485694346,946.261991269517,391.116228706307,545.970351986605,577.775285599347,NaN,NaN,NaN,NaN,NaN,NaN,0,0,4,NaN,NaN,NaN,vertical,vertical,vertical,none,none,none
1d,22,100246,2,22,86,18,O,NA,constant,homogeneous,5,present,0.729689836502075,1,vertical,vertical,1,0.658823086998679,red,4,2,661.117046071168,386.139005173917,1038.06300875679,691.383827134052,786.654331158049,854.650531362416,1038.06300875679,691.383827134052,960.476699717708,401.827779828472,661.117046071168,386.139005173917,553.688914296288,665.998856501143,NaN,NaN,0,0,0,4,0,NaN,horizontal,horizontal,vertical,vertical,vertical,none
1d,22,100246,2,23,87,18,O,NA,constant,homogeneous,6,absent,0.841788053512573,1,vertical,vertical,1,0.658823086998679,red,3,NaN,1036.43188291453,504.475318678942,NaN,NaN,764.510859255183,852.518357529101,1000.94274216971,756.993676208043,1036.43188291453,504.475318678942,835.489140744817,347.4816424709,599.057257830286,443.006323791957,563.568117085469,695.524681321058,0,0,4,0,0,0,vertical,horizontal,vertical,vertical,horizontal,horizontal
1d,22,100246,2,24,88,18,O,NA,constant,homogeneous,4,present,0.67849588394165,1,vertical,vertical,1,1.01176160899076,red,2,4,995.341332995339,436.089159529932,604.658667004661,763.910840470068,963.910840470068,795.341332995339,995.341332995339,436.089159529932,636.089159529932,404.658667004661,604.658667004661,763.910840470068,NaN,NaN,NaN,NaN,0,4,0,0,NaN,NaN,horizontal,vertical,vertical,vertical,none,none
1d,22,100246,2,25,89,18,O,NA,constant,homogeneous,6,present,1.18423509597778,0,horizontal,vertical,1,0.764704643596302,red,2,4,1003.65205506206,753.462830903772,831.076682568313,346.900731331463,768.923317431687,853.099268668537,1003.65205506206,753.462830903772,1034.72873763037,500.363562235235,831.076682568313,346.900731331463,596.34794493794,446.537169096228,565.271262369628,699.636437764765,0,4,0,0,0,0,vertical,horizontal,horizontal,horizontal,horizontal,horizontal
1d,22,100246,2,26,90,18,O,NA,constant,homogeneous,3,present,0.807126045227051,1,horizontal,horizontal,1,0.964703139391812,red,2,1,1051.86052685176,639.890788585259,639.523300282292,798.172220171528,639.523300282292,798.172220171528,1051.86052685176,639.890788585259,708.616172865948,361.936991243214,NaN,NaN,NaN,NaN,NaN,NaN,0,4,0,NaN,NaN,NaN,horizontal,horizontal,horizontal,none,none,none
1d,22,100246,2,27,91,18,O,NA,constant,homogeneous,4,present,0.836088180541992,1,vertical,vertical,1,0.823527730594982,red,4,1,549.685068220846,551.343706178981,751.343706178981,850.314931779154,751.343706178981,850.314931779154,1050.31493177915,648.656293821019,848.656293821019,349.685068220846,549.685068220846,551.343706178981,NaN,NaN,NaN,NaN,0,0,0,4,NaN,NaN,vertical,vertical,vertical,vertical,none,none
1d,22,100246,2,28,92,18,O,NA,constant,homogeneous,6,absent,0.831258058547974,1,vertical,vertical,1,0.917644669792869,red,2,NaN,1054.65053136242,613.345668841951,NaN,NaN,915.767577433584,827.206663668034,1054.65053136242,613.345668841951,938.882953928832,386.139005173917,684.232422566416,372.793336331966,545.349468637584,586.654331158049,661.117046071168,813.860994826083,0,4,0,0,0,0,vertical,vertical,horizontal,horizontal,vertical,horizontal
1d,22,100246,2,29,93,18,O,NA,constant,homogeneous,5,absent,0.761502027511597,1,vertical,vertical,1,1.08234931338917,red,5,NaN,551.535633479765,657.362518857686,NaN,NaN,777.775285599347,854.029648013395,1034.72873763037,699.636437764765,967.295052392579,407.549057043193,668.665290897936,381.422338320961,551.535633479765,657.362518857686,NaN,NaN,0,0,0,0,4,NaN,vertical,horizontal,horizontal,vertical,vertical,none
1d,22,100246,2,30,94,18,O,NA,constant,homogeneous,3,absent,1.00285601615906,1,horizontal,horizontal,1,0.905880052393133,red,3,NaN,604.658667004661,436.089159529932,NaN,NaN,755.719714694933,851.125977018113,1039.62161830041,512.784863451954,604.658667004661,436.089159529932,NaN,NaN,NaN,NaN,NaN,NaN,0,0,4,NaN,NaN,NaN,horizontal,horizontal,horizontal,none,none,none
1d,22,100246,2,31,95,18,O,NA,constant,homogeneous,5,absent,0.695940017700195,1,horizontal,horizontal,1,1.02352622639049,red,2,NaN,1050.31493177915,648.656293821019,NaN,NaN,831.076682568313,853.099268668537,1050.31493177915,648.656293821019,923.626453162816,376.971974679454,626.090418184063,413.504806087112,568.891514305654,707.767656743878,NaN,NaN,0,4,0,0,0,NaN,horizontal,horizontal,horizontal,horizontal,horizontal,none
1d,22,100246,2,32,96,18,O,NA,constant,homogeneous,6,present,1.16617012023926,1,horizontal,horizontal,1,0.623529234799472,red,6,5,599.057257830286,756.993676208043,563.568117085469,504.475318678942,835.489140744817,852.518357529101,1036.43188291453,695.524681321058,1000.94274216971,443.006323791957,764.510859255183,347.4816424709,563.568117085469,504.475318678942,599.057257830286,756.993676208043,0,0,0,0,0,4,horizontal,vertical,vertical,horizontal,horizontal,horizontal
1d,22,100246,2,33,97,18,O,NA,constant,homogeneous,4,absent,0.698590040206909,1,horizontal,horizontal,1,0.635293852199208,red,4,NaN,546.900731331463,568.923317431687,NaN,NaN,768.923317431687,853.099268668537,1053.09926866854,631.076682568313,831.076682568313,346.900731331463,546.900731331463,568.923317431687,NaN,NaN,NaN,NaN,0,0,0,4,NaN,NaN,vertical,horizontal,horizontal,horizontal,none,none
1d,22,100246,2,34,98,18,O,NA,constant,homogeneous,6,absent,0.91605019569397,1,horizontal,horizontal,1,0.964703139391812,red,5,NaN,668.665290897936,381.422338320961,NaN,NaN,676.373546837184,823.028025320546,931.334709102064,818.577661679039,1054.96116226488,595.549636358493,923.626453162816,376.971974679454,668.665290897936,381.422338320961,545.03883773512,604.450363641507,0,0,0,0,4,0,horizontal,vertical,horizontal,vertical,horizontal,horizontal
1d,22,100246,2,35,99,18,O,NA,constant,homogeneous,3,absent,0.778204917907715,1,horizontal,horizontal,1,0.776469260996038,red,3,NaN,613.504806087112,426.090418184063,NaN,NaN,742.637481142314,848.464366520235,1043.85771277057,525.445215295702,613.504806087112,426.090418184063,NaN,NaN,NaN,NaN,NaN,NaN,0,0,4,NaN,NaN,NaN,vertical,vertical,horizontal,none,none,none
1d,22,100246,2,36,100,18,O,NA,constant,homogeneous,4,present,0.791929960250854,1,horizontal,horizontal,1,0.694116939197887,red,4,3,561.936991243214,508.616172865948,891.383827134052,361.936991243214,708.616172865948,838.063008756786,1038.06300875679,691.383827134052,891.383827134052,361.936991243214,561.936991243214,508.616172865948,NaN,NaN,NaN,NaN,0,0,0,4,NaN,NaN,horizontal,vertical,vertical,horizontal,none,none
1d,22,100246,2,37,101,18,O,NA,constant,homogeneous,5,absent,1.84319615364075,1,vertical,vertical,1,0.764704643596302,red,4,NaN,565.271262369628,500.363562235235,NaN,NaN,931.334709102064,818.577661679039,1048.46436652023,542.637481142314,822.224714400653,345.970351986605,565.271262369628,500.363562235235,632.704947607421,792.450942956807,NaN,NaN,0,0,0,4,0,NaN,vertical,vertical,horizontal,vertical,vertical,none
1d,22,100246,2,38,102,18,O,NA,constant,homogeneous,4,present,1.47953510284424,1,vertical,vertical,1,0.964703139391812,red,3,1,650.114760665419,393.700666434388,949.885239334581,806.299333565612,949.885239334581,806.299333565612,1006.29933356561,450.114760665419,650.114760665419,393.700666434388,593.700666434388,749.885239334581,NaN,NaN,NaN,NaN,0,0,4,0,NaN,NaN,vertical,vertical,vertical,horizontal,none,none
1d,22,100246,2,39,103,18,O,NA,constant,homogeneous,5,present,0.765261888504028,1,horizontal,horizontal,1,0.99999699159102,red,4,3,725.445215295702,356.142287229426,1008.88377129369,453.738008730483,716.980120613425,841.107236777826,1003.65205506206,753.462830903772,1008.88377129369,453.738008730483,725.445215295702,356.142287229426,545.03883773512,595.549636358493,NaN,NaN,0,0,0,4,0,NaN,vertical,vertical,horizontal,horizontal,vertical,none
1d,22,100246,2,40,104,18,O,NA,constant,homogeneous,3,absent,1.10359191894531,1,vertical,vertical,1,0.941173904592341,red,3,NaN,800,345,NaN,NaN,579.163522034968,727.5,1020.83647796503,727.5,800,345,NaN,NaN,NaN,NaN,NaN,NaN,0,0,4,NaN,NaN,NaN,horizontal,vertical,vertical,none,none,none
1d,22,100246,2,41,105,18,O,NA,constant,homogeneous,5,present,0.958899974822998,1,horizontal,horizontal,1,0.847056965394454,red,5,3,548.874022981887,644.280285305067,977.137884467044,416.568350913644,764.510859255183,852.518357529101,1029.19248180629,711.784642431215,977.137884467044,416.568350913644,680.284751489598,374.848363820974,548.874022981887,644.280285305067,NaN,NaN,0,0,0,0,4,NaN,horizontal,vertical,vertical,vertical,horizontal,none
1d,22,100246,2,42,106,18,O,NA,constant,homogeneous,6,present,0.720525026321411,1,vertical,vertical,1,0.729410791397095,red,6,3,548.874022981887,644.280285305067,1051.12597701811,555.719714694933,712.784863451954,839.621618300407,963.910840470068,795.341332995339,1051.12597701811,555.719714694933,887.215136548046,360.378381699593,636.089159529932,404.658667004661,548.874022981887,644.280285305067,0,0,0,0,0,4,horizontal,vertical,horizontal,horizontal,horizontal,vertical
1d,22,100246,2,43,107,18,O,NA,constant,homogeneous,6,present,0.815603017807007,1,vertical,vertical,1,1.02352622639049,red,3,5,1023.02802532055,476.373546837184,581.422338320961,468.665290897936,795.549636358493,854.96116226488,1018.57766167904,731.334709102064,1023.02802532055,476.373546837184,804.450363641507,345.03883773512,581.422338320961,468.665290897936,576.971974679454,723.626453162816,0,0,4,0,0,0,vertical,horizontal,vertical,vertical,horizontal,horizontal
1d,22,100246,2,44,108,18,O,NA,constant,homogeneous,6,present,0.952444076538086,1,vertical,vertical,1,0.623529234799472,red,6,5,558.892763222174,683.019879386575,607.549057043193,432.704947607421,751.343706178981,850.314931779154,992.450942956807,767.295052392579,1041.10723677783,516.980120613425,848.656293821019,349.685068220846,607.549057043193,432.704947607421,558.892763222174,683.019879386575,0,0,0,0,0,4,vertical,vertical,horizontal,vertical,vertical,vertical
1d,22,100246,2,45,109,18,O,NA,constant,homogeneous,3,present,0.80065393447876,1,vertical,vertical,1,0.635293852199208,red,2,3,989.501930496736,429.371695378491,557.480588344736,521.200666434388,853.017481158529,849.42763818712,989.501930496736,429.371695378491,557.480588344736,521.200666434388,NaN,NaN,NaN,NaN,NaN,NaN,0,4,0,NaN,NaN,NaN,vertical,vertical,vertical,none,none,none
1d,22,100246,2,46,110,18,O,NA,constant,homogeneous,5,absent,0.963543176651001,1,horizontal,horizontal,1,0.929409287192605,red,5,NaN,553.688914296288,665.998856501143,NaN,NaN,786.654331158049,854.650531362416,1038.06300875679,691.383827134052,960.476699717708,401.827779828472,661.117046071168,386.139005173917,553.688914296288,665.998856501143,NaN,NaN,0,0,0,0,4,NaN,horizontal,vertical,vertical,vertical,horizontal,none
1d,22,100246,2,47,111,18,O,NA,constant,homogeneous,6,absent,0.914956092834473,1,vertical,vertical,1,0.99999699159102,red,4,NaN,786.654331158049,345.349468637584,NaN,NaN,813.345668841951,854.650531362416,1027.20666366803,715.767577433584,1013.86099482608,461.117046071168,786.654331158049,345.349468637584,572.793336331966,484.232422566416,586.139005173917,738.882953928832,0,0,0,4,0,0,horizontal,vertical,vertical,vertical,vertical,horizontal
1d,22,100246,2,48,112,18,O,NA,constant,homogeneous,5,absent,0.838503122329712,1,horizontal,horizontal,1,1.04705546118996,red,3,NaN,942.594190385041,388.595418998464,NaN,NaN,808.899371659138,854.844660889869,1045.12173246427,670.287525733335,942.594190385041,388.595418998464,643.006323791957,399.057257830286,560.378381699593,687.215136548046,NaN,NaN,0,0,4,0,0,NaN,vertical,vertical,horizontal,horizontal,vertical,none
1d,22,100246,2,49,113,18,O,NA,constant,homogeneous,4,absent,1.30384397506714,0,horizontal,vertical,1,0.823527730594982,red,1,NaN,878.799333565612,842.519411655264,NaN,NaN,878.799333565612,842.519411655264,1042.51941165526,521.200666434388,721.200666434388,357.480588344736,557.480588344736,678.799333565612,NaN,NaN,NaN,NaN,4,0,0,0,NaN,NaN,horizontal,horizontal,vertical,vertical,none,none
1d,22,100246,2,50,114,18,O,NA,constant,homogeneous,5,present,0.764584064483643,1,horizontal,horizontal,1,0.929409287192605,red,3,2,891.383827134052,361.936991243214,1054.65053136242,613.345668841951,865.998856501143,846.311085703712,1054.65053136242,613.345668841951,891.383827134052,361.936991243214,601.827779828472,439.523300282291,586.139005173917,738.882953928832,NaN,NaN,0,0,4,0,0,NaN,horizontal,horizontal,horizontal,horizontal,horizontal,none
1d,22,100246,2,51,115,18,O,NA,constant,homogeneous,4,present,1.054603099823,1,horizontal,horizontal,1,0.717646173997359,red,2,3,1029.19248180629,488.215357568785,688.215357568785,370.807518193712,911.784642431215,829.192481806288,1029.19248180629,488.215357568785,688.215357568785,370.807518193712,570.807518193712,711.784642431215,NaN,NaN,NaN,NaN,0,4,0,0,NaN,NaN,vertical,horizontal,horizontal,horizontal,none,none
1d,22,100246,2,52,116,18,O,NA,constant,homogeneous,4,absent,1.1080310344696,1,vertical,vertical,1,0.623529234799472,red,2,NaN,1020.83647796503,472.5,NaN,NaN,927.5,820.836477965032,1020.83647796503,472.5,672.5,379.163522034968,579.163522034968,727.5,NaN,NaN,NaN,NaN,0,4,0,0,NaN,NaN,horizontal,vertical,horizontal,horizontal,none,none
1d,22,100246,2,53,117,18,O,NA,constant,homogeneous,5,present,1.20785617828369,1,horizontal,horizontal,1,1.07058469598944,red,1,4,878.799333565612,842.519411655264,593.700666434388,450.114760665419,878.799333565612,842.519411655264,1055,600,878.799333565612,357.480588344736,593.700666434388,450.114760665419,593.700666434388,749.885239334581,NaN,NaN,4,0,0,0,0,NaN,horizontal,vertical,horizontal,vertical,vertical,none
1d,22,100246,2,54,118,18,O,NA,constant,homogeneous,5,absent,0.833769083023071,1,vertical,vertical,1,0.858821582794189,red,2,NaN,983.431649086356,777.137884467044,NaN,NaN,688.215357568785,829.192481806288,983.431649086356,777.137884467044,1025.15163617903,480.284751489598,755.719714694933,348.874022981887,547.481642470899,564.510859255183,NaN,NaN,0,4,0,0,0,NaN,vertical,vertical,vertical,horizontal,vertical,none
1d,22,100246,2,55,119,18,O,NA,constant,homogeneous,4,present,0.688912868499756,1,vertical,vertical,1,0.741175408796831,red,4,2,593.700666434388,749.885239334581,1006.29933356561,450.114760665419,949.885239334581,806.299333565612,1006.29933356561,450.114760665419,650.114760665419,393.700666434388,593.700666434388,749.885239334581,NaN,NaN,NaN,NaN,0,0,0,4,NaN,NaN,vertical,horizontal,vertical,vertical,none,none
1d,22,100246,2,56,120,18,O,NA,constant,homogeneous,3,present,0.853279829025269,1,horizontal,horizontal,1,0.917644669792869,red,3,2,795.549636358493,345.03883773512,1023.02802532055,723.626453162816,581.422338320961,731.334709102064,1023.02802532055,723.626453162816,795.549636358493,345.03883773512,NaN,NaN,NaN,NaN,NaN,NaN,0,0,4,NaN,NaN,NaN,vertical,vertical,horizontal,none,none,none
1d,22,100246,2,57,121,18,O,NA,constant,homogeneous,4,absent,0.83037805557251,1,vertical,vertical,1,1.01176160899076,red,4,NaN,545.621167183745,582.212099195248,NaN,NaN,782.212099195248,854.378832816255,1054.37883281626,617.787900804752,817.787900804752,345.621167183745,545.621167183745,582.212099195248,NaN,NaN,NaN,NaN,0,0,0,4,NaN,NaN,vertical,vertical,horizontal,vertical,none,none
1d,22,100246,2,58,122,18,O,NA,constant,homogeneous,4,absent,0.975214004516602,0,horizontal,vertical,1,0.788233878395774,red,1,NaN,680.284751489598,825.151636179026,NaN,NaN,680.284751489598,825.151636179026,1025.15163617903,719.715248510402,919.715248510402,374.848363820974,574.848363820974,480.284751489598,NaN,NaN,NaN,NaN,4,0,0,0,NaN,NaN,horizontal,horizontal,vertical,vertical,none,none
1d,22,100246,2,59,123,18,O,NA,constant,homogeneous,3,absent,1.34143495559692,1,vertical,vertical,1,0.717646173997359,red,1,NaN,684.232422566416,827.206663668034,NaN,NaN,684.232422566416,827.206663668034,1054.65053136242,586.654331158049,661.117046071168,386.139005173917,NaN,NaN,NaN,NaN,NaN,NaN,4,0,0,NaN,NaN,NaN,vertical,horizontal,horizontal,none,none,none
1d,22,100246,2,60,124,18,O,NA,constant,homogeneous,6,present,1.05701398849487,1,vertical,vertical,1,0.635293852199208,red,1,4,878.799333565612,842.519411655264,721.200666434388,357.480588344736,878.799333565612,842.519411655264,1049.42763818712,653.017481158529,970.628304621509,410.498069503264,721.200666434388,357.480588344736,550.57236181288,546.982518841471,629.371695378491,789.501930496736,4,0,0,0,0,0,vertical,vertical,horizontal,vertical,vertical,vertical
1d,22,100246,2,61,125,18,O,NA,constant,homogeneous,4,present,0.78453516960144,1,horizontal,horizontal,1,0.917644669792869,red,3,2,826.654758133252,346.39691668109,1053.60308331891,626.654758133252,773.345241866748,853.60308331891,1053.60308331891,626.654758133252,826.654758133252,346.39691668109,546.39691668109,573.345241866748,NaN,NaN,NaN,NaN,0,0,4,0,NaN,NaN,horizontal,horizontal,horizontal,vertical,none,none
1d,22,100246,2,62,126,18,O,NA,constant,homogeneous,5,present,1.06937098503113,1,vertical,vertical,1,1.04705546118996,red,1,3,786.654331158049,854.650531362416,960.476699717708,401.827779828472,786.654331158049,854.650531362416,1038.06300875679,691.383827134052,960.476699717708,401.827779828472,661.117046071168,386.139005173917,553.688914296288,665.998856501143,NaN,NaN,4,0,0,0,0,NaN,vertical,horizontal,horizontal,vertical,horizontal,none
1d,22,100246,2,63,127,18,O,NA,constant,homogeneous,4,absent,0.973919868469238,1,horizontal,horizontal,1,0.941173904592341,red,1,NaN,835.489140744817,852.518357529101,NaN,NaN,835.489140744817,852.518357529101,1052.5183575291,564.510859255183,764.510859255183,347.4816424709,547.481642470899,635.489140744817,NaN,NaN,NaN,NaN,4,0,0,0,NaN,NaN,horizontal,vertical,horizontal,vertical,none,none
1d,22,100246,2,64,128,18,O,NA,constant,homogeneous,3,absent,0.709969997406006,1,vertical,vertical,1,0.823527730594982,red,1,NaN,643.006323791957,800.942742169714,NaN,NaN,643.006323791957,800.942742169714,1052.5183575291,635.489140744817,704.475318678942,363.568117085469,NaN,NaN,NaN,NaN,NaN,NaN,4,0,0,NaN,NaN,NaN,vertical,horizontal,horizontal,none,none,none
1d,22,100246,3,1,129,18,O,NA,constant,homogeneous,4,present,1.18219399452209,1,vertical,vertical,1,0.917644669792869,red,4,1,596.34794493794,753.462830903772,953.462830903772,803.65205506206,953.462830903772,803.65205506206,1003.65205506206,446.537169096228,646.537169096228,396.34794493794,596.34794493794,753.462830903772,NaN,NaN,NaN,NaN,0,0,0,4,NaN,NaN,vertical,vertical,horizontal,vertical,none,none
1d,22,100246,3,2,130,18,O,NA,constant,homogeneous,6,present,1.05177593231201,1,vertical,vertical,1,1.07058469598944,red,5,4,588.595418998464,457.40580961496,817.787900804752,345.621167183745,782.212099195248,854.378832816255,1011.40458100154,742.594190385041,1029.19248180629,488.215357568785,817.787900804752,345.621167183745,588.595418998464,457.40580961496,570.807518193712,711.784642431215,0,0,0,0,4,0,horizontal,horizontal,vertical,vertical,vertical,vertical
1d,22,100246,3,3,131,18,O,NA,constant,homogeneous,3,present,0.853711843490601,1,horizontal,horizontal,1,0.635293852199208,red,2,1,1050.31493177915,648.656293821019,632.704947607421,792.450942956807,632.704947607421,792.450942956807,1050.31493177915,648.656293821019,716.980120613425,358.892763222174,NaN,NaN,NaN,NaN,NaN,NaN,0,4,0,NaN,NaN,NaN,horizontal,horizontal,horizontal,none,none,none
1d,22,100246,3,4,132,18,O,NA,constant,homogeneous,4,absent,0.814347982406616,1,horizontal,horizontal,1,0.988232374191284,red,3,NaN,704.475318678942,363.568117085469,NaN,NaN,895.524681321058,836.431882914531,1036.43188291453,504.475318678942,704.475318678942,363.568117085469,563.568117085469,695.524681321058,NaN,NaN,NaN,NaN,0,0,4,0,NaN,NaN,horizontal,horizontal,horizontal,vertical,none,none
1d,22,100246,3,5,133,18,O,NA,constant,homogeneous,5,present,0.702241182327271,1,horizontal,horizontal,1,0.952938521992077,red,2,3,1054.0296480134,622.224714400653,899.636437764765,365.271262369628,857.362518857686,848.464366520235,1054.0296480134,622.224714400653,899.636437764765,365.271262369628,607.549057043193,432.704947607421,581.422338320961,731.334709102064,NaN,NaN,0,4,0,0,0,NaN,vertical,horizontal,horizontal,vertical,horizontal,none
1d,22,100246,3,6,134,18,O,NA,constant,homogeneous,5,absent,1.07681202888489,1,vertical,vertical,1,1.02352622639049,red,2,NaN,1047.42541020038,538.309916622085,NaN,NaN,935.129412379467,816.252264519889,1047.42541020038,538.309916622085,817.787900804752,345.621167183745,563.568117085469,504.475318678942,636.089159529932,795.341332995339,NaN,NaN,0,4,0,0,0,NaN,horizontal,vertical,vertical,horizontal,horizontal,none
1d,22,100246,3,7,135,18,O,NA,constant,homogeneous,5,present,0.891707897186279,1,vertical,vertical,1,0.847056965394454,red,5,2,567.045908301137,703.717843984329,1049.42763818712,653.017481158529,826.654758133252,853.60308331891,1049.42763818712,653.017481158529,927.5,379.163522034968,629.371695378491,410.498069503264,567.045908301137,703.717843984329,NaN,NaN,0,0,0,0,4,NaN,horizontal,vertical,vertical,vertical,vertical,none
1d,22,100246,3,8,136,18,O,NA,constant,homogeneous,3,absent,1.2322051525116,1,vertical,vertical,1,0.741175408796831,red,2,NaN,835.489140744817,347.4816424709,NaN,NaN,1000.94274216971,756.993676208043,835.489140744817,347.4816424709,563.568117085469,695.524681321058,NaN,NaN,NaN,NaN,NaN,NaN,0,4,0,NaN,NaN,NaN,horizontal,vertical,vertical,none,none,none
1d,22,100246,3,9,137,18,O,NA,constant,homogeneous,5,absent,0.797461986541748,1,horizontal,horizontal,1,0.823527730594982,red,2,NaN,1000.94274216971,756.993676208043,NaN,NaN,712.784863451954,839.621618300407,1000.94274216971,756.993676208043,1011.40458100154,457.40580961496,729.712474266665,354.878267535729,545.155339110131,591.100628340862,NaN,NaN,0,4,0,0,0,NaN,horizontal,horizontal,vertical,vertical,vertical,none
1d,22,100246,3,10,138,18,O,NA,constant,homogeneous,6,present,0.989413976669312,1,horizontal,horizontal,1,0.6,red,6,2,586.139005173917,738.882953928832,1027.20666366803,715.767577433584,813.345668841951,854.650531362416,1027.20666366803,715.767577433584,1013.86099482608,461.117046071168,786.654331158049,345.349468637584,572.793336331966,484.232422566416,586.139005173917,738.882953928832,0,0,0,0,0,4,vertical,vertical,horizontal,horizontal,horizontal,horizontal
1d,22,100246,3,11,139,18,O,NA,constant,homogeneous,5,present,0.865717887878418,1,horizontal,horizontal,1,0.811763113195246,red,1,2,844.280285305067,851.125977018113,1052.5183575291,635.489140744817,844.280285305067,851.125977018113,1052.5183575291,635.489140744817,911.784642431215,370.807518193712,616.568350913644,422.862115532956,574.848363820974,719.715248510402,NaN,NaN,4,0,0,0,0,NaN,horizontal,vertical,horizontal,vertical,horizontal,none
1d,22,100246,3,12,140,18,O,NA,constant,homogeneous,6,present,0.807076930999756,1,vertical,vertical,1,1.01176160899076,red,3,1,1032.95409169886,496.282156015671,773.345241866748,853.60308331891,773.345241866748,853.60308331891,1006.29933356561,749.885239334581,1032.95409169886,496.282156015671,826.654758133252,346.39691668109,593.700666434388,450.114760665419,567.045908301137,703.717843984329,0,0,4,0,0,0,horizontal,vertical,vertical,vertical,horizontal,horizontal
1d,22,100246,3,13,141,18,O,NA,constant,homogeneous,3,absent,0.686019897460938,1,vertical,vertical,1,0.717646173997359,red,3,NaN,613.504806087112,426.090418184063,NaN,NaN,742.637481142314,848.464366520235,1043.85771277057,525.445215295702,613.504806087112,426.090418184063,NaN,NaN,NaN,NaN,NaN,NaN,0,0,4,NaN,NaN,NaN,vertical,horizontal,vertical,none,none,none
1d,22,100246,3,14,142,18,O,NA,constant,homogeneous,4,absent,0.874588966369629,1,vertical,vertical,1,0.941173904592341,red,2,NaN,1050.31493177915,551.343706178981,NaN,NaN,848.656293821019,850.314931779154,1050.31493177915,551.343706178981,751.343706178981,349.685068220846,549.685068220846,648.656293821019,NaN,NaN,NaN,NaN,0,4,0,0,NaN,NaN,horizontal,vertical,vertical,horizontal,none,none
1d,22,100246,3,15,143,18,O,NA,constant,homogeneous,6,absent,0.950088024139404,1,horizontal,horizontal,1,1.08234931338917,red,6,NaN,650.114760665419,806.299333565612,NaN,NaN,903.717843984329,832.954091698863,1053.60308331891,626.654758133252,949.885239334581,393.700666434388,696.282156015671,367.045908301137,546.39691668109,573.345241866748,650.114760665419,806.299333565612,0,0,0,0,0,4,horizontal,vertical,vertical,vertical,vertical,horizontal
1d,22,100246,3,16,144,18,O,NA,constant,homogeneous,4,present,0.743924140930176,1,vertical,vertical,1,0.741175408796831,red,4,3,561.936991243214,691.383827134052,708.616172865948,361.936991243214,891.383827134052,838.063008756786,1038.06300875679,508.616172865948,708.616172865948,361.936991243214,561.936991243214,691.383827134052,NaN,NaN,NaN,NaN,0,0,0,4,NaN,NaN,horizontal,vertical,vertical,vertical,none,none
1d,22,100246,3,17,145,18,O,NA,constant,homogeneous,5,present,0.852802991867065,0,vertical,horizontal,1,0.682352321798151,red,5,1,546.39691668109,626.654758133252,746.982518841471,849.42763818712,746.982518841471,849.42763818712,1020.83647796503,727.5,989.501930496736,429.371695378491,696.282156015671,367.045908301137,546.39691668109,626.654758133252,NaN,NaN,0,0,0,0,4,NaN,horizontal,horizontal,horizontal,horizontal,vertical,none
1d,22,100246,3,18,146,18,O,NA,constant,homogeneous,4,absent,0.85265588760376,1,horizontal,horizontal,1,0.941173904592341,red,2,NaN,1013.86099482608,738.882953928832,NaN,NaN,661.117046071168,813.860994826083,1013.86099482608,738.882953928832,938.882953928832,386.139005173917,586.139005173917,461.117046071168,NaN,NaN,NaN,NaN,0,4,0,0,NaN,NaN,vertical,horizontal,horizontal,vertical,none,none
1d,22,100246,3,19,147,18,O,NA,constant,homogeneous,4,absent,1.04145312309265,1,vertical,vertical,1,0.976467756791548,red,1,NaN,704.475318678942,836.431882914531,NaN,NaN,704.475318678942,836.431882914531,1036.43188291453,695.524681321058,895.524681321058,363.568117085469,563.568117085469,504.475318678942,NaN,NaN,NaN,NaN,4,0,0,0,NaN,NaN,vertical,vertical,horizontal,horizontal,none,none
1d,22,100246,3,20,148,18,O,NA,constant,homogeneous,4,present,0.69841194152832,1,vertical,vertical,1,0.99999699159102,red,3,4,688.215357568785,370.807518193712,570.807518193712,711.784642431215,911.784642431215,829.192481806288,1029.19248180629,488.215357568785,688.215357568785,370.807518193712,570.807518193712,711.784642431215,NaN,NaN,NaN,NaN,0,0,4,0,NaN,NaN,vertical,horizontal,vertical,horizontal,none,none
1d,22,100246,3,21,149,18,O,NA,constant,homogeneous,6,absent,0.808461904525757,1,vertical,vertical,1,0.99999699159102,red,6,NaN,548.874022981887,644.280285305067,NaN,NaN,712.784863451954,839.621618300407,963.910840470068,795.341332995339,1051.12597701811,555.719714694933,887.215136548046,360.378381699593,636.089159529932,404.658667004661,548.874022981887,644.280285305067,0,0,0,0,0,4,horizontal,vertical,horizontal,vertical,horizontal,vertical
1d,22,100246,3,22,150,18,O,NA,constant,homogeneous,4,absent,0.77620792388916,1,vertical,vertical,1,0.964703139391812,red,1,NaN,903.717843984329,832.954091698863,NaN,NaN,903.717843984329,832.954091698863,1032.95409169886,496.282156015671,696.282156015671,367.045908301137,567.045908301137,703.717843984329,NaN,NaN,NaN,NaN,4,0,0,0,NaN,NaN,vertical,horizontal,vertical,horizontal,none,none
1d,22,100246,3,23,151,18,O,NA,constant,homogeneous,6,absent,0.938533067703247,1,vertical,vertical,1,0.729410791397095,red,2,NaN,1047.42541020038,661.690083377915,NaN,NaN,870.287525733335,845.121732464271,1047.42541020038,661.690083377915,977.137884467044,416.568350913644,729.712474266665,354.878267535729,552.574589799621,538.309916622085,622.862115532956,783.431649086356,0,4,0,0,0,0,horizontal,vertical,vertical,horizontal,vertical,horizontal
1d,22,100246,3,24,152,18,O,NA,constant,homogeneous,3,present,0.655756950378418,1,vertical,vertical,1,0.917644669792869,red,2,3,986.495193912888,426.090418184063,556.142287229426,525.445215295702,857.362518857686,848.464366520235,986.495193912888,426.090418184063,556.142287229426,525.445215295702,NaN,NaN,NaN,NaN,NaN,NaN,0,4,0,NaN,NaN,NaN,horizontal,vertical,vertical,none,none,none
1d,22,100246,3,25,153,18,O,NA,constant,homogeneous,6,present,1.14650201797485,1,horizontal,horizontal,1,0.882350817593661,red,4,3,844.280285305067,348.874022981887,1039.62161830041,512.784863451954,755.719714694933,851.125977018113,995.341332995339,763.910840470068,1039.62161830041,512.784863451954,844.280285305067,348.874022981887,604.658667004661,436.089159529932,560.378381699593,687.215136548046,0,0,0,4,0,0,horizontal,horizontal,horizontal,horizontal,horizontal,vertical
1d,22,100246,3,26,154,18,O,NA,constant,homogeneous,5,absent,1.3113751411438,1,vertical,vertical,1,1.08234931338917,red,2,NaN,1053.60308331891,626.654758133252,NaN,NaN,853.017481158529,849.42763818712,1053.60308331891,626.654758133252,903.717843984329,367.045908301137,610.498069503264,429.371695378491,579.163522034968,727.5,NaN,NaN,0,4,0,0,0,NaN,horizontal,vertical,horizontal,vertical,horizontal,none
1d,22,100246,3,27,155,18,O,NA,constant,homogeneous,6,absent,0.913248062133789,1,horizontal,horizontal,1,0.976467756791548,red,2,NaN,1003.65205506206,753.462830903772,NaN,NaN,768.923317431687,853.099268668537,1003.65205506206,753.462830903772,1034.72873763037,500.363562235235,831.076682568313,346.900731331463,596.34794493794,446.537169096228,565.271262369628,699.636437764765,0,4,0,0,0,0,horizontal,horizontal,vertical,vertical,vertical,horizontal
1d,22,100246,3,28,156,18,O,NA,constant,homogeneous,5,absent,0.73744797706604,1,horizontal,horizontal,1,1.08234931338917,red,2,NaN,983.431649086356,777.137884467044,NaN,NaN,688.215357568785,829.192481806288,983.431649086356,777.137884467044,1025.15163617903,480.284751489598,755.719714694933,348.874022981887,547.481642470899,564.510859255183,NaN,NaN,0,4,0,0,0,NaN,horizontal,horizontal,horizontal,horizontal,horizontal,none
1d,22,100246,3,29,157,18,O,NA,constant,homogeneous,3,present,1.27764892578125,1,horizontal,horizontal,1,0.670587704398415,red,3,1,581.422338320961,468.665290897936,795.549636358493,854.96116226488,795.549636358493,854.96116226488,1023.02802532055,476.373546837184,581.422338320961,468.665290897936,NaN,NaN,NaN,NaN,NaN,NaN,0,0,4,NaN,NaN,NaN,vertical,horizontal,horizontal,none,none,none
1d,22,100246,3,30,158,18,O,NA,constant,homogeneous,6,present,0.755802154541016,1,horizontal,horizontal,1,0.623529234799472,red,2,1,1027.20666366803,715.767577433584,813.345668841951,854.650531362416,813.345668841951,854.650531362416,1027.20666366803,715.767577433584,1013.86099482608,461.117046071168,786.654331158049,345.349468637584,572.793336331966,484.232422566416,586.139005173917,738.882953928832,0,4,0,0,0,0,horizontal,horizontal,horizontal,horizontal,vertical,vertical
1d,22,100246,3,31,159,18,O,NA,constant,homogeneous,6,present,0.891858100891113,1,horizontal,horizontal,1,0.635293852199208,red,1,5,688.215357568785,829.192481806288,657.405809614959,388.595418998464,688.215357568785,829.192481806288,942.594190385041,811.404581001536,1054.37883281626,582.212099195248,911.784642431215,370.807518193712,657.405809614959,388.595418998464,545.621167183745,617.787900804752,4,0,0,0,0,0,horizontal,vertical,vertical,horizontal,horizontal,horizontal
1d,22,100246,3,32,160,18,O,NA,constant,homogeneous,6,absent,0.699849128723145,1,horizontal,horizontal,1,0.905880052393133,red,4,NaN,760.109211414741,348.13947314824,NaN,NaN,839.890788585259,851.86052685176,1038.06300875679,691.383827134052,998.172220171528,439.523300282291,760.109211414741,348.13947314824,561.936991243214,508.616172865948,601.827779828472,760.476699717708,0,0,0,4,0,0,horizontal,vertical,horizontal,horizontal,horizontal,vertical
1d,22,100246,3,33,161,18,O,NA,constant,homogeneous,6,absent,0.748294115066528,1,horizontal,horizontal,1,0.917644669792869,red,3,NaN,1023.02802532055,476.373546837184,NaN,NaN,795.549636358493,854.96116226488,1018.57766167904,731.334709102064,1023.02802532055,476.373546837184,804.450363641507,345.03883773512,581.422338320961,468.665290897936,576.971974679454,723.626453162816,0,0,4,0,0,0,vertical,horizontal,horizontal,vertical,horizontal,horizontal
1d,22,100246,3,34,162,18,O,NA,constant,homogeneous,4,absent,1.08989500999451,1,horizontal,horizontal,1,0.729410791397095,red,1,NaN,646.537169096228,803.65205506206,NaN,NaN,646.537169096228,803.65205506206,1003.65205506206,753.462830903772,953.462830903772,396.34794493794,596.34794493794,446.537169096228,NaN,NaN,NaN,NaN,4,0,0,0,NaN,NaN,horizontal,vertical,vertical,vertical,none,none
1d,22,100246,3,35,163,18,O,NA,constant,homogeneous,3,present,0.648521900177002,1,horizontal,horizontal,1,0.835292347994718,red,2,3,899.636437764765,365.271262369628,546.900731331463,631.076682568313,953.462830903772,803.65205506206,899.636437764765,365.271262369628,546.900731331463,631.076682568313,NaN,NaN,NaN,NaN,NaN,NaN,0,4,0,NaN,NaN,NaN,vertical,horizontal,vertical,none,none,none
1d,22,100246,3,36,164,18,O,NA,constant,homogeneous,5,absent,0.77195405960083,1,vertical,vertical,1,0.905880052393133,red,5,NaN,557.480588344736,678.799333565612,NaN,NaN,800,855,1042.51941165526,678.799333565612,949.885239334581,393.700666434388,650.114760665419,393.700666434388,557.480588344736,678.799333565612,NaN,NaN,0,0,0,0,4,NaN,vertical,vertical,horizontal,horizontal,vertical,none
1d,22,100246,3,37,165,18,O,NA,constant,homogeneous,3,absent,0.76840615272522,1,vertical,vertical,1,0.858821582794189,red,3,NaN,546.39691668109,573.345241866748,NaN,NaN,903.717843984329,832.954091698863,949.885239334581,393.700666434388,546.39691668109,573.345241866748,NaN,NaN,NaN,NaN,NaN,NaN,0,0,4,NaN,NaN,NaN,horizontal,vertical,vertical,none,none,none
1d,22,100246,3,38,166,18,O,NA,constant,homogeneous,4,absent,1.40482997894287,0,horizontal,vertical,1,0.635293852199208,red,4,NaN,579.163522034968,472.5,NaN,NaN,672.5,820.836477965032,1020.83647796503,727.5,927.5,379.163522034968,579.163522034968,472.5,NaN,NaN,NaN,NaN,0,0,0,4,NaN,NaN,vertical,vertical,horizontal,horizontal,none,none
1d,22,100246,3,39,167,18,O,NA,constant,homogeneous,3,present,0.974835872650146,1,vertical,vertical,1,1.08234931338917,red,1,2,907.767656743878,831.108485694346,946.261991269517,391.116228706307,907.767656743878,831.108485694346,946.261991269517,391.116228706307,545.970351986605,577.775285599347,NaN,NaN,NaN,NaN,NaN,NaN,4,0,0,NaN,NaN,NaN,vertical,horizontal,horizontal,none,none,none
1d,22,100246,3,40,168,18,O,NA,constant,homogeneous,5,absent,0.710458040237427,1,horizontal,horizontal,1,0.99999699159102,red,3,NaN,942.594190385041,388.595418998464,NaN,NaN,808.899371659138,854.844660889869,1045.12173246427,670.287525733335,942.594190385041,388.595418998464,643.006323791957,399.057257830286,560.378381699593,687.215136548046,NaN,NaN,0,0,4,0,0,NaN,vertical,vertical,horizontal,vertical,vertical,none
1d,22,100246,3,41,169,18,O,NA,constant,homogeneous,3,absent,1.36703300476074,1,horizontal,horizontal,1,0.705881556597623,red,2,NaN,826.654758133252,346.39691668109,NaN,NaN,1006.29933356561,749.885239334581,826.654758133252,346.39691668109,567.045908301137,703.717843984329,NaN,NaN,NaN,NaN,NaN,NaN,0,4,0,NaN,NaN,NaN,horizontal,horizontal,vertical,none,none,none
1d,22,100246,3,42,170,18,O,NA,constant,homogeneous,5,present,0.951907873153687,1,vertical,vertical,1,0.670587704398415,red,1,2,808.899371659138,854.844660889869,1045.12173246427,670.287525733335,808.899371659138,854.844660889869,1045.12173246427,670.287525733335,942.594190385041,388.595418998464,643.006323791957,399.057257830286,560.378381699593,687.215136548046,NaN,NaN,4,0,0,0,0,NaN,vertical,vertical,horizontal,horizontal,horizontal,none
1d,22,100246,3,43,171,18,O,NA,constant,homogeneous,6,absent,1.10200715065002,1,vertical,vertical,1,0.741175408796831,red,4,NaN,804.450363641507,345.03883773512,NaN,NaN,795.549636358493,854.96116226488,1018.57766167904,731.334709102064,1023.02802532055,476.373546837184,804.450363641507,345.03883773512,581.422338320961,468.665290897936,576.971974679454,723.626453162816,0,0,0,4,0,0,vertical,vertical,horizontal,vertical,vertical,vertical
1d,22,100246,3,44,172,18,O,NA,constant,homogeneous,4,absent,0.900196075439453,1,vertical,vertical,1,0.79999849579551,red,3,NaN,773.345241866748,346.39691668109,NaN,NaN,826.654758133252,853.60308331891,1053.60308331891,573.345241866748,773.345241866748,346.39691668109,546.39691668109,626.654758133252,NaN,NaN,NaN,NaN,0,0,4,0,NaN,NaN,vertical,horizontal,vertical,vertical,none,none
1d,22,100246,3,45,173,18,O,NA,constant,homogeneous,4,present,0.71242094039917,1,horizontal,horizontal,1,0.905880052393133,red,4,2,616.568350913644,777.137884467044,983.431649086356,422.862115532956,977.137884467044,783.431649086356,983.431649086356,422.862115532956,622.862115532956,416.568350913644,616.568350913644,777.137884467044,NaN,NaN,NaN,NaN,0,0,0,4,NaN,NaN,vertical,horizontal,horizontal,horizontal,none,none
1d,22,100246,3,46,174,18,O,NA,constant,homogeneous,3,absent,0.809942960739136,1,horizontal,horizontal,1,0.952938521992077,red,3,NaN,768.923317431687,346.900731331463,NaN,NaN,596.34794493794,753.462830903772,1034.72873763037,699.636437764765,768.923317431687,346.900731331463,NaN,NaN,NaN,NaN,NaN,NaN,0,0,4,NaN,NaN,NaN,vertical,vertical,horizontal,none,none,none
1d,22,100246,3,47,175,18,O,NA,constant,homogeneous,5,present,0.867220878601074,1,horizontal,horizontal,1,0.858821582794189,red,3,4,1008.88377129369,453.738008730483,725.445215295702,356.142287229426,716.980120613425,841.107236777826,1003.65205506206,753.462830903772,1008.88377129369,453.738008730483,725.445215295702,356.142287229426,545.03883773512,595.549636358493,NaN,NaN,0,0,4,0,0,NaN,vertical,horizontal,horizontal,vertical,vertical,none
1d,22,100246,3,48,176,18,O,NA,constant,homogeneous,5,present,0.725239038467407,1,vertical,vertical,1,0.823527730594982,red,1,2,712.784863451954,839.621618300407,1000.94274216971,756.993676208043,712.784863451954,839.621618300407,1000.94274216971,756.993676208043,1011.40458100154,457.40580961496,729.712474266665,354.878267535729,545.155339110131,591.100628340862,NaN,NaN,4,0,0,0,0,NaN,vertical,horizontal,horizontal,horizontal,horizontal,none
1d,22,100246,3,49,177,18,O,NA,constant,homogeneous,3,absent,0.852753162384033,1,horizontal,horizontal,1,0.647058469598944,red,3,NaN,545.970351986605,577.775285599347,NaN,NaN,907.767656743878,831.108485694346,946.261991269517,391.116228706307,545.970351986605,577.775285599347,NaN,NaN,NaN,NaN,NaN,NaN,0,0,4,NaN,NaN,NaN,vertical,horizontal,horizontal,none,none,none
1d,22,100246,3,50,178,18,O,NA,constant,homogeneous,5,absent,0.83722710609436,1,vertical,vertical,1,0.964703139391812,red,1,NaN,813.345668841951,854.650531362416,NaN,NaN,813.345668841951,854.650531362416,1046.31108570371,665.998856501143,938.882953928832,386.139005173917,639.523300282292,401.827779828472,561.936991243214,691.383827134052,NaN,NaN,4,0,0,0,0,NaN,vertical,vertical,horizontal,vertical,vertical,none
1d,22,100246,3,51,179,18,O,NA,constant,homogeneous,3,present,0.86083197593689,1,horizontal,horizontal,1,0.929409287192605,red,1,3,839.890788585259,851.86052685176,561.936991243214,508.616172865948,839.890788585259,851.86052685176,998.172220171528,439.523300282291,561.936991243214,508.616172865948,NaN,NaN,NaN,NaN,NaN,NaN,4,0,0,NaN,NaN,NaN,horizontal,vertical,horizontal,none,none,none
1d,22,100246,3,52,180,18,O,NA,constant,homogeneous,4,present,0.785506010055542,1,horizontal,horizontal,1,0.764704643596302,red,2,3,1016.25226451989,464.870587620533,664.870587620533,383.747735480111,935.129412379467,816.252264519889,1016.25226451989,464.870587620533,664.870587620533,383.747735480111,583.747735480111,735.129412379467,NaN,NaN,NaN,NaN,0,4,0,0,NaN,NaN,vertical,horizontal,vertical,horizontal,none,none
1d,22,100246,3,53,181,18,O,NA,constant,homogeneous,5,present,0.77054500579834,1,horizontal,horizontal,1,0.858821582794189,red,2,4,973.909581815937,786.495193912888,768.923317431687,346.900731331463,676.373546837184,823.028025320546,973.909581815937,786.495193912888,1031.10848569435,492.232343256122,768.923317431687,346.900731331463,549.685068220846,551.343706178981,NaN,NaN,0,4,0,0,0,NaN,horizontal,horizontal,horizontal,horizontal,horizontal,none
1d,22,100246,3,54,182,18,O,NA,constant,homogeneous,6,absent,0.7223961353302,1,vertical,vertical,1,1.02352622639049,red,2,NaN,1041.10723677783,683.019879386575,NaN,NaN,848.656293821019,850.314931779154,1041.10723677783,683.019879386575,992.450942956807,432.704947607421,751.343706178981,349.685068220846,558.892763222174,516.980120613425,607.549057043193,767.295052392579,0,4,0,0,0,0,vertical,vertical,vertical,vertical,horizontal,vertical
1d,22,100246,3,55,183,18,O,NA,constant,homogeneous,4,present,0.720218896865845,1,horizontal,horizontal,1,0.952938521992077,red,1,2,751.343706178981,850.314931779154,1050.31493177915,648.656293821019,751.343706178981,850.314931779154,1050.31493177915,648.656293821019,848.656293821019,349.685068220846,549.685068220846,551.343706178981,NaN,NaN,NaN,NaN,4,0,0,0,NaN,NaN,horizontal,horizontal,vertical,horizontal,none,none
1d,22,100246,3,56,184,18,O,NA,constant,homogeneous,6,present,1.30613899230957,1,vertical,vertical,1,0.964703139391812,red,2,4,998.172220171528,760.476699717708,839.890788585259,348.13947314824,760.109211414741,851.86052685176,998.172220171528,760.476699717708,1038.06300875679,508.616172865948,839.890788585259,348.13947314824,601.827779828472,439.523300282291,561.936991243214,691.383827134052,0,4,0,0,0,0,horizontal,vertical,vertical,horizontal,vertical,vertical
1d,22,100246,3,57,185,18,O,NA,constant,homogeneous,5,absent,0.88462495803833,1,horizontal,horizontal,1,0.99999699159102,red,1,NaN,907.767656743878,831.108485694346,NaN,NaN,907.767656743878,831.108485694346,1053.09926866854,568.923317431687,848.656293821019,349.685068220846,576.971974679454,476.373546837184,613.504806087112,773.909581815937,NaN,NaN,4,0,0,0,0,NaN,horizontal,vertical,horizontal,vertical,vertical,none
1d,22,100246,3,58,186,18,O,NA,constant,homogeneous,6,present,1.05288910865784,1,vertical,vertical,1,0.905880052393133,red,4,2,895.524681321058,363.568117085469,956.993676208043,800.942742169714,704.475318678942,836.431882914531,956.993676208043,800.942742169714,1052.5183575291,564.510859255183,895.524681321058,363.568117085469,643.006323791957,399.057257830286,547.481642470899,635.489140744817,0,0,0,4,0,0,vertical,vertical,vertical,vertical,vertical,vertical
1d,22,100246,3,59,187,18,O,NA,constant,homogeneous,4,present,0.947654008865356,1,vertical,vertical,1,0.894115434993397,red,2,1,1054.96116226488,604.450363641507,795.549636358493,854.96116226488,795.549636358493,854.96116226488,1054.96116226488,604.450363641507,804.450363641507,345.03883773512,545.03883773512,595.549636358493,NaN,NaN,NaN,NaN,0,4,0,0,NaN,NaN,horizontal,vertical,horizontal,vertical,none,none
1d,22,100246,3,60,188,18,O,NA,constant,homogeneous,3,present,1.15518689155579,1,vertical,vertical,1,0.623529234799472,red,1,3,857.362518857686,848.464366520235,556.142287229426,525.445215295702,857.362518857686,848.464366520235,986.495193912888,426.090418184063,556.142287229426,525.445215295702,NaN,NaN,NaN,NaN,NaN,NaN,4,0,0,NaN,NaN,NaN,vertical,horizontal,horizontal,none,none,none
1d,22,100246,3,61,189,18,O,NA,constant,homogeneous,3,present,0.619127035140991,1,vertical,vertical,1,1.03529084379023,red,1,2,729.712474266665,845.121732464271,1047.42541020038,538.309916622085,729.712474266665,845.121732464271,1047.42541020038,538.309916622085,622.862115532956,416.568350913644,NaN,NaN,NaN,NaN,NaN,NaN,4,0,0,NaN,NaN,NaN,vertical,horizontal,horizontal,none,none,none
1d,22,100246,3,62,190,18,O,NA,constant,homogeneous,3,absent,0.588387012481689,1,horizontal,horizontal,1,0.823527730594982,red,1,NaN,1006.29933356561,749.885239334581,NaN,NaN,1006.29933356561,749.885239334581,826.654758133252,346.39691668109,567.045908301137,703.717843984329,NaN,NaN,NaN,NaN,NaN,NaN,4,0,0,NaN,NaN,NaN,horizontal,vertical,horizontal,none,none,none
1d,22,100246,3,63,191,18,O,NA,constant,homogeneous,4,present,0.780452966690063,1,horizontal,horizontal,1,0.99999699159102,red,3,2,977.137884467044,416.568350913644,983.431649086356,777.137884467044,622.862115532956,783.431649086356,983.431649086356,777.137884467044,977.137884467044,416.568350913644,616.568350913644,422.862115532956,NaN,NaN,NaN,NaN,0,0,4,0,NaN,NaN,vertical,horizontal,horizontal,vertical,none,none
1d,22,100246,3,64,192,18,O,NA,constant,homogeneous,3,absent,0.788345813751221,1,vertical,vertical,1,0.811763113195246,red,2,NaN,844.280285305067,348.874022981887,NaN,NaN,995.341332995339,763.910840470068,844.280285305067,348.874022981887,560.378381699593,687.215136548046,NaN,NaN,NaN,NaN,NaN,NaN,0,4,0,NaN,NaN,NaN,horizontal,vertical,vertical,none,none,none
1d,22,100246,4,1,193,18,O,NA,constant,homogeneous,5,absent,0.902194976806641,1,horizontal,horizontal,1,0.717646173997359,red,5,NaN,545.03883773512,604.450363641507,NaN,NaN,725.445215295702,843.857712770574,1008.88377129369,746.261991269517,1003.65205506206,446.537169096228,716.980120613425,358.892763222174,545.03883773512,604.450363641507,NaN,NaN,0,0,0,0,4,NaN,vertical,vertical,horizontal,horizontal,horizontal,none
1d,22,100246,4,2,194,18,O,NA,constant,homogeneous,5,absent,0.691853046417236,1,horizontal,horizontal,1,0.976467756791548,red,3,NaN,931.334709102064,381.422338320961,NaN,NaN,822.224714400653,854.029648013395,1048.46436652023,657.362518857686,931.334709102064,381.422338320961,632.704947607421,407.549057043193,565.271262369628,699.636437764765,NaN,NaN,0,0,4,0,0,NaN,horizontal,horizontal,horizontal,vertical,vertical,none
1d,22,100246,4,3,195,18,O,NA,constant,homogeneous,4,absent,0.880214929580688,1,vertical,vertical,1,0.717646173997359,red,1,NaN,899.636437764765,834.728737630372,NaN,NaN,899.636437764765,834.728737630372,1034.72873763037,500.363562235235,700.363562235235,365.271262369628,565.271262369628,699.636437764765,NaN,NaN,NaN,NaN,4,0,0,0,NaN,NaN,vertical,horizontal,horizontal,vertical,none,none
1d,22,100246,4,4,196,18,O,NA,constant,homogeneous,5,absent,0.537387132644653,1,vertical,vertical,1,0.964703139391812,red,4,NaN,786.654331158049,345.349468637584,NaN,NaN,661.117046071168,813.860994826083,960.476699717708,798.172220171528,1038.06300875679,508.616172865948,786.654331158049,345.349468637584,553.688914296288,534.001143498857,NaN,NaN,0,0,0,4,0,NaN,horizontal,vertical,vertical,vertical,horizontal,none
1d,22,100246,4,5,197,18,O,NA,constant,homogeneous,3,present,0.553246974945068,1,vertical,vertical,1,1.0588200785897,red,1,3,804.450363641507,854.96116226488,576.971974679454,476.373546837184,804.450363641507,854.96116226488,1018.57766167904,468.665290897936,576.971974679454,476.373546837184,NaN,NaN,NaN,NaN,NaN,NaN,4,0,0,NaN,NaN,NaN,vertical,vertical,horizontal,none,none,none
1d,22,100246,4,6,198,18,O,NA,constant,homogeneous,5,present,0.683107852935791,1,vertical,vertical,1,0.729410791397095,red,1,4,672.5,820.836477965032,773.345241866748,346.39691668109,672.5,820.836477965032,970.628304621509,789.501930496736,1032.95409169886,496.282156015671,773.345241866748,346.39691668109,550.57236181288,546.982518841471,NaN,NaN,4,0,0,0,0,NaN,vertical,horizontal,horizontal,vertical,vertical,none
1d,22,100246,4,7,199,18,O,NA,constant,homogeneous,3,absent,0.719299077987671,1,vertical,vertical,1,0.917644669792869,red,2,NaN,1027.20666366803,715.767577433584,NaN,NaN,586.139005173917,738.882953928832,1027.20666366803,715.767577433584,786.654331158049,345.349468637584,NaN,NaN,NaN,NaN,NaN,NaN,0,4,0,NaN,NaN,NaN,vertical,vertical,horizontal,none,none,none
1d,22,100246,4,8,200,18,O,NA,constant,homogeneous,3,present,0.713721990585327,1,vertical,vertical,1,0.788233878395774,red,2,3,1053.09926866854,568.923317431687,646.537169096228,396.34794493794,700.363562235235,834.728737630372,1053.09926866854,568.923317431687,646.537169096228,396.34794493794,NaN,NaN,NaN,NaN,NaN,NaN,0,4,0,NaN,NaN,NaN,horizontal,vertical,vertical,none,none,none
1d,22,100246,4,9,201,18,O,NA,constant,homogeneous,4,absent,0.889362096786499,1,horizontal,horizontal,1,0.658823086998679,red,2,NaN,1003.65205506206,446.537169096228,NaN,NaN,953.462830903772,803.65205506206,1003.65205506206,446.537169096228,646.537169096228,396.34794493794,596.34794493794,753.462830903772,NaN,NaN,NaN,NaN,0,4,0,0,NaN,NaN,vertical,horizontal,horizontal,horizontal,none,none
1d,22,100246,4,10,202,18,O,NA,constant,homogeneous,4,absent,0.607982873916626,0,vertical,horizontal,1,1.03529084379023,red,4,NaN,588.595418998464,742.594190385041,NaN,NaN,942.594190385041,811.404581001536,1011.40458100154,457.40580961496,657.405809614959,388.595418998464,588.595418998464,742.594190385041,NaN,NaN,NaN,NaN,0,0,0,4,NaN,NaN,vertical,horizontal,vertical,vertical,none,none
1d,22,100246,4,11,203,18,O,NA,constant,homogeneous,4,present,0.802824020385742,1,vertical,vertical,1,0.729410791397095,red,2,1,1052.5183575291,635.489140744817,764.510859255183,852.518357529101,764.510859255183,852.518357529101,1052.5183575291,635.489140744817,835.489140744817,347.4816424709,547.481642470899,564.510859255183,NaN,NaN,NaN,NaN,0,4,0,0,NaN,NaN,horizontal,vertical,vertical,horizontal,none,none
1d,22,100246,4,12,204,18,O,NA,constant,homogeneous,6,absent,0.876065015792847,1,horizontal,horizontal,1,1.03529084379023,red,4,NaN,729.712474266665,354.878267535729,NaN,NaN,870.287525733335,845.121732464271,1047.42541020038,661.690083377915,977.137884467044,416.568350913644,729.712474266665,354.878267535729,552.574589799621,538.309916622085,622.862115532956,783.431649086356,0,0,0,4,0,0,horizontal,vertical,vertical,horizontal,vertical,vertical
1d,22,100246,4,13,205,18,O,NA,constant,homogeneous,3,absent,0.806403160095215,1,horizontal,horizontal,1,1.0588200785897,red,3,NaN,583.747735480111,464.870587620533,NaN,NaN,791.100628340862,854.844660889869,1025.15163617903,480.284751489598,583.747735480111,464.870587620533,NaN,NaN,NaN,NaN,NaN,NaN,0,0,4,NaN,NaN,NaN,vertical,vertical,horizontal,none,none,none
1d,22,100246,4,14,206,18,O,NA,constant,homogeneous,4,absent,0.910673141479492,1,horizontal,horizontal,1,0.988232374191284,red,1,NaN,764.510859255183,852.518357529101,NaN,NaN,764.510859255183,852.518357529101,1052.5183575291,635.489140744817,835.489140744817,347.4816424709,547.481642470899,564.510859255183,NaN,NaN,NaN,NaN,4,0,0,0,NaN,NaN,horizontal,horizontal,vertical,vertical,none,none
1d,22,100246,4,15,207,18,O,NA,constant,homogeneous,5,present,0.665086984634399,1,vertical,vertical,1,0.99999699159102,red,3,1,1011.40458100154,457.40580961496,712.784863451954,839.621618300407,712.784863451954,839.621618300407,1000.94274216971,756.993676208043,1011.40458100154,457.40580961496,729.712474266665,354.878267535729,545.155339110131,591.100628340862,NaN,NaN,0,0,4,0,0,NaN,horizontal,horizontal,vertical,horizontal,horizontal,none
1d,22,100246,4,16,208,18,O,NA,constant,homogeneous,6,absent,0.764787912368774,1,vertical,vertical,1,0.917644669792869,red,6,NaN,664.870587620533,816.252264519889,NaN,NaN,919.715248510402,825.151636179026,1054.84466088987,608.899371659138,935.129412379467,383.747735480111,680.284751489598,374.848363820974,545.155339110131,591.100628340862,664.870587620533,816.252264519889,0,0,0,0,0,4,vertical,vertical,vertical,horizontal,horizontal,vertical
1d,22,100246,4,17,209,18,O,NA,constant,homogeneous,5,absent,0.702302932739258,1,horizontal,horizontal,1,0.894115434993397,red,3,NaN,973.909581815937,413.504806087112,NaN,NaN,768.923317431687,853.099268668537,1031.10848569435,707.767656743878,973.909581815937,413.504806087112,676.373546837184,376.971974679454,549.685068220846,648.656293821019,NaN,NaN,0,0,4,0,0,NaN,horizontal,horizontal,horizontal,vertical,vertical,none
1d,22,100246,4,18,210,18,O,NA,constant,homogeneous,3,present,1.33527112007141,1,horizontal,horizontal,1,0.941173904592341,red,1,2,995.341332995339,763.910840470068,844.280285305067,348.874022981887,995.341332995339,763.910840470068,844.280285305067,348.874022981887,560.378381699593,687.215136548046,NaN,NaN,NaN,NaN,NaN,NaN,4,0,0,NaN,NaN,NaN,horizontal,vertical,vertical,none,none,none
1d,22,100246,4,19,211,18,O,NA,constant,homogeneous,3,absent,1.22138500213623,1,horizontal,horizontal,1,0.764704643596302,red,2,NaN,907.767656743878,368.891514305654,NaN,NaN,946.261991269517,808.883771293693,907.767656743878,368.891514305654,545.970351986605,622.224714400653,NaN,NaN,NaN,NaN,NaN,NaN,0,4,0,NaN,NaN,NaN,vertical,horizontal,vertical,none,none,none
1d,22,100246,4,20,212,18,O,NA,constant,homogeneous,3,absent,1.13368892669678,1,vertical,vertical,1,0.79999849579551,red,2,NaN,1036.43188291453,695.524681321058,NaN,NaN,599.057257830286,756.993676208043,1036.43188291453,695.524681321058,764.510859255183,347.4816424709,NaN,NaN,NaN,NaN,NaN,NaN,0,4,0,NaN,NaN,NaN,horizontal,vertical,vertical,none,none,none
1d,22,100246,4,21,213,18,O,NA,constant,homogeneous,3,present,0.941969156265259,1,horizontal,horizontal,1,0.658823086998679,red,1,2,639.523300282292,798.172220171528,1051.86052685176,639.890788585259,639.523300282292,798.172220171528,1051.86052685176,639.890788585259,708.616172865948,361.936991243214,NaN,NaN,NaN,NaN,NaN,NaN,4,0,0,NaN,NaN,NaN,horizontal,vertical,horizontal,none,none,none
1d,22,100246,4,22,214,18,O,NA,constant,homogeneous,5,absent,1.04577016830444,1,vertical,vertical,1,1.04705546118996,red,2,NaN,1054.37883281626,582.212099195248,NaN,NaN,895.524681321058,836.431882914531,1054.37883281626,582.212099195248,861.690083377915,352.574589799621,583.747735480111,464.870587620533,604.658667004661,763.910840470068,NaN,NaN,0,4,0,0,0,NaN,horizontal,vertical,horizontal,vertical,horizontal,none
1d,22,100246,4,23,215,18,O,NA,constant,homogeneous,4,present,0.974520921707153,1,horizontal,horizontal,1,0.764704643596302,red,3,2,668.665290897936,381.422338320961,1018.57766167904,468.665290897936,931.334709102064,818.577661679039,1018.57766167904,468.665290897936,668.665290897936,381.422338320961,581.422338320961,731.334709102064,NaN,NaN,NaN,NaN,0,0,4,0,NaN,NaN,vertical,vertical,horizontal,horizontal,none,none
1d,22,100246,4,24,216,18,O,NA,constant,homogeneous,5,present,0.847246885299683,1,horizontal,horizontal,1,0.870586200193925,red,4,3,581.422338320961,468.665290897936,857.362518857686,351.535633479765,899.636437764765,834.728737630372,1054.0296480134,577.775285599347,857.362518857686,351.535633479765,581.422338320961,468.665290897936,607.549057043193,767.295052392579,NaN,NaN,0,0,0,4,0,NaN,vertical,vertical,vertical,horizontal,vertical,none
1d,22,100246,4,25,217,18,O,NA,constant,homogeneous,5,absent,1.80662512779236,1,vertical,vertical,1,1.09411393078891,red,4,NaN,716.980120613425,358.892763222174,NaN,NaN,725.445215295702,843.857712770574,1008.88377129369,746.261991269517,1003.65205506206,446.537169096228,716.980120613425,358.892763222174,545.03883773512,604.450363641507,NaN,NaN,0,0,0,4,0,NaN,vertical,vertical,vertical,vertical,horizontal,none
1d,22,100246,4,26,218,18,O,NA,constant,homogeneous,4,present,1.10825991630554,1,vertical,vertical,1,0.670587704398415,red,4,3,572.793336331966,484.232422566416,915.767577433584,372.793336331966,684.232422566416,827.206663668034,1027.20666366803,715.767577433584,915.767577433584,372.793336331966,572.793336331966,484.232422566416,NaN,NaN,NaN,NaN,0,0,0,4,NaN,NaN,vertical,vertical,vertical,vertical,none,none
1d,22,100246,4,27,219,18,O,NA,constant,homogeneous,3,absent,1.11832118034363,1,vertical,vertical,1,0.976467756791548,red,3,NaN,550.57236181288,653.017481158529,NaN,NaN,970.628304621509,789.501930496736,878.799333565612,357.480588344736,550.57236181288,653.017481158529,NaN,NaN,NaN,NaN,NaN,NaN,0,0,4,NaN,NaN,NaN,vertical,horizontal,vertical,none,none,none
1d,22,100246,4,28,220,18,O,NA,constant,homogeneous,6,absent,1.42083287239075,1,horizontal,horizontal,1,0.79999849579551,red,5,NaN,591.116228706307,453.738008730483,NaN,NaN,777.775285599347,854.029648013395,1008.88377129369,746.261991269517,1031.10848569435,492.232343256122,822.224714400653,345.970351986605,591.116228706307,453.738008730483,568.891514305654,707.767656743878,0,0,0,0,4,0,horizontal,vertical,horizontal,horizontal,horizontal,horizontal
1d,22,100246,4,29,221,18,O,NA,constant,homogeneous,6,present,0.989877939224243,1,vertical,vertical,1,0.623529234799472,red,6,2,672.5,820.836477965032,1055,600,927.5,820.836477965032,1055,600,927.5,379.163522034968,672.5,379.163522034968,545,600,672.5,820.836477965032,0,0,0,0,0,4,horizontal,horizontal,horizontal,horizontal,vertical,vertical
1d,22,100246,4,30,222,18,O,NA,constant,homogeneous,6,present,1.05101299285889,1,horizontal,horizontal,1,0.858821582794189,red,2,3,1054.0296480134,622.224714400653,946.261991269517,391.116228706307,907.767656743878,831.108485694346,1054.0296480134,622.224714400653,946.261991269517,391.116228706307,692.232343256122,368.891514305654,545.970351986605,577.775285599347,653.738008730483,808.883771293693,0,4,0,0,0,0,vertical,horizontal,horizontal,vertical,vertical,vertical
1d,22,100246,4,31,223,18,O,NA,constant,homogeneous,3,absent,1.11259198188782,1,horizontal,horizontal,1,0.623529234799472,red,1,NaN,870.287525733335,845.121732464271,NaN,NaN,870.287525733335,845.121732464271,977.137884467044,416.568350913644,552.574589799621,538.309916622085,NaN,NaN,NaN,NaN,NaN,NaN,4,0,0,NaN,NaN,NaN,horizontal,vertical,vertical,none,none,none
1d,22,100246,4,32,224,18,O,NA,constant,homogeneous,4,absent,1.12851905822754,1,horizontal,horizontal,1,0.682352321798151,red,1,NaN,622.862115532956,783.431649086356,NaN,NaN,622.862115532956,783.431649086356,983.431649086356,777.137884467044,977.137884467044,416.568350913644,616.568350913644,422.862115532956,NaN,NaN,NaN,NaN,4,0,0,0,NaN,NaN,horizontal,horizontal,horizontal,vertical,none,none
1d,22,100246,4,33,225,18,O,NA,constant,homogeneous,6,absent,1.2131290435791,0,horizontal,vertical,1,0.670587704398415,red,1,NaN,844.280285305067,851.125977018113,NaN,NaN,844.280285305067,851.125977018113,1039.62161830041,687.215136548046,995.341332995339,436.089159529932,755.719714694933,348.874022981887,560.378381699593,512.784863451954,604.658667004661,763.910840470068,4,0,0,0,0,0,horizontal,horizontal,vertical,vertical,vertical,horizontal
1d,22,100246,4,34,226,18,O,NA,constant,homogeneous,6,absent,1.0696439743042,1,vertical,vertical,1,0.79999849579551,red,5,NaN,588.595418998464,457.40580961496,NaN,NaN,782.212099195248,854.378832816255,1011.40458100154,742.594190385041,1029.19248180629,488.215357568785,817.787900804752,345.621167183745,588.595418998464,457.40580961496,570.807518193712,711.784642431215,0,0,0,0,4,0,horizontal,vertical,vertical,vertical,vertical,horizontal
1d,22,100246,4,35,227,18,O,NA,constant,homogeneous,3,present,1.01310276985168,1,horizontal,horizontal,1,0.694116939197887,red,1,3,915.767577433584,827.206663668034,545.349468637584,586.654331158049,915.767577433584,827.206663668034,938.882953928832,386.139005173917,545.349468637584,586.654331158049,NaN,NaN,NaN,NaN,NaN,NaN,4,0,0,NaN,NaN,NaN,horizontal,horizontal,vertical,none,none,none
1d,22,100246,4,36,228,18,O,NA,constant,homogeneous,6,absent,0.990065097808838,1,vertical,vertical,1,1.02352622639049,red,2,NaN,1025.15163617903,719.715248510402,NaN,NaN,808.899371659138,854.844660889869,1025.15163617903,719.715248510402,1016.25226451989,464.870587620533,791.100628340862,345.155339110131,574.848363820974,480.284751489598,583.747735480111,735.129412379467,0,4,0,0,0,0,vertical,vertical,horizontal,vertical,vertical,horizontal
1d,22,100246,4,37,229,18,O,NA,constant,homogeneous,4,present,0.760089159011841,1,vertical,vertical,1,0.694116939197887,red,2,1,1045.12173246427,670.287525733335,729.712474266665,845.121732464271,729.712474266665,845.121732464271,1045.12173246427,670.287525733335,870.287525733335,354.878267535729,554.878267535729,529.712474266665,NaN,NaN,NaN,NaN,0,4,0,0,NaN,NaN,vertical,vertical,horizontal,vertical,none,none
1d,22,100246,4,38,230,18,O,NA,constant,homogeneous,4,present,0.8005690574646,1,horizontal,horizontal,1,1.0588200785897,red,2,3,1011.40458100154,457.40580961496,657.405809614959,388.595418998464,942.594190385041,811.404581001536,1011.40458100154,457.40580961496,657.405809614959,388.595418998464,588.595418998464,742.594190385041,NaN,NaN,NaN,NaN,0,4,0,0,NaN,NaN,vertical,horizontal,horizontal,vertical,none,none
1d,22,100246,4,39,231,18,O,NA,constant,homogeneous,5,present,1.26440715789795,1,horizontal,horizontal,1,0.988232374191284,red,4,5,561.936991243214,508.616172865948,639.523300282292,798.172220171528,938.882953928832,813.860994826083,1046.31108570371,534.001143498857,813.345668841951,345.349468637584,561.936991243214,508.616172865948,639.523300282292,798.172220171528,NaN,NaN,0,0,0,4,0,NaN,vertical,horizontal,horizontal,horizontal,horizontal,none
1d,22,100246,4,40,232,18,O,NA,constant,homogeneous,3,absent,0.806646108627319,1,horizontal,horizontal,1,1.03529084379023,red,2,NaN,1023.02802532055,723.626453162816,NaN,NaN,581.422338320961,731.334709102064,1023.02802532055,723.626453162816,795.549636358493,345.03883773512,NaN,NaN,NaN,NaN,NaN,NaN,0,4,0,NaN,NaN,NaN,horizontal,horizontal,horizontal,none,none,none
1d,22,100246,4,41,233,18,O,NA,constant,homogeneous,6,present,0.752841949462891,1,horizontal,horizontal,1,0.705881556597623,red,3,4,956.993676208043,399.057257830286,704.475318678942,363.568117085469,895.524681321058,836.431882914531,1052.5183575291,635.489140744817,956.993676208043,399.057257830286,704.475318678942,363.568117085469,547.481642470899,564.510859255183,643.006323791957,800.942742169714,0,0,4,0,0,0,horizontal,horizontal,horizontal,vertical,vertical,horizontal
1d,22,100246,4,42,234,18,O,NA,constant,homogeneous,6,present,0.90313196182251,1,vertical,vertical,1,0.741175408796831,red,2,3,977.137884467044,783.431649086356,1047.42541020038,538.309916622085,729.712474266665,845.121732464271,977.137884467044,783.431649086356,1047.42541020038,538.309916622085,870.287525733335,354.878267535729,622.862115532956,416.568350913644,552.574589799621,661.690083377915,0,4,0,0,0,0,horizontal,vertical,vertical,horizontal,horizontal,vertical
1d,22,100246,4,43,235,18,O,NA,constant,homogeneous,3,present,1.12341094017029,1,vertical,vertical,1,0.905880052393133,red,1,2,742.637481142314,848.464366520235,1043.85771277057,525.445215295702,742.637481142314,848.464366520235,1043.85771277057,525.445215295702,613.504806087112,426.090418184063,NaN,NaN,NaN,NaN,NaN,NaN,4,0,0,NaN,NaN,NaN,vertical,vertical,vertical,none,none,none
1d,22,100246,4,44,236,18,O,NA,constant,homogeneous,5,present,0.938782930374146,1,horizontal,horizontal,1,1.02352622639049,red,5,2,548.13947314824,560.109211414741,980.31222920257,780.31222920257,684.232422566416,827.206663668034,980.31222920257,780.31222920257,1027.20666366803,484.232422566416,760.109211414741,348.13947314824,548.13947314824,560.109211414741,NaN,NaN,0,0,0,0,4,NaN,vertical,vertical,horizontal,vertical,horizontal,none
1d,22,100246,4,45,237,18,O,NA,constant,homogeneous,4,present,0.878242969512939,1,horizontal,horizontal,1,0.647058469598944,red,2,1,1029.19248180629,488.215357568785,911.784642431215,829.192481806288,911.784642431215,829.192481806288,1029.19248180629,488.215357568785,688.215357568785,370.807518193712,570.807518193712,711.784642431215,NaN,NaN,NaN,NaN,0,4,0,0,NaN,NaN,horizontal,horizontal,vertical,horizontal,none,none
1d,22,100246,4,46,238,18,O,NA,constant,homogeneous,4,present,1.16100192070007,1,vertical,vertical,1,1.0588200785897,red,2,1,1050.31493177915,648.656293821019,751.343706178981,850.314931779154,751.343706178981,850.314931779154,1050.31493177915,648.656293821019,848.656293821019,349.685068220846,549.685068220846,551.343706178981,NaN,NaN,NaN,NaN,0,4,0,0,NaN,NaN,vertical,vertical,horizontal,horizontal,none,none
1d,22,100246,4,47,239,18,O,NA,constant,homogeneous,5,absent,0.794592142105103,1,vertical,vertical,1,0.905880052393133,red,2,NaN,992.450942956807,767.295052392579,NaN,NaN,700.363562235235,834.728737630372,992.450942956807,767.295052392579,1018.57766167904,468.665290897936,742.637481142314,351.535633479765,545.970351986605,577.775285599347,NaN,NaN,0,4,0,0,0,NaN,horizontal,vertical,vertical,vertical,vertical,none
1d,22,100246,4,48,240,18,O,NA,constant,homogeneous,4,absent,0.757467985153198,1,horizontal,horizontal,1,0.741175408796831,red,2,NaN,1008.88377129369,746.261991269517,NaN,NaN,653.738008730483,808.883771293693,1008.88377129369,746.261991269517,946.261991269517,391.116228706307,591.116228706307,453.738008730483,NaN,NaN,NaN,NaN,0,4,0,0,NaN,NaN,horizontal,horizontal,horizontal,horizontal,none,none
1d,22,100246,4,49,241,18,O,NA,constant,homogeneous,5,present,1.08124089241028,1,vertical,vertical,1,1.02352622639049,red,4,2,560.378381699593,512.784863451954,1045.12173246427,529.712474266665,942.594190385041,811.404581001536,1045.12173246427,529.712474266665,808.899371659138,345.155339110131,560.378381699593,512.784863451954,643.006323791957,800.942742169714,NaN,NaN,0,0,0,4,0,NaN,vertical,horizontal,vertical,vertical,vertical,none
