experiment,subject,uniqueID,block,trial,trial_cumulative,age,gender,color_cond_blocking,color_history,shape_type,set_size,distractor,rt,acc,target_orient,response_key,response_made,iti,target_color,target_item,distractor_item,target_X,target_Y,distractor_X,distractor_Y,item1_X,item1_Y,item2_X,item2_Y,item3_X,item3_Y,item4_X,item4_Y,item5_X,item5_Y,item6_X,item6_Y,item1_shape,item2_shape,item3_shape,item4_shape,item5_shape,item6_shape,item1_line,item2_line,item3_line,item4_line,item5_line,item6_line
1d,23,100247,1,1,1,19,F,NA,constant,homogeneous,4,absent,0.645449161529541,1,horizontal,horizontal,1,0.917642469406128,green,1,NaN,755.719714694933,851.125977018113,NaN,NaN,755.719714694933,851.125977018113,1051.12597701811,644.280285305067,844.280285305067,348.874022981887,548.874022981887,555.719714694933,NaN,NaN,NaN,NaN,4,0,0,0,NaN,NaN,horizontal,horizontal,horizontal,horizontal,none,none
1d,23,100247,1,2,2,19,F,NA,constant,homogeneous,5,present,0.716521024703979,1,horizontal,horizontal,1,0.694116287231445,green,2,1,1046.31108570371,665.998856501143,813.345668841951,854.650531362416,813.345668841951,854.650531362416,1046.31108570371,665.998856501143,938.882953928832,386.139005173917,639.523300282292,401.827779828472,561.936991243214,691.383827134052,NaN,NaN,0,4,0,0,0,NaN,horizontal,horizontal,vertical,vertical,horizontal,none
1d,23,100247,1,3,3,19,F,NA,constant,homogeneous,5,present,0.600076913833618,1,vertical,vertical,1,0.635293607711792,green,4,2,786.654331158049,345.349468637584,960.476699717708,798.172220171528,661.117046071168,813.860994826083,960.476699717708,798.172220171528,1038.06300875679,508.616172865948,786.654331158049,345.349468637584,553.688914296288,534.001143498857,NaN,NaN,0,0,0,4,0,NaN,horizontal,vertical,vertical,vertical,horizontal,none
1d,23,100247,1,4,4,19,F,NA,constant,homogeneous,3,present,0.520490169525146,1,horizontal,horizontal,1,0.635293607711792,green,3,1,545,600,927.5,820.836477965032,927.5,820.836477965032,927.5,379.163522034968,545,600,NaN,NaN,NaN,NaN,NaN,NaN,0,0,4,NaN,NaN,NaN,vertical,horizontal,horizontal,none,none,none
1d,23,100247,1,5,5,19,F,NA,constant,homogeneous,6,present,0.583796977996826,1,horizontal,horizontal,1,1.0235232925415,green,4,5,808.899371659138,345.155339110131,583.747735480111,464.870587620533,791.100628340862,854.844660889869,1016.25226451989,735.129412379467,1025.15163617903,480.284751489598,808.899371659138,345.155339110131,583.747735480111,464.870587620533,574.848363820974,719.715248510402,0,0,0,4,0,0,vertical,horizontal,vertical,horizontal,horizontal,horizontal
1d,23,100247,1,6,6,19,F,NA,constant,homogeneous,5,present,0.581504106521606,1,vertical,vertical,1,0.694116287231445,green,1,4,857.362518857686,848.464366520235,607.549057043193,432.704947607421,857.362518857686,848.464366520235,1054.0296480134,622.224714400653,899.636437764765,365.271262369628,607.549057043193,432.704947607421,581.422338320961,731.334709102064,NaN,NaN,4,0,0,0,0,NaN,vertical,horizontal,vertical,horizontal,horizontal,none
1d,23,100247,1,7,7,19,F,NA,constant,homogeneous,5,present,0.4736168384552,0,vertical,horizontal,1,1.0235232925415,green,5,2,567.045908301137,703.717843984329,1049.42763818712,653.017481158529,826.654758133252,853.60308331891,1049.42763818712,653.017481158529,927.5,379.163522034968,629.371695378491,410.498069503264,567.045908301137,703.717843984329,NaN,NaN,0,0,0,0,4,NaN,horizontal,horizontal,horizontal,horizontal,vertical,none
1d,23,100247,1,8,8,19,F,NA,constant,homogeneous,6,absent,0.647099018096924,1,horizontal,horizontal,1,0.976465148925781,green,1,NaN,848.656293821019,850.314931779154,NaN,NaN,848.656293821019,850.314931779154,1041.10723677783,683.019879386575,992.450942956807,432.704947607421,751.343706178981,349.685068220846,558.892763222174,516.980120613425,607.549057043193,767.295052392579,4,0,0,0,0,0,horizontal,horizontal,horizontal,horizontal,vertical,horizontal
1d,23,100247,1,9,9,19,F,NA,constant,homogeneous,6,present,0.654230833053589,1,vertical,vertical,1,0.694116287231445,green,6,5,583.747735480111,735.129412379467,574.848363820974,480.284751489598,808.899371659138,854.844660889869,1025.15163617903,719.715248510402,1016.25226451989,464.870587620533,791.100628340862,345.155339110131,574.848363820974,480.284751489598,583.747735480111,735.129412379467,0,0,0,0,0,4,vertical,vertical,vertical,vertical,horizontal,vertical
1d,23,100247,1,10,10,19,F,NA,constant,homogeneous,3,present,0.737955093383789,1,vertical,vertical,1,0.729409894943237,green,2,3,1048.46436652023,657.362518857686,725.445215295702,356.142287229426,626.090418184063,786.495193912888,1048.46436652023,657.362518857686,725.445215295702,356.142287229426,NaN,NaN,NaN,NaN,NaN,NaN,0,4,0,NaN,NaN,NaN,vertical,vertical,horizontal,none,none,none
1d,23,100247,1,11,11,19,F,NA,constant,homogeneous,6,present,0.580767154693604,1,vertical,vertical,1,0.999994220733643,green,4,6,831.076682568313,346.900731331463,565.271262369628,699.636437764765,768.923317431687,853.099268668537,1003.65205506206,753.462830903772,1034.72873763037,500.363562235235,831.076682568313,346.900731331463,596.34794493794,446.537169096228,565.271262369628,699.636437764765,0,0,0,4,0,0,vertical,vertical,horizontal,vertical,vertical,horizontal
1d,23,100247,1,12,12,19,F,NA,constant,homogeneous,4,absent,0.641763925552368,1,horizontal,horizontal,1,0.870584325790405,green,4,NaN,586.139005173917,461.117046071168,NaN,NaN,661.117046071168,813.860994826083,1013.86099482608,738.882953928832,938.882953928832,386.139005173917,586.139005173917,461.117046071168,NaN,NaN,NaN,NaN,0,0,0,4,NaN,NaN,vertical,horizontal,vertical,horizontal,none,none
1d,23,100247,1,13,13,19,F,NA,constant,homogeneous,4,absent,0.52672815322876,1,vertical,vertical,1,0.988229684829712,green,1,NaN,870.287525733335,845.121732464271,NaN,NaN,870.287525733335,845.121732464271,1045.12173246427,529.712474266665,729.712474266665,354.878267535729,554.878267535729,670.287525733335,NaN,NaN,NaN,NaN,4,0,0,0,NaN,NaN,vertical,horizontal,vertical,horizontal,none,none
1d,23,100247,1,14,14,19,F,NA,constant,homogeneous,4,present,0.520008087158203,1,horizontal,horizontal,1,0.741174430847168,green,4,3,581.422338320961,468.665290897936,931.334709102064,381.422338320961,668.665290897936,818.577661679039,1018.57766167904,731.334709102064,931.334709102064,381.422338320961,581.422338320961,468.665290897936,NaN,NaN,NaN,NaN,0,0,0,4,NaN,NaN,vertical,vertical,horizontal,horizontal,none,none
1d,23,100247,1,15,15,19,F,NA,constant,homogeneous,4,absent,0.353166103363037,1,horizontal,horizontal,1,0.917642469406128,green,1,NaN,700.363562235235,834.728737630372,NaN,NaN,700.363562235235,834.728737630372,1034.72873763037,699.636437764765,899.636437764765,365.271262369628,565.271262369628,500.363562235235,NaN,NaN,NaN,NaN,4,0,0,0,NaN,NaN,horizontal,horizontal,horizontal,horizontal,none,none
1d,23,100247,1,16,16,19,F,NA,constant,homogeneous,3,absent,0.432353019714355,1,horizontal,horizontal,1,1.01175875663757,green,3,NaN,557.480588344736,521.200666434388,NaN,NaN,853.017481158529,849.42763818712,989.501930496736,429.371695378491,557.480588344736,521.200666434388,NaN,NaN,NaN,NaN,NaN,NaN,0,0,4,NaN,NaN,NaN,horizontal,vertical,horizontal,none,none,none
1d,23,100247,1,17,17,19,F,NA,constant,homogeneous,3,present,0.406394004821777,1,vertical,vertical,1,1.04705236434937,green,3,1,545.621167183745,617.787900804752,942.594190385041,811.404581001536,942.594190385041,811.404581001536,911.784642431215,370.807518193712,545.621167183745,617.787900804752,NaN,NaN,NaN,NaN,NaN,NaN,0,0,4,NaN,NaN,NaN,horizontal,horizontal,vertical,none,none,none
1d,23,100247,1,18,18,19,F,NA,constant,homogeneous,6,absent,0.545590162277222,1,vertical,vertical,1,0.95293607711792,green,3,NaN,973.909581815937,413.504806087112,NaN,NaN,874.554784704298,843.857712770574,1048.46436652023,657.362518857686,973.909581815937,413.504806087112,725.445215295702,356.142287229426,551.535633479765,542.637481142314,626.090418184063,786.495193912888,0,0,4,0,0,0,vertical,vertical,vertical,vertical,horizontal,horizontal
1d,23,100247,1,19,19,19,F,NA,constant,homogeneous,6,present,0.486394166946411,1,horizontal,horizontal,1,0.882348861694336,green,6,1,643.006323791957,800.942742169714,895.524681321058,836.431882914531,895.524681321058,836.431882914531,1052.5183575291,635.489140744817,956.993676208043,399.057257830286,704.475318678942,363.568117085469,547.481642470899,564.510859255183,643.006323791957,800.942742169714,0,0,0,0,0,4,vertical,horizontal,vertical,horizontal,horizontal,horizontal
1d,23,100247,1,20,20,19,F,NA,constant,homogeneous,4,present,0.553164958953857,0,vertical,horizontal,1,0.847055253982544,green,1,3,704.475318678942,836.431882914531,895.524681321058,363.568117085469,704.475318678942,836.431882914531,1036.43188291453,695.524681321058,895.524681321058,363.568117085469,563.568117085469,504.475318678942,NaN,NaN,NaN,NaN,4,0,0,0,NaN,NaN,vertical,vertical,vertical,horizontal,none,none
1d,23,100247,1,21,21,19,F,NA,constant,homogeneous,6,absent,0.608289957046509,1,vertical,vertical,1,0.788232574462891,green,6,NaN,567.045908301137,703.717843984329,NaN,NaN,773.345241866748,853.60308331891,1006.29933356561,749.885239334581,1032.95409169886,496.282156015671,826.654758133252,346.39691668109,593.700666434388,450.114760665419,567.045908301137,703.717843984329,0,0,0,0,0,4,horizontal,horizontal,horizontal,vertical,vertical,vertical
1d,23,100247,1,22,22,19,F,NA,constant,homogeneous,5,absent,0.458714008331299,1,vertical,vertical,1,0.705880823135376,green,5,NaN,565.271262369628,699.636437764765,NaN,NaN,822.224714400653,854.029648013395,1048.46436652023,657.362518857686,931.334709102064,381.422338320961,632.704947607421,407.549057043193,565.271262369628,699.636437764765,NaN,NaN,0,0,0,0,4,NaN,vertical,horizontal,horizontal,vertical,vertical,none
1d,23,100247,1,23,23,19,F,NA,constant,homogeneous,5,absent,0.621000051498413,1,horizontal,horizontal,1,0.647058143615723,green,2,NaN,1052.5183575291,635.489140744817,NaN,NaN,844.280285305067,851.125977018113,1052.5183575291,635.489140744817,911.784642431215,370.807518193712,616.568350913644,422.862115532956,574.848363820974,719.715248510402,NaN,NaN,0,4,0,0,0,NaN,horizontal,horizontal,horizontal,vertical,horizontal,none
1d,23,100247,1,24,24,19,F,NA,constant,homogeneous,4,present,0.414025068283081,0,vertical,horizontal,1,1.0235232925415,green,4,1,563.568117085469,695.524681321058,895.524681321058,836.431882914531,895.524681321058,836.431882914531,1036.43188291453,504.475318678942,704.475318678942,363.568117085469,563.568117085469,695.524681321058,NaN,NaN,NaN,NaN,0,0,0,4,NaN,NaN,horizontal,vertical,horizontal,vertical,none,none
1d,23,100247,1,25,25,19,F,NA,constant,homogeneous,5,present,0.433609008789062,1,horizontal,horizontal,1,0.964700613021851,green,5,2,545.03883773512,604.450363641507,1008.88377129369,746.261991269517,725.445215295702,843.857712770574,1008.88377129369,746.261991269517,1003.65205506206,446.537169096228,716.980120613425,358.892763222174,545.03883773512,604.450363641507,NaN,NaN,0,0,0,0,4,NaN,horizontal,vertical,vertical,horizontal,horizontal,none
1d,23,100247,1,26,26,19,F,NA,constant,homogeneous,4,absent,0.475679159164429,1,horizontal,horizontal,1,1.0588169002533,green,4,NaN,568.891514305654,492.232343256122,NaN,NaN,692.232343256122,831.108485694346,1031.10848569435,707.767656743878,907.767656743878,368.891514305654,568.891514305654,492.232343256122,NaN,NaN,NaN,NaN,0,0,0,4,NaN,NaN,horizontal,vertical,vertical,horizontal,none,none
1d,23,100247,1,27,27,19,F,NA,constant,homogeneous,6,absent,0.574925184249878,1,horizontal,horizontal,1,0.682351751327515,green,6,NaN,626.090418184063,786.495193912888,NaN,NaN,874.554784704298,843.857712770574,1048.46436652023,657.362518857686,973.909581815937,413.504806087112,725.445215295702,356.142287229426,551.535633479765,542.637481142314,626.090418184063,786.495193912888,0,0,0,0,0,4,horizontal,horizontal,horizontal,horizontal,vertical,horizontal
1d,23,100247,1,28,28,19,F,NA,constant,homogeneous,3,present,0.581986904144287,1,horizontal,horizontal,1,0.77646803855896,green,3,2,570.807518193712,488.215357568785,1011.40458100154,457.40580961496,817.787900804752,854.378832816255,1011.40458100154,457.40580961496,570.807518193712,488.215357568785,NaN,NaN,NaN,NaN,NaN,NaN,0,0,4,NaN,NaN,NaN,vertical,vertical,horizontal,none,none,none
1d,23,100247,1,29,29,19,F,NA,constant,homogeneous,4,absent,0.398512125015259,1,vertical,vertical,1,1.03528782844543,green,4,NaN,558.892763222174,683.019879386575,NaN,NaN,883.019879386575,841.107236777826,1041.10723677783,516.980120613425,716.980120613425,358.892763222174,558.892763222174,683.019879386575,NaN,NaN,NaN,NaN,0,0,0,4,NaN,NaN,horizontal,vertical,horizontal,vertical,none,none
1d,23,100247,1,30,30,19,F,NA,constant,homogeneous,4,absent,0.806279897689819,1,vertical,vertical,1,0.77646803855896,green,3,NaN,725.445215295702,356.142287229426,NaN,NaN,874.554784704298,843.857712770574,1043.85771277057,525.445215295702,725.445215295702,356.142287229426,556.142287229426,674.554784704298,NaN,NaN,NaN,NaN,0,0,4,0,NaN,NaN,vertical,horizontal,vertical,horizontal,none,none
1d,23,100247,1,31,31,19,F,NA,constant,homogeneous,6,present,0.827229976654053,1,horizontal,horizontal,1,0.847055253982544,green,4,1,857.362518857686,351.535633479765,742.637481142314,848.464366520235,742.637481142314,848.464366520235,986.495193912888,773.909581815937,1043.85771277057,525.445215295702,857.362518857686,351.535633479765,613.504806087112,426.090418184063,556.142287229426,674.554784704298,0,0,0,4,0,0,vertical,horizontal,vertical,horizontal,vertical,vertical
1d,23,100247,1,32,32,19,F,NA,constant,homogeneous,3,absent,0.566114902496338,1,horizontal,horizontal,1,0.705880823135376,green,3,NaN,692.232343256122,368.891514305654,NaN,NaN,653.738008730483,808.883771293693,1054.0296480134,622.224714400653,692.232343256122,368.891514305654,NaN,NaN,NaN,NaN,NaN,NaN,0,0,4,NaN,NaN,NaN,vertical,horizontal,horizontal,none,none,none
1d,23,100247,1,33,33,19,F,NA,constant,homogeneous,3,present,0.541301965713501,1,vertical,vertical,1,0.77646803855896,green,3,2,579.163522034968,727.5,800,345,1020.83647796503,727.5,800,345,579.163522034968,727.5,NaN,NaN,NaN,NaN,NaN,NaN,0,0,4,NaN,NaN,NaN,vertical,horizontal,vertical,none,none,none
1d,23,100247,1,34,34,19,F,NA,constant,homogeneous,6,present,0.642921924591064,1,vertical,vertical,1,0.929407005310059,green,4,5,716.980120613425,358.892763222174,549.685068220846,551.343706178981,883.019879386575,841.107236777826,1050.31493177915,648.656293821019,967.295052392579,407.549057043193,716.980120613425,358.892763222174,549.685068220846,551.343706178981,632.704947607421,792.450942956807,0,0,0,4,0,0,horizontal,horizontal,horizontal,vertical,vertical,horizontal
1d,23,100247,1,35,35,19,F,NA,constant,homogeneous,3,absent,0.480524063110352,1,vertical,vertical,1,1.03528782844543,green,2,NaN,1011.40458100154,457.40580961496,NaN,NaN,817.787900804752,854.378832816255,1011.40458100154,457.40580961496,570.807518193712,488.215357568785,NaN,NaN,NaN,NaN,NaN,NaN,0,4,0,NaN,NaN,NaN,horizontal,vertical,horizontal,none,none,none
1d,23,100247,1,36,36,19,F,NA,constant,homogeneous,5,present,0.522025108337402,1,horizontal,horizontal,1,0.788232574462891,green,5,2,545.970351986605,577.775285599347,992.450942956807,767.295052392579,700.363562235235,834.728737630372,992.450942956807,767.295052392579,1018.57766167904,468.665290897936,742.637481142314,351.535633479765,545.970351986605,577.775285599347,NaN,NaN,0,0,0,0,4,NaN,vertical,horizontal,vertical,vertical,horizontal,none
1d,23,100247,1,37,37,19,F,NA,constant,homogeneous,4,present,0.553364038467407,1,horizontal,horizontal,1,0.847055253982544,green,2,1,1008.88377129369,453.738008730483,946.261991269517,808.883771293693,946.261991269517,808.883771293693,1008.88377129369,453.738008730483,653.738008730483,391.116228706307,591.116228706307,746.261991269517,NaN,NaN,NaN,NaN,0,4,0,0,NaN,NaN,horizontal,horizontal,vertical,vertical,none,none
1d,23,100247,1,38,38,19,F,NA,constant,homogeneous,6,absent,0.686755895614624,1,horizontal,horizontal,1,1.09411050796509,green,1,NaN,895.524681321058,836.431882914531,NaN,NaN,895.524681321058,836.431882914531,1052.5183575291,635.489140744817,956.993676208043,399.057257830286,704.475318678942,363.568117085469,547.481642470899,564.510859255183,643.006323791957,800.942742169714,4,0,0,0,0,0,horizontal,vertical,horizontal,vertical,vertical,horizontal
1d,23,100247,1,39,39,19,F,NA,constant,homogeneous,6,present,0.539434194564819,0,horizontal,vertical,1,0.941171541213989,green,3,2,973.909581815937,413.504806087112,1048.46436652023,657.362518857686,874.554784704298,843.857712770574,1048.46436652023,657.362518857686,973.909581815937,413.504806087112,725.445215295702,356.142287229426,551.535633479765,542.637481142314,626.090418184063,786.495193912888,0,0,4,0,0,0,horizontal,horizontal,horizontal,horizontal,vertical,vertical
1d,23,100247,1,40,40,19,F,NA,constant,homogeneous,3,absent,0.539517879486084,1,vertical,vertical,1,1.0588169002533,green,2,NaN,870.287525733335,354.878267535729,NaN,NaN,977.137884467044,783.431649086356,870.287525733335,354.878267535729,552.574589799621,661.690083377915,NaN,NaN,NaN,NaN,NaN,NaN,0,4,0,NaN,NaN,NaN,horizontal,vertical,horizontal,none,none,none
1d,23,100247,1,41,41,19,F,NA,constant,homogeneous,3,absent,0.55595588684082,1,horizontal,horizontal,1,0.882348861694336,green,3,NaN,650.114760665419,393.700666434388,NaN,NaN,696.282156015671,832.954091698863,1053.60308331891,573.345241866748,650.114760665419,393.700666434388,NaN,NaN,NaN,NaN,NaN,NaN,0,0,4,NaN,NaN,NaN,horizontal,vertical,horizontal,none,none,none
1d,23,100247,1,42,42,19,F,NA,constant,homogeneous,6,present,0.646295070648193,1,vertical,vertical,1,0.752938966751099,green,1,3,708.616172865948,838.063008756786,1051.86052685176,560.109211414741,708.616172865948,838.063008756786,960.476699717708,798.172220171528,1051.86052685176,560.109211414741,891.383827134052,361.936991243214,639.523300282292,401.827779828472,548.13947314824,639.890788585259,4,0,0,0,0,0,vertical,vertical,vertical,horizontal,vertical,vertical
1d,23,100247,1,43,43,19,F,NA,constant,homogeneous,5,absent,0.691572904586792,1,horizontal,horizontal,1,0.799997110366821,green,1,NaN,903.717843984329,832.954091698863,NaN,NaN,903.717843984329,832.954091698863,1053.60308331891,573.345241866748,853.017481158529,350.57236181288,579.163522034968,472.5,610.498069503264,770.628304621509,NaN,NaN,4,0,0,0,0,NaN,horizontal,horizontal,horizontal,horizontal,vertical,none
1d,23,100247,1,44,44,19,F,NA,constant,homogeneous,3,absent,0.481683015823364,1,vertical,vertical,1,0.811761646270752,green,2,NaN,853.017481158529,350.57236181288,NaN,NaN,989.501930496736,770.628304621509,853.017481158529,350.57236181288,557.480588344736,678.799333565612,NaN,NaN,NaN,NaN,NaN,NaN,0,4,0,NaN,NaN,NaN,horizontal,vertical,vertical,none,none,none
1d,23,100247,1,45,45,19,F,NA,constant,homogeneous,4,present,0.41817307472229,0,vertical,horizontal,1,0.929407005310059,green,4,1,607.549057043193,432.704947607421,632.704947607421,792.450942956807,632.704947607421,792.450942956807,992.450942956807,767.295052392579,967.295052392579,407.549057043193,607.549057043193,432.704947607421,NaN,NaN,NaN,NaN,0,0,0,4,NaN,NaN,horizontal,vertical,vertical,vertical,none,none
1d,23,100247,1,46,46,19,F,NA,constant,homogeneous,5,absent,0.548555135726929,1,horizontal,horizontal,1,1.09411050796509,green,3,NaN,1032.95409169886,496.282156015671,NaN,NaN,672.5,820.836477965032,970.628304621509,789.501930496736,1032.95409169886,496.282156015671,773.345241866748,346.39691668109,550.57236181288,546.982518841471,NaN,NaN,0,0,4,0,0,NaN,vertical,vertical,horizontal,vertical,vertical,none
1d,23,100247,1,47,47,19,F,NA,constant,homogeneous,3,absent,0.414868831634521,1,vertical,vertical,1,0.764703502655029,green,2,NaN,1043.85771277057,674.554784704298,NaN,NaN,613.504806087112,773.909581815937,1043.85771277057,674.554784704298,742.637481142314,351.535633479765,NaN,NaN,NaN,NaN,NaN,NaN,0,4,0,NaN,NaN,NaN,horizontal,vertical,vertical,none,none,none
1d,23,100247,1,48,48,19,F,NA,constant,homogeneous,4,present,0.400749921798706,0,horizontal,vertical,1,0.870584325790405,green,2,3,986.495193912888,773.909581815937,973.909581815937,413.504806087112,626.090418184063,786.495193912888,986.495193912888,773.909581815937,973.909581815937,413.504806087112,613.504806087112,426.090418184063,NaN,NaN,NaN,NaN,0,4,0,0,NaN,NaN,vertical,horizontal,horizontal,vertical,none,none
1d,23,100247,1,49,49,19,F,NA,constant,homogeneous,3,present,0.577080011367798,1,horizontal,horizontal,1,1.01175875663757,green,1,2,942.594190385041,811.404581001536,911.784642431215,370.807518193712,942.594190385041,811.404581001536,911.784642431215,370.807518193712,545.621167183745,617.787900804752,NaN,NaN,NaN,NaN,NaN,NaN,4,0,0,NaN,NaN,NaN,horizontal,horizontal,vertical,none,none,none
1d,23,100247,1,50,50,19,F,NA,constant,homogeneous,5,present,0.634979963302612,1,vertical,vertical,1,1.08234597206116,green,1,4,680.284751489598,825.151636179026,764.510859255183,347.4816424709,680.284751489598,825.151636179026,977.137884467044,783.431649086356,1029.19248180629,488.215357568785,764.510859255183,347.4816424709,548.874022981887,555.719714694933,NaN,NaN,4,0,0,0,0,NaN,vertical,vertical,horizontal,vertical,vertical,none
1d,23,100247,1,51,51,19,F,NA,constant,homogeneous,5,absent,0.331790924072266,1,vertical,vertical,1,0.999994220733643,green,3,NaN,956.993676208043,399.057257830286,NaN,NaN,791.100628340862,854.844660889869,1039.62161830041,687.215136548046,956.993676208043,399.057257830286,657.405809614959,388.595418998464,554.878267535729,670.287525733335,NaN,NaN,0,0,4,0,0,NaN,vertical,horizontal,vertical,horizontal,horizontal,none
1d,23,100247,1,52,52,19,F,NA,constant,homogeneous,6,absent,0.651365041732788,1,vertical,vertical,1,0.635293607711792,green,3,NaN,1054.0296480134,577.775285599347,NaN,NaN,692.232343256122,831.108485694346,946.261991269517,808.883771293693,1054.0296480134,577.775285599347,907.767656743878,368.891514305654,653.738008730483,391.116228706307,545.970351986605,622.224714400653,0,0,4,0,0,0,vertical,vertical,vertical,horizontal,horizontal,vertical
1d,23,100247,1,53,53,19,F,NA,constant,homogeneous,4,absent,0.868575096130371,1,vertical,vertical,1,0.611764535903931,green,4,NaN,568.891514305654,492.232343256122,NaN,NaN,692.232343256122,831.108485694346,1031.10848569435,707.767656743878,907.767656743878,368.891514305654,568.891514305654,492.232343256122,NaN,NaN,NaN,NaN,0,0,0,4,NaN,NaN,horizontal,vertical,vertical,vertical,none,none
1d,23,100247,1,54,54,19,F,NA,constant,homogeneous,5,absent,0.355740785598755,0,horizontal,vertical,1,1.08234597206116,green,2,NaN,1054.84466088987,591.100628340862,NaN,NaN,887.215136548046,839.621618300407,1054.84466088987,591.100628340862,870.287525733335,354.878267535729,588.595418998464,457.40580961496,599.057257830286,756.993676208043,NaN,NaN,0,4,0,0,0,NaN,vertical,horizontal,vertical,vertical,horizontal,none
1d,23,100247,1,55,55,19,F,NA,constant,homogeneous,4,present,0.719661951065063,1,horizontal,horizontal,1,0.823526182174683,green,4,2,546.900731331463,568.923317431687,1053.09926866854,631.076682568313,768.923317431687,853.099268668537,1053.09926866854,631.076682568313,831.076682568313,346.900731331463,546.900731331463,568.923317431687,NaN,NaN,NaN,NaN,0,0,0,4,NaN,NaN,horizontal,vertical,vertical,horizontal,none,none
1d,23,100247,1,56,56,19,F,NA,constant,homogeneous,4,present,0.664687871932983,1,vertical,vertical,1,0.717645359039307,green,3,2,755.719714694933,348.874022981887,1051.12597701811,555.719714694933,844.280285305067,851.125977018113,1051.12597701811,555.719714694933,755.719714694933,348.874022981887,548.874022981887,644.280285305067,NaN,NaN,NaN,NaN,0,0,4,0,NaN,NaN,horizontal,horizontal,vertical,horizontal,none,none
1d,23,100247,1,57,57,19,F,NA,constant,homogeneous,5,absent,0.546573877334595,1,vertical,vertical,1,0.823526182174683,green,1,NaN,751.343706178981,850.314931779154,NaN,NaN,751.343706178981,850.314931779154,1023.02802532055,723.626453162816,986.495193912888,426.090418184063,692.232343256122,368.891514305654,546.900731331463,631.076682568313,NaN,NaN,4,0,0,0,0,NaN,vertical,vertical,horizontal,horizontal,vertical,none
1d,23,100247,1,58,58,19,F,NA,constant,homogeneous,5,absent,0.500858068466187,1,vertical,vertical,1,0.964700613021851,green,4,NaN,586.139005173917,461.117046071168,NaN,NaN,891.383827134052,838.063008756786,1054.65053136242,586.654331158049,865.998856501143,353.688914296288,586.139005173917,461.117046071168,601.827779828472,760.476699717708,NaN,NaN,0,0,0,4,0,NaN,vertical,horizontal,horizontal,vertical,horizontal,none
1d,23,100247,1,59,59,19,F,NA,constant,homogeneous,6,absent,0.375201940536499,0,horizontal,vertical,1,1.01175875663757,green,3,NaN,1011.40458100154,457.40580961496,NaN,NaN,817.787900804752,854.378832816255,1029.19248180629,711.784642431215,1011.40458100154,457.40580961496,782.212099195248,345.621167183745,570.807518193712,488.215357568785,588.595418998464,742.594190385041,0,0,4,0,0,0,vertical,horizontal,horizontal,horizontal,vertical,vertical
1d,23,100247,1,60,60,19,F,NA,constant,homogeneous,3,absent,0.490036010742188,1,horizontal,horizontal,1,0.729409894943237,green,2,NaN,1051.86052685176,560.109211414741,NaN,NaN,708.616172865948,838.063008756786,1051.86052685176,560.109211414741,639.523300282292,401.827779828472,NaN,NaN,NaN,NaN,NaN,NaN,0,4,0,NaN,NaN,NaN,vertical,horizontal,vertical,none,none,none
1d,23,100247,1,61,61,19,F,NA,constant,homogeneous,6,absent,0.606859922409058,1,vertical,vertical,1,0.764703502655029,green,2,NaN,983.431649086356,777.137884467044,NaN,NaN,738.309916622085,847.425410200379,983.431649086356,777.137884467044,1045.12173246427,529.712474266665,861.690083377915,352.574589799621,616.568350913644,422.862115532956,554.878267535729,670.287525733335,0,4,0,0,0,0,horizontal,vertical,vertical,horizontal,horizontal,horizontal
1d,23,100247,1,62,62,19,F,NA,constant,homogeneous,5,present,0.533838987350464,1,horizontal,horizontal,1,0.741174430847168,green,2,1,1051.86052685176,560.109211414741,915.767577433584,827.206663668034,915.767577433584,827.206663668034,1051.86052685176,560.109211414741,839.890788585259,348.13947314824,572.793336331966,484.232422566416,619.68777079743,780.31222920257,NaN,NaN,0,4,0,0,0,NaN,horizontal,horizontal,horizontal,horizontal,horizontal,none
1d,23,100247,1,63,63,19,F,NA,constant,homogeneous,3,present,0.617264986038208,1,horizontal,horizontal,1,0.623529071807861,green,3,2,738.309916622085,352.574589799621,1045.12173246427,670.287525733335,616.568350913644,777.137884467044,1045.12173246427,670.287525733335,738.309916622085,352.574589799621,NaN,NaN,NaN,NaN,NaN,NaN,0,0,4,NaN,NaN,NaN,horizontal,vertical,horizontal,none,none,none
1d,23,100247,1,64,64,19,F,NA,constant,homogeneous,3,present,0.434714078903198,0,vertical,horizontal,1,0.647058143615723,green,3,2,547.481642470899,564.510859255183,956.993676208043,399.057257830286,895.524681321058,836.431882914531,956.993676208043,399.057257830286,547.481642470899,564.510859255183,NaN,NaN,NaN,NaN,NaN,NaN,0,0,4,NaN,NaN,NaN,vertical,vertical,vertical,none,none,none
1d,23,100247,2,1,65,19,F,NA,constant,homogeneous,5,absent,0.708492040634155,1,horizontal,horizontal,1,0.847055253982544,green,5,NaN,632.704947607421,792.450942956807,NaN,NaN,931.334709102064,818.577661679039,1048.46436652023,542.637481142314,822.224714400653,345.970351986605,565.271262369628,500.363562235235,632.704947607421,792.450942956807,NaN,NaN,0,0,0,0,4,NaN,vertical,horizontal,horizontal,vertical,horizontal,none
1d,23,100247,2,2,66,19,F,NA,constant,homogeneous,3,absent,0.636413097381592,1,vertical,vertical,1,0.858819789886475,green,1,NaN,692.232343256122,831.108485694346,NaN,NaN,692.232343256122,831.108485694346,1054.0296480134,577.775285599347,653.738008730483,391.116228706307,NaN,NaN,NaN,NaN,NaN,NaN,4,0,0,NaN,NaN,NaN,vertical,vertical,horizontal,none,none,none
1d,23,100247,2,3,67,19,F,NA,constant,homogeneous,5,absent,0.562618970870972,1,vertical,vertical,1,0.882348861694336,green,3,NaN,1029.19248180629,488.215357568785,NaN,NaN,680.284751489598,825.151636179026,977.137884467044,783.431649086356,1029.19248180629,488.215357568785,764.510859255183,347.4816424709,548.874022981887,555.719714694933,NaN,NaN,0,0,4,0,0,NaN,vertical,horizontal,vertical,horizontal,horizontal,none
1d,23,100247,2,4,68,19,F,NA,constant,homogeneous,3,absent,0.439970016479492,1,vertical,vertical,1,0.694116287231445,green,2,NaN,1047.42541020038,538.309916622085,NaN,NaN,729.712474266665,845.121732464271,1047.42541020038,538.309916622085,622.862115532956,416.568350913644,NaN,NaN,NaN,NaN,NaN,NaN,0,4,0,NaN,NaN,NaN,vertical,vertical,vertical,none,none,none
1d,23,100247,2,5,69,19,F,NA,constant,homogeneous,4,absent,0.475232124328613,1,horizontal,horizontal,1,0.717645359039307,green,4,NaN,599.057257830286,443.006323791957,NaN,NaN,643.006323791957,800.942742169714,1000.94274216971,756.993676208043,956.993676208043,399.057257830286,599.057257830286,443.006323791957,NaN,NaN,NaN,NaN,0,0,0,4,NaN,NaN,horizontal,vertical,vertical,horizontal,none,none
1d,23,100247,2,6,70,19,F,NA,constant,homogeneous,6,present,0.868652105331421,1,horizontal,horizontal,1,0.788232574462891,green,5,6,657.405809614959,388.595418998464,545.621167183745,617.787900804752,688.215357568785,829.192481806288,942.594190385041,811.404581001536,1054.37883281626,582.212099195248,911.784642431215,370.807518193712,657.405809614959,388.595418998464,545.621167183745,617.787900804752,0,0,0,0,4,0,vertical,horizontal,horizontal,vertical,horizontal,vertical
1d,23,100247,2,7,71,19,F,NA,constant,homogeneous,3,present,0.504411220550537,1,horizontal,horizontal,1,0.917642469406128,green,2,1,800,345,1020.83647796503,727.5,1020.83647796503,727.5,800,345,579.163522034968,727.5,NaN,NaN,NaN,NaN,NaN,NaN,0,4,0,NaN,NaN,NaN,vertical,horizontal,vertical,none,none,none
1d,23,100247,2,8,72,19,F,NA,constant,homogeneous,5,present,0.59435510635376,1,horizontal,horizontal,1,0.976465148925781,green,3,5,956.993676208043,399.057257830286,554.878267535729,670.287525733335,791.100628340862,854.844660889869,1039.62161830041,687.215136548046,956.993676208043,399.057257830286,657.405809614959,388.595418998464,554.878267535729,670.287525733335,NaN,NaN,0,0,4,0,0,NaN,vertical,horizontal,horizontal,vertical,vertical,none
1d,23,100247,2,9,73,19,F,NA,constant,homogeneous,4,absent,0.474058866500854,0,horizontal,vertical,1,0.976465148925781,green,1,NaN,857.362518857686,848.464366520235,NaN,NaN,857.362518857686,848.464366520235,1048.46436652023,542.637481142314,742.637481142314,351.535633479765,551.535633479765,657.362518857686,NaN,NaN,NaN,NaN,4,0,0,0,NaN,NaN,horizontal,horizontal,vertical,vertical,none,none
1d,23,100247,2,10,74,19,F,NA,constant,homogeneous,6,absent,0.689460039138794,1,vertical,vertical,1,0.694116287231445,green,3,NaN,1000.94274216971,443.006323791957,NaN,NaN,835.489140744817,852.518357529101,1036.43188291453,695.524681321058,1000.94274216971,443.006323791957,764.510859255183,347.4816424709,563.568117085469,504.475318678942,599.057257830286,756.993676208043,0,0,4,0,0,0,horizontal,vertical,vertical,horizontal,horizontal,vertical
1d,23,100247,2,11,75,19,F,NA,constant,homogeneous,3,absent,0.523918867111206,1,horizontal,horizontal,1,0.623529071807861,green,1,NaN,927.5,820.836477965032,NaN,NaN,927.5,820.836477965032,927.5,379.163522034968,545,600,NaN,NaN,NaN,NaN,NaN,NaN,4,0,0,NaN,NaN,NaN,horizontal,horizontal,horizontal,none,none,none
1d,23,100247,2,12,76,19,F,NA,constant,homogeneous,5,absent,0.59721302986145,1,vertical,vertical,1,0.741174430847168,green,5,NaN,574.848363820974,719.715248510402,NaN,NaN,844.280285305067,851.125977018113,1052.5183575291,635.489140744817,911.784642431215,370.807518193712,616.568350913644,422.862115532956,574.848363820974,719.715248510402,NaN,NaN,0,0,0,0,4,NaN,horizontal,vertical,vertical,horizontal,vertical,none
1d,23,100247,2,13,77,19,F,NA,constant,homogeneous,6,absent,0.552083015441895,1,horizontal,horizontal,1,0.741174430847168,green,1,NaN,857.362518857686,848.464366520235,NaN,NaN,857.362518857686,848.464366520235,1043.85771277057,674.554784704298,986.495193912888,426.090418184063,742.637481142314,351.535633479765,556.142287229426,525.445215295702,613.504806087112,773.909581815937,4,0,0,0,0,0,horizontal,horizontal,vertical,vertical,horizontal,vertical
1d,23,100247,2,14,78,19,F,NA,constant,homogeneous,4,absent,0.515506982803345,1,vertical,vertical,1,0.799997110366821,green,3,NaN,977.137884467044,416.568350913644,NaN,NaN,622.862115532956,783.431649086356,983.431649086356,777.137884467044,977.137884467044,416.568350913644,616.568350913644,422.862115532956,NaN,NaN,NaN,NaN,0,0,4,0,NaN,NaN,horizontal,horizontal,vertical,horizontal,none,none
1d,23,100247,2,15,79,19,F,NA,constant,homogeneous,6,absent,0.539059162139893,0,vertical,horizontal,1,1.0588169002533,green,5,NaN,545.349468637584,586.654331158049,NaN,NaN,915.767577433584,827.206663668034,1054.65053136242,613.345668841951,938.882953928832,386.139005173917,684.232422566416,372.793336331966,545.349468637584,586.654331158049,661.117046071168,813.860994826083,0,0,0,0,4,0,vertical,vertical,horizontal,vertical,vertical,vertical
1d,23,100247,2,16,80,19,F,NA,constant,homogeneous,5,absent,0.491410970687866,1,horizontal,horizontal,1,0.882348861694336,green,2,NaN,1052.5183575291,564.510859255183,NaN,NaN,911.784642431215,829.192481806288,1052.5183575291,564.510859255183,844.280285305067,348.874022981887,574.848363820974,480.284751489598,616.568350913644,777.137884467044,NaN,NaN,0,4,0,0,0,NaN,vertical,horizontal,vertical,horizontal,vertical,none
1d,23,100247,2,17,81,19,F,NA,constant,homogeneous,6,absent,0.556403160095215,1,vertical,vertical,1,0.752938966751099,green,3,NaN,1025.15163617903,480.284751489598,NaN,NaN,791.100628340862,854.844660889869,1016.25226451989,735.129412379467,1025.15163617903,480.284751489598,808.899371659138,345.155339110131,583.747735480111,464.870587620533,574.848363820974,719.715248510402,0,0,4,0,0,0,horizontal,horizontal,vertical,horizontal,horizontal,vertical
1d,23,100247,2,18,82,19,F,NA,constant,homogeneous,5,absent,0.66842794418335,1,horizontal,horizontal,1,1.03528782844543,green,5,NaN,601.827779828472,760.476699717708,NaN,NaN,891.383827134052,838.063008756786,1054.65053136242,586.654331158049,865.998856501143,353.688914296288,586.139005173917,461.117046071168,601.827779828472,760.476699717708,NaN,NaN,0,0,0,0,4,NaN,vertical,vertical,horizontal,vertical,horizontal,none
1d,23,100247,2,19,83,19,F,NA,constant,homogeneous,5,present,0.637759923934937,1,horizontal,horizontal,1,0.976465148925781,green,3,4,857.362518857686,351.535633479765,581.422338320961,468.665290897936,899.636437764765,834.728737630372,1054.0296480134,577.775285599347,857.362518857686,351.535633479765,581.422338320961,468.665290897936,607.549057043193,767.295052392579,NaN,NaN,0,0,4,0,0,NaN,horizontal,horizontal,horizontal,horizontal,horizontal,none
1d,23,100247,2,20,84,19,F,NA,constant,homogeneous,4,absent,0.589498043060303,1,vertical,vertical,1,0.95293607711792,green,3,NaN,760.109211414741,348.13947314824,NaN,NaN,839.890788585259,851.86052685176,1051.86052685176,560.109211414741,760.109211414741,348.13947314824,548.13947314824,639.890788585259,NaN,NaN,NaN,NaN,0,0,4,0,NaN,NaN,vertical,horizontal,vertical,vertical,none,none
1d,23,100247,2,21,85,19,F,NA,constant,homogeneous,4,present,0.588143110275269,1,vertical,vertical,1,0.729409894943237,green,1,3,839.890788585259,851.86052685176,760.109211414741,348.13947314824,839.890788585259,851.86052685176,1051.86052685176,560.109211414741,760.109211414741,348.13947314824,548.13947314824,639.890788585259,NaN,NaN,NaN,NaN,4,0,0,0,NaN,NaN,vertical,horizontal,vertical,horizontal,none,none
1d,23,100247,2,22,86,19,F,NA,constant,homogeneous,4,present,0.553099870681763,1,horizontal,horizontal,1,0.635293607711792,green,1,2,777.775285599347,854.029648013395,1054.0296480134,622.224714400653,777.775285599347,854.029648013395,1054.0296480134,622.224714400653,822.224714400653,345.970351986605,545.970351986605,577.775285599347,NaN,NaN,NaN,NaN,4,0,0,0,NaN,NaN,horizontal,vertical,horizontal,horizontal,none,none
1d,23,100247,2,23,87,19,F,NA,constant,homogeneous,5,absent,0.57221794128418,1,vertical,vertical,1,0.6,green,4,NaN,586.139005173917,461.117046071168,NaN,NaN,891.383827134052,838.063008756786,1054.65053136242,586.654331158049,865.998856501143,353.688914296288,586.139005173917,461.117046071168,601.827779828472,760.476699717708,NaN,NaN,0,0,0,4,0,NaN,horizontal,horizontal,horizontal,vertical,vertical,none
1d,23,100247,2,24,88,19,F,NA,constant,homogeneous,4,absent,0.537431001663208,1,vertical,vertical,1,0.882348861694336,green,4,NaN,549.685068220846,551.343706178981,NaN,NaN,751.343706178981,850.314931779154,1050.31493177915,648.656293821019,848.656293821019,349.685068220846,549.685068220846,551.343706178981,NaN,NaN,NaN,NaN,0,0,0,4,NaN,NaN,horizontal,horizontal,horizontal,vertical,none,none
1d,23,100247,2,25,89,19,F,NA,constant,homogeneous,5,present,0.571202039718628,1,horizontal,horizontal,1,0.752938966751099,green,2,5,1052.5183575291,635.489140744817,574.848363820974,719.715248510402,844.280285305067,851.125977018113,1052.5183575291,635.489140744817,911.784642431215,370.807518193712,616.568350913644,422.862115532956,574.848363820974,719.715248510402,NaN,NaN,0,4,0,0,0,NaN,vertical,horizontal,horizontal,horizontal,horizontal,none
1d,23,100247,2,26,90,19,F,NA,constant,homogeneous,3,absent,0.513881921768188,1,horizontal,horizontal,1,0.95293607711792,green,3,NaN,546.900731331463,568.923317431687,NaN,NaN,899.636437764765,834.728737630372,953.462830903772,396.34794493794,546.900731331463,568.923317431687,NaN,NaN,NaN,NaN,NaN,NaN,0,0,4,NaN,NaN,NaN,horizontal,horizontal,horizontal,none,none,none
1d,23,100247,2,27,91,19,F,NA,constant,homogeneous,3,present,0.452605009078979,1,vertical,vertical,1,0.823526182174683,green,1,3,607.549057043193,767.295052392579,751.343706178981,349.685068220846,607.549057043193,767.295052392579,1041.10723677783,683.019879386575,751.343706178981,349.685068220846,NaN,NaN,NaN,NaN,NaN,NaN,4,0,0,NaN,NaN,NaN,vertical,horizontal,vertical,none,none,none
1d,23,100247,2,28,92,19,F,NA,constant,homogeneous,4,absent,0.510039091110229,1,horizontal,horizontal,1,0.811761646270752,green,4,NaN,554.878267535729,670.287525733335,NaN,NaN,870.287525733335,845.121732464271,1045.12173246427,529.712474266665,729.712474266665,354.878267535729,554.878267535729,670.287525733335,NaN,NaN,NaN,NaN,0,0,0,4,NaN,NaN,vertical,horizontal,horizontal,horizontal,none,none
1d,23,100247,2,29,93,19,F,NA,constant,homogeneous,5,present,0.426314115524292,1,vertical,vertical,1,0.894113397598267,green,2,4,1053.60308331891,626.654758133252,610.498069503264,429.371695378491,853.017481158529,849.42763818712,1053.60308331891,626.654758133252,903.717843984329,367.045908301137,610.498069503264,429.371695378491,579.163522034968,727.5,NaN,NaN,0,4,0,0,0,NaN,vertical,vertical,horizontal,horizontal,vertical,none
1d,23,100247,2,30,94,19,F,NA,constant,homogeneous,4,present,0.503960132598877,0,vertical,horizontal,1,0.847055253982544,green,3,1,973.909581815937,413.504806087112,626.090418184063,786.495193912888,626.090418184063,786.495193912888,986.495193912888,773.909581815937,973.909581815937,413.504806087112,613.504806087112,426.090418184063,NaN,NaN,NaN,NaN,0,0,4,0,NaN,NaN,horizontal,horizontal,vertical,horizontal,none,none
1d,23,100247,2,31,95,19,F,NA,constant,homogeneous,5,absent,0.658691167831421,1,vertical,vertical,1,1.03528782844543,green,1,NaN,708.616172865948,838.063008756786,NaN,NaN,708.616172865948,838.063008756786,998.172220171528,760.476699717708,1013.86099482608,461.117046071168,734.001143498857,353.688914296288,545.349468637584,586.654331158049,NaN,NaN,4,0,0,0,0,NaN,vertical,vertical,vertical,vertical,horizontal,none
1d,23,100247,2,32,96,19,F,NA,constant,homogeneous,5,present,0.489037036895752,1,vertical,vertical,1,0.635293607711792,green,3,4,1025.15163617903,480.284751489598,755.719714694933,348.874022981887,688.215357568785,829.192481806288,983.431649086356,777.137884467044,1025.15163617903,480.284751489598,755.719714694933,348.874022981887,547.481642470899,564.510859255183,NaN,NaN,0,0,4,0,0,NaN,vertical,vertical,vertical,horizontal,vertical,none
1d,23,100247,2,33,97,19,F,NA,constant,homogeneous,3,absent,0.807153940200806,1,horizontal,horizontal,1,0.611764535903931,green,2,NaN,1052.5183575291,635.489140744817,NaN,NaN,643.006323791957,800.942742169714,1052.5183575291,635.489140744817,704.475318678942,363.568117085469,NaN,NaN,NaN,NaN,NaN,NaN,0,4,0,NaN,NaN,NaN,vertical,horizontal,horizontal,none,none,none
1d,23,100247,2,34,98,19,F,NA,constant,homogeneous,4,present,0.52478814125061,1,horizontal,horizontal,1,1.07058143615723,green,2,3,1054.65053136242,586.654331158049,786.654331158049,345.349468637584,813.345668841951,854.650531362416,1054.65053136242,586.654331158049,786.654331158049,345.349468637584,545.349468637584,613.345668841951,NaN,NaN,NaN,NaN,0,4,0,0,NaN,NaN,horizontal,horizontal,vertical,vertical,none,none
1d,23,100247,2,35,99,19,F,NA,constant,homogeneous,4,absent,0.708185195922852,1,horizontal,horizontal,1,1.04705236434937,green,4,NaN,570.807518193712,488.215357568785,NaN,NaN,688.215357568785,829.192481806288,1029.19248180629,711.784642431215,911.784642431215,370.807518193712,570.807518193712,488.215357568785,NaN,NaN,NaN,NaN,0,0,0,4,NaN,NaN,vertical,vertical,vertical,horizontal,none,none
1d,23,100247,2,36,100,19,F,NA,constant,homogeneous,6,present,0.511754035949707,1,vertical,vertical,1,1.04705236434937,green,5,2,639.523300282292,401.827779828472,960.476699717708,798.172220171528,708.616172865948,838.063008756786,960.476699717708,798.172220171528,1051.86052685176,560.109211414741,891.383827134052,361.936991243214,639.523300282292,401.827779828472,548.13947314824,639.890788585259,0,0,0,0,4,0,vertical,horizontal,vertical,horizontal,vertical,vertical
1d,23,100247,2,37,101,19,F,NA,constant,homogeneous,6,present,0.647222995758057,1,horizontal,horizontal,1,0.658822679519653,green,4,5,874.554784704298,356.142287229426,626.090418184063,413.504806087112,725.445215295702,843.857712770574,973.909581815937,786.495193912888,1048.46436652023,542.637481142314,874.554784704298,356.142287229426,626.090418184063,413.504806087112,551.535633479765,657.362518857686,0,0,0,4,0,0,horizontal,vertical,horizontal,horizontal,horizontal,horizontal
1d,23,100247,2,38,102,19,F,NA,constant,homogeneous,6,present,0.469937086105347,1,horizontal,horizontal,1,1.07058143615723,green,4,5,915.767577433584,372.793336331966,661.117046071168,386.139005173917,684.232422566416,827.206663668034,938.882953928832,813.860994826083,1054.65053136242,586.654331158049,915.767577433584,372.793336331966,661.117046071168,386.139005173917,545.349468637584,613.345668841951,0,0,0,4,0,0,horizontal,vertical,vertical,horizontal,vertical,horizontal
1d,23,100247,2,39,103,19,F,NA,constant,homogeneous,4,present,0.43250298500061,1,horizontal,horizontal,1,1.0588169002533,green,2,1,986.495193912888,426.090418184063,973.909581815937,786.495193912888,973.909581815937,786.495193912888,986.495193912888,426.090418184063,626.090418184063,413.504806087112,613.504806087112,773.909581815937,NaN,NaN,NaN,NaN,0,4,0,0,NaN,NaN,horizontal,horizontal,vertical,horizontal,none,none
1d,23,100247,2,40,104,19,F,NA,constant,homogeneous,5,present,0.353049039840698,1,vertical,vertical,1,0.988229684829712,green,3,1,1038.06300875679,508.616172865948,661.117046071168,813.860994826083,661.117046071168,813.860994826083,960.476699717708,798.172220171528,1038.06300875679,508.616172865948,786.654331158049,345.349468637584,553.688914296288,534.001143498857,NaN,NaN,0,0,4,0,0,NaN,vertical,horizontal,vertical,horizontal,vertical,none
1d,23,100247,2,41,105,19,F,NA,constant,homogeneous,4,present,0.363538026809692,1,vertical,vertical,1,0.95293607711792,green,4,1,554.878267535729,670.287525733335,870.287525733335,845.121732464271,870.287525733335,845.121732464271,1045.12173246427,529.712474266665,729.712474266665,354.878267535729,554.878267535729,670.287525733335,NaN,NaN,NaN,NaN,0,0,0,4,NaN,NaN,horizontal,horizontal,horizontal,vertical,none,none
1d,23,100247,2,42,106,19,F,NA,constant,homogeneous,3,present,0.573583841323853,1,vertical,vertical,1,0.917642469406128,green,1,3,712.784863451954,839.621618300407,636.089159529932,404.658667004661,712.784863451954,839.621618300407,1051.12597701811,555.719714694933,636.089159529932,404.658667004661,NaN,NaN,NaN,NaN,NaN,NaN,4,0,0,NaN,NaN,NaN,vertical,horizontal,vertical,none,none,none
1d,23,100247,2,43,107,19,F,NA,constant,homogeneous,3,present,0.525598049163818,1,horizontal,horizontal,1,1.0235232925415,green,2,1,1055,600,672.5,820.836477965032,672.5,820.836477965032,1055,600,672.5,379.163522034968,NaN,NaN,NaN,NaN,NaN,NaN,0,4,0,NaN,NaN,NaN,vertical,horizontal,vertical,none,none,none
1d,23,100247,2,44,108,19,F,NA,constant,homogeneous,3,present,0.526268005371094,1,horizontal,horizontal,1,0.894113397598267,green,3,1,550.57236181288,546.982518841471,878.799333565612,842.519411655264,878.799333565612,842.519411655264,970.628304621509,410.498069503264,550.57236181288,546.982518841471,NaN,NaN,NaN,NaN,NaN,NaN,0,0,4,NaN,NaN,NaN,horizontal,vertical,horizontal,none,none,none
1d,23,100247,2,45,109,19,F,NA,constant,homogeneous,6,present,0.480419158935547,0,vertical,horizontal,1,0.988229684829712,green,6,2,657.405809614959,811.404581001536,1054.37883281626,617.787900804752,911.784642431215,829.192481806288,1054.37883281626,617.787900804752,942.594190385041,388.595418998464,688.215357568785,370.807518193712,545.621167183745,582.212099195248,657.405809614959,811.404581001536,0,0,0,0,0,4,horizontal,vertical,vertical,horizontal,vertical,vertical
1d,23,100247,2,46,110,19,F,NA,constant,homogeneous,3,absent,0.678143978118896,1,vertical,vertical,1,0.6,green,3,NaN,556.142287229426,674.554784704298,NaN,NaN,986.495193912888,773.909581815937,857.362518857686,351.535633479765,556.142287229426,674.554784704298,NaN,NaN,NaN,NaN,NaN,NaN,0,0,4,NaN,NaN,NaN,horizontal,vertical,vertical,none,none,none
1d,23,100247,2,47,111,19,F,NA,constant,homogeneous,5,absent,0.95966911315918,1,horizontal,horizontal,1,0.811761646270752,green,4,NaN,746.982518841471,350.57236181288,NaN,NaN,696.282156015671,832.954091698863,989.501930496736,770.628304621509,1020.83647796503,472.5,746.982518841471,350.57236181288,546.39691668109,573.345241866748,NaN,NaN,0,0,0,4,0,NaN,horizontal,vertical,vertical,horizontal,horizontal,none
1d,23,100247,2,48,112,19,F,NA,constant,homogeneous,6,absent,0.735521078109741,1,horizontal,horizontal,1,0.811761646270752,green,5,NaN,629.371695378491,410.498069503264,NaN,NaN,721.200666434388,842.519411655264,970.628304621509,789.501930496736,1049.42763818712,546.982518841471,878.799333565612,357.480588344736,629.371695378491,410.498069503264,550.57236181288,653.017481158529,0,0,0,0,4,0,horizontal,vertical,horizontal,vertical,horizontal,horizontal
1d,23,100247,2,49,113,19,F,NA,constant,homogeneous,5,present,0.665565013885498,1,horizontal,horizontal,1,0.752938966751099,green,3,2,1039.62161830041,512.784863451954,956.993676208043,800.942742169714,657.405809614959,811.404581001536,956.993676208043,800.942742169714,1039.62161830041,512.784863451954,791.100628340862,345.155339110131,554.878267535729,529.712474266665,NaN,NaN,0,0,4,0,0,NaN,vertical,horizontal,horizontal,horizontal,vertical,none
1d,23,100247,2,50,114,19,F,NA,constant,homogeneous,4,absent,0.94687294960022,0,vertical,horizontal,1,0.999994220733643,green,4,NaN,586.139005173917,738.882953928832,NaN,NaN,938.882953928832,813.860994826083,1013.86099482608,461.117046071168,661.117046071168,386.139005173917,586.139005173917,738.882953928832,NaN,NaN,NaN,NaN,0,0,0,4,NaN,NaN,vertical,horizontal,vertical,vertical,none,none
1d,23,100247,2,51,115,19,F,NA,constant,homogeneous,6,absent,0.91926908493042,1,vertical,vertical,1,0.658822679519653,green,4,NaN,708.616172865948,361.936991243214,NaN,NaN,891.383827134052,838.063008756786,1051.86052685176,639.890788585259,960.476699717708,401.827779828472,708.616172865948,361.936991243214,548.13947314824,560.109211414741,639.523300282292,798.172220171528,0,0,0,4,0,0,vertical,vertical,horizontal,vertical,vertical,vertical
1d,23,100247,2,52,116,19,F,NA,constant,homogeneous,4,present,0.817012071609497,1,horizontal,horizontal,1,0.964700613021851,green,4,3,556.142287229426,525.445215295702,874.554784704298,356.142287229426,725.445215295702,843.857712770574,1043.85771277057,674.554784704298,874.554784704298,356.142287229426,556.142287229426,525.445215295702,NaN,NaN,NaN,NaN,0,0,0,4,NaN,NaN,vertical,horizontal,horizontal,horizontal,none,none
1d,23,100247,2,53,117,19,F,NA,constant,homogeneous,3,present,0.579505205154419,1,vertical,vertical,1,1.09411050796509,green,1,2,643.006323791957,800.942742169714,1052.5183575291,635.489140744817,643.006323791957,800.942742169714,1052.5183575291,635.489140744817,704.475318678942,363.568117085469,NaN,NaN,NaN,NaN,NaN,NaN,4,0,0,NaN,NaN,NaN,vertical,horizontal,horizontal,none,none,none
1d,23,100247,2,54,118,19,F,NA,constant,homogeneous,6,present,0.604892015457153,1,vertical,vertical,1,1.08234597206116,green,5,6,550.57236181288,546.982518841471,629.371695378491,789.501930496736,878.799333565612,842.519411655264,1049.42763818712,653.017481158529,970.628304621509,410.498069503264,721.200666434388,357.480588344736,550.57236181288,546.982518841471,629.371695378491,789.501930496736,0,0,0,0,4,0,horizontal,vertical,vertical,vertical,vertical,horizontal
1d,23,100247,2,55,119,19,F,NA,constant,homogeneous,6,present,0.726639032363892,1,horizontal,horizontal,1,0.882348861694336,green,2,1,1042.51941165526,678.799333565612,853.017481158529,849.42763818712,853.017481158529,849.42763818712,1042.51941165526,678.799333565612,989.501930496736,429.371695378491,746.982518841471,350.57236181288,557.480588344736,521.200666434388,610.498069503264,770.628304621509,0,4,0,0,0,0,horizontal,horizontal,vertical,vertical,horizontal,vertical
1d,23,100247,2,56,120,19,F,NA,constant,homogeneous,4,present,0.489422082901001,1,vertical,vertical,1,1.01175875663757,green,1,3,782.212099195248,854.378832816255,817.787900804752,345.621167183745,782.212099195248,854.378832816255,1054.37883281626,617.787900804752,817.787900804752,345.621167183745,545.621167183745,582.212099195248,NaN,NaN,NaN,NaN,4,0,0,0,NaN,NaN,vertical,vertical,horizontal,vertical,none,none
1d,23,100247,2,57,121,19,F,NA,constant,homogeneous,6,present,0.552245140075684,1,vertical,vertical,1,0.835290718078613,green,5,6,545.970351986605,577.775285599347,653.738008730483,808.883771293693,907.767656743878,831.108485694346,1054.0296480134,622.224714400653,946.261991269517,391.116228706307,692.232343256122,368.891514305654,545.970351986605,577.775285599347,653.738008730483,808.883771293693,0,0,0,0,4,0,horizontal,vertical,horizontal,vertical,vertical,vertical
1d,23,100247,2,58,122,19,F,NA,constant,homogeneous,5,present,0.580985069274902,1,vertical,vertical,1,0.670587215423584,green,2,1,1054.96116226488,595.549636358493,883.019879386575,841.107236777826,883.019879386575,841.107236777826,1054.96116226488,595.549636358493,874.554784704298,356.142287229426,591.116228706307,453.738008730483,596.34794493794,753.462830903772,NaN,NaN,0,4,0,0,0,NaN,vertical,vertical,horizontal,vertical,horizontal,none
1d,23,100247,2,59,123,19,F,NA,constant,homogeneous,3,absent,0.708680868148804,1,horizontal,horizontal,1,1.01175875663757,green,3,NaN,777.775285599347,345.970351986605,NaN,NaN,591.116228706307,746.261991269517,1031.10848569435,707.767656743878,777.775285599347,345.970351986605,NaN,NaN,NaN,NaN,NaN,NaN,0,0,4,NaN,NaN,NaN,vertical,horizontal,horizontal,none,none,none
1d,23,100247,2,60,124,19,F,NA,constant,homogeneous,3,absent,0.416261911392212,1,vertical,vertical,1,0.647058143615723,green,2,NaN,911.784642431215,370.807518193712,NaN,NaN,942.594190385041,811.404581001536,911.784642431215,370.807518193712,545.621167183745,617.787900804752,NaN,NaN,NaN,NaN,NaN,NaN,0,4,0,NaN,NaN,NaN,horizontal,vertical,vertical,none,none,none
1d,23,100247,2,61,125,19,F,NA,constant,homogeneous,3,present,0.681354999542236,1,vertical,vertical,1,1.0235232925415,green,2,1,1020.83647796503,727.5,579.163522034968,727.5,579.163522034968,727.5,1020.83647796503,727.5,800,345,NaN,NaN,NaN,NaN,NaN,NaN,0,4,0,NaN,NaN,NaN,horizontal,vertical,horizontal,none,none,none
1d,23,100247,2,62,126,19,F,NA,constant,homogeneous,3,present,0.535924911499023,1,horizontal,horizontal,1,0.635293607711792,green,2,1,1016.25226451989,464.870587620533,808.899371659138,854.844660889869,808.899371659138,854.844660889869,1016.25226451989,464.870587620533,574.848363820974,480.284751489598,NaN,NaN,NaN,NaN,NaN,NaN,0,4,0,NaN,NaN,NaN,horizontal,horizontal,vertical,none,none,none
1d,23,100247,2,63,127,19,F,NA,constant,homogeneous,6,absent,0.724334001541138,0,horizontal,vertical,1,0.870584325790405,green,4,NaN,915.767577433584,372.793336331966,NaN,NaN,684.232422566416,827.206663668034,938.882953928832,813.860994826083,1054.65053136242,586.654331158049,915.767577433584,372.793336331966,661.117046071168,386.139005173917,545.349468637584,613.345668841951,0,0,0,4,0,0,vertical,vertical,horizontal,horizontal,horizontal,horizontal
1d,23,100247,2,64,128,19,F,NA,constant,homogeneous,6,absent,0.658616065979004,0,horizontal,vertical,1,0.6,green,1,NaN,684.232422566416,827.206663668034,NaN,NaN,684.232422566416,827.206663668034,938.882953928832,813.860994826083,1054.65053136242,586.654331158049,915.767577433584,372.793336331966,661.117046071168,386.139005173917,545.349468637584,613.345668841951,4,0,0,0,0,0,horizontal,horizontal,vertical,horizontal,vertical,horizontal
1d,23,100247,3,1,129,19,F,NA,constant,homogeneous,5,absent,0.797693014144897,1,vertical,vertical,1,0.95293607711792,green,1,NaN,949.885239334581,806.299333565612,NaN,NaN,949.885239334581,806.299333565612,1042.51941165526,521.200666434388,800,345,557.480588344736,521.200666434388,650.114760665419,806.299333565612,NaN,NaN,4,0,0,0,0,NaN,vertical,vertical,horizontal,vertical,horizontal,none
1d,23,100247,3,2,130,19,F,NA,constant,homogeneous,4,present,0.411026954650879,1,vertical,vertical,1,0.882348861694336,green,3,4,938.882953928832,386.139005173917,586.139005173917,461.117046071168,661.117046071168,813.860994826083,1013.86099482608,738.882953928832,938.882953928832,386.139005173917,586.139005173917,461.117046071168,NaN,NaN,NaN,NaN,0,0,4,0,NaN,NaN,horizontal,vertical,vertical,vertical,none,none
1d,23,100247,3,3,131,19,F,NA,constant,homogeneous,6,present,0.395370006561279,1,vertical,vertical,1,0.77646803855896,green,3,6,1008.88377129369,453.738008730483,591.116228706307,746.261991269517,822.224714400653,854.029648013395,1031.10848569435,707.767656743878,1008.88377129369,453.738008730483,777.775285599347,345.970351986605,568.891514305654,492.232343256122,591.116228706307,746.261991269517,0,0,4,0,0,0,horizontal,vertical,vertical,horizontal,horizontal,vertical
1d,23,100247,3,4,132,19,F,NA,constant,homogeneous,6,present,0.522847175598145,1,vertical,vertical,1,0.976465148925781,green,4,2,870.287525733335,354.878267535729,977.137884467044,783.431649086356,729.712474266665,845.121732464271,977.137884467044,783.431649086356,1047.42541020038,538.309916622085,870.287525733335,354.878267535729,622.862115532956,416.568350913644,552.574589799621,661.690083377915,0,0,0,4,0,0,horizontal,vertical,horizontal,vertical,vertical,horizontal
1d,23,100247,3,5,133,19,F,NA,constant,homogeneous,5,absent,0.478054046630859,1,horizontal,horizontal,1,0.635293607711792,green,3,NaN,946.261991269517,391.116228706307,NaN,NaN,804.450363641507,854.96116226488,1043.85771277057,674.554784704298,946.261991269517,391.116228706307,646.537169096228,396.34794493794,558.892763222174,683.019879386575,NaN,NaN,0,0,4,0,0,NaN,vertical,horizontal,horizontal,horizontal,vertical,none
1d,23,100247,3,6,134,19,F,NA,constant,homogeneous,3,present,0.513640880584717,1,vertical,vertical,1,0.682351751327515,green,2,1,1041.10723677783,683.019879386575,607.549057043193,767.295052392579,607.549057043193,767.295052392579,1041.10723677783,683.019879386575,751.343706178981,349.685068220846,NaN,NaN,NaN,NaN,NaN,NaN,0,4,0,NaN,NaN,NaN,vertical,vertical,horizontal,none,none,none
1d,23,100247,3,7,135,19,F,NA,constant,homogeneous,6,absent,0.560450077056885,1,vertical,vertical,1,1.03528782844543,green,6,NaN,550.57236181288,653.017481158529,NaN,NaN,721.200666434388,842.519411655264,970.628304621509,789.501930496736,1049.42763818712,546.982518841471,878.799333565612,357.480588344736,629.371695378491,410.498069503264,550.57236181288,653.017481158529,0,0,0,0,0,4,vertical,vertical,vertical,vertical,vertical,vertical
1d,23,100247,3,8,136,19,F,NA,constant,homogeneous,6,absent,0.552948951721191,1,horizontal,horizontal,1,1.0588169002533,green,1,NaN,729.712474266665,845.121732464271,NaN,NaN,729.712474266665,845.121732464271,977.137884467044,783.431649086356,1047.42541020038,538.309916622085,870.287525733335,354.878267535729,622.862115532956,416.568350913644,552.574589799621,661.690083377915,4,0,0,0,0,0,horizontal,horizontal,horizontal,vertical,vertical,vertical
1d,23,100247,3,9,137,19,F,NA,constant,homogeneous,3,absent,0.539993047714233,1,vertical,vertical,1,0.77646803855896,green,3,NaN,768.923317431687,346.900731331463,NaN,NaN,596.34794493794,753.462830903772,1034.72873763037,699.636437764765,768.923317431687,346.900731331463,NaN,NaN,NaN,NaN,NaN,NaN,0,0,4,NaN,NaN,NaN,horizontal,vertical,vertical,none,none,none
1d,23,100247,3,10,138,19,F,NA,constant,homogeneous,5,absent,0.531205892562866,1,vertical,vertical,1,0.799997110366821,green,5,NaN,549.685068220846,648.656293821019,NaN,NaN,768.923317431687,853.099268668537,1031.10848569435,707.767656743878,973.909581815937,413.504806087112,676.373546837184,376.971974679454,549.685068220846,648.656293821019,NaN,NaN,0,0,0,0,4,NaN,vertical,vertical,horizontal,vertical,vertical,none
1d,23,100247,3,11,139,19,F,NA,constant,homogeneous,5,absent,0.949307918548584,1,vertical,vertical,1,0.976465148925781,green,5,NaN,554.878267535729,529.712474266665,NaN,NaN,657.405809614959,811.404581001536,956.993676208043,800.942742169714,1039.62161830041,512.784863451954,791.100628340862,345.155339110131,554.878267535729,529.712474266665,NaN,NaN,0,0,0,0,4,NaN,horizontal,horizontal,vertical,horizontal,vertical,none
1d,23,100247,3,12,140,19,F,NA,constant,homogeneous,4,present,0.653942108154297,1,horizontal,horizontal,1,1.07058143615723,green,3,4,768.923317431687,346.900731331463,546.900731331463,631.076682568313,831.076682568313,853.099268668537,1053.09926866854,568.923317431687,768.923317431687,346.900731331463,546.900731331463,631.076682568313,NaN,NaN,NaN,NaN,0,0,4,0,NaN,NaN,vertical,horizontal,horizontal,vertical,none,none
1d,23,100247,3,13,141,19,F,NA,constant,homogeneous,5,present,0.384567975997925,0,horizontal,vertical,1,1.08234597206116,green,2,1,1048.46436652023,542.637481142314,931.334709102064,818.577661679039,931.334709102064,818.577661679039,1048.46436652023,542.637481142314,822.224714400653,345.970351986605,565.271262369628,500.363562235235,632.704947607421,792.450942956807,NaN,NaN,0,4,0,0,0,NaN,vertical,horizontal,horizontal,horizontal,horizontal,none
1d,23,100247,3,14,142,19,F,NA,constant,homogeneous,5,present,0.741291046142578,1,horizontal,horizontal,1,1.04705236434937,green,3,4,995.341332995339,436.089159529932,704.475318678942,363.568117085469,738.309916622085,847.425410200379,1016.25226451989,735.129412379467,995.341332995339,436.089159529932,704.475318678942,363.568117085469,545.621167183745,617.787900804752,NaN,NaN,0,0,4,0,0,NaN,horizontal,horizontal,horizontal,vertical,horizontal,none
1d,23,100247,3,15,143,19,F,NA,constant,homogeneous,4,absent,0.613078832626343,1,horizontal,horizontal,1,1.0235232925415,green,4,NaN,570.807518193712,488.215357568785,NaN,NaN,688.215357568785,829.192481806288,1029.19248180629,711.784642431215,911.784642431215,370.807518193712,570.807518193712,488.215357568785,NaN,NaN,NaN,NaN,0,0,0,4,NaN,NaN,vertical,horizontal,horizontal,horizontal,none,none
1d,23,100247,3,16,144,19,F,NA,constant,homogeneous,5,present,0.509685039520264,1,vertical,vertical,1,0.999994220733643,green,3,1,857.362518857686,351.535633479765,899.636437764765,834.728737630372,899.636437764765,834.728737630372,1054.0296480134,577.775285599347,857.362518857686,351.535633479765,581.422338320961,468.665290897936,607.549057043193,767.295052392579,NaN,NaN,0,0,4,0,0,NaN,vertical,horizontal,vertical,horizontal,vertical,none
1d,23,100247,3,17,145,19,F,NA,constant,homogeneous,5,absent,0.630234956741333,1,horizontal,horizontal,1,0.705880823135376,green,4,NaN,619.68777079743,419.68777079743,NaN,NaN,839.890788585259,851.86052685176,1051.86052685176,639.890788585259,915.767577433584,372.793336331966,619.68777079743,419.68777079743,572.793336331966,715.767577433584,NaN,NaN,0,0,0,4,0,NaN,vertical,vertical,horizontal,horizontal,horizontal,none
1d,23,100247,3,18,146,19,F,NA,constant,homogeneous,3,present,0.738780975341797,1,horizontal,horizontal,1,0.999994220733643,green,3,1,545.349468637584,613.345668841951,938.882953928832,813.860994826083,938.882953928832,813.860994826083,915.767577433584,372.793336331966,545.349468637584,613.345668841951,NaN,NaN,NaN,NaN,NaN,NaN,0,0,4,NaN,NaN,NaN,horizontal,horizontal,horizontal,none,none,none
1d,23,100247,3,19,147,19,F,NA,constant,homogeneous,3,absent,0.464154005050659,1,vertical,vertical,1,0.717645359039307,green,2,NaN,1043.85771277057,674.554784704298,NaN,NaN,613.504806087112,773.909581815937,1043.85771277057,674.554784704298,742.637481142314,351.535633479765,NaN,NaN,NaN,NaN,NaN,NaN,0,4,0,NaN,NaN,NaN,vertical,vertical,horizontal,none,none,none
1d,23,100247,3,20,148,19,F,NA,constant,homogeneous,4,absent,0.515326976776123,1,vertical,vertical,1,1.09411050796509,green,4,NaN,586.139005173917,461.117046071168,NaN,NaN,661.117046071168,813.860994826083,1013.86099482608,738.882953928832,938.882953928832,386.139005173917,586.139005173917,461.117046071168,NaN,NaN,NaN,NaN,0,0,0,4,NaN,NaN,vertical,vertical,vertical,vertical,none,none
1d,23,100247,3,21,149,19,F,NA,constant,homogeneous,6,absent,0.720079898834229,1,horizontal,horizontal,1,0.717645359039307,green,1,NaN,676.373546837184,823.028025320546,NaN,NaN,676.373546837184,823.028025320546,931.334709102064,818.577661679039,1054.96116226488,595.549636358493,923.626453162816,376.971974679454,668.665290897936,381.422338320961,545.03883773512,604.450363641507,4,0,0,0,0,0,horizontal,horizontal,vertical,horizontal,vertical,vertical
1d,23,100247,3,22,150,19,F,NA,constant,homogeneous,6,absent,0.476304054260254,1,horizontal,horizontal,1,0.682351751327515,green,1,NaN,786.654331158049,854.650531362416,NaN,NaN,786.654331158049,854.650531362416,1013.86099482608,738.882953928832,1027.20666366803,484.232422566416,813.345668841951,345.349468637584,586.139005173917,461.117046071168,572.793336331966,715.767577433584,4,0,0,0,0,0,horizontal,vertical,vertical,vertical,vertical,vertical
1d,23,100247,3,23,151,19,F,NA,constant,homogeneous,5,absent,0.469882011413574,1,vertical,vertical,1,1.01175875663757,green,1,NaN,870.287525733335,845.121732464271,NaN,NaN,870.287525733335,845.121732464271,1054.84466088987,608.899371659138,887.215136548046,360.378381699593,599.057257830286,443.006323791957,588.595418998464,742.594190385041,NaN,NaN,4,0,0,0,0,NaN,vertical,horizontal,vertical,vertical,vertical,none
1d,23,100247,3,24,152,19,F,NA,constant,homogeneous,3,absent,0.597296953201294,1,vertical,vertical,1,1.07058143615723,green,3,NaN,545.970351986605,622.224714400653,NaN,NaN,946.261991269517,808.883771293693,907.767656743878,368.891514305654,545.970351986605,622.224714400653,NaN,NaN,NaN,NaN,NaN,NaN,0,0,4,NaN,NaN,NaN,horizontal,horizontal,vertical,none,none,none
1d,23,100247,3,25,153,19,F,NA,constant,homogeneous,5,present,0.614954948425293,1,vertical,vertical,1,1.09411050796509,green,5,3,565.271262369628,699.636437764765,931.334709102064,381.422338320961,822.224714400653,854.029648013395,1048.46436652023,657.362518857686,931.334709102064,381.422338320961,632.704947607421,407.549057043193,565.271262369628,699.636437764765,NaN,NaN,0,0,0,0,4,NaN,horizontal,horizontal,horizontal,horizontal,vertical,none
1d,23,100247,3,26,154,19,F,NA,constant,homogeneous,6,absent,0.591697931289673,1,vertical,vertical,1,0.6,green,3,NaN,967.295052392579,407.549057043193,NaN,NaN,883.019879386575,841.107236777826,1050.31493177915,648.656293821019,967.295052392579,407.549057043193,716.980120613425,358.892763222174,549.685068220846,551.343706178981,632.704947607421,792.450942956807,0,0,4,0,0,0,vertical,horizontal,vertical,vertical,vertical,vertical
1d,23,100247,3,27,155,19,F,NA,constant,homogeneous,3,present,0.403467178344727,1,horizontal,horizontal,1,0.788232574462891,green,1,3,581.422338320961,731.334709102064,795.549636358493,345.03883773512,581.422338320961,731.334709102064,1023.02802532055,723.626453162816,795.549636358493,345.03883773512,NaN,NaN,NaN,NaN,NaN,NaN,4,0,0,NaN,NaN,NaN,horizontal,horizontal,horizontal,none,none,none
1d,23,100247,3,28,156,19,F,NA,constant,homogeneous,4,present,0.531883001327515,1,horizontal,horizontal,1,0.611764535903931,green,4,1,554.878267535729,670.287525733335,870.287525733335,845.121732464271,870.287525733335,845.121732464271,1045.12173246427,529.712474266665,729.712474266665,354.878267535729,554.878267535729,670.287525733335,NaN,NaN,NaN,NaN,0,0,0,4,NaN,NaN,vertical,horizontal,vertical,horizontal,none,none
1d,23,100247,3,29,157,19,F,NA,constant,homogeneous,4,absent,0.495744943618774,1,vertical,vertical,1,0.647058143615723,green,1,NaN,782.212099195248,854.378832816255,NaN,NaN,782.212099195248,854.378832816255,1054.37883281626,617.787900804752,817.787900804752,345.621167183745,545.621167183745,582.212099195248,NaN,NaN,NaN,NaN,4,0,0,0,NaN,NaN,vertical,horizontal,horizontal,horizontal,none,none
1d,23,100247,3,30,158,19,F,NA,constant,homogeneous,5,present,0.555760145187378,0,vertical,horizontal,1,0.905877933502197,green,4,2,721.200666434388,357.480588344736,1006.29933356561,749.885239334581,721.200666434388,842.519411655264,1006.29933356561,749.885239334581,1006.29933356561,450.114760665419,721.200666434388,357.480588344736,545,600,NaN,NaN,0,0,0,4,0,NaN,horizontal,vertical,vertical,vertical,horizontal,none
1d,23,100247,3,31,159,19,F,NA,constant,homogeneous,5,present,0.633172035217285,1,horizontal,horizontal,1,0.894113397598267,green,3,1,983.431649086356,422.862115532956,755.719714694933,851.125977018113,755.719714694933,851.125977018113,1025.15163617903,719.715248510402,983.431649086356,422.862115532956,688.215357568785,370.807518193712,547.481642470899,635.489140744817,NaN,NaN,0,0,4,0,0,NaN,vertical,vertical,horizontal,vertical,vertical,none
1d,23,100247,3,32,160,19,F,NA,constant,homogeneous,6,absent,0.582427978515625,1,vertical,vertical,1,0.823526182174683,green,4,NaN,696.282156015671,367.045908301137,NaN,NaN,903.717843984329,832.954091698863,1053.60308331891,626.654758133252,949.885239334581,393.700666434388,696.282156015671,367.045908301137,546.39691668109,573.345241866748,650.114760665419,806.299333565612,0,0,0,4,0,0,vertical,vertical,horizontal,vertical,horizontal,horizontal
1d,23,100247,3,33,161,19,F,NA,constant,homogeneous,6,absent,0.91837215423584,1,horizontal,horizontal,1,0.611764535903931,green,5,NaN,546.39691668109,573.345241866748,NaN,NaN,903.717843984329,832.954091698863,1053.60308331891,626.654758133252,949.885239334581,393.700666434388,696.282156015671,367.045908301137,546.39691668109,573.345241866748,650.114760665419,806.299333565612,0,0,0,0,4,0,vertical,vertical,horizontal,vertical,horizontal,vertical
1d,23,100247,3,34,162,19,F,NA,constant,homogeneous,3,present,0.522113084793091,1,horizontal,horizontal,1,0.858819789886475,green,3,2,549.685068220846,551.343706178981,967.295052392579,407.549057043193,883.019879386575,841.107236777826,967.295052392579,407.549057043193,549.685068220846,551.343706178981,NaN,NaN,NaN,NaN,NaN,NaN,0,0,4,NaN,NaN,NaN,horizontal,horizontal,horizontal,none,none,none
1d,23,100247,3,35,163,19,F,NA,constant,homogeneous,4,present,0.459046125411987,1,horizontal,horizontal,1,0.717645359039307,green,4,3,593.700666434388,450.114760665419,949.885239334581,393.700666434388,650.114760665419,806.299333565612,1006.29933356561,749.885239334581,949.885239334581,393.700666434388,593.700666434388,450.114760665419,NaN,NaN,NaN,NaN,0,0,0,4,NaN,NaN,horizontal,vertical,horizontal,horizontal,none,none
1d,23,100247,3,36,164,19,F,NA,constant,homogeneous,4,absent,0.419358968734741,1,vertical,vertical,1,0.929407005310059,green,3,NaN,632.704947607421,407.549057043193,NaN,NaN,967.295052392579,792.450942956807,992.450942956807,432.704947607421,632.704947607421,407.549057043193,607.549057043193,767.295052392579,NaN,NaN,NaN,NaN,0,0,4,0,NaN,NaN,vertical,vertical,vertical,vertical,none,none
1d,23,100247,3,37,165,19,F,NA,constant,homogeneous,4,absent,0.455389976501465,1,vertical,vertical,1,0.788232574462891,green,3,NaN,773.345241866748,346.39691668109,NaN,NaN,826.654758133252,853.60308331891,1053.60308331891,573.345241866748,773.345241866748,346.39691668109,546.39691668109,626.654758133252,NaN,NaN,NaN,NaN,0,0,4,0,NaN,NaN,horizontal,horizontal,vertical,horizontal,none,none
1d,23,100247,3,38,166,19,F,NA,constant,homogeneous,5,present,0.612158060073853,1,vertical,vertical,1,0.77646803855896,green,2,5,1054.0296480134,577.775285599347,607.549057043193,767.295052392579,899.636437764765,834.728737630372,1054.0296480134,577.775285599347,857.362518857686,351.535633479765,581.422338320961,468.665290897936,607.549057043193,767.295052392579,NaN,NaN,0,4,0,0,0,NaN,horizontal,vertical,vertical,vertical,vertical,none
1d,23,100247,3,39,167,19,F,NA,constant,homogeneous,6,present,0.481389999389648,0,horizontal,vertical,1,0.835290718078613,green,1,3,887.215136548046,839.621618300407,963.910840470068,404.658667004661,887.215136548046,839.621618300407,1051.12597701811,644.280285305067,963.910840470068,404.658667004661,712.784863451954,360.378381699593,548.874022981887,555.719714694933,636.089159529932,795.341332995339,4,0,0,0,0,0,horizontal,horizontal,horizontal,horizontal,vertical,vertical
1d,23,100247,3,40,168,19,F,NA,constant,homogeneous,4,absent,0.649378776550293,1,horizontal,horizontal,1,0.905877933502197,green,1,NaN,764.510859255183,852.518357529101,NaN,NaN,764.510859255183,852.518357529101,1052.5183575291,635.489140744817,835.489140744817,347.4816424709,547.481642470899,564.510859255183,NaN,NaN,NaN,NaN,4,0,0,0,NaN,NaN,horizontal,horizontal,horizontal,vertical,none,none
1d,23,100247,3,41,169,19,F,NA,constant,homogeneous,3,absent,0.529441118240356,1,horizontal,horizontal,1,0.741174430847168,green,2,NaN,942.594190385041,388.595418998464,NaN,NaN,911.784642431215,829.192481806288,942.594190385041,388.595418998464,545.621167183745,582.212099195248,NaN,NaN,NaN,NaN,NaN,NaN,0,4,0,NaN,NaN,NaN,horizontal,horizontal,vertical,none,none,none
1d,23,100247,3,42,170,19,F,NA,constant,homogeneous,3,absent,0.453718900680542,1,horizontal,horizontal,1,1.07058143615723,green,3,NaN,563.568117085469,695.524681321058,NaN,NaN,1000.94274216971,756.993676208043,835.489140744817,347.4816424709,563.568117085469,695.524681321058,NaN,NaN,NaN,NaN,NaN,NaN,0,0,4,NaN,NaN,NaN,horizontal,horizontal,horizontal,none,none,none
1d,23,100247,3,43,171,19,F,NA,constant,homogeneous,5,present,0.710721015930176,1,horizontal,horizontal,1,0.788232574462891,green,1,4,931.334709102064,818.577661679039,565.271262369628,500.363562235235,931.334709102064,818.577661679039,1048.46436652023,542.637481142314,822.224714400653,345.970351986605,565.271262369628,500.363562235235,632.704947607421,792.450942956807,NaN,NaN,4,0,0,0,0,NaN,horizontal,horizontal,horizontal,horizontal,horizontal,none
1d,23,100247,3,44,172,19,F,NA,constant,homogeneous,4,absent,0.596717119216919,1,horizontal,horizontal,1,0.788232574462891,green,4,NaN,558.892763222174,516.980120613425,NaN,NaN,716.980120613425,841.107236777826,1041.10723677783,683.019879386575,883.019879386575,358.892763222174,558.892763222174,516.980120613425,NaN,NaN,NaN,NaN,0,0,0,4,NaN,NaN,horizontal,vertical,vertical,horizontal,none,none
1d,23,100247,3,45,173,19,F,NA,constant,homogeneous,5,absent,0.529465913772583,1,horizontal,horizontal,1,0.635293607711792,green,4,NaN,661.117046071168,386.139005173917,NaN,NaN,786.654331158049,854.650531362416,1038.06300875679,691.383827134052,960.476699717708,401.827779828472,661.117046071168,386.139005173917,553.688914296288,665.998856501143,NaN,NaN,0,0,0,4,0,NaN,vertical,vertical,vertical,horizontal,horizontal,none
1d,23,100247,3,46,174,19,F,NA,constant,homogeneous,6,present,0.58740496635437,1,vertical,vertical,1,0.95293607711792,green,5,6,604.658667004661,436.089159529932,560.378381699593,687.215136548046,755.719714694933,851.125977018113,995.341332995339,763.910840470068,1039.62161830041,512.784863451954,844.280285305067,348.874022981887,604.658667004661,436.089159529932,560.378381699593,687.215136548046,0,0,0,0,4,0,vertical,horizontal,horizontal,vertical,vertical,horizontal
1d,23,100247,3,47,175,19,F,NA,constant,homogeneous,3,present,0.520182132720947,1,vertical,vertical,1,0.635293607711792,green,1,3,919.715248510402,825.151636179026,545.155339110131,591.100628340862,919.715248510402,825.151636179026,935.129412379467,383.747735480111,545.155339110131,591.100628340862,NaN,NaN,NaN,NaN,NaN,NaN,4,0,0,NaN,NaN,NaN,vertical,vertical,vertical,none,none,none
1d,23,100247,3,48,176,19,F,NA,constant,homogeneous,6,present,0.398290872573853,1,horizontal,horizontal,1,0.77646803855896,green,5,6,576.971974679454,476.373546837184,581.422338320961,731.334709102064,804.450363641507,854.96116226488,1023.02802532055,723.626453162816,1018.57766167904,468.665290897936,795.549636358493,345.03883773512,576.971974679454,476.373546837184,581.422338320961,731.334709102064,0,0,0,0,4,0,horizontal,vertical,vertical,horizontal,horizontal,vertical
1d,23,100247,3,49,177,19,F,NA,constant,homogeneous,4,present,0.591824054718018,0,horizontal,vertical,1,1.07058143615723,green,4,2,576.971974679454,723.626453162816,1023.02802532055,476.373546837184,923.626453162816,823.028025320546,1023.02802532055,476.373546837184,676.373546837184,376.971974679454,576.971974679454,723.626453162816,NaN,NaN,NaN,NaN,0,0,0,4,NaN,NaN,horizontal,vertical,vertical,horizontal,none,none
1d,23,100247,3,50,178,19,F,NA,constant,homogeneous,3,present,0.785212993621826,1,vertical,vertical,1,0.870584325790405,green,3,2,549.685068220846,648.656293821019,883.019879386575,358.892763222174,967.295052392579,792.450942956807,883.019879386575,358.892763222174,549.685068220846,648.656293821019,NaN,NaN,NaN,NaN,NaN,NaN,0,0,4,NaN,NaN,NaN,horizontal,vertical,vertical,none,none,none
1d,23,100247,3,51,179,19,F,NA,constant,homogeneous,3,absent,0.399327039718628,1,horizontal,horizontal,1,0.717645359039307,green,3,NaN,552.574589799621,538.309916622085,NaN,NaN,870.287525733335,845.121732464271,977.137884467044,416.568350913644,552.574589799621,538.309916622085,NaN,NaN,NaN,NaN,NaN,NaN,0,0,4,NaN,NaN,NaN,horizontal,horizontal,horizontal,none,none,none
1d,23,100247,3,52,180,19,F,NA,constant,homogeneous,6,absent,0.661930084228516,1,vertical,vertical,1,0.717645359039307,green,3,NaN,938.882953928832,386.139005173917,NaN,NaN,915.767577433584,827.206663668034,1054.65053136242,613.345668841951,938.882953928832,386.139005173917,684.232422566416,372.793336331966,545.349468637584,586.654331158049,661.117046071168,813.860994826083,0,0,4,0,0,0,horizontal,horizontal,vertical,horizontal,horizontal,vertical
1d,23,100247,3,53,181,19,F,NA,constant,homogeneous,3,present,0.747584819793701,1,vertical,vertical,1,0.811761646270752,green,1,3,672.5,820.836477965032,672.5,379.163522034968,672.5,820.836477965032,1055,600,672.5,379.163522034968,NaN,NaN,NaN,NaN,NaN,NaN,4,0,0,NaN,NaN,NaN,vertical,horizontal,horizontal,none,none,none
1d,23,100247,3,54,182,19,F,NA,constant,homogeneous,6,present,0.548518896102905,1,horizontal,horizontal,1,0.694116287231445,green,1,5,831.076682568313,853.099268668537,565.271262369628,500.363562235235,831.076682568313,853.099268668537,1034.72873763037,699.636437764765,1003.65205506206,446.537169096228,768.923317431687,346.900731331463,565.271262369628,500.363562235235,596.34794493794,753.462830903772,4,0,0,0,0,0,horizontal,horizontal,vertical,vertical,vertical,vertical
1d,23,100247,3,55,183,19,F,NA,constant,homogeneous,4,present,0.81016993522644,1,vertical,vertical,1,0.929407005310059,green,4,1,551.535633479765,542.637481142314,742.637481142314,848.464366520235,742.637481142314,848.464366520235,1048.46436652023,657.362518857686,857.362518857686,351.535633479765,551.535633479765,542.637481142314,NaN,NaN,NaN,NaN,0,0,0,4,NaN,NaN,vertical,horizontal,vertical,vertical,none,none
1d,23,100247,3,56,184,19,F,NA,constant,homogeneous,4,absent,0.676141023635864,1,horizontal,horizontal,1,0.670587215423584,green,1,NaN,688.215357568785,829.192481806288,NaN,NaN,688.215357568785,829.192481806288,1029.19248180629,711.784642431215,911.784642431215,370.807518193712,570.807518193712,488.215357568785,NaN,NaN,NaN,NaN,4,0,0,0,NaN,NaN,horizontal,vertical,vertical,vertical,none,none
1d,23,100247,3,57,185,19,F,NA,constant,homogeneous,4,present,0.622998952865601,1,vertical,vertical,1,0.858819789886475,green,4,1,556.142287229426,674.554784704298,874.554784704298,843.857712770574,874.554784704298,843.857712770574,1043.85771277057,525.445215295702,725.445215295702,356.142287229426,556.142287229426,674.554784704298,NaN,NaN,NaN,NaN,0,0,0,4,NaN,NaN,horizontal,vertical,vertical,vertical,none,none
1d,23,100247,3,58,186,19,F,NA,constant,homogeneous,5,absent,0.580980062484741,1,horizontal,horizontal,1,1.07058143615723,green,4,NaN,583.747735480111,464.870587620533,NaN,NaN,895.524681321058,836.431882914531,1054.37883281626,582.212099195248,861.690083377915,352.574589799621,583.747735480111,464.870587620533,604.658667004661,763.910840470068,NaN,NaN,0,0,0,4,0,NaN,horizontal,vertical,horizontal,horizontal,vertical,none
1d,23,100247,3,59,187,19,F,NA,constant,homogeneous,4,present,0.473437070846558,1,vertical,vertical,1,0.623529071807861,green,2,4,989.501930496736,770.628304621509,610.498069503264,429.371695378491,629.371695378491,789.501930496736,989.501930496736,770.628304621509,970.628304621509,410.498069503264,610.498069503264,429.371695378491,NaN,NaN,NaN,NaN,0,4,0,0,NaN,NaN,horizontal,vertical,vertical,vertical,none,none
1d,23,100247,3,60,188,19,F,NA,constant,homogeneous,6,present,0.628077983856201,1,vertical,vertical,1,1.0588169002533,green,6,1,557.480588344736,678.799333565612,746.982518841471,849.42763818712,746.982518841471,849.42763818712,989.501930496736,770.628304621509,1042.51941165526,521.200666434388,853.017481158529,350.57236181288,610.498069503264,429.371695378491,557.480588344736,678.799333565612,0,0,0,0,0,4,vertical,vertical,horizontal,vertical,horizontal,vertical
1d,23,100247,3,61,189,19,F,NA,constant,homogeneous,3,absent,0.487098932266235,1,vertical,vertical,1,0.705880823135376,green,1,NaN,1013.86099482608,738.882953928832,NaN,NaN,1013.86099482608,738.882953928832,813.345668841951,345.349468637584,572.793336331966,715.767577433584,NaN,NaN,NaN,NaN,NaN,NaN,4,0,0,NaN,NaN,NaN,vertical,vertical,horizontal,none,none,none
1d,23,100247,3,62,190,19,F,NA,constant,homogeneous,3,absent,0.374019145965576,0,horizontal,vertical,1,1.0588169002533,green,2,NaN,1054.0296480134,622.224714400653,NaN,NaN,653.738008730483,808.883771293693,1054.0296480134,622.224714400653,692.232343256122,368.891514305654,NaN,NaN,NaN,NaN,NaN,NaN,0,4,0,NaN,NaN,NaN,horizontal,horizontal,horizontal,none,none,none
1d,23,100247,3,63,191,19,F,NA,constant,homogeneous,3,present,0.543621063232422,1,horizontal,horizontal,1,0.894113397598267,green,2,3,1049.42763818712,546.982518841471,629.371695378491,410.498069503264,721.200666434388,842.519411655264,1049.42763818712,546.982518841471,629.371695378491,410.498069503264,NaN,NaN,NaN,NaN,NaN,NaN,0,4,0,NaN,NaN,NaN,horizontal,horizontal,vertical,none,none,none
1d,23,100247,3,64,192,19,F,NA,constant,homogeneous,6,present,0.804736852645874,0,horizontal,vertical,1,0.705880823135376,green,4,1,791.100628340862,345.155339110131,808.899371659138,854.844660889869,808.899371659138,854.844660889869,1025.15163617903,719.715248510402,1016.25226451989,464.870587620533,791.100628340862,345.155339110131,574.848363820974,480.284751489598,583.747735480111,735.129412379467,0,0,0,4,0,0,horizontal,horizontal,vertical,horizontal,vertical,vertical
1d,23,100247,4,1,193,19,F,NA,constant,homogeneous,4,absent,0.696611881256104,1,horizontal,horizontal,1,0.741174430847168,green,3,NaN,822.224714400653,345.970351986605,NaN,NaN,777.775285599347,854.029648013395,1054.0296480134,622.224714400653,822.224714400653,345.970351986605,545.970351986605,577.775285599347,NaN,NaN,NaN,NaN,0,0,4,0,NaN,NaN,horizontal,horizontal,horizontal,vertical,none,none
1d,23,100247,4,2,194,19,F,NA,constant,homogeneous,3,absent,0.448493957519531,1,vertical,vertical,1,1.09411050796509,green,2,NaN,956.993676208043,399.057257830286,NaN,NaN,895.524681321058,836.431882914531,956.993676208043,399.057257830286,547.481642470899,564.510859255183,NaN,NaN,NaN,NaN,NaN,NaN,0,4,0,NaN,NaN,NaN,vertical,vertical,vertical,none,none,none
1d,23,100247,4,3,195,19,F,NA,constant,homogeneous,6,absent,0.59119987487793,1,horizontal,horizontal,1,0.870584325790405,green,1,NaN,927.5,820.836477965032,NaN,NaN,927.5,820.836477965032,1055,600,927.5,379.163522034968,672.5,379.163522034968,545,600,672.5,820.836477965032,4,0,0,0,0,0,horizontal,vertical,horizontal,horizontal,vertical,horizontal
1d,23,100247,4,4,196,19,F,NA,constant,homogeneous,3,absent,0.544163942337036,1,vertical,vertical,1,1.04705236434937,green,1,NaN,734.001143498857,846.311085703712,NaN,NaN,734.001143498857,846.311085703712,1046.31108570371,534.001143498857,619.68777079743,419.68777079743,NaN,NaN,NaN,NaN,NaN,NaN,4,0,0,NaN,NaN,NaN,vertical,vertical,horizontal,none,none,none
1d,23,100247,4,5,197,19,F,NA,constant,homogeneous,5,absent,0.474853992462158,1,horizontal,horizontal,1,0.988229684829712,green,5,NaN,601.827779828472,760.476699717708,NaN,NaN,891.383827134052,838.063008756786,1054.65053136242,586.654331158049,865.998856501143,353.688914296288,586.139005173917,461.117046071168,601.827779828472,760.476699717708,NaN,NaN,0,0,0,0,4,NaN,vertical,vertical,horizontal,horizontal,horizontal,none
1d,23,100247,4,6,198,19,F,NA,constant,homogeneous,4,absent,0.452069044113159,1,vertical,vertical,1,0.964700613021851,green,3,NaN,629.371695378491,410.498069503264,NaN,NaN,970.628304621509,789.501930496736,989.501930496736,429.371695378491,629.371695378491,410.498069503264,610.498069503264,770.628304621509,NaN,NaN,NaN,NaN,0,0,4,0,NaN,NaN,vertical,vertical,vertical,horizontal,none,none
1d,23,100247,4,7,199,19,F,NA,constant,homogeneous,6,absent,0.603048086166382,1,horizontal,horizontal,1,0.894113397598267,green,2,NaN,973.909581815937,786.495193912888,NaN,NaN,725.445215295702,843.857712770574,973.909581815937,786.495193912888,1048.46436652023,542.637481142314,874.554784704298,356.142287229426,626.090418184063,413.504806087112,551.535633479765,657.362518857686,0,4,0,0,0,0,horizontal,horizontal,vertical,horizontal,vertical,horizontal
1d,23,100247,4,8,200,19,F,NA,constant,homogeneous,4,absent,0.627105951309204,1,horizontal,horizontal,1,0.788232574462891,green,2,NaN,1016.25226451989,735.129412379467,NaN,NaN,664.870587620533,816.252264519889,1016.25226451989,735.129412379467,935.129412379467,383.747735480111,583.747735480111,464.870587620533,NaN,NaN,NaN,NaN,0,4,0,0,NaN,NaN,vertical,horizontal,vertical,vertical,none,none
1d,23,100247,4,9,201,19,F,NA,constant,homogeneous,3,present,0.745290994644165,0,horizontal,vertical,1,1.07058143615723,green,1,2,839.890788585259,851.86052685176,998.172220171528,439.523300282291,839.890788585259,851.86052685176,998.172220171528,439.523300282291,561.936991243214,508.616172865948,NaN,NaN,NaN,NaN,NaN,NaN,4,0,0,NaN,NaN,NaN,horizontal,vertical,horizontal,none,none,none
1d,23,100247,4,10,202,19,F,NA,constant,homogeneous,5,absent,0.942246198654175,1,vertical,vertical,1,0.905877933502197,green,1,NaN,899.636437764765,834.728737630372,NaN,NaN,899.636437764765,834.728737630372,1054.0296480134,577.775285599347,857.362518857686,351.535633479765,581.422338320961,468.665290897936,607.549057043193,767.295052392579,NaN,NaN,4,0,0,0,0,NaN,vertical,horizontal,vertical,horizontal,horizontal,none
1d,23,100247,4,11,203,19,F,NA,constant,homogeneous,3,present,0.551966190338135,1,horizontal,horizontal,1,0.717645359039307,green,2,1,1054.37883281626,582.212099195248,688.215357568785,829.192481806288,688.215357568785,829.192481806288,1054.37883281626,582.212099195248,657.405809614959,388.595418998464,NaN,NaN,NaN,NaN,NaN,NaN,0,4,0,NaN,NaN,NaN,vertical,horizontal,vertical,none,none,none
1d,23,100247,4,12,204,19,F,NA,constant,homogeneous,3,absent,0.658651113510132,0,horizontal,vertical,1,0.976465148925781,green,3,NaN,554.878267535729,670.287525733335,NaN,NaN,983.431649086356,777.137884467044,861.690083377915,352.574589799621,554.878267535729,670.287525733335,NaN,NaN,NaN,NaN,NaN,NaN,0,0,4,NaN,NaN,NaN,vertical,vertical,horizontal,none,none,none
1d,23,100247,4,13,205,19,F,NA,constant,homogeneous,4,present,0.991994857788086,1,horizontal,horizontal,1,1.01175875663757,green,2,1,1023.02802532055,476.373546837184,923.626453162816,823.028025320546,923.626453162816,823.028025320546,1023.02802532055,476.373546837184,676.373546837184,376.971974679454,576.971974679454,723.626453162816,NaN,NaN,NaN,NaN,0,4,0,0,NaN,NaN,horizontal,horizontal,vertical,vertical,none,none
1d,23,100247,4,14,206,19,F,NA,constant,homogeneous,5,present,0.743530988693237,1,vertical,vertical,1,0.752938966751099,green,1,3,907.767656743878,831.108485694346,848.656293821019,349.685068220846,907.767656743878,831.108485694346,1053.09926866854,568.923317431687,848.656293821019,349.685068220846,576.971974679454,476.373546837184,613.504806087112,773.909581815937,NaN,NaN,4,0,0,0,0,NaN,vertical,horizontal,vertical,vertical,horizontal,none
1d,23,100247,4,15,207,19,F,NA,constant,homogeneous,6,present,0.866297006607056,1,horizontal,horizontal,1,0.788232574462891,green,3,1,998.172220171528,439.523300282291,839.890788585259,851.86052685176,839.890788585259,851.86052685176,1038.06300875679,691.383827134052,998.172220171528,439.523300282291,760.109211414741,348.13947314824,561.936991243214,508.616172865948,601.827779828472,760.476699717708,0,0,4,0,0,0,vertical,vertical,horizontal,horizontal,horizontal,vertical
1d,23,100247,4,16,208,19,F,NA,constant,homogeneous,6,absent,0.591023921966553,1,vertical,vertical,1,0.764703502655029,green,1,NaN,716.980120613425,841.107236777826,NaN,NaN,716.980120613425,841.107236777826,967.295052392579,792.450942956807,1050.31493177915,551.343706178981,883.019879386575,358.892763222174,632.704947607421,407.549057043193,549.685068220846,648.656293821019,4,0,0,0,0,0,vertical,vertical,horizontal,horizontal,vertical,vertical
1d,23,100247,4,17,209,19,F,NA,constant,homogeneous,6,absent,0.561012983322144,1,horizontal,horizontal,1,0.694116287231445,green,1,NaN,782.212099195248,854.378832816255,NaN,NaN,782.212099195248,854.378832816255,1011.40458100154,742.594190385041,1029.19248180629,488.215357568785,817.787900804752,345.621167183745,588.595418998464,457.40580961496,570.807518193712,711.784642431215,4,0,0,0,0,0,horizontal,horizontal,horizontal,horizontal,horizontal,vertical
1d,23,100247,4,18,210,19,F,NA,constant,homogeneous,5,present,0.639338970184326,1,vertical,vertical,1,0.764703502655029,green,1,2,688.215357568785,829.192481806288,983.431649086356,777.137884467044,688.215357568785,829.192481806288,983.431649086356,777.137884467044,1025.15163617903,480.284751489598,755.719714694933,348.874022981887,547.481642470899,564.510859255183,NaN,NaN,4,0,0,0,0,NaN,vertical,horizontal,horizontal,vertical,vertical,none
1d,23,100247,4,19,211,19,F,NA,constant,homogeneous,3,present,0.835250854492188,1,vertical,vertical,1,0.741174430847168,green,2,3,1054.84466088987,591.100628340862,664.870587620533,383.747735480111,680.284751489598,825.151636179026,1054.84466088987,591.100628340862,664.870587620533,383.747735480111,NaN,NaN,NaN,NaN,NaN,NaN,0,4,0,NaN,NaN,NaN,vertical,vertical,horizontal,none,none,none
1d,23,100247,4,20,212,19,F,NA,constant,homogeneous,4,present,0.78732705116272,0,vertical,horizontal,1,0.752938966751099,green,3,2,786.654331158049,345.349468637584,1054.65053136242,586.654331158049,813.345668841951,854.650531362416,1054.65053136242,586.654331158049,786.654331158049,345.349468637584,545.349468637584,613.345668841951,NaN,NaN,NaN,NaN,0,0,4,0,NaN,NaN,vertical,horizontal,vertical,vertical,none,none
1d,23,100247,4,21,213,19,F,NA,constant,homogeneous,3,absent,0.873913049697876,1,horizontal,horizontal,1,0.729409894943237,green,1,NaN,636.089159529932,795.341332995339,NaN,NaN,636.089159529932,795.341332995339,1051.12597701811,644.280285305067,712.784863451954,360.378381699593,NaN,NaN,NaN,NaN,NaN,NaN,4,0,0,NaN,NaN,NaN,horizontal,horizontal,horizontal,none,none,none
1d,23,100247,4,22,214,19,F,NA,constant,homogeneous,6,absent,1.05015683174133,1,vertical,vertical,1,0.717645359039307,green,3,NaN,986.495193912888,426.090418184063,NaN,NaN,857.362518857686,848.464366520235,1043.85771277057,674.554784704298,986.495193912888,426.090418184063,742.637481142314,351.535633479765,556.142287229426,525.445215295702,613.504806087112,773.909581815937,0,0,4,0,0,0,vertical,horizontal,vertical,horizontal,vertical,vertical
1d,23,100247,4,23,215,19,F,NA,constant,homogeneous,6,absent,0.689496040344238,1,horizontal,horizontal,1,0.917642469406128,green,5,NaN,672.5,379.163522034968,NaN,NaN,672.5,820.836477965032,927.5,820.836477965032,1055,600,927.5,379.163522034968,672.5,379.163522034968,545,600,0,0,0,0,4,0,vertical,horizontal,horizontal,horizontal,horizontal,horizontal
1d,23,100247,4,24,216,19,F,NA,constant,homogeneous,3,absent,0.678842067718506,1,horizontal,horizontal,1,0.964700613021851,green,3,NaN,716.980120613425,358.892763222174,NaN,NaN,632.704947607421,792.450942956807,1050.31493177915,648.656293821019,716.980120613425,358.892763222174,NaN,NaN,NaN,NaN,NaN,NaN,0,0,4,NaN,NaN,NaN,vertical,vertical,horizontal,none,none,none
1d,23,100247,4,25,217,19,F,NA,constant,homogeneous,3,present,0.693917036056519,1,vertical,vertical,1,0.870584325790405,green,3,1,661.117046071168,386.139005173917,684.232422566416,827.206663668034,684.232422566416,827.206663668034,1054.65053136242,586.654331158049,661.117046071168,386.139005173917,NaN,NaN,NaN,NaN,NaN,NaN,0,0,4,NaN,NaN,NaN,horizontal,vertical,vertical,none,none,none
1d,23,100247,4,26,218,19,F,NA,constant,homogeneous,3,present,0.614297866821289,1,horizontal,horizontal,1,0.717645359039307,green,3,1,800,345,579.163522034968,727.5,579.163522034968,727.5,1020.83647796503,727.5,800,345,NaN,NaN,NaN,NaN,NaN,NaN,0,0,4,NaN,NaN,NaN,vertical,horizontal,horizontal,none,none,none
1d,23,100247,4,27,219,19,F,NA,constant,homogeneous,5,present,0.833223819732666,1,horizontal,horizontal,1,0.917642469406128,green,1,4,692.232343256122,831.108485694346,751.343706178981,349.685068220846,692.232343256122,831.108485694346,986.495193912888,773.909581815937,1023.02802532055,476.373546837184,751.343706178981,349.685068220846,546.900731331463,568.923317431687,NaN,NaN,4,0,0,0,0,NaN,horizontal,horizontal,horizontal,vertical,vertical,none
1d,23,100247,4,28,220,19,F,NA,constant,homogeneous,5,present,0.631947040557861,1,vertical,vertical,1,1.09411050796509,green,4,5,777.775285599347,345.970351986605,551.535633479765,542.637481142314,668.665290897936,818.577661679039,967.295052392579,792.450942956807,1034.72873763037,500.363562235235,777.775285599347,345.970351986605,551.535633479765,542.637481142314,NaN,NaN,0,0,0,4,0,NaN,horizontal,horizontal,vertical,vertical,vertical,none
1d,23,100247,4,29,221,19,F,NA,constant,homogeneous,4,present,0.741542816162109,1,horizontal,horizontal,1,0.647058143615723,green,2,4,1034.72873763037,699.636437764765,565.271262369628,500.363562235235,700.363562235235,834.728737630372,1034.72873763037,699.636437764765,899.636437764765,365.271262369628,565.271262369628,500.363562235235,NaN,NaN,NaN,NaN,0,4,0,0,NaN,NaN,vertical,horizontal,vertical,horizontal,none,none
1d,23,100247,4,30,222,19,F,NA,constant,homogeneous,6,present,0.785846948623657,1,vertical,vertical,1,0.658822679519653,green,1,6,755.719714694933,851.125977018113,560.378381699593,687.215136548046,755.719714694933,851.125977018113,995.341332995339,763.910840470068,1039.62161830041,512.784863451954,844.280285305067,348.874022981887,604.658667004661,436.089159529932,560.378381699593,687.215136548046,4,0,0,0,0,0,vertical,vertical,horizontal,vertical,horizontal,vertical
1d,23,100247,4,31,223,19,F,NA,constant,homogeneous,5,present,0.578326940536499,1,horizontal,horizontal,1,1.03528782844543,green,3,2,995.341332995339,436.089159529932,1016.25226451989,735.129412379467,738.309916622085,847.425410200379,1016.25226451989,735.129412379467,995.341332995339,436.089159529932,704.475318678942,363.568117085469,545.621167183745,617.787900804752,NaN,NaN,0,0,4,0,0,NaN,vertical,horizontal,horizontal,horizontal,vertical,none
1d,23,100247,4,32,224,19,F,NA,constant,homogeneous,4,present,0.670554161071777,1,vertical,vertical,1,0.823526182174683,green,3,2,874.554784704298,356.142287229426,1043.85771277057,674.554784704298,725.445215295702,843.857712770574,1043.85771277057,674.554784704298,874.554784704298,356.142287229426,556.142287229426,525.445215295702,NaN,NaN,NaN,NaN,0,0,4,0,NaN,NaN,horizontal,horizontal,vertical,vertical,none,none
1d,23,100247,4,33,225,19,F,NA,constant,homogeneous,4,absent,0.796144008636475,1,vertical,vertical,1,0.6,green,4,NaN,545.970351986605,622.224714400653,NaN,NaN,822.224714400653,854.029648013395,1054.0296480134,577.775285599347,777.775285599347,345.970351986605,545.970351986605,622.224714400653,NaN,NaN,NaN,NaN,0,0,0,4,NaN,NaN,horizontal,vertical,horizontal,vertical,none,none
1d,23,100247,4,34,226,19,F,NA,constant,homogeneous,4,absent,0.458398103713989,1,vertical,vertical,1,0.705880823135376,green,4,NaN,563.568117085469,504.475318678942,NaN,NaN,704.475318678942,836.431882914531,1036.43188291453,695.524681321058,895.524681321058,363.568117085469,563.568117085469,504.475318678942,NaN,NaN,NaN,NaN,0,0,0,4,NaN,NaN,vertical,vertical,horizontal,vertical,none,none
1d,23,100247,4,35,227,19,F,NA,constant,homogeneous,5,present,0.628219127655029,1,horizontal,horizontal,1,1.0235232925415,green,5,1,581.422338320961,731.334709102064,857.362518857686,848.464366520235,857.362518857686,848.464366520235,1054.0296480134,622.224714400653,899.636437764765,365.271262369628,607.549057043193,432.704947607421,581.422338320961,731.334709102064,NaN,NaN,0,0,0,0,4,NaN,vertical,vertical,horizontal,vertical,horizontal,none
1d,23,100247,4,36,228,19,F,NA,constant,homogeneous,4,absent,0.703194856643677,1,horizontal,horizontal,1,0.905877933502197,green,1,NaN,970.628304621509,789.501930496736,NaN,NaN,970.628304621509,789.501930496736,989.501930496736,429.371695378491,629.371695378491,410.498069503264,610.498069503264,770.628304621509,NaN,NaN,NaN,NaN,4,0,0,0,NaN,NaN,horizontal,horizontal,vertical,vertical,none,none
1d,23,100247,4,37,229,19,F,NA,constant,homogeneous,3,present,0.603418111801147,1,horizontal,horizontal,1,0.705880823135376,green,3,2,546.39691668109,626.654758133252,903.717843984329,367.045908301137,949.885239334581,806.299333565612,903.717843984329,367.045908301137,546.39691668109,626.654758133252,NaN,NaN,NaN,NaN,NaN,NaN,0,0,4,NaN,NaN,NaN,horizontal,horizontal,horizontal,none,none,none
1d,23,100247,4,38,230,19,F,NA,constant,homogeneous,5,present,0.575217962265015,0,vertical,horizontal,1,0.77646803855896,green,1,4,848.656293821019,850.314931779154,613.504806087112,426.090418184063,848.656293821019,850.314931779154,1053.09926866854,631.076682568313,907.767656743878,368.891514305654,613.504806087112,426.090418184063,576.971974679454,723.626453162816,NaN,NaN,4,0,0,0,0,NaN,vertical,horizontal,horizontal,horizontal,vertical,none
1d,23,100247,4,39,231,19,F,NA,constant,homogeneous,5,absent,0.408878803253174,1,horizontal,horizontal,1,0.905877933502197,green,2,NaN,992.450942956807,767.295052392579,NaN,NaN,700.363562235235,834.728737630372,992.450942956807,767.295052392579,1018.57766167904,468.665290897936,742.637481142314,351.535633479765,545.970351986605,577.775285599347,NaN,NaN,0,4,0,0,0,NaN,horizontal,horizontal,horizontal,horizontal,horizontal,none
1d,23,100247,4,40,232,19,F,NA,constant,homogeneous,5,absent,0.575119018554688,0,vertical,horizontal,1,0.894113397598267,green,5,NaN,551.535633479765,542.637481142314,NaN,NaN,668.665290897936,818.577661679039,967.295052392579,792.450942956807,1034.72873763037,500.363562235235,777.775285599347,345.970351986605,551.535633479765,542.637481142314,NaN,NaN,0,0,0,0,4,NaN,horizontal,vertical,horizontal,vertical,vertical,none
1d,23,100247,4,41,233,19,F,NA,constant,homogeneous,5,absent,0.702234029769897,1,horizontal,horizontal,1,0.964700613021851,green,3,NaN,970.628304621509,410.498069503264,NaN,NaN,773.345241866748,853.60308331891,1032.95409169886,703.717843984329,970.628304621509,410.498069503264,672.5,379.163522034968,550.57236181288,653.017481158529,NaN,NaN,0,0,4,0,0,NaN,vertical,horizontal,horizontal,horizontal,vertical,none
1d,23,100247,4,42,234,19,F,NA,constant,homogeneous,6,present,0.525840997695923,1,vertical,vertical,1,0.670587215423584,green,3,2,1003.65205506206,446.537169096228,1034.72873763037,699.636437764765,831.076682568313,853.099268668537,1034.72873763037,699.636437764765,1003.65205506206,446.537169096228,768.923317431687,346.900731331463,565.271262369628,500.363562235235,596.34794493794,753.462830903772,0,0,4,0,0,0,vertical,horizontal,vertical,horizontal,vertical,horizontal
1d,23,100247,4,43,235,19,F,NA,constant,homogeneous,3,absent,1.01344203948975,1,vertical,vertical,1,0.647058143615723,green,1,NaN,725.445215295702,843.857712770574,NaN,NaN,725.445215295702,843.857712770574,1048.46436652023,542.637481142314,626.090418184063,413.504806087112,NaN,NaN,NaN,NaN,NaN,NaN,4,0,0,NaN,NaN,NaN,vertical,vertical,horizontal,none,none,none
1d,23,100247,4,44,236,19,F,NA,constant,homogeneous,4,absent,0.504734039306641,1,vertical,vertical,1,0.941171541213989,green,3,NaN,903.717843984329,367.045908301137,NaN,NaN,696.282156015671,832.954091698863,1032.95409169886,703.717843984329,903.717843984329,367.045908301137,567.045908301137,496.282156015671,NaN,NaN,NaN,NaN,0,0,4,0,NaN,NaN,vertical,horizontal,vertical,horizontal,none,none
1d,23,100247,4,45,237,19,F,NA,constant,homogeneous,4,absent,0.66057014465332,1,horizontal,horizontal,1,0.670587215423584,green,1,NaN,632.704947607421,792.450942956807,NaN,NaN,632.704947607421,792.450942956807,992.450942956807,767.295052392579,967.295052392579,407.549057043193,607.549057043193,432.704947607421,NaN,NaN,NaN,NaN,4,0,0,0,NaN,NaN,horizontal,vertical,horizontal,horizontal,none,none
1d,23,100247,4,46,238,19,F,NA,constant,homogeneous,5,absent,0.631417036056519,1,vertical,vertical,1,0.670587215423584,green,5,NaN,572.793336331966,715.767577433584,NaN,NaN,839.890788585259,851.86052685176,1051.86052685176,639.890788585259,915.767577433584,372.793336331966,619.68777079743,419.68777079743,572.793336331966,715.767577433584,NaN,NaN,0,0,0,0,4,NaN,horizontal,vertical,horizontal,horizontal,vertical,none
1d,23,100247,4,47,239,19,F,NA,constant,homogeneous,5,absent,0.442975044250488,1,horizontal,horizontal,1,0.752938966751099,green,5,NaN,607.549057043193,767.295052392579,NaN,NaN,899.636437764765,834.728737630372,1054.0296480134,577.775285599347,857.362518857686,351.535633479765,581.422338320961,468.665290897936,607.549057043193,767.295052392579,NaN,NaN,0,0,0,0,4,NaN,vertical,horizontal,vertical,horizontal,horizontal,none
1d,23,100247,4,48,240,19,F,NA,constant,homogeneous,3,present,0.521326065063477,1,vertical,vertical,1,1.0588169002533,green,2,3,1020.83647796503,472.5,579.163522034968,472.5,800,855,1020.83647796503,472.5,579.163522034968,472.5,NaN,NaN,NaN,NaN,NaN,NaN,0,4,0,NaN,NaN,NaN,vertical,vertical,horizontal,none,none,none
1d,23,100247,4,49,241,19,F,NA,constant,homogeneous,5,present,0.662997007369995,1,horizontal,horizontal,1,0.752938966751099,green,5,2,616.568350913644,777.137884467044,1052.5183575291,564.510859255183,911.784642431215,829.192481806288,1052.5183575291,564.510859255183,844.280285305067,348.874022981887,574.848363820974,480.284751489598,616.568350913644,777.137884467044,NaN,NaN,0,0,0,0,4,NaN,vertical,vertical,horizontal,vertical,horizontal,none
