experiment,subject,uniqueID,block,trial,trial_cumulative,age,gender,color_cond_blocking,color_history,shape_type,set_size,distractor,rt,acc,target_orient,response_key,response_made,iti,target_color,target_item,distractor_item,target_X,target_Y,distractor_X,distractor_Y,item1_X,item1_Y,item2_X,item2_Y,item3_X,item3_Y,item4_X,item4_Y,item5_X,item5_Y,item6_X,item6_Y,item1_shape,item2_shape,item3_shape,item4_shape,item5_shape,item6_shape,item1_line,item2_line,item3_line,item4_line,item5_line,item6_line
1d,24,100248,1,1,1,20,M,NA,constant,homogeneous,4,present,1.84910893440247,1,horizontal,horizontal,1,0.941178178787231,red,4,1,610.498069503264,770.628304621509,970.628304621509,789.501930496736,970.628304621509,789.501930496736,989.501930496736,429.371695378491,629.371695378491,410.498069503264,610.498069503264,770.628304621509,NaN,NaN,NaN,NaN,0,0,0,4,NaN,NaN,vertical,horizontal,vertical,horizontal,none,none
1d,24,100248,1,2,2,20,M,NA,constant,homogeneous,4,present,0.859082937240601,1,vertical,vertical,1,0.658823823928833,red,1,3,708.616172865948,838.063008756786,891.383827134052,361.936991243214,708.616172865948,838.063008756786,1038.06300875679,691.383827134052,891.383827134052,361.936991243214,561.936991243214,508.616172865948,NaN,NaN,NaN,NaN,4,0,0,0,NaN,NaN,vertical,horizontal,horizontal,horizontal,none,none
1d,24,100248,1,3,3,20,M,NA,constant,homogeneous,4,absent,0.824841976165771,1,horizontal,horizontal,1,0.811765766143799,red,2,NaN,1043.85771277057,674.554784704298,NaN,NaN,725.445215295702,843.857712770574,1043.85771277057,674.554784704298,874.554784704298,356.142287229426,556.142287229426,525.445215295702,NaN,NaN,NaN,NaN,0,4,0,0,NaN,NaN,vertical,horizontal,horizontal,horizontal,none,none
1d,24,100248,1,4,4,20,M,NA,constant,homogeneous,5,absent,1.14179611206055,1,vertical,vertical,1,0.623529529571533,red,3,NaN,956.993676208043,399.057257830286,NaN,NaN,791.100628340862,854.844660889869,1039.62161830041,687.215136548046,956.993676208043,399.057257830286,657.405809614959,388.595418998464,554.878267535729,670.287525733335,NaN,NaN,0,0,4,0,0,NaN,vertical,vertical,vertical,horizontal,vertical,none
1d,24,100248,1,5,5,20,M,NA,constant,homogeneous,4,absent,1.35829281806946,1,vertical,vertical,1,0.6705885887146,red,1,NaN,891.383827134052,838.063008756786,NaN,NaN,891.383827134052,838.063008756786,1038.06300875679,508.616172865948,708.616172865948,361.936991243214,561.936991243214,691.383827134052,NaN,NaN,NaN,NaN,4,0,0,0,NaN,NaN,vertical,vertical,vertical,horizontal,none,none
1d,24,100248,1,6,6,20,M,NA,constant,homogeneous,5,present,0.873193025588989,1,vertical,vertical,1,0.776471471786499,red,2,5,1023.02802532055,723.626453162816,546.900731331463,631.076682568313,751.343706178981,850.314931779154,1023.02802532055,723.626453162816,986.495193912888,426.090418184063,692.232343256122,368.891514305654,546.900731331463,631.076682568313,NaN,NaN,0,4,0,0,0,NaN,horizontal,vertical,horizontal,horizontal,horizontal,none
1d,24,100248,1,7,7,20,M,NA,constant,homogeneous,5,present,0.632258892059326,1,vertical,vertical,1,1.07059059143066,red,2,5,986.495193912888,773.909581815937,546.900731331463,568.923317431687,692.232343256122,831.108485694346,986.495193912888,773.909581815937,1023.02802532055,476.373546837184,751.343706178981,349.685068220846,546.900731331463,568.923317431687,NaN,NaN,0,4,0,0,0,NaN,horizontal,vertical,horizontal,horizontal,vertical,none
1d,24,100248,1,8,8,20,M,NA,constant,homogeneous,4,present,0.624336957931519,1,horizontal,horizontal,1,0.964707708358765,red,3,1,899.636437764765,365.271262369628,700.363562235235,834.728737630372,700.363562235235,834.728737630372,1034.72873763037,699.636437764765,899.636437764765,365.271262369628,565.271262369628,500.363562235235,NaN,NaN,NaN,NaN,0,0,4,0,NaN,NaN,vertical,horizontal,horizontal,horizontal,none,none
1d,24,100248,1,9,9,20,M,NA,constant,homogeneous,5,absent,1.06862306594849,1,vertical,vertical,1,0.776471471786499,red,2,NaN,1041.10723677783,683.019879386575,NaN,NaN,795.549636358493,854.96116226488,1041.10723677783,683.019879386575,953.462830903772,396.34794493794,653.738008730483,391.116228706307,556.142287229426,674.554784704298,NaN,NaN,0,4,0,0,0,NaN,horizontal,vertical,vertical,vertical,vertical,none
1d,24,100248,1,10,10,20,M,NA,constant,homogeneous,3,absent,0.743398904800415,0,vertical,horizontal,1,0.6705885887146,red,3,NaN,560.378381699593,687.215136548046,NaN,NaN,995.341332995339,763.910840470068,844.280285305067,348.874022981887,560.378381699593,687.215136548046,NaN,NaN,NaN,NaN,NaN,NaN,0,0,4,NaN,NaN,NaN,horizontal,horizontal,vertical,none,none,none
1d,24,100248,1,11,11,20,M,NA,constant,homogeneous,3,absent,0.822653770446777,0,horizontal,vertical,1,0.800001001358032,red,2,NaN,967.295052392579,407.549057043193,NaN,NaN,883.019879386575,841.107236777826,967.295052392579,407.549057043193,549.685068220846,551.343706178981,NaN,NaN,NaN,NaN,NaN,NaN,0,4,0,NaN,NaN,NaN,vertical,horizontal,vertical,none,none,none
1d,24,100248,1,12,12,20,M,NA,constant,homogeneous,6,absent,1.1397750377655,1,vertical,vertical,1,1.0235315322876,red,3,NaN,1020.83647796503,472.5,NaN,NaN,800,855,1020.83647796503,727.5,1020.83647796503,472.5,800,345,579.163522034968,472.5,579.163522034968,727.5,0,0,4,0,0,0,horizontal,horizontal,vertical,horizontal,horizontal,horizontal
1d,24,100248,1,13,13,20,M,NA,constant,homogeneous,6,present,0.832468032836914,1,vertical,vertical,1,1.08235535621643,red,5,2,650.114760665419,393.700666434388,949.885239334581,806.299333565612,696.282156015671,832.954091698863,949.885239334581,806.299333565612,1053.60308331891,573.345241866748,903.717843984329,367.045908301137,650.114760665419,393.700666434388,546.39691668109,626.654758133252,0,0,0,0,4,0,vertical,horizontal,horizontal,horizontal,vertical,horizontal
1d,24,100248,1,14,14,20,M,NA,constant,homogeneous,3,absent,0.851852893829346,1,horizontal,horizontal,1,0.929413414001465,red,1,NaN,1008.88377129369,746.261991269517,NaN,NaN,1008.88377129369,746.261991269517,822.224714400653,345.970351986605,568.891514305654,707.767656743878,NaN,NaN,NaN,NaN,NaN,NaN,4,0,0,NaN,NaN,NaN,horizontal,horizontal,vertical,none,none,none
1d,24,100248,1,15,15,20,M,NA,constant,homogeneous,5,present,1.14319205284119,1,horizontal,horizontal,1,0.905883884429932,red,1,5,931.334709102064,818.577661679039,632.704947607421,792.450942956807,931.334709102064,818.577661679039,1048.46436652023,542.637481142314,822.224714400653,345.970351986605,565.271262369628,500.363562235235,632.704947607421,792.450942956807,NaN,NaN,4,0,0,0,0,NaN,horizontal,horizontal,horizontal,horizontal,vertical,none
1d,24,100248,1,16,16,20,M,NA,constant,homogeneous,3,present,0.928684949874878,1,vertical,vertical,1,0.917648649215698,red,1,2,973.909581815937,786.495193912888,874.554784704298,356.142287229426,973.909581815937,786.495193912888,874.554784704298,356.142287229426,551.535633479765,657.362518857686,NaN,NaN,NaN,NaN,NaN,NaN,4,0,0,NaN,NaN,NaN,vertical,vertical,horizontal,none,none,none
1d,24,100248,1,17,17,20,M,NA,constant,homogeneous,3,absent,0.955909013748169,1,vertical,vertical,1,0.623529529571533,red,1,NaN,804.450363641507,854.96116226488,NaN,NaN,804.450363641507,854.96116226488,1018.57766167904,468.665290897936,576.971974679454,476.373546837184,NaN,NaN,NaN,NaN,NaN,NaN,4,0,0,NaN,NaN,NaN,vertical,horizontal,vertical,none,none,none
1d,24,100248,1,18,18,20,M,NA,constant,homogeneous,3,absent,0.795853853225708,1,vertical,vertical,1,0.835295295715332,red,1,NaN,938.882953928832,813.860994826083,NaN,NaN,938.882953928832,813.860994826083,915.767577433584,372.793336331966,545.349468637584,613.345668841951,NaN,NaN,NaN,NaN,NaN,NaN,4,0,0,NaN,NaN,NaN,vertical,vertical,vertical,none,none,none
1d,24,100248,1,19,19,20,M,NA,constant,homogeneous,4,absent,0.904201030731201,1,horizontal,horizontal,1,0.611764764785767,red,2,NaN,992.450942956807,767.295052392579,NaN,NaN,632.704947607421,792.450942956807,992.450942956807,767.295052392579,967.295052392579,407.549057043193,607.549057043193,432.704947607421,NaN,NaN,NaN,NaN,0,4,0,0,NaN,NaN,horizontal,horizontal,vertical,vertical,none,none
1d,24,100248,1,20,20,20,M,NA,constant,homogeneous,3,absent,0.984208822250366,1,horizontal,horizontal,1,0.694118118286133,red,3,NaN,579.163522034968,472.5,NaN,NaN,800,855,1020.83647796503,472.5,579.163522034968,472.5,NaN,NaN,NaN,NaN,NaN,NaN,0,0,4,NaN,NaN,NaN,horizontal,horizontal,horizontal,none,none,none
1d,24,100248,1,21,21,20,M,NA,constant,homogeneous,5,absent,0.668972969055176,1,vertical,vertical,1,0.847060060501099,red,1,NaN,777.775285599347,854.029648013395,NaN,NaN,777.775285599347,854.029648013395,1034.72873763037,699.636437764765,967.295052392579,407.549057043193,668.665290897936,381.422338320961,551.535633479765,657.362518857686,NaN,NaN,4,0,0,0,0,NaN,vertical,horizontal,horizontal,vertical,vertical,none
1d,24,100248,1,22,22,20,M,NA,constant,homogeneous,3,absent,0.854011058807373,1,horizontal,horizontal,1,0.976472473144531,red,3,NaN,545.621167183745,617.787900804752,NaN,NaN,942.594190385041,811.404581001536,911.784642431215,370.807518193712,545.621167183745,617.787900804752,NaN,NaN,NaN,NaN,NaN,NaN,0,0,4,NaN,NaN,NaN,vertical,vertical,horizontal,none,none,none
1d,24,100248,1,23,23,20,M,NA,constant,homogeneous,4,absent,0.932626962661743,1,horizontal,horizontal,1,0.6705885887146,red,2,NaN,1051.12597701811,555.719714694933,NaN,NaN,844.280285305067,851.125977018113,1051.12597701811,555.719714694933,755.719714694933,348.874022981887,548.874022981887,644.280285305067,NaN,NaN,NaN,NaN,0,4,0,0,NaN,NaN,horizontal,horizontal,vertical,vertical,none,none
1d,24,100248,1,24,24,20,M,NA,constant,homogeneous,5,present,0.635234832763672,1,vertical,vertical,1,0.988237237930298,red,1,3,716.980120613425,841.107236777826,1008.88377129369,453.738008730483,716.980120613425,841.107236777826,1003.65205506206,753.462830903772,1008.88377129369,453.738008730483,725.445215295702,356.142287229426,545.03883773512,595.549636358493,NaN,NaN,4,0,0,0,0,NaN,vertical,horizontal,vertical,horizontal,horizontal,none
1d,24,100248,1,25,25,20,M,NA,constant,homogeneous,6,absent,0.773467063903809,1,horizontal,horizontal,1,0.870589590072632,red,6,NaN,570.807518193712,711.784642431215,NaN,NaN,782.212099195248,854.378832816255,1011.40458100154,742.594190385041,1029.19248180629,488.215357568785,817.787900804752,345.621167183745,588.595418998464,457.40580961496,570.807518193712,711.784642431215,0,0,0,0,0,4,horizontal,horizontal,horizontal,vertical,horizontal,horizontal
1d,24,100248,1,26,26,20,M,NA,constant,homogeneous,3,present,0.882776021957397,1,horizontal,horizontal,1,0.682353353500366,red,1,2,927.5,820.836477965032,927.5,379.163522034968,927.5,820.836477965032,927.5,379.163522034968,545,600,NaN,NaN,NaN,NaN,NaN,NaN,4,0,0,NaN,NaN,NaN,horizontal,horizontal,vertical,none,none,none
1d,24,100248,1,27,27,20,M,NA,constant,homogeneous,4,present,0.815998077392578,1,horizontal,horizontal,1,0.964707708358765,red,2,3,1053.60308331891,573.345241866748,773.345241866748,346.39691668109,826.654758133252,853.60308331891,1053.60308331891,573.345241866748,773.345241866748,346.39691668109,546.39691668109,626.654758133252,NaN,NaN,NaN,NaN,0,4,0,0,NaN,NaN,vertical,horizontal,vertical,vertical,none,none
1d,24,100248,1,28,28,20,M,NA,constant,homogeneous,6,absent,0.863163948059082,1,vertical,vertical,1,0.929413414001465,red,4,NaN,878.799333565612,357.480588344736,NaN,NaN,721.200666434388,842.519411655264,970.628304621509,789.501930496736,1049.42763818712,546.982518841471,878.799333565612,357.480588344736,629.371695378491,410.498069503264,550.57236181288,653.017481158529,0,0,0,4,0,0,vertical,horizontal,vertical,vertical,vertical,horizontal
1d,24,100248,1,29,29,20,M,NA,constant,homogeneous,6,present,0.824411153793335,1,horizontal,horizontal,1,0.800001001358032,red,4,2,692.232343256122,368.891514305654,1054.0296480134,622.224714400653,907.767656743878,831.108485694346,1054.0296480134,622.224714400653,946.261991269517,391.116228706307,692.232343256122,368.891514305654,545.970351986605,577.775285599347,653.738008730483,808.883771293693,0,0,0,4,0,0,vertical,vertical,vertical,horizontal,horizontal,vertical
1d,24,100248,1,30,30,20,M,NA,constant,homogeneous,3,present,0.763801097869873,1,horizontal,horizontal,1,0.729412412643433,red,2,3,1041.10723677783,683.019879386575,751.343706178981,349.685068220846,607.549057043193,767.295052392579,1041.10723677783,683.019879386575,751.343706178981,349.685068220846,NaN,NaN,NaN,NaN,NaN,NaN,0,4,0,NaN,NaN,NaN,horizontal,horizontal,horizontal,none,none,none
1d,24,100248,1,31,31,20,M,NA,constant,homogeneous,6,present,0.618857145309448,1,horizontal,horizontal,1,0.776471471786499,red,3,4,1053.09926866854,568.923317431687,899.636437764765,365.271262369628,700.363562235235,834.728737630372,953.462830903772,803.65205506206,1053.09926866854,568.923317431687,899.636437764765,365.271262369628,646.537169096228,396.34794493794,546.900731331463,631.076682568313,0,0,4,0,0,0,vertical,vertical,horizontal,horizontal,horizontal,horizontal
1d,24,100248,1,32,32,20,M,NA,constant,homogeneous,6,absent,0.804811954498291,1,horizontal,horizontal,1,0.6705885887146,red,1,NaN,696.282156015671,832.954091698863,NaN,NaN,696.282156015671,832.954091698863,949.885239334581,806.299333565612,1053.60308331891,573.345241866748,903.717843984329,367.045908301137,650.114760665419,393.700666434388,546.39691668109,626.654758133252,4,0,0,0,0,0,horizontal,horizontal,vertical,vertical,vertical,vertical
1d,24,100248,1,33,33,20,M,NA,constant,homogeneous,3,present,0.701298952102661,1,vertical,vertical,1,0.811765766143799,red,1,2,593.700666434388,749.885239334581,1032.95409169886,703.717843984329,593.700666434388,749.885239334581,1032.95409169886,703.717843984329,773.345241866748,346.39691668109,NaN,NaN,NaN,NaN,NaN,NaN,4,0,0,NaN,NaN,NaN,vertical,horizontal,vertical,none,none,none
1d,24,100248,1,34,34,20,M,NA,constant,homogeneous,6,present,0.62757682800293,1,vertical,vertical,1,1.00000200271606,red,3,4,938.882953928832,386.139005173917,684.232422566416,372.793336331966,915.767577433584,827.206663668034,1054.65053136242,613.345668841951,938.882953928832,386.139005173917,684.232422566416,372.793336331966,545.349468637584,586.654331158049,661.117046071168,813.860994826083,0,0,4,0,0,0,horizontal,horizontal,vertical,horizontal,horizontal,horizontal
1d,24,100248,1,35,35,20,M,NA,constant,homogeneous,3,present,0.676823139190674,1,vertical,vertical,1,0.835295295715332,red,3,1,657.405809614959,388.595418998464,688.215357568785,829.192481806288,688.215357568785,829.192481806288,1054.37883281626,582.212099195248,657.405809614959,388.595418998464,NaN,NaN,NaN,NaN,NaN,NaN,0,0,4,NaN,NaN,NaN,vertical,vertical,vertical,none,none,none
1d,24,100248,1,36,36,20,M,NA,constant,homogeneous,6,absent,0.65528416633606,1,vertical,vertical,1,0.6352942943573,red,3,NaN,1054.65053136242,586.654331158049,NaN,NaN,684.232422566416,827.206663668034,938.882953928832,813.860994826083,1054.65053136242,586.654331158049,915.767577433584,372.793336331966,661.117046071168,386.139005173917,545.349468637584,613.345668841951,0,0,4,0,0,0,vertical,vertical,vertical,horizontal,horizontal,vertical
1d,24,100248,1,37,37,20,M,NA,constant,homogeneous,6,present,0.616253852844238,1,horizontal,horizontal,1,1.01176676750183,red,1,2,927.5,820.836477965032,1055,600,927.5,820.836477965032,1055,600,927.5,379.163522034968,672.5,379.163522034968,545,600,672.5,820.836477965032,4,0,0,0,0,0,horizontal,vertical,vertical,horizontal,vertical,horizontal
1d,24,100248,1,38,38,20,M,NA,constant,homogeneous,4,absent,0.719331026077271,1,vertical,vertical,1,0.905883884429932,red,1,NaN,672.5,820.836477965032,NaN,NaN,672.5,820.836477965032,1020.83647796503,727.5,927.5,379.163522034968,579.163522034968,472.5,NaN,NaN,NaN,NaN,4,0,0,0,NaN,NaN,vertical,horizontal,vertical,horizontal,none,none
1d,24,100248,1,39,39,20,M,NA,constant,homogeneous,3,absent,0.942605972290039,1,vertical,vertical,1,0.623529529571533,red,2,NaN,1020.83647796503,727.5,NaN,NaN,579.163522034968,727.5,1020.83647796503,727.5,800,345,NaN,NaN,NaN,NaN,NaN,NaN,0,4,0,NaN,NaN,NaN,vertical,vertical,horizontal,none,none,none
1d,24,100248,1,40,40,20,M,NA,constant,homogeneous,4,absent,0.670537948608398,1,horizontal,horizontal,1,0.647059059143066,red,3,NaN,704.475318678942,363.568117085469,NaN,NaN,895.524681321058,836.431882914531,1036.43188291453,504.475318678942,704.475318678942,363.568117085469,563.568117085469,695.524681321058,NaN,NaN,NaN,NaN,0,0,4,0,NaN,NaN,horizontal,horizontal,horizontal,horizontal,none,none
1d,24,100248,1,41,41,20,M,NA,constant,homogeneous,5,absent,0.926827192306519,1,horizontal,horizontal,1,0.941178178787231,red,1,NaN,903.717843984329,832.954091698863,NaN,NaN,903.717843984329,832.954091698863,1053.60308331891,573.345241866748,853.017481158529,350.57236181288,579.163522034968,472.5,610.498069503264,770.628304621509,NaN,NaN,4,0,0,0,0,NaN,horizontal,horizontal,vertical,horizontal,vertical,none
1d,24,100248,1,42,42,20,M,NA,constant,homogeneous,6,absent,0.525418043136597,1,vertical,vertical,1,1.00000200271606,red,1,NaN,835.489140744817,852.518357529101,NaN,NaN,835.489140744817,852.518357529101,1036.43188291453,695.524681321058,1000.94274216971,443.006323791957,764.510859255183,347.4816424709,563.568117085469,504.475318678942,599.057257830286,756.993676208043,4,0,0,0,0,0,vertical,horizontal,vertical,vertical,horizontal,vertical
1d,24,100248,1,43,43,20,M,NA,constant,homogeneous,5,absent,1.27008605003357,1,vertical,vertical,1,0.894119119644165,red,1,NaN,935.129412379467,816.252264519889,NaN,NaN,935.129412379467,816.252264519889,1047.42541020038,538.309916622085,817.787900804752,345.621167183745,563.568117085469,504.475318678942,636.089159529932,795.341332995339,NaN,NaN,4,0,0,0,0,NaN,vertical,vertical,vertical,vertical,horizontal,none
1d,24,100248,1,44,44,20,M,NA,constant,homogeneous,5,absent,0.787285089492798,1,horizontal,horizontal,1,0.976472473144531,red,2,NaN,989.501930496736,770.628304621509,NaN,NaN,696.282156015671,832.954091698863,989.501930496736,770.628304621509,1020.83647796503,472.5,746.982518841471,350.57236181288,546.39691668109,573.345241866748,NaN,NaN,0,4,0,0,0,NaN,horizontal,horizontal,vertical,vertical,vertical,none
1d,24,100248,1,45,45,20,M,NA,constant,homogeneous,5,present,1.05599880218506,1,horizontal,horizontal,1,1.03529629707336,red,3,4,983.431649086356,422.862115532956,688.215357568785,370.807518193712,755.719714694933,851.125977018113,1025.15163617903,719.715248510402,983.431649086356,422.862115532956,688.215357568785,370.807518193712,547.481642470899,635.489140744817,NaN,NaN,0,0,4,0,0,NaN,vertical,horizontal,horizontal,horizontal,horizontal,none
1d,24,100248,1,46,46,20,M,NA,constant,homogeneous,4,absent,0.64522910118103,1,vertical,vertical,1,0.6,red,3,NaN,826.654758133252,346.39691668109,NaN,NaN,773.345241866748,853.60308331891,1053.60308331891,626.654758133252,826.654758133252,346.39691668109,546.39691668109,573.345241866748,NaN,NaN,NaN,NaN,0,0,4,0,NaN,NaN,horizontal,vertical,vertical,horizontal,none,none
1d,24,100248,1,47,47,20,M,NA,constant,homogeneous,4,present,0.903587102890015,1,horizontal,horizontal,1,1.07059059143066,red,3,4,795.549636358493,345.03883773512,545.03883773512,604.450363641507,804.450363641507,854.96116226488,1054.96116226488,595.549636358493,795.549636358493,345.03883773512,545.03883773512,604.450363641507,NaN,NaN,NaN,NaN,0,0,4,0,NaN,NaN,horizontal,horizontal,horizontal,horizontal,none,none
1d,24,100248,1,48,48,20,M,NA,constant,homogeneous,3,present,1.44386696815491,1,horizontal,horizontal,1,0.705882883071899,red,2,1,960.476699717708,401.827779828472,891.383827134052,838.063008756786,891.383827134052,838.063008756786,960.476699717708,401.827779828472,548.13947314824,560.109211414741,NaN,NaN,NaN,NaN,NaN,NaN,0,4,0,NaN,NaN,NaN,horizontal,horizontal,vertical,none,none,none
1d,24,100248,1,49,49,20,M,NA,constant,homogeneous,5,absent,1.357253074646,1,horizontal,horizontal,1,1.00000200271606,red,1,NaN,708.616172865948,838.063008756786,NaN,NaN,708.616172865948,838.063008756786,998.172220171528,760.476699717708,1013.86099482608,461.117046071168,734.001143498857,353.688914296288,545.349468637584,586.654331158049,NaN,NaN,4,0,0,0,0,NaN,horizontal,horizontal,horizontal,vertical,horizontal,none
1d,24,100248,1,50,50,20,M,NA,constant,homogeneous,4,absent,0.687626123428345,1,vertical,vertical,1,0.776471471786499,red,1,NaN,760.109211414741,851.86052685176,NaN,NaN,760.109211414741,851.86052685176,1051.86052685176,639.890788585259,839.890788585259,348.13947314824,548.13947314824,560.109211414741,NaN,NaN,NaN,NaN,4,0,0,0,NaN,NaN,vertical,horizontal,vertical,horizontal,none,none
1d,24,100248,1,51,51,20,M,NA,constant,homogeneous,5,present,0.738574028015137,1,horizontal,horizontal,1,1.04706106185913,red,1,2,716.980120613425,841.107236777826,1003.65205506206,753.462830903772,716.980120613425,841.107236777826,1003.65205506206,753.462830903772,1008.88377129369,453.738008730483,725.445215295702,356.142287229426,545.03883773512,595.549636358493,NaN,NaN,4,0,0,0,0,NaN,horizontal,vertical,vertical,horizontal,horizontal,none
1d,24,100248,1,52,52,20,M,NA,constant,homogeneous,6,absent,1.1310658454895,1,horizontal,horizontal,1,0.882354354858398,red,3,NaN,1046.31108570371,534.001143498857,NaN,NaN,734.001143498857,846.311085703712,980.31222920257,780.31222920257,1046.31108570371,534.001143498857,865.998856501143,353.688914296288,619.68777079743,419.68777079743,553.688914296288,665.998856501143,0,0,4,0,0,0,vertical,vertical,horizontal,horizontal,horizontal,horizontal
1d,24,100248,1,53,53,20,M,NA,constant,homogeneous,6,present,1.21251487731934,1,horizontal,horizontal,1,0.929413414001465,red,6,2,653.738008730483,808.883771293693,1054.0296480134,622.224714400653,907.767656743878,831.108485694346,1054.0296480134,622.224714400653,946.261991269517,391.116228706307,692.232343256122,368.891514305654,545.970351986605,577.775285599347,653.738008730483,808.883771293693,0,0,0,0,0,4,vertical,horizontal,vertical,vertical,horizontal,horizontal
1d,24,100248,1,54,54,20,M,NA,constant,homogeneous,6,present,0.597434997558594,1,vertical,vertical,1,0.823530530929565,red,3,6,1029.19248180629,488.215357568785,570.807518193712,711.784642431215,782.212099195248,854.378832816255,1011.40458100154,742.594190385041,1029.19248180629,488.215357568785,817.787900804752,345.621167183745,588.595418998464,457.40580961496,570.807518193712,711.784642431215,0,0,4,0,0,0,horizontal,horizontal,vertical,vertical,horizontal,vertical
1d,24,100248,1,55,55,20,M,NA,constant,homogeneous,6,absent,0.948321104049683,1,horizontal,horizontal,1,0.952942943572998,red,6,NaN,556.142287229426,674.554784704298,NaN,NaN,742.637481142314,848.464366520235,986.495193912888,773.909581815937,1043.85771277057,525.445215295702,857.362518857686,351.535633479765,613.504806087112,426.090418184063,556.142287229426,674.554784704298,0,0,0,0,0,4,horizontal,vertical,horizontal,horizontal,horizontal,horizontal
1d,24,100248,1,56,56,20,M,NA,constant,homogeneous,4,present,0.6647789478302,1,vertical,vertical,1,1.0588258266449,red,1,2,751.343706178981,850.314931779154,1050.31493177915,648.656293821019,751.343706178981,850.314931779154,1050.31493177915,648.656293821019,848.656293821019,349.685068220846,549.685068220846,551.343706178981,NaN,NaN,NaN,NaN,4,0,0,0,NaN,NaN,vertical,horizontal,vertical,vertical,none,none
1d,24,100248,1,57,57,20,M,NA,constant,homogeneous,4,present,0.603867053985596,1,vertical,vertical,1,0.6705885887146,red,4,2,572.793336331966,715.767577433584,1027.20666366803,484.232422566416,915.767577433584,827.206663668034,1027.20666366803,484.232422566416,684.232422566416,372.793336331966,572.793336331966,715.767577433584,NaN,NaN,NaN,NaN,0,0,0,4,NaN,NaN,vertical,horizontal,vertical,vertical,none,none
1d,24,100248,1,58,58,20,M,NA,constant,homogeneous,3,present,0.543006896972656,1,horizontal,horizontal,1,0.752941942214966,red,3,1,546.900731331463,631.076682568313,953.462830903772,803.65205506206,953.462830903772,803.65205506206,899.636437764765,365.271262369628,546.900731331463,631.076682568313,NaN,NaN,NaN,NaN,NaN,NaN,0,0,4,NaN,NaN,NaN,vertical,horizontal,horizontal,none,none,none
1d,24,100248,1,59,59,20,M,NA,constant,homogeneous,5,present,0.685142993927002,1,vertical,vertical,1,0.952942943572998,red,3,5,963.910840470068,404.658667004661,552.574589799621,661.690083377915,782.212099195248,854.378832816255,1036.43188291453,695.524681321058,963.910840470068,404.658667004661,664.870587620533,383.747735480111,552.574589799621,661.690083377915,NaN,NaN,0,0,4,0,0,NaN,vertical,vertical,vertical,vertical,vertical,none
1d,24,100248,1,60,60,20,M,NA,constant,homogeneous,5,present,0.701050043106079,1,horizontal,horizontal,1,0.705882883071899,red,2,1,989.501930496736,770.628304621509,696.282156015671,832.954091698863,696.282156015671,832.954091698863,989.501930496736,770.628304621509,1020.83647796503,472.5,746.982518841471,350.57236181288,546.39691668109,573.345241866748,NaN,NaN,0,4,0,0,0,NaN,vertical,horizontal,vertical,horizontal,vertical,none
1d,24,100248,1,61,61,20,M,NA,constant,homogeneous,5,absent,0.796761989593506,1,horizontal,horizontal,1,0.6705885887146,red,5,NaN,557.480588344736,678.799333565612,NaN,NaN,800,855,1042.51941165526,678.799333565612,949.885239334581,393.700666434388,650.114760665419,393.700666434388,557.480588344736,678.799333565612,NaN,NaN,0,0,0,0,4,NaN,horizontal,vertical,horizontal,horizontal,horizontal,none
1d,24,100248,1,62,62,20,M,NA,constant,homogeneous,3,present,0.613690137863159,1,vertical,vertical,1,0.647059059143066,red,3,2,676.373546837184,376.971974679454,1054.96116226488,604.450363641507,668.665290897936,818.577661679039,1054.96116226488,604.450363641507,676.373546837184,376.971974679454,NaN,NaN,NaN,NaN,NaN,NaN,0,0,4,NaN,NaN,NaN,horizontal,vertical,vertical,none,none,none
1d,24,100248,1,63,63,20,M,NA,constant,homogeneous,6,present,0.673809051513672,0,vertical,horizontal,1,0.988237237930298,red,6,1,661.117046071168,813.860994826083,915.767577433584,827.206663668034,915.767577433584,827.206663668034,1054.65053136242,613.345668841951,938.882953928832,386.139005173917,684.232422566416,372.793336331966,545.349468637584,586.654331158049,661.117046071168,813.860994826083,0,0,0,0,0,4,horizontal,horizontal,horizontal,horizontal,vertical,vertical
1d,24,100248,1,64,64,20,M,NA,constant,homogeneous,4,present,0.802995204925537,1,vertical,vertical,1,0.964707708358765,red,4,3,554.878267535729,670.287525733335,729.712474266665,354.878267535729,870.287525733335,845.121732464271,1045.12173246427,529.712474266665,729.712474266665,354.878267535729,554.878267535729,670.287525733335,NaN,NaN,NaN,NaN,0,0,0,4,NaN,NaN,vertical,horizontal,horizontal,vertical,none,none
1d,24,100248,2,1,65,20,M,NA,constant,homogeneous,3,present,0.975385904312134,1,horizontal,horizontal,1,1.0588258266449,red,1,3,622.862115532956,783.431649086356,729.712474266665,354.878267535729,622.862115532956,783.431649086356,1047.42541020038,661.690083377915,729.712474266665,354.878267535729,NaN,NaN,NaN,NaN,NaN,NaN,4,0,0,NaN,NaN,NaN,horizontal,horizontal,vertical,none,none,none
1d,24,100248,2,2,66,20,M,NA,constant,homogeneous,4,present,0.543433904647827,1,horizontal,horizontal,1,0.611764764785767,red,4,1,554.878267535729,670.287525733335,870.287525733335,845.121732464271,870.287525733335,845.121732464271,1045.12173246427,529.712474266665,729.712474266665,354.878267535729,554.878267535729,670.287525733335,NaN,NaN,NaN,NaN,0,0,0,4,NaN,NaN,vertical,horizontal,vertical,horizontal,none,none
1d,24,100248,2,3,67,20,M,NA,constant,homogeneous,5,absent,0.630888938903809,1,vertical,vertical,1,0.623529529571533,red,1,NaN,768.923317431687,853.099268668537,NaN,NaN,768.923317431687,853.099268668537,1031.10848569435,707.767656743878,973.909581815937,413.504806087112,676.373546837184,376.971974679454,549.685068220846,648.656293821019,NaN,NaN,4,0,0,0,0,NaN,vertical,horizontal,vertical,vertical,horizontal,none
1d,24,100248,2,4,68,20,M,NA,constant,homogeneous,5,present,0.690809011459351,1,vertical,vertical,1,0.752941942214966,red,5,2,548.874022981887,644.280285305067,1029.19248180629,711.784642431215,764.510859255183,852.518357529101,1029.19248180629,711.784642431215,977.137884467044,416.568350913644,680.284751489598,374.848363820974,548.874022981887,644.280285305067,NaN,NaN,0,0,0,0,4,NaN,vertical,vertical,horizontal,vertical,vertical,none
1d,24,100248,2,5,69,20,M,NA,constant,homogeneous,4,absent,0.570677995681763,1,vertical,vertical,1,0.705882883071899,red,1,NaN,646.537169096228,803.65205506206,NaN,NaN,646.537169096228,803.65205506206,1003.65205506206,753.462830903772,953.462830903772,396.34794493794,596.34794493794,446.537169096228,NaN,NaN,NaN,NaN,4,0,0,0,NaN,NaN,vertical,horizontal,vertical,vertical,none,none
1d,24,100248,2,6,70,20,M,NA,constant,homogeneous,6,present,0.420518159866333,1,vertical,vertical,1,0.917648649215698,red,3,5,1036.43188291453,504.475318678942,599.057257830286,443.006323791957,764.510859255183,852.518357529101,1000.94274216971,756.993676208043,1036.43188291453,504.475318678942,835.489140744817,347.4816424709,599.057257830286,443.006323791957,563.568117085469,695.524681321058,0,0,4,0,0,0,horizontal,horizontal,vertical,horizontal,vertical,horizontal
1d,24,100248,2,7,71,20,M,NA,constant,homogeneous,3,absent,0.505001068115234,1,vertical,vertical,1,1.01176676750183,red,1,NaN,956.993676208043,800.942742169714,NaN,NaN,956.993676208043,800.942742169714,895.524681321058,363.568117085469,547.481642470899,635.489140744817,NaN,NaN,NaN,NaN,NaN,NaN,4,0,0,NaN,NaN,NaN,vertical,horizontal,horizontal,none,none,none
1d,24,100248,2,8,72,20,M,NA,constant,homogeneous,4,absent,0.533094882965088,1,horizontal,horizontal,1,1.07059059143066,red,1,NaN,721.200666434388,842.519411655264,NaN,NaN,721.200666434388,842.519411655264,1042.51941165526,678.799333565612,878.799333565612,357.480588344736,557.480588344736,521.200666434388,NaN,NaN,NaN,NaN,4,0,0,0,NaN,NaN,horizontal,vertical,horizontal,horizontal,none,none
1d,24,100248,2,9,73,20,M,NA,constant,homogeneous,4,present,0.607706069946289,1,vertical,vertical,1,1.00000200271606,red,1,2,676.373546837184,823.028025320546,1023.02802532055,723.626453162816,676.373546837184,823.028025320546,1023.02802532055,723.626453162816,923.626453162816,376.971974679454,576.971974679454,476.373546837184,NaN,NaN,NaN,NaN,4,0,0,0,NaN,NaN,vertical,vertical,horizontal,vertical,none,none
1d,24,100248,2,10,74,20,M,NA,constant,homogeneous,5,absent,0.996703863143921,1,vertical,vertical,1,0.823530530929565,red,1,NaN,804.450363641507,854.96116226488,NaN,NaN,804.450363641507,854.96116226488,1043.85771277057,674.554784704298,946.261991269517,391.116228706307,646.537169096228,396.34794493794,558.892763222174,683.019879386575,NaN,NaN,4,0,0,0,0,NaN,vertical,vertical,horizontal,vertical,horizontal,none
1d,24,100248,2,11,75,20,M,NA,constant,homogeneous,3,absent,0.61326003074646,1,horizontal,horizontal,1,1.0235315322876,red,1,NaN,817.787900804752,854.378832816255,NaN,NaN,817.787900804752,854.378832816255,1011.40458100154,457.40580961496,570.807518193712,488.215357568785,NaN,NaN,NaN,NaN,NaN,NaN,4,0,0,NaN,NaN,NaN,horizontal,horizontal,vertical,none,none,none
1d,24,100248,2,12,76,20,M,NA,constant,homogeneous,5,absent,0.930166959762573,1,horizontal,horizontal,1,0.611764764785767,red,3,NaN,1000.94274216971,443.006323791957,NaN,NaN,729.712474266665,845.121732464271,1011.40458100154,742.594190385041,1000.94274216971,443.006323791957,712.784863451954,360.378381699593,545.155339110131,608.899371659138,NaN,NaN,0,0,4,0,0,NaN,vertical,vertical,horizontal,horizontal,vertical,none
1d,24,100248,2,13,77,20,M,NA,constant,homogeneous,6,present,1.09997391700745,1,horizontal,horizontal,1,0.752941942214966,red,4,2,696.282156015671,367.045908301137,1053.60308331891,626.654758133252,903.717843984329,832.954091698863,1053.60308331891,626.654758133252,949.885239334581,393.700666434388,696.282156015671,367.045908301137,546.39691668109,573.345241866748,650.114760665419,806.299333565612,0,0,0,4,0,0,vertical,vertical,horizontal,horizontal,vertical,vertical
1d,24,100248,2,14,78,20,M,NA,constant,homogeneous,4,absent,0.612458944320679,1,vertical,vertical,1,0.717647647857666,red,2,NaN,983.431649086356,777.137884467044,NaN,NaN,622.862115532956,783.431649086356,983.431649086356,777.137884467044,977.137884467044,416.568350913644,616.568350913644,422.862115532956,NaN,NaN,NaN,NaN,0,4,0,0,NaN,NaN,vertical,vertical,vertical,horizontal,none,none
1d,24,100248,2,15,79,20,M,NA,constant,homogeneous,4,absent,0.581040859222412,1,vertical,vertical,1,1.0235315322876,red,1,NaN,791.100628340862,854.844660889869,NaN,NaN,791.100628340862,854.844660889869,1054.84466088987,608.899371659138,808.899371659138,345.155339110131,545.155339110131,591.100628340862,NaN,NaN,NaN,NaN,4,0,0,0,NaN,NaN,vertical,horizontal,vertical,vertical,none,none
1d,24,100248,2,16,80,20,M,NA,constant,homogeneous,4,present,0.639219999313354,1,vertical,vertical,1,0.705882883071899,red,4,2,574.848363820974,719.715248510402,1025.15163617903,480.284751489598,919.715248510402,825.151636179026,1025.15163617903,480.284751489598,680.284751489598,374.848363820974,574.848363820974,719.715248510402,NaN,NaN,NaN,NaN,0,0,0,4,NaN,NaN,horizontal,vertical,horizontal,vertical,none,none
1d,24,100248,2,17,81,20,M,NA,constant,homogeneous,6,absent,0.641166925430298,1,horizontal,horizontal,1,0.647059059143066,red,5,NaN,551.535633479765,542.637481142314,NaN,NaN,874.554784704298,843.857712770574,1048.46436652023,657.362518857686,973.909581815937,413.504806087112,725.445215295702,356.142287229426,551.535633479765,542.637481142314,626.090418184063,786.495193912888,0,0,0,0,4,0,horizontal,horizontal,horizontal,horizontal,horizontal,horizontal
1d,24,100248,2,18,82,20,M,NA,constant,homogeneous,6,present,0.559129953384399,1,vertical,vertical,1,1.0588258266449,red,3,5,1043.85771277057,525.445215295702,613.504806087112,426.090418184063,742.637481142314,848.464366520235,986.495193912888,773.909581815937,1043.85771277057,525.445215295702,857.362518857686,351.535633479765,613.504806087112,426.090418184063,556.142287229426,674.554784704298,0,0,4,0,0,0,vertical,horizontal,vertical,horizontal,vertical,vertical
1d,24,100248,2,19,83,20,M,NA,constant,homogeneous,5,absent,0.704770088195801,1,horizontal,horizontal,1,0.705882883071899,red,3,NaN,865.998856501143,353.688914296288,NaN,NaN,891.383827134052,838.063008756786,1054.65053136242,586.654331158049,865.998856501143,353.688914296288,586.139005173917,461.117046071168,601.827779828472,760.476699717708,NaN,NaN,0,0,4,0,0,NaN,horizontal,horizontal,horizontal,vertical,vertical,none
1d,24,100248,2,20,84,20,M,NA,constant,homogeneous,4,present,0.54150390625,1,vertical,vertical,1,0.917648649215698,red,2,1,986.495193912888,426.090418184063,973.909581815937,786.495193912888,973.909581815937,786.495193912888,986.495193912888,426.090418184063,626.090418184063,413.504806087112,613.504806087112,773.909581815937,NaN,NaN,NaN,NaN,0,4,0,0,NaN,NaN,vertical,vertical,horizontal,horizontal,none,none
1d,24,100248,2,21,85,20,M,NA,constant,homogeneous,6,present,0.628091812133789,1,horizontal,horizontal,1,0.976472473144531,red,4,5,712.784863451954,360.378381699593,548.874022981887,555.719714694933,887.215136548046,839.621618300407,1051.12597701811,644.280285305067,963.910840470068,404.658667004661,712.784863451954,360.378381699593,548.874022981887,555.719714694933,636.089159529932,795.341332995339,0,0,0,4,0,0,vertical,vertical,horizontal,horizontal,vertical,horizontal
1d,24,100248,2,22,86,20,M,NA,constant,homogeneous,5,present,1.01025199890137,1,horizontal,horizontal,1,1.07059059143066,red,2,1,1043.85771277057,525.445215295702,946.261991269517,808.883771293693,946.261991269517,808.883771293693,1043.85771277057,525.445215295702,804.450363641507,345.03883773512,558.892763222174,516.980120613425,646.537169096228,803.65205506206,NaN,NaN,0,4,0,0,0,NaN,horizontal,horizontal,horizontal,horizontal,horizontal,none
1d,24,100248,2,23,87,20,M,NA,constant,homogeneous,3,present,0.573991060256958,1,vertical,vertical,1,0.764706707000732,red,1,3,942.594190385041,811.404581001536,545.621167183745,617.787900804752,942.594190385041,811.404581001536,911.784642431215,370.807518193712,545.621167183745,617.787900804752,NaN,NaN,NaN,NaN,NaN,NaN,4,0,0,NaN,NaN,NaN,vertical,vertical,horizontal,none,none,none
1d,24,100248,2,24,88,20,M,NA,constant,homogeneous,4,absent,0.863887071609497,1,horizontal,horizontal,1,0.717647647857666,red,2,NaN,980.31222920257,419.68777079743,NaN,NaN,980.31222920257,780.31222920257,980.31222920257,419.68777079743,619.68777079743,419.68777079743,619.68777079743,780.31222920257,NaN,NaN,NaN,NaN,0,4,0,0,NaN,NaN,vertical,horizontal,horizontal,vertical,none,none
1d,24,100248,2,25,89,20,M,NA,constant,homogeneous,4,present,0.501973867416382,1,vertical,vertical,1,0.835295295715332,red,1,4,895.524681321058,836.431882914531,563.568117085469,695.524681321058,895.524681321058,836.431882914531,1036.43188291453,504.475318678942,704.475318678942,363.568117085469,563.568117085469,695.524681321058,NaN,NaN,NaN,NaN,4,0,0,0,NaN,NaN,vertical,horizontal,vertical,vertical,none,none
1d,24,100248,2,26,90,20,M,NA,constant,homogeneous,6,present,0.667927980422974,1,vertical,vertical,1,0.776471471786499,red,6,1,583.747735480111,735.129412379467,808.899371659138,854.844660889869,808.899371659138,854.844660889869,1025.15163617903,719.715248510402,1016.25226451989,464.870587620533,791.100628340862,345.155339110131,574.848363820974,480.284751489598,583.747735480111,735.129412379467,0,0,0,0,0,4,vertical,horizontal,horizontal,vertical,vertical,vertical
1d,24,100248,2,27,91,20,M,NA,constant,homogeneous,5,present,0.915231943130493,1,horizontal,horizontal,1,0.705882883071899,red,2,1,995.341332995339,763.910840470068,704.475318678942,836.431882914531,704.475318678942,836.431882914531,995.341332995339,763.910840470068,1016.25226451989,464.870587620533,738.309916622085,352.574589799621,545.621167183745,582.212099195248,NaN,NaN,0,4,0,0,0,NaN,vertical,horizontal,horizontal,vertical,horizontal,none
1d,24,100248,2,28,92,20,M,NA,constant,homogeneous,5,present,0.716278076171875,1,vertical,vertical,1,0.929413414001465,red,3,1,835.489140744817,347.4816424709,919.715248510402,825.151636179026,919.715248510402,825.151636179026,1051.12597701811,555.719714694933,835.489140744817,347.4816424709,570.807518193712,488.215357568785,622.862115532956,783.431649086356,NaN,NaN,0,0,4,0,0,NaN,horizontal,horizontal,vertical,horizontal,horizontal,none
1d,24,100248,2,29,93,20,M,NA,constant,homogeneous,6,present,0.697262048721313,1,horizontal,horizontal,1,0.705882883071899,red,3,2,1042.51941165526,521.200666434388,989.501930496736,770.628304621509,746.982518841471,849.42763818712,989.501930496736,770.628304621509,1042.51941165526,521.200666434388,853.017481158529,350.57236181288,610.498069503264,429.371695378491,557.480588344736,678.799333565612,0,0,4,0,0,0,vertical,horizontal,horizontal,horizontal,vertical,horizontal
1d,24,100248,2,30,94,20,M,NA,constant,homogeneous,3,present,0.795522928237915,1,horizontal,horizontal,1,0.811765766143799,red,1,3,782.212099195248,854.378832816255,588.595418998464,457.40580961496,782.212099195248,854.378832816255,1029.19248180629,488.215357568785,588.595418998464,457.40580961496,NaN,NaN,NaN,NaN,NaN,NaN,4,0,0,NaN,NaN,NaN,horizontal,horizontal,vertical,none,none,none
1d,24,100248,2,31,95,20,M,NA,constant,homogeneous,6,absent,0.732373952865601,1,vertical,vertical,1,0.647059059143066,red,4,NaN,883.019879386575,358.892763222174,NaN,NaN,716.980120613425,841.107236777826,967.295052392579,792.450942956807,1050.31493177915,551.343706178981,883.019879386575,358.892763222174,632.704947607421,407.549057043193,549.685068220846,648.656293821019,0,0,0,4,0,0,horizontal,vertical,vertical,vertical,vertical,horizontal
1d,24,100248,2,32,96,20,M,NA,constant,homogeneous,3,present,0.647613048553467,1,vertical,vertical,1,0.823530530929565,red,1,3,664.870587620533,816.252264519889,680.284751489598,374.848363820974,664.870587620533,816.252264519889,1054.84466088987,608.899371659138,680.284751489598,374.848363820974,NaN,NaN,NaN,NaN,NaN,NaN,4,0,0,NaN,NaN,NaN,vertical,vertical,vertical,none,none,none
1d,24,100248,2,33,97,20,M,NA,constant,homogeneous,3,present,0.681571960449219,1,horizontal,horizontal,1,0.835295295715332,red,2,1,1049.42763818712,653.017481158529,629.371695378491,789.501930496736,629.371695378491,789.501930496736,1049.42763818712,653.017481158529,721.200666434388,357.480588344736,NaN,NaN,NaN,NaN,NaN,NaN,0,4,0,NaN,NaN,NaN,horizontal,horizontal,horizontal,none,none,none
1d,24,100248,2,34,98,20,M,NA,constant,homogeneous,5,absent,0.691808938980103,1,vertical,vertical,1,0.623529529571533,red,3,NaN,1008.88377129369,453.738008730483,NaN,NaN,716.980120613425,841.107236777826,1003.65205506206,753.462830903772,1008.88377129369,453.738008730483,725.445215295702,356.142287229426,545.03883773512,595.549636358493,NaN,NaN,0,0,4,0,0,NaN,vertical,vertical,vertical,vertical,vertical,none
1d,24,100248,2,35,99,20,M,NA,constant,homogeneous,5,absent,0.663641929626465,1,horizontal,horizontal,1,0.894119119644165,red,5,NaN,593.700666434388,749.885239334581,NaN,NaN,878.799333565612,842.519411655264,1055,600,878.799333565612,357.480588344736,593.700666434388,450.114760665419,593.700666434388,749.885239334581,NaN,NaN,0,0,0,0,4,NaN,vertical,horizontal,horizontal,vertical,horizontal,none
1d,24,100248,2,36,100,20,M,NA,constant,homogeneous,4,present,0.877861976623535,1,horizontal,horizontal,1,0.835295295715332,red,3,2,782.212099195248,345.621167183745,1054.37883281626,582.212099195248,817.787900804752,854.378832816255,1054.37883281626,582.212099195248,782.212099195248,345.621167183745,545.621167183745,617.787900804752,NaN,NaN,NaN,NaN,0,0,4,0,NaN,NaN,vertical,vertical,horizontal,horizontal,none,none
1d,24,100248,2,37,101,20,M,NA,constant,homogeneous,5,present,0.657238960266113,1,horizontal,horizontal,1,1.08235535621643,red,3,1,870.287525733335,354.878267535729,887.215136548046,839.621618300407,887.215136548046,839.621618300407,1054.84466088987,591.100628340862,870.287525733335,354.878267535729,588.595418998464,457.40580961496,599.057257830286,756.993676208043,NaN,NaN,0,0,4,0,0,NaN,vertical,horizontal,horizontal,horizontal,horizontal,none
1d,24,100248,2,38,102,20,M,NA,constant,homogeneous,3,absent,0.599261999130249,1,horizontal,horizontal,1,1.04706106185913,red,3,NaN,556.142287229426,525.445215295702,NaN,NaN,857.362518857686,848.464366520235,986.495193912888,426.090418184063,556.142287229426,525.445215295702,NaN,NaN,NaN,NaN,NaN,NaN,0,0,4,NaN,NaN,NaN,horizontal,horizontal,horizontal,none,none,none
1d,24,100248,2,39,103,20,M,NA,constant,homogeneous,6,absent,0.716814994812012,1,vertical,vertical,1,0.6705885887146,red,5,NaN,565.271262369628,500.363562235235,NaN,NaN,831.076682568313,853.099268668537,1034.72873763037,699.636437764765,1003.65205506206,446.537169096228,768.923317431687,346.900731331463,565.271262369628,500.363562235235,596.34794493794,753.462830903772,0,0,0,0,4,0,horizontal,horizontal,horizontal,vertical,vertical,horizontal
1d,24,100248,2,40,104,20,M,NA,constant,homogeneous,5,present,0.786335945129395,1,horizontal,horizontal,1,0.929413414001465,red,3,4,848.656293821019,349.685068220846,576.971974679454,476.373546837184,907.767656743878,831.108485694346,1053.09926866854,568.923317431687,848.656293821019,349.685068220846,576.971974679454,476.373546837184,613.504806087112,773.909581815937,NaN,NaN,0,0,4,0,0,NaN,horizontal,vertical,horizontal,vertical,vertical,none
1d,24,100248,2,41,105,20,M,NA,constant,homogeneous,3,absent,0.589675903320312,1,horizontal,horizontal,1,0.800001001358032,red,3,NaN,664.870587620533,383.747735480111,NaN,NaN,680.284751489598,825.151636179026,1054.84466088987,591.100628340862,664.870587620533,383.747735480111,NaN,NaN,NaN,NaN,NaN,NaN,0,0,4,NaN,NaN,NaN,vertical,vertical,horizontal,none,none,none
1d,24,100248,2,42,106,20,M,NA,constant,homogeneous,4,present,0.570049047470093,1,horizontal,horizontal,1,0.811765766143799,red,4,3,545.03883773512,604.450363641507,795.549636358493,345.03883773512,804.450363641507,854.96116226488,1054.96116226488,595.549636358493,795.549636358493,345.03883773512,545.03883773512,604.450363641507,NaN,NaN,NaN,NaN,0,0,0,4,NaN,NaN,vertical,vertical,vertical,horizontal,none,none
1d,24,100248,2,43,107,20,M,NA,constant,homogeneous,6,absent,0.687653064727783,0,horizontal,vertical,1,0.682353353500366,red,1,NaN,716.980120613425,841.107236777826,NaN,NaN,716.980120613425,841.107236777826,967.295052392579,792.450942956807,1050.31493177915,551.343706178981,883.019879386575,358.892763222174,632.704947607421,407.549057043193,549.685068220846,648.656293821019,4,0,0,0,0,0,horizontal,horizontal,vertical,horizontal,vertical,horizontal
1d,24,100248,2,44,108,20,M,NA,constant,homogeneous,4,absent,0.68986701965332,1,horizontal,horizontal,1,0.623529529571533,red,1,NaN,773.345241866748,853.60308331891,NaN,NaN,773.345241866748,853.60308331891,1053.60308331891,626.654758133252,826.654758133252,346.39691668109,546.39691668109,573.345241866748,NaN,NaN,NaN,NaN,4,0,0,0,NaN,NaN,horizontal,horizontal,horizontal,vertical,none,none
1d,24,100248,2,45,109,20,M,NA,constant,homogeneous,5,present,0.634554862976074,1,vertical,vertical,1,0.952942943572998,red,4,5,583.747735480111,464.870587620533,604.658667004661,763.910840470068,895.524681321058,836.431882914531,1054.37883281626,582.212099195248,861.690083377915,352.574589799621,583.747735480111,464.870587620533,604.658667004661,763.910840470068,NaN,NaN,0,0,0,4,0,NaN,horizontal,vertical,horizontal,vertical,vertical,none
1d,24,100248,2,46,110,20,M,NA,constant,homogeneous,4,absent,1.52663803100586,1,horizontal,horizontal,1,0.741177177429199,red,2,NaN,1008.88377129369,746.261991269517,NaN,NaN,653.738008730483,808.883771293693,1008.88377129369,746.261991269517,946.261991269517,391.116228706307,591.116228706307,453.738008730483,NaN,NaN,NaN,NaN,0,4,0,0,NaN,NaN,vertical,horizontal,horizontal,vertical,none,none
1d,24,100248,2,47,111,20,M,NA,constant,homogeneous,4,present,0.733775854110718,1,horizontal,horizontal,1,0.823530530929565,red,1,3,755.719714694933,851.125977018113,844.280285305067,348.874022981887,755.719714694933,851.125977018113,1051.12597701811,644.280285305067,844.280285305067,348.874022981887,548.874022981887,555.719714694933,NaN,NaN,NaN,NaN,4,0,0,0,NaN,NaN,horizontal,vertical,horizontal,vertical,none,none
1d,24,100248,2,48,112,20,M,NA,constant,homogeneous,6,present,0.71937084197998,1,horizontal,horizontal,1,0.752941942214966,red,5,6,550.57236181288,546.982518841471,629.371695378491,789.501930496736,878.799333565612,842.519411655264,1049.42763818712,653.017481158529,970.628304621509,410.498069503264,721.200666434388,357.480588344736,550.57236181288,546.982518841471,629.371695378491,789.501930496736,0,0,0,0,4,0,horizontal,vertical,vertical,vertical,horizontal,vertical
1d,24,100248,2,49,113,20,M,NA,constant,homogeneous,3,absent,0.73192286491394,1,horizontal,horizontal,1,1.08235535621643,red,2,NaN,835.489140744817,347.4816424709,NaN,NaN,1000.94274216971,756.993676208043,835.489140744817,347.4816424709,563.568117085469,695.524681321058,NaN,NaN,NaN,NaN,NaN,NaN,0,4,0,NaN,NaN,NaN,vertical,horizontal,horizontal,none,none,none
1d,24,100248,2,50,114,20,M,NA,constant,homogeneous,3,present,0.652482032775879,1,horizontal,horizontal,1,1.08235535621643,red,2,3,1046.31108570371,665.998856501143,734.001143498857,353.688914296288,619.68777079743,780.31222920257,1046.31108570371,665.998856501143,734.001143498857,353.688914296288,NaN,NaN,NaN,NaN,NaN,NaN,0,4,0,NaN,NaN,NaN,vertical,horizontal,vertical,none,none,none
1d,24,100248,2,51,115,20,M,NA,constant,homogeneous,3,absent,0.583163976669312,1,vertical,vertical,1,0.882354354858398,red,1,NaN,949.885239334581,806.299333565612,NaN,NaN,949.885239334581,806.299333565612,903.717843984329,367.045908301137,546.39691668109,626.654758133252,NaN,NaN,NaN,NaN,NaN,NaN,4,0,0,NaN,NaN,NaN,vertical,horizontal,vertical,none,none,none
1d,24,100248,2,52,116,20,M,NA,constant,homogeneous,3,absent,0.658586025238037,1,vertical,vertical,1,0.776471471786499,red,3,NaN,560.378381699593,512.784863451954,NaN,NaN,844.280285305067,851.125977018113,995.341332995339,436.089159529932,560.378381699593,512.784863451954,NaN,NaN,NaN,NaN,NaN,NaN,0,0,4,NaN,NaN,NaN,horizontal,horizontal,vertical,none,none,none
1d,24,100248,2,53,117,20,M,NA,constant,homogeneous,4,absent,0.542477130889893,1,vertical,vertical,1,0.917648649215698,red,1,NaN,970.628304621509,789.501930496736,NaN,NaN,970.628304621509,789.501930496736,989.501930496736,429.371695378491,629.371695378491,410.498069503264,610.498069503264,770.628304621509,NaN,NaN,NaN,NaN,4,0,0,0,NaN,NaN,vertical,horizontal,vertical,horizontal,none,none
1d,24,100248,2,54,118,20,M,NA,constant,homogeneous,5,absent,1.05878901481628,1,vertical,vertical,1,0.858824825286865,red,3,NaN,960.476699717708,401.827779828472,NaN,NaN,786.654331158049,854.650531362416,1038.06300875679,691.383827134052,960.476699717708,401.827779828472,661.117046071168,386.139005173917,553.688914296288,665.998856501143,NaN,NaN,0,0,4,0,0,NaN,vertical,vertical,vertical,horizontal,horizontal,none
1d,24,100248,2,55,119,20,M,NA,constant,homogeneous,6,present,0.951365947723389,1,vertical,vertical,1,0.964707708358765,red,6,2,593.700666434388,749.885239334581,1032.95409169886,703.717843984329,826.654758133252,853.60308331891,1032.95409169886,703.717843984329,1006.29933356561,450.114760665419,773.345241866748,346.39691668109,567.045908301137,496.282156015671,593.700666434388,749.885239334581,0,0,0,0,0,4,vertical,vertical,vertical,vertical,horizontal,vertical
1d,24,100248,2,56,120,20,M,NA,constant,homogeneous,3,present,0.578263998031616,1,vertical,vertical,1,0.788236236572266,red,2,1,1051.12597701811,555.719714694933,712.784863451954,839.621618300407,712.784863451954,839.621618300407,1051.12597701811,555.719714694933,636.089159529932,404.658667004661,NaN,NaN,NaN,NaN,NaN,NaN,0,4,0,NaN,NaN,NaN,vertical,vertical,horizontal,none,none,none
1d,24,100248,2,57,121,20,M,NA,constant,homogeneous,5,absent,0.91853404045105,1,horizontal,horizontal,1,0.623529529571533,red,2,NaN,1051.12597701811,555.719714694933,NaN,NaN,919.715248510402,825.151636179026,1051.12597701811,555.719714694933,835.489140744817,347.4816424709,570.807518193712,488.215357568785,622.862115532956,783.431649086356,NaN,NaN,0,4,0,0,0,NaN,vertical,horizontal,horizontal,horizontal,vertical,none
1d,24,100248,2,58,122,20,M,NA,constant,homogeneous,3,absent,0.562765121459961,1,vertical,vertical,1,1.08235535621643,red,3,NaN,696.282156015671,367.045908301137,NaN,NaN,650.114760665419,806.299333565612,1053.60308331891,626.654758133252,696.282156015671,367.045908301137,NaN,NaN,NaN,NaN,NaN,NaN,0,0,4,NaN,NaN,NaN,horizontal,horizontal,vertical,none,none,none
1d,24,100248,2,59,123,20,M,NA,constant,homogeneous,6,absent,0.688971042633057,1,vertical,vertical,1,0.741177177429199,red,2,NaN,1054.0296480134,622.224714400653,NaN,NaN,907.767656743878,831.108485694346,1054.0296480134,622.224714400653,946.261991269517,391.116228706307,692.232343256122,368.891514305654,545.970351986605,577.775285599347,653.738008730483,808.883771293693,0,4,0,0,0,0,vertical,vertical,vertical,horizontal,vertical,vertical
1d,24,100248,2,60,124,20,M,NA,constant,homogeneous,3,present,0.629077911376953,1,vertical,vertical,1,0.917648649215698,red,3,2,704.475318678942,363.568117085469,1052.5183575291,635.489140744817,643.006323791957,800.942742169714,1052.5183575291,635.489140744817,704.475318678942,363.568117085469,NaN,NaN,NaN,NaN,NaN,NaN,0,0,4,NaN,NaN,NaN,vertical,horizontal,vertical,none,none,none
1d,24,100248,2,61,125,20,M,NA,constant,homogeneous,6,absent,0.854597091674805,1,horizontal,horizontal,1,0.6352942943573,red,1,NaN,692.232343256122,831.108485694346,NaN,NaN,692.232343256122,831.108485694346,946.261991269517,808.883771293693,1054.0296480134,577.775285599347,907.767656743878,368.891514305654,653.738008730483,391.116228706307,545.970351986605,622.224714400653,4,0,0,0,0,0,horizontal,horizontal,horizontal,vertical,horizontal,horizontal
1d,24,100248,2,62,126,20,M,NA,constant,homogeneous,6,absent,0.967530012130737,1,horizontal,horizontal,1,1.01176676750183,red,6,NaN,550.57236181288,653.017481158529,NaN,NaN,721.200666434388,842.519411655264,970.628304621509,789.501930496736,1049.42763818712,546.982518841471,878.799333565612,357.480588344736,629.371695378491,410.498069503264,550.57236181288,653.017481158529,0,0,0,0,0,4,vertical,vertical,vertical,vertical,horizontal,horizontal
1d,24,100248,2,63,127,20,M,NA,constant,homogeneous,6,absent,0.791995048522949,1,vertical,vertical,1,1.0235315322876,red,6,NaN,579.163522034968,727.5,NaN,NaN,800,855,1020.83647796503,727.5,1020.83647796503,472.5,800,345,579.163522034968,472.5,579.163522034968,727.5,0,0,0,0,0,4,horizontal,horizontal,horizontal,vertical,vertical,vertical
1d,24,100248,2,64,128,20,M,NA,constant,homogeneous,5,present,0.768599987030029,1,vertical,vertical,1,0.623529529571533,red,1,3,844.280285305067,851.125977018113,911.784642431215,370.807518193712,844.280285305067,851.125977018113,1052.5183575291,635.489140744817,911.784642431215,370.807518193712,616.568350913644,422.862115532956,574.848363820974,719.715248510402,NaN,NaN,4,0,0,0,0,NaN,vertical,horizontal,horizontal,horizontal,vertical,none
1d,24,100248,3,1,129,20,M,NA,constant,homogeneous,3,present,0.708404064178467,1,vertical,vertical,1,0.752941942214966,red,3,2,613.504806087112,426.090418184063,1043.85771277057,525.445215295702,742.637481142314,848.464366520235,1043.85771277057,525.445215295702,613.504806087112,426.090418184063,NaN,NaN,NaN,NaN,NaN,NaN,0,0,4,NaN,NaN,NaN,horizontal,vertical,vertical,none,none,none
1d,24,100248,3,2,130,20,M,NA,constant,homogeneous,4,present,0.478394985198975,1,vertical,vertical,1,0.776471471786499,red,4,3,572.793336331966,484.232422566416,915.767577433584,372.793336331966,684.232422566416,827.206663668034,1027.20666366803,715.767577433584,915.767577433584,372.793336331966,572.793336331966,484.232422566416,NaN,NaN,NaN,NaN,0,0,0,4,NaN,NaN,vertical,vertical,horizontal,vertical,none,none
1d,24,100248,3,3,131,20,M,NA,constant,homogeneous,5,present,0.538153171539307,1,horizontal,horizontal,1,0.705882883071899,red,4,5,557.480588344736,521.200666434388,650.114760665419,806.299333565612,949.885239334581,806.299333565612,1042.51941165526,521.200666434388,800,345,557.480588344736,521.200666434388,650.114760665419,806.299333565612,NaN,NaN,0,0,0,4,0,NaN,horizontal,vertical,vertical,horizontal,horizontal,none
1d,24,100248,3,4,132,20,M,NA,constant,homogeneous,3,absent,0.539623975753784,0,horizontal,vertical,1,0.729412412643433,red,2,NaN,1054.96116226488,604.450363641507,NaN,NaN,668.665290897936,818.577661679039,1054.96116226488,604.450363641507,676.373546837184,376.971974679454,NaN,NaN,NaN,NaN,NaN,NaN,0,4,0,NaN,NaN,NaN,horizontal,horizontal,horizontal,none,none,none
1d,24,100248,3,5,133,20,M,NA,constant,homogeneous,5,absent,0.639548063278198,1,vertical,vertical,1,1.03529629707336,red,4,NaN,734.001143498857,353.688914296288,NaN,NaN,708.616172865948,838.063008756786,998.172220171528,760.476699717708,1013.86099482608,461.117046071168,734.001143498857,353.688914296288,545.349468637584,586.654331158049,NaN,NaN,0,0,0,4,0,NaN,vertical,horizontal,horizontal,vertical,horizontal,none
1d,24,100248,3,6,134,20,M,NA,constant,homogeneous,3,absent,0.576071977615356,1,horizontal,horizontal,1,0.976472473144531,red,2,NaN,1032.95409169886,703.717843984329,NaN,NaN,593.700666434388,749.885239334581,1032.95409169886,703.717843984329,773.345241866748,346.39691668109,NaN,NaN,NaN,NaN,NaN,NaN,0,4,0,NaN,NaN,NaN,horizontal,horizontal,horizontal,none,none,none
1d,24,100248,3,7,135,20,M,NA,constant,homogeneous,4,absent,0.645532846450806,1,horizontal,horizontal,1,0.694118118286133,red,3,NaN,804.450363641507,345.03883773512,NaN,NaN,795.549636358493,854.96116226488,1054.96116226488,604.450363641507,804.450363641507,345.03883773512,545.03883773512,595.549636358493,NaN,NaN,NaN,NaN,0,0,4,0,NaN,NaN,horizontal,vertical,horizontal,vertical,none,none
1d,24,100248,3,8,136,20,M,NA,constant,homogeneous,5,present,0.472440004348755,1,vertical,vertical,1,0.894119119644165,red,2,4,1054.37883281626,582.212099195248,583.747735480111,464.870587620533,895.524681321058,836.431882914531,1054.37883281626,582.212099195248,861.690083377915,352.574589799621,583.747735480111,464.870587620533,604.658667004661,763.910840470068,NaN,NaN,0,4,0,0,0,NaN,vertical,vertical,vertical,vertical,vertical,none
1d,24,100248,3,9,137,20,M,NA,constant,homogeneous,5,absent,0.599806070327759,1,horizontal,horizontal,1,0.694118118286133,red,4,NaN,639.523300282292,401.827779828472,NaN,NaN,813.345668841951,854.650531362416,1046.31108570371,665.998856501143,938.882953928832,386.139005173917,639.523300282292,401.827779828472,561.936991243214,691.383827134052,NaN,NaN,0,0,0,4,0,NaN,horizontal,vertical,horizontal,horizontal,vertical,none
1d,24,100248,3,10,138,20,M,NA,constant,homogeneous,4,absent,0.854113817214966,1,horizontal,horizontal,1,0.894119119644165,red,1,NaN,931.334709102064,818.577661679039,NaN,NaN,931.334709102064,818.577661679039,1018.57766167904,468.665290897936,668.665290897936,381.422338320961,581.422338320961,731.334709102064,NaN,NaN,NaN,NaN,4,0,0,0,NaN,NaN,horizontal,horizontal,horizontal,horizontal,none,none
1d,24,100248,3,11,139,20,M,NA,constant,homogeneous,6,present,0.694494962692261,1,vertical,vertical,1,0.764706707000732,red,5,3,556.142287229426,525.445215295702,986.495193912888,426.090418184063,857.362518857686,848.464366520235,1043.85771277057,674.554784704298,986.495193912888,426.090418184063,742.637481142314,351.535633479765,556.142287229426,525.445215295702,613.504806087112,773.909581815937,0,0,0,0,4,0,horizontal,horizontal,horizontal,vertical,vertical,vertical
1d,24,100248,3,12,140,20,M,NA,constant,homogeneous,6,present,0.533950090408325,1,vertical,vertical,1,0.6705885887146,red,2,5,1041.10723677783,683.019879386575,558.892763222174,516.980120613425,848.656293821019,850.314931779154,1041.10723677783,683.019879386575,992.450942956807,432.704947607421,751.343706178981,349.685068220846,558.892763222174,516.980120613425,607.549057043193,767.295052392579,0,4,0,0,0,0,horizontal,vertical,vertical,horizontal,vertical,horizontal
1d,24,100248,3,13,141,20,M,NA,constant,homogeneous,5,present,0.616008996963501,1,vertical,vertical,1,0.752941942214966,red,5,4,613.504806087112,773.909581815937,576.971974679454,476.373546837184,907.767656743878,831.108485694346,1053.09926866854,568.923317431687,848.656293821019,349.685068220846,576.971974679454,476.373546837184,613.504806087112,773.909581815937,NaN,NaN,0,0,0,0,4,NaN,horizontal,vertical,horizontal,horizontal,vertical,none
1d,24,100248,3,14,142,20,M,NA,constant,homogeneous,6,absent,0.536712884902954,1,horizontal,horizontal,1,1.0235315322876,red,2,NaN,1052.5183575291,635.489140744817,NaN,NaN,895.524681321058,836.431882914531,1052.5183575291,635.489140744817,956.993676208043,399.057257830286,704.475318678942,363.568117085469,547.481642470899,564.510859255183,643.006323791957,800.942742169714,0,4,0,0,0,0,vertical,horizontal,horizontal,horizontal,horizontal,vertical
1d,24,100248,3,15,143,20,M,NA,constant,homogeneous,6,absent,0.914010047912598,1,horizontal,horizontal,1,0.705882883071899,red,3,NaN,953.462830903772,396.34794493794,NaN,NaN,899.636437764765,834.728737630372,1053.09926866854,631.076682568313,953.462830903772,396.34794493794,700.363562235235,365.271262369628,546.900731331463,568.923317431687,646.537169096228,803.65205506206,0,0,4,0,0,0,vertical,horizontal,horizontal,horizontal,horizontal,vertical
1d,24,100248,3,16,144,20,M,NA,constant,homogeneous,6,present,1.18213415145874,1,horizontal,horizontal,1,0.894119119644165,red,4,2,708.616172865948,361.936991243214,1051.86052685176,639.890788585259,891.383827134052,838.063008756786,1051.86052685176,639.890788585259,960.476699717708,401.827779828472,708.616172865948,361.936991243214,548.13947314824,560.109211414741,639.523300282292,798.172220171528,0,0,0,4,0,0,horizontal,horizontal,horizontal,horizontal,vertical,horizontal
1d,24,100248,3,17,145,20,M,NA,constant,homogeneous,6,present,1.05505013465881,1,horizontal,horizontal,1,0.858824825286865,red,6,1,588.595418998464,742.594190385041,817.787900804752,854.378832816255,817.787900804752,854.378832816255,1029.19248180629,711.784642431215,1011.40458100154,457.40580961496,782.212099195248,345.621167183745,570.807518193712,488.215357568785,588.595418998464,742.594190385041,0,0,0,0,0,4,horizontal,vertical,vertical,horizontal,vertical,horizontal
1d,24,100248,3,18,146,20,M,NA,constant,homogeneous,4,present,0.814713954925537,1,horizontal,horizontal,1,0.917648649215698,red,1,2,844.280285305067,851.125977018113,1051.12597701811,555.719714694933,844.280285305067,851.125977018113,1051.12597701811,555.719714694933,755.719714694933,348.874022981887,548.874022981887,644.280285305067,NaN,NaN,NaN,NaN,4,0,0,0,NaN,NaN,horizontal,vertical,horizontal,vertical,none,none
1d,24,100248,3,19,147,20,M,NA,constant,homogeneous,5,absent,0.56587290763855,1,horizontal,horizontal,1,0.929413414001465,red,3,NaN,1011.40458100154,457.40580961496,NaN,NaN,712.784863451954,839.621618300407,1000.94274216971,756.993676208043,1011.40458100154,457.40580961496,729.712474266665,354.878267535729,545.155339110131,591.100628340862,NaN,NaN,0,0,4,0,0,NaN,horizontal,vertical,horizontal,vertical,horizontal,none
1d,24,100248,3,20,148,20,M,NA,constant,homogeneous,6,absent,0.555115938186646,1,horizontal,horizontal,1,0.882354354858398,red,4,NaN,817.787900804752,345.621167183745,NaN,NaN,782.212099195248,854.378832816255,1011.40458100154,742.594190385041,1029.19248180629,488.215357568785,817.787900804752,345.621167183745,588.595418998464,457.40580961496,570.807518193712,711.784642431215,0,0,0,4,0,0,vertical,horizontal,horizontal,horizontal,vertical,vertical
1d,24,100248,3,21,149,20,M,NA,constant,homogeneous,6,absent,0.638246059417725,1,vertical,vertical,1,0.800001001358032,red,1,NaN,883.019879386575,841.107236777826,NaN,NaN,883.019879386575,841.107236777826,1050.31493177915,648.656293821019,967.295052392579,407.549057043193,716.980120613425,358.892763222174,549.685068220846,551.343706178981,632.704947607421,792.450942956807,4,0,0,0,0,0,vertical,vertical,vertical,vertical,vertical,horizontal
1d,24,100248,3,22,150,20,M,NA,constant,homogeneous,3,present,0.684488773345947,1,vertical,vertical,1,1.0588258266449,red,2,3,1025.15163617903,719.715248510402,791.100628340862,345.155339110131,583.747735480111,735.129412379467,1025.15163617903,719.715248510402,791.100628340862,345.155339110131,NaN,NaN,NaN,NaN,NaN,NaN,0,4,0,NaN,NaN,NaN,horizontal,vertical,vertical,none,none,none
1d,24,100248,3,23,151,20,M,NA,constant,homogeneous,4,present,0.665283918380737,1,vertical,vertical,1,0.941178178787231,red,2,3,1027.20666366803,484.232422566416,684.232422566416,372.793336331966,915.767577433584,827.206663668034,1027.20666366803,484.232422566416,684.232422566416,372.793336331966,572.793336331966,715.767577433584,NaN,NaN,NaN,NaN,0,4,0,0,NaN,NaN,horizontal,vertical,horizontal,horizontal,none,none
1d,24,100248,3,24,152,20,M,NA,constant,homogeneous,4,absent,0.712023973464966,0,vertical,horizontal,1,0.658823823928833,red,4,NaN,545.970351986605,622.224714400653,NaN,NaN,822.224714400653,854.029648013395,1054.0296480134,577.775285599347,777.775285599347,345.970351986605,545.970351986605,622.224714400653,NaN,NaN,NaN,NaN,0,0,0,4,NaN,NaN,horizontal,vertical,vertical,vertical,none,none
1d,24,100248,3,25,153,20,M,NA,constant,homogeneous,6,absent,0.804153919219971,1,vertical,vertical,1,1.0941201210022,red,5,NaN,563.568117085469,504.475318678942,NaN,NaN,835.489140744817,852.518357529101,1036.43188291453,695.524681321058,1000.94274216971,443.006323791957,764.510859255183,347.4816424709,563.568117085469,504.475318678942,599.057257830286,756.993676208043,0,0,0,0,4,0,vertical,vertical,horizontal,vertical,vertical,vertical
1d,24,100248,3,26,154,20,M,NA,constant,homogeneous,3,absent,0.658901929855347,1,vertical,vertical,1,0.917648649215698,red,3,NaN,596.34794493794,446.537169096228,NaN,NaN,768.923317431687,853.099268668537,1034.72873763037,500.363562235235,596.34794493794,446.537169096228,NaN,NaN,NaN,NaN,NaN,NaN,0,0,4,NaN,NaN,NaN,horizontal,vertical,vertical,none,none,none
1d,24,100248,3,27,155,20,M,NA,constant,homogeneous,3,present,0.809443950653076,1,vertical,vertical,1,0.658823823928833,red,2,1,853.017481158529,350.57236181288,989.501930496736,770.628304621509,989.501930496736,770.628304621509,853.017481158529,350.57236181288,557.480588344736,678.799333565612,NaN,NaN,NaN,NaN,NaN,NaN,0,4,0,NaN,NaN,NaN,vertical,vertical,vertical,none,none,none
1d,24,100248,3,28,156,20,M,NA,constant,homogeneous,3,absent,0.642153024673462,1,horizontal,horizontal,1,1.03529629707336,red,1,NaN,956.993676208043,800.942742169714,NaN,NaN,956.993676208043,800.942742169714,895.524681321058,363.568117085469,547.481642470899,635.489140744817,NaN,NaN,NaN,NaN,NaN,NaN,4,0,0,NaN,NaN,NaN,horizontal,horizontal,vertical,none,none,none
1d,24,100248,3,29,157,20,M,NA,constant,homogeneous,3,absent,0.669708013534546,1,horizontal,horizontal,1,0.717647647857666,red,2,NaN,903.717843984329,367.045908301137,NaN,NaN,949.885239334581,806.299333565612,903.717843984329,367.045908301137,546.39691668109,626.654758133252,NaN,NaN,NaN,NaN,NaN,NaN,0,4,0,NaN,NaN,NaN,vertical,horizontal,horizontal,none,none,none
1d,24,100248,3,30,158,20,M,NA,constant,homogeneous,3,present,0.683528900146484,1,horizontal,horizontal,1,0.800001001358032,red,3,1,616.568350913644,422.862115532956,738.309916622085,847.425410200379,738.309916622085,847.425410200379,1045.12173246427,529.712474266665,616.568350913644,422.862115532956,NaN,NaN,NaN,NaN,NaN,NaN,0,0,4,NaN,NaN,NaN,vertical,horizontal,horizontal,none,none,none
1d,24,100248,3,31,159,20,M,NA,constant,homogeneous,6,present,0.566021203994751,1,horizontal,horizontal,1,0.847060060501099,red,2,4,1049.42763818712,653.017481158529,721.200666434388,357.480588344736,878.799333565612,842.519411655264,1049.42763818712,653.017481158529,970.628304621509,410.498069503264,721.200666434388,357.480588344736,550.57236181288,546.982518841471,629.371695378491,789.501930496736,0,4,0,0,0,0,horizontal,horizontal,horizontal,horizontal,vertical,vertical
1d,24,100248,3,32,160,20,M,NA,constant,homogeneous,4,absent,0.744058132171631,1,vertical,vertical,1,0.717647647857666,red,1,NaN,708.616172865948,838.063008756786,NaN,NaN,708.616172865948,838.063008756786,1038.06300875679,691.383827134052,891.383827134052,361.936991243214,561.936991243214,508.616172865948,NaN,NaN,NaN,NaN,4,0,0,0,NaN,NaN,vertical,vertical,horizontal,vertical,none,none
1d,24,100248,3,33,161,20,M,NA,constant,homogeneous,5,absent,0.462743997573853,1,vertical,vertical,1,0.776471471786499,red,1,NaN,692.232343256122,831.108485694346,NaN,NaN,692.232343256122,831.108485694346,986.495193912888,773.909581815937,1023.02802532055,476.373546837184,751.343706178981,349.685068220846,546.900731331463,568.923317431687,NaN,NaN,4,0,0,0,0,NaN,vertical,vertical,vertical,vertical,vertical,none
1d,24,100248,3,34,162,20,M,NA,constant,homogeneous,4,absent,0.56977915763855,1,horizontal,horizontal,1,1.07059059143066,red,4,NaN,583.747735480111,735.129412379467,NaN,NaN,935.129412379467,816.252264519889,1016.25226451989,464.870587620533,664.870587620533,383.747735480111,583.747735480111,735.129412379467,NaN,NaN,NaN,NaN,0,0,0,4,NaN,NaN,horizontal,horizontal,vertical,horizontal,none,none
1d,24,100248,3,35,163,20,M,NA,constant,homogeneous,3,absent,0.629086017608643,1,vertical,vertical,1,0.788236236572266,red,3,NaN,572.793336331966,715.767577433584,NaN,NaN,1013.86099482608,738.882953928832,813.345668841951,345.349468637584,572.793336331966,715.767577433584,NaN,NaN,NaN,NaN,NaN,NaN,0,0,4,NaN,NaN,NaN,vertical,horizontal,vertical,none,none,none
1d,24,100248,3,36,164,20,M,NA,constant,homogeneous,6,present,0.784701824188232,1,vertical,vertical,1,0.752941942214966,red,3,6,942.594190385041,388.595418998464,657.405809614959,811.404581001536,911.784642431215,829.192481806288,1054.37883281626,617.787900804752,942.594190385041,388.595418998464,688.215357568785,370.807518193712,545.621167183745,582.212099195248,657.405809614959,811.404581001536,0,0,4,0,0,0,vertical,vertical,vertical,horizontal,horizontal,vertical
1d,24,100248,3,37,165,20,M,NA,constant,homogeneous,4,absent,0.508604049682617,1,vertical,vertical,1,0.800001001358032,red,3,NaN,956.993676208043,399.057257830286,NaN,NaN,643.006323791957,800.942742169714,1000.94274216971,756.993676208043,956.993676208043,399.057257830286,599.057257830286,443.006323791957,NaN,NaN,NaN,NaN,0,0,4,0,NaN,NaN,vertical,vertical,vertical,horizontal,none,none
1d,24,100248,3,38,166,20,M,NA,constant,homogeneous,6,absent,0.577276945114136,1,vertical,vertical,1,0.917648649215698,red,5,NaN,601.827779828472,439.523300282291,NaN,NaN,760.109211414741,851.86052685176,998.172220171528,760.476699717708,1038.06300875679,508.616172865948,839.890788585259,348.13947314824,601.827779828472,439.523300282291,561.936991243214,691.383827134052,0,0,0,0,4,0,vertical,vertical,vertical,horizontal,vertical,horizontal
1d,24,100248,3,39,167,20,M,NA,constant,homogeneous,3,present,0.86101508140564,1,vertical,vertical,1,1.00000200271606,red,3,2,664.870587620533,383.747735480111,1054.84466088987,591.100628340862,680.284751489598,825.151636179026,1054.84466088987,591.100628340862,664.870587620533,383.747735480111,NaN,NaN,NaN,NaN,NaN,NaN,0,0,4,NaN,NaN,NaN,horizontal,vertical,vertical,none,none,none
1d,24,100248,3,40,168,20,M,NA,constant,homogeneous,5,present,0.56536602973938,1,horizontal,horizontal,1,0.752941942214966,red,2,1,1051.12597701811,555.719714694933,919.715248510402,825.151636179026,919.715248510402,825.151636179026,1051.12597701811,555.719714694933,835.489140744817,347.4816424709,570.807518193712,488.215357568785,622.862115532956,783.431649086356,NaN,NaN,0,4,0,0,0,NaN,vertical,horizontal,vertical,vertical,horizontal,none
1d,24,100248,3,41,169,20,M,NA,constant,homogeneous,5,absent,0.690139055252075,1,horizontal,horizontal,1,0.858824825286865,red,3,NaN,870.287525733335,354.878267535729,NaN,NaN,887.215136548046,839.621618300407,1054.84466088987,591.100628340862,870.287525733335,354.878267535729,588.595418998464,457.40580961496,599.057257830286,756.993676208043,NaN,NaN,0,0,4,0,0,NaN,horizontal,vertical,horizontal,horizontal,horizontal,none
1d,24,100248,3,42,170,20,M,NA,constant,homogeneous,3,present,0.695990085601807,1,horizontal,horizontal,1,1.01176676750183,red,1,3,586.139005173917,738.882953928832,786.654331158049,345.349468637584,586.139005173917,738.882953928832,1027.20666366803,715.767577433584,786.654331158049,345.349468637584,NaN,NaN,NaN,NaN,NaN,NaN,4,0,0,NaN,NaN,NaN,horizontal,vertical,vertical,none,none,none
1d,24,100248,3,43,171,20,M,NA,constant,homogeneous,4,present,0.602397918701172,1,vertical,vertical,1,0.988237237930298,red,1,3,865.998856501143,846.311085703712,734.001143498857,353.688914296288,865.998856501143,846.311085703712,1046.31108570371,534.001143498857,734.001143498857,353.688914296288,553.688914296288,665.998856501143,NaN,NaN,NaN,NaN,4,0,0,0,NaN,NaN,vertical,horizontal,horizontal,vertical,none,none
1d,24,100248,3,44,172,20,M,NA,constant,homogeneous,4,present,0.749238967895508,1,horizontal,horizontal,1,0.729412412643433,red,4,3,604.658667004661,436.089159529932,963.910840470068,404.658667004661,636.089159529932,795.341332995339,995.341332995339,763.910840470068,963.910840470068,404.658667004661,604.658667004661,436.089159529932,NaN,NaN,NaN,NaN,0,0,0,4,NaN,NaN,vertical,vertical,horizontal,horizontal,none,none
1d,24,100248,3,45,173,20,M,NA,constant,homogeneous,5,present,0.60979700088501,1,horizontal,horizontal,1,1.08235535621643,red,3,4,831.076682568313,346.900731331463,568.891514305654,492.232343256122,923.626453162816,823.028025320546,1050.31493177915,551.343706178981,831.076682568313,346.900731331463,568.891514305654,492.232343256122,626.090418184063,786.495193912888,NaN,NaN,0,0,4,0,0,NaN,horizontal,horizontal,horizontal,horizontal,horizontal,none
1d,24,100248,3,46,174,20,M,NA,constant,homogeneous,6,absent,0.627336978912354,1,vertical,vertical,1,1.0588258266449,red,1,NaN,903.717843984329,832.954091698863,NaN,NaN,903.717843984329,832.954091698863,1053.60308331891,626.654758133252,949.885239334581,393.700666434388,696.282156015671,367.045908301137,546.39691668109,573.345241866748,650.114760665419,806.299333565612,4,0,0,0,0,0,vertical,horizontal,vertical,horizontal,vertical,vertical
1d,24,100248,3,47,175,20,M,NA,constant,homogeneous,4,present,1.48246312141418,1,vertical,vertical,1,0.717647647857666,red,2,3,1055,600,800,345,800,855,1055,600,800,345,545,600,NaN,NaN,NaN,NaN,0,4,0,0,NaN,NaN,vertical,vertical,vertical,vertical,none,none
1d,24,100248,3,48,176,20,M,NA,constant,homogeneous,3,present,0.977869033813477,1,horizontal,horizontal,1,0.882354354858398,red,2,3,1031.10848569435,492.232343256122,591.116228706307,453.738008730483,777.775285599347,854.029648013395,1031.10848569435,492.232343256122,591.116228706307,453.738008730483,NaN,NaN,NaN,NaN,NaN,NaN,0,4,0,NaN,NaN,NaN,horizontal,horizontal,vertical,none,none,none
1d,24,100248,3,49,177,20,M,NA,constant,homogeneous,3,absent,0.712594985961914,1,vertical,vertical,1,0.741177177429199,red,2,NaN,970.628304621509,410.498069503264,NaN,NaN,878.799333565612,842.519411655264,970.628304621509,410.498069503264,550.57236181288,546.982518841471,NaN,NaN,NaN,NaN,NaN,NaN,0,4,0,NaN,NaN,NaN,vertical,vertical,horizontal,none,none,none
1d,24,100248,3,50,178,20,M,NA,constant,homogeneous,3,present,0.747012138366699,1,horizontal,horizontal,1,0.6,red,1,2,657.405809614959,811.404581001536,1054.37883281626,617.787900804752,657.405809614959,811.404581001536,1054.37883281626,617.787900804752,688.215357568785,370.807518193712,NaN,NaN,NaN,NaN,NaN,NaN,4,0,0,NaN,NaN,NaN,horizontal,vertical,horizontal,none,none,none
1d,24,100248,3,51,179,20,M,NA,constant,homogeneous,6,absent,0.563529014587402,1,horizontal,horizontal,1,0.6705885887146,red,2,NaN,1054.0296480134,622.224714400653,NaN,NaN,907.767656743878,831.108485694346,1054.0296480134,622.224714400653,946.261991269517,391.116228706307,692.232343256122,368.891514305654,545.970351986605,577.775285599347,653.738008730483,808.883771293693,0,4,0,0,0,0,horizontal,horizontal,vertical,vertical,horizontal,vertical
1d,24,100248,3,52,180,20,M,NA,constant,homogeneous,4,present,0.758692979812622,1,horizontal,horizontal,1,0.988237237930298,red,1,4,808.899371659138,854.844660889869,545.155339110131,608.899371659138,808.899371659138,854.844660889869,1054.84466088987,591.100628340862,791.100628340862,345.155339110131,545.155339110131,608.899371659138,NaN,NaN,NaN,NaN,4,0,0,0,NaN,NaN,horizontal,horizontal,horizontal,horizontal,none,none
1d,24,100248,3,53,181,20,M,NA,constant,homogeneous,5,present,0.650633811950684,1,vertical,vertical,1,0.623529529571533,red,1,4,938.882953928832,813.860994826083,561.936991243214,508.616172865948,938.882953928832,813.860994826083,1046.31108570371,534.001143498857,813.345668841951,345.349468637584,561.936991243214,508.616172865948,639.523300282292,798.172220171528,NaN,NaN,4,0,0,0,0,NaN,vertical,horizontal,horizontal,horizontal,vertical,none
1d,24,100248,3,54,182,20,M,NA,constant,homogeneous,5,present,0.637464046478271,1,vertical,vertical,1,1.08235535621643,red,3,5,973.909581815937,413.504806087112,549.685068220846,648.656293821019,768.923317431687,853.099268668537,1031.10848569435,707.767656743878,973.909581815937,413.504806087112,676.373546837184,376.971974679454,549.685068220846,648.656293821019,NaN,NaN,0,0,4,0,0,NaN,vertical,vertical,vertical,vertical,vertical,none
1d,24,100248,3,55,183,20,M,NA,constant,homogeneous,4,absent,0.6212158203125,1,vertical,vertical,1,0.952942943572998,red,2,NaN,1034.72873763037,500.363562235235,NaN,NaN,899.636437764765,834.728737630372,1034.72873763037,500.363562235235,700.363562235235,365.271262369628,565.271262369628,699.636437764765,NaN,NaN,NaN,NaN,0,4,0,0,NaN,NaN,horizontal,vertical,vertical,horizontal,none,none
1d,24,100248,3,56,184,20,M,NA,constant,homogeneous,5,absent,0.609948873519897,1,vertical,vertical,1,0.988237237930298,red,1,NaN,680.284751489598,825.151636179026,NaN,NaN,680.284751489598,825.151636179026,977.137884467044,783.431649086356,1029.19248180629,488.215357568785,764.510859255183,347.4816424709,548.874022981887,555.719714694933,NaN,NaN,4,0,0,0,0,NaN,vertical,horizontal,horizontal,vertical,horizontal,none
1d,24,100248,3,57,185,20,M,NA,constant,homogeneous,4,absent,0.680775880813599,1,horizontal,horizontal,1,0.741177177429199,red,1,NaN,650.114760665419,806.299333565612,NaN,NaN,650.114760665419,806.299333565612,1006.29933356561,749.885239334581,949.885239334581,393.700666434388,593.700666434388,450.114760665419,NaN,NaN,NaN,NaN,4,0,0,0,NaN,NaN,horizontal,vertical,horizontal,horizontal,none,none
1d,24,100248,3,58,186,20,M,NA,constant,homogeneous,6,present,0.775795936584473,1,horizontal,horizontal,1,0.6705885887146,red,1,3,800,855,1020.83647796503,472.5,800,855,1020.83647796503,727.5,1020.83647796503,472.5,800,345,579.163522034968,472.5,579.163522034968,727.5,4,0,0,0,0,0,horizontal,horizontal,horizontal,horizontal,vertical,vertical
1d,24,100248,3,59,187,20,M,NA,constant,homogeneous,3,absent,0.634300947189331,1,vertical,vertical,1,0.729412412643433,red,1,NaN,874.554784704298,843.857712770574,NaN,NaN,874.554784704298,843.857712770574,973.909581815937,413.504806087112,551.535633479765,542.637481142314,NaN,NaN,NaN,NaN,NaN,NaN,4,0,0,NaN,NaN,NaN,vertical,horizontal,vertical,none,none,none
1d,24,100248,3,60,188,20,M,NA,constant,homogeneous,5,present,0.804415941238403,1,horizontal,horizontal,1,0.647059059143066,red,1,2,704.475318678942,836.431882914531,995.341332995339,763.910840470068,704.475318678942,836.431882914531,995.341332995339,763.910840470068,1016.25226451989,464.870587620533,738.309916622085,352.574589799621,545.621167183745,582.212099195248,NaN,NaN,4,0,0,0,0,NaN,horizontal,vertical,horizontal,vertical,horizontal,none
1d,24,100248,3,61,189,20,M,NA,constant,homogeneous,4,present,0.710361003875732,1,horizontal,horizontal,1,0.882354354858398,red,4,2,546.900731331463,631.076682568313,1053.09926866854,568.923317431687,831.076682568313,853.099268668537,1053.09926866854,568.923317431687,768.923317431687,346.900731331463,546.900731331463,631.076682568313,NaN,NaN,NaN,NaN,0,0,0,4,NaN,NaN,horizontal,horizontal,vertical,horizontal,none,none
1d,24,100248,3,62,190,20,M,NA,constant,homogeneous,5,absent,1.1067910194397,1,horizontal,horizontal,1,0.917648649215698,red,3,NaN,887.215136548046,360.378381699593,NaN,NaN,870.287525733335,845.121732464271,1054.84466088987,608.899371659138,887.215136548046,360.378381699593,599.057257830286,443.006323791957,588.595418998464,742.594190385041,NaN,NaN,0,0,4,0,0,NaN,horizontal,vertical,horizontal,horizontal,horizontal,none
1d,24,100248,3,63,191,20,M,NA,constant,homogeneous,6,present,0.884730100631714,1,vertical,vertical,1,0.976472473144531,red,1,6,800,855,579.163522034968,727.5,800,855,1020.83647796503,727.5,1020.83647796503,472.5,800,345,579.163522034968,472.5,579.163522034968,727.5,4,0,0,0,0,0,vertical,horizontal,vertical,vertical,horizontal,vertical
1d,24,100248,3,64,192,20,M,NA,constant,homogeneous,5,absent,0.807652950286865,1,vertical,vertical,1,1.04706106185913,red,4,NaN,680.284751489598,374.848363820974,NaN,NaN,764.510859255183,852.518357529101,1029.19248180629,711.784642431215,977.137884467044,416.568350913644,680.284751489598,374.848363820974,548.874022981887,644.280285305067,NaN,NaN,0,0,0,4,0,NaN,horizontal,vertical,vertical,vertical,vertical,none
1d,24,100248,4,1,193,20,M,NA,constant,homogeneous,6,present,1.07356214523315,1,horizontal,horizontal,1,0.717647647857666,red,3,6,989.501930496736,429.371695378491,610.498069503264,770.628304621509,853.017481158529,849.42763818712,1042.51941165526,678.799333565612,989.501930496736,429.371695378491,746.982518841471,350.57236181288,557.480588344736,521.200666434388,610.498069503264,770.628304621509,0,0,4,0,0,0,horizontal,vertical,horizontal,horizontal,horizontal,vertical
1d,24,100248,4,2,194,20,M,NA,constant,homogeneous,3,absent,0.598872900009155,1,horizontal,horizontal,1,0.776471471786499,red,3,NaN,563.568117085469,695.524681321058,NaN,NaN,1000.94274216971,756.993676208043,835.489140744817,347.4816424709,563.568117085469,695.524681321058,NaN,NaN,NaN,NaN,NaN,NaN,0,0,4,NaN,NaN,NaN,vertical,vertical,horizontal,none,none,none
1d,24,100248,4,3,195,20,M,NA,constant,homogeneous,3,absent,0.657105922698975,1,vertical,vertical,1,0.905883884429932,red,1,NaN,661.117046071168,813.860994826083,NaN,NaN,661.117046071168,813.860994826083,1054.65053136242,613.345668841951,684.232422566416,372.793336331966,NaN,NaN,NaN,NaN,NaN,NaN,4,0,0,NaN,NaN,NaN,vertical,vertical,vertical,none,none,none
1d,24,100248,4,4,196,20,M,NA,constant,homogeneous,3,present,0.487296104431152,1,vertical,vertical,1,1.04706106185913,red,2,1,1054.84466088987,608.899371659138,664.870587620533,816.252264519889,664.870587620533,816.252264519889,1054.84466088987,608.899371659138,680.284751489598,374.848363820974,NaN,NaN,NaN,NaN,NaN,NaN,0,4,0,NaN,NaN,NaN,horizontal,vertical,vertical,none,none,none
1d,24,100248,4,5,197,20,M,NA,constant,homogeneous,4,present,0.629245042800903,0,horizontal,vertical,1,1.01176676750183,red,1,3,786.654331158049,854.650531362416,813.345668841951,345.349468637584,786.654331158049,854.650531362416,1054.65053136242,613.345668841951,813.345668841951,345.349468637584,545.349468637584,586.654331158049,NaN,NaN,NaN,NaN,4,0,0,0,NaN,NaN,horizontal,horizontal,horizontal,horizontal,none,none
1d,24,100248,4,6,198,20,M,NA,constant,homogeneous,4,present,0.644098997116089,1,vertical,vertical,1,0.894119119644165,red,3,4,883.019879386575,358.892763222174,558.892763222174,516.980120613425,716.980120613425,841.107236777826,1041.10723677783,683.019879386575,883.019879386575,358.892763222174,558.892763222174,516.980120613425,NaN,NaN,NaN,NaN,0,0,4,0,NaN,NaN,horizontal,horizontal,vertical,vertical,none,none
1d,24,100248,4,7,199,20,M,NA,constant,homogeneous,6,present,0.628226041793823,1,vertical,vertical,1,0.752941942214966,red,4,3,817.787900804752,345.621167183745,1029.19248180629,488.215357568785,782.212099195248,854.378832816255,1011.40458100154,742.594190385041,1029.19248180629,488.215357568785,817.787900804752,345.621167183745,588.595418998464,457.40580961496,570.807518193712,711.784642431215,0,0,0,4,0,0,horizontal,vertical,vertical,vertical,horizontal,vertical
1d,24,100248,4,8,200,20,M,NA,constant,homogeneous,3,absent,0.518607139587402,1,vertical,vertical,1,0.682353353500366,red,2,NaN,1047.42541020038,661.690083377915,NaN,NaN,622.862115532956,783.431649086356,1047.42541020038,661.690083377915,729.712474266665,354.878267535729,NaN,NaN,NaN,NaN,NaN,NaN,0,4,0,NaN,NaN,NaN,vertical,vertical,horizontal,none,none,none
1d,24,100248,4,9,201,20,M,NA,constant,homogeneous,3,absent,0.57885217666626,1,horizontal,horizontal,1,0.682353353500366,red,1,NaN,977.137884467044,783.431649086356,NaN,NaN,977.137884467044,783.431649086356,870.287525733335,354.878267535729,552.574589799621,661.690083377915,NaN,NaN,NaN,NaN,NaN,NaN,4,0,0,NaN,NaN,NaN,horizontal,vertical,horizontal,none,none,none
1d,24,100248,4,10,202,20,M,NA,constant,homogeneous,3,present,0.612165927886963,1,horizontal,horizontal,1,1.08235535621643,red,3,1,547.481642470899,564.510859255183,895.524681321058,836.431882914531,895.524681321058,836.431882914531,956.993676208043,399.057257830286,547.481642470899,564.510859255183,NaN,NaN,NaN,NaN,NaN,NaN,0,0,4,NaN,NaN,NaN,horizontal,horizontal,horizontal,none,none,none
1d,24,100248,4,11,203,20,M,NA,constant,homogeneous,5,absent,0.889429092407227,1,horizontal,horizontal,1,0.835295295715332,red,5,NaN,629.371695378491,789.501930496736,NaN,NaN,927.5,820.836477965032,1049.42763818712,546.982518841471,826.654758133252,346.39691668109,567.045908301137,496.282156015671,629.371695378491,789.501930496736,NaN,NaN,0,0,0,0,4,NaN,vertical,horizontal,vertical,vertical,horizontal,none
1d,24,100248,4,12,204,20,M,NA,constant,homogeneous,5,present,0.759567975997925,1,vertical,vertical,1,0.811765766143799,red,1,4,768.923317431687,853.099268668537,676.373546837184,376.971974679454,768.923317431687,853.099268668537,1031.10848569435,707.767656743878,973.909581815937,413.504806087112,676.373546837184,376.971974679454,549.685068220846,648.656293821019,NaN,NaN,4,0,0,0,0,NaN,vertical,vertical,vertical,horizontal,vertical,none
1d,24,100248,4,13,205,20,M,NA,constant,homogeneous,5,present,0.743993043899536,1,horizontal,horizontal,1,1.0588258266449,red,3,4,903.717843984329,367.045908301137,610.498069503264,429.371695378491,853.017481158529,849.42763818712,1053.60308331891,626.654758133252,903.717843984329,367.045908301137,610.498069503264,429.371695378491,579.163522034968,727.5,NaN,NaN,0,0,4,0,0,NaN,vertical,horizontal,horizontal,vertical,vertical,none
1d,24,100248,4,14,206,20,M,NA,constant,homogeneous,4,present,0.579781055450439,1,horizontal,horizontal,1,0.6352942943573,red,4,1,572.793336331966,484.232422566416,684.232422566416,827.206663668034,684.232422566416,827.206663668034,1027.20666366803,715.767577433584,915.767577433584,372.793336331966,572.793336331966,484.232422566416,NaN,NaN,NaN,NaN,0,0,0,4,NaN,NaN,horizontal,horizontal,horizontal,horizontal,none,none
1d,24,100248,4,15,207,20,M,NA,constant,homogeneous,4,absent,0.473034143447876,1,horizontal,horizontal,1,1.07059059143066,red,2,NaN,1038.06300875679,508.616172865948,NaN,NaN,891.383827134052,838.063008756786,1038.06300875679,508.616172865948,708.616172865948,361.936991243214,561.936991243214,691.383827134052,NaN,NaN,NaN,NaN,0,4,0,0,NaN,NaN,vertical,horizontal,horizontal,horizontal,none,none
1d,24,100248,4,16,208,20,M,NA,constant,homogeneous,3,present,0.531424999237061,1,horizontal,horizontal,1,0.6352942943573,red,3,2,604.658667004661,436.089159529932,1039.62161830041,512.784863451954,755.719714694933,851.125977018113,1039.62161830041,512.784863451954,604.658667004661,436.089159529932,NaN,NaN,NaN,NaN,NaN,NaN,0,0,4,NaN,NaN,NaN,horizontal,vertical,horizontal,none,none,none
1d,24,100248,4,17,209,20,M,NA,constant,homogeneous,5,present,0.571523904800415,1,horizontal,horizontal,1,0.658823823928833,red,5,3,610.498069503264,770.628304621509,853.017481158529,350.57236181288,903.717843984329,832.954091698863,1053.60308331891,573.345241866748,853.017481158529,350.57236181288,579.163522034968,472.5,610.498069503264,770.628304621509,NaN,NaN,0,0,0,0,4,NaN,horizontal,vertical,vertical,horizontal,horizontal,none
1d,24,100248,4,18,210,20,M,NA,constant,homogeneous,6,absent,0.514539003372192,1,horizontal,horizontal,1,0.776471471786499,red,4,NaN,734.001143498857,353.688914296288,NaN,NaN,865.998856501143,846.311085703712,1046.31108570371,665.998856501143,980.31222920257,419.68777079743,734.001143498857,353.688914296288,553.688914296288,534.001143498857,619.68777079743,780.31222920257,0,0,0,4,0,0,horizontal,vertical,vertical,horizontal,vertical,horizontal
1d,24,100248,4,19,211,20,M,NA,constant,homogeneous,3,absent,0.512705087661743,1,horizontal,horizontal,1,0.988237237930298,red,3,NaN,547.481642470899,564.510859255183,NaN,NaN,895.524681321058,836.431882914531,956.993676208043,399.057257830286,547.481642470899,564.510859255183,NaN,NaN,NaN,NaN,NaN,NaN,0,0,4,NaN,NaN,NaN,vertical,vertical,horizontal,none,none,none
1d,24,100248,4,20,212,20,M,NA,constant,homogeneous,4,present,0.509927034378052,1,horizontal,horizontal,1,0.941178178787231,red,3,1,844.280285305067,348.874022981887,755.719714694933,851.125977018113,755.719714694933,851.125977018113,1051.12597701811,644.280285305067,844.280285305067,348.874022981887,548.874022981887,555.719714694933,NaN,NaN,NaN,NaN,0,0,4,0,NaN,NaN,vertical,horizontal,horizontal,vertical,none,none
1d,24,100248,4,21,213,20,M,NA,constant,homogeneous,4,present,0.651609182357788,1,horizontal,horizontal,1,0.764706707000732,red,1,2,786.654331158049,854.650531362416,1054.65053136242,613.345668841951,786.654331158049,854.650531362416,1054.65053136242,613.345668841951,813.345668841951,345.349468637584,545.349468637584,586.654331158049,NaN,NaN,NaN,NaN,4,0,0,0,NaN,NaN,horizontal,vertical,horizontal,vertical,none,none
1d,24,100248,4,22,214,20,M,NA,constant,homogeneous,4,present,0.71708083152771,1,vertical,vertical,1,0.611764764785767,red,4,2,547.481642470899,635.489140744817,1052.5183575291,564.510859255183,835.489140744817,852.518357529101,1052.5183575291,564.510859255183,764.510859255183,347.4816424709,547.481642470899,635.489140744817,NaN,NaN,NaN,NaN,0,0,0,4,NaN,NaN,vertical,horizontal,vertical,vertical,none,none
1d,24,100248,4,23,215,20,M,NA,constant,homogeneous,5,present,0.552958011627197,1,horizontal,horizontal,1,0.858824825286865,red,3,4,831.076682568313,346.900731331463,568.891514305654,492.232343256122,923.626453162816,823.028025320546,1050.31493177915,551.343706178981,831.076682568313,346.900731331463,568.891514305654,492.232343256122,626.090418184063,786.495193912888,NaN,NaN,0,0,4,0,0,NaN,horizontal,horizontal,horizontal,vertical,horizontal,none
1d,24,100248,4,24,216,20,M,NA,constant,homogeneous,6,absent,0.636144161224365,1,vertical,vertical,1,0.800001001358032,red,1,NaN,927.5,820.836477965032,NaN,NaN,927.5,820.836477965032,1055,600,927.5,379.163522034968,672.5,379.163522034968,545,600,672.5,820.836477965032,4,0,0,0,0,0,vertical,horizontal,horizontal,vertical,horizontal,horizontal
1d,24,100248,4,25,217,20,M,NA,constant,homogeneous,3,present,0.60699987411499,1,horizontal,horizontal,1,1.0941201210022,red,2,3,1036.43188291453,695.524681321058,764.510859255183,347.4816424709,599.057257830286,756.993676208043,1036.43188291453,695.524681321058,764.510859255183,347.4816424709,NaN,NaN,NaN,NaN,NaN,NaN,0,4,0,NaN,NaN,NaN,horizontal,horizontal,vertical,none,none,none
1d,24,100248,4,26,218,20,M,NA,constant,homogeneous,6,present,0.736484050750732,1,horizontal,horizontal,1,1.0588258266449,red,4,5,684.232422566416,372.793336331966,545.349468637584,586.654331158049,915.767577433584,827.206663668034,1054.65053136242,613.345668841951,938.882953928832,386.139005173917,684.232422566416,372.793336331966,545.349468637584,586.654331158049,661.117046071168,813.860994826083,0,0,0,4,0,0,horizontal,vertical,vertical,horizontal,vertical,vertical
1d,24,100248,4,27,219,20,M,NA,constant,homogeneous,5,absent,0.672934055328369,1,vertical,vertical,1,0.882354354858398,red,4,NaN,599.057257830286,443.006323791957,NaN,NaN,870.287525733335,845.121732464271,1054.84466088987,608.899371659138,887.215136548046,360.378381699593,599.057257830286,443.006323791957,588.595418998464,742.594190385041,NaN,NaN,0,0,0,4,0,NaN,vertical,horizontal,vertical,vertical,horizontal,none
1d,24,100248,4,28,220,20,M,NA,constant,homogeneous,6,present,0.536181926727295,1,horizontal,horizontal,1,1.07059059143066,red,5,1,563.568117085469,504.475318678942,835.489140744817,852.518357529101,835.489140744817,852.518357529101,1036.43188291453,695.524681321058,1000.94274216971,443.006323791957,764.510859255183,347.4816424709,563.568117085469,504.475318678942,599.057257830286,756.993676208043,0,0,0,0,4,0,horizontal,horizontal,vertical,horizontal,horizontal,vertical
1d,24,100248,4,29,221,20,M,NA,constant,homogeneous,6,absent,0.635601997375488,1,horizontal,horizontal,1,0.623529529571533,red,2,NaN,963.910840470068,795.341332995339,NaN,NaN,712.784863451954,839.621618300407,963.910840470068,795.341332995339,1051.12597701811,555.719714694933,887.215136548046,360.378381699593,636.089159529932,404.658667004661,548.874022981887,644.280285305067,0,4,0,0,0,0,horizontal,horizontal,horizontal,vertical,vertical,horizontal
1d,24,100248,4,30,222,20,M,NA,constant,homogeneous,4,absent,0.609217882156372,1,horizontal,horizontal,1,0.6352942943573,red,3,NaN,768.923317431687,346.900731331463,NaN,NaN,831.076682568313,853.099268668537,1053.09926866854,568.923317431687,768.923317431687,346.900731331463,546.900731331463,631.076682568313,NaN,NaN,NaN,NaN,0,0,4,0,NaN,NaN,horizontal,horizontal,horizontal,vertical,none,none
1d,24,100248,4,31,223,20,M,NA,constant,homogeneous,5,absent,0.573796987533569,1,vertical,vertical,1,0.823530530929565,red,2,NaN,1046.31108570371,665.998856501143,NaN,NaN,813.345668841951,854.650531362416,1046.31108570371,665.998856501143,938.882953928832,386.139005173917,639.523300282292,401.827779828472,561.936991243214,691.383827134052,NaN,NaN,0,4,0,0,0,NaN,horizontal,vertical,horizontal,vertical,vertical,none
1d,24,100248,4,32,224,20,M,NA,constant,homogeneous,5,absent,0.723069906234741,1,horizontal,horizontal,1,0.682353353500366,red,5,NaN,545.970351986605,577.775285599347,NaN,NaN,700.363562235235,834.728737630372,992.450942956807,767.295052392579,1018.57766167904,468.665290897936,742.637481142314,351.535633479765,545.970351986605,577.775285599347,NaN,NaN,0,0,0,0,4,NaN,vertical,vertical,horizontal,horizontal,horizontal,none
1d,24,100248,4,33,225,20,M,NA,constant,homogeneous,6,absent,0.719173908233643,1,vertical,vertical,1,1.08235535621643,red,6,NaN,556.142287229426,674.554784704298,NaN,NaN,742.637481142314,848.464366520235,986.495193912888,773.909581815937,1043.85771277057,525.445215295702,857.362518857686,351.535633479765,613.504806087112,426.090418184063,556.142287229426,674.554784704298,0,0,0,0,0,4,vertical,horizontal,horizontal,vertical,horizontal,vertical
1d,24,100248,4,34,226,20,M,NA,constant,homogeneous,3,present,0.470722913742065,1,vertical,vertical,1,0.847060060501099,red,2,1,1052.5183575291,635.489140744817,643.006323791957,800.942742169714,643.006323791957,800.942742169714,1052.5183575291,635.489140744817,704.475318678942,363.568117085469,NaN,NaN,NaN,NaN,NaN,NaN,0,4,0,NaN,NaN,NaN,horizontal,vertical,horizontal,none,none,none
1d,24,100248,4,35,227,20,M,NA,constant,homogeneous,4,absent,0.550692081451416,1,vertical,vertical,1,0.917648649215698,red,3,NaN,777.775285599347,345.970351986605,NaN,NaN,822.224714400653,854.029648013395,1054.0296480134,577.775285599347,777.775285599347,345.970351986605,545.970351986605,622.224714400653,NaN,NaN,NaN,NaN,0,0,4,0,NaN,NaN,horizontal,vertical,vertical,vertical,none,none
1d,24,100248,4,36,228,20,M,NA,constant,homogeneous,4,absent,0.540331125259399,1,vertical,vertical,1,0.729412412643433,red,3,NaN,742.637481142314,351.535633479765,NaN,NaN,857.362518857686,848.464366520235,1048.46436652023,542.637481142314,742.637481142314,351.535633479765,551.535633479765,657.362518857686,NaN,NaN,NaN,NaN,0,0,4,0,NaN,NaN,horizontal,vertical,vertical,vertical,none,none
1d,24,100248,4,37,229,20,M,NA,constant,homogeneous,5,present,0.601762056350708,1,vertical,vertical,1,0.905883884429932,red,5,4,632.704947607421,792.450942956807,565.271262369628,500.363562235235,931.334709102064,818.577661679039,1048.46436652023,542.637481142314,822.224714400653,345.970351986605,565.271262369628,500.363562235235,632.704947607421,792.450942956807,NaN,NaN,0,0,0,0,4,NaN,vertical,vertical,vertical,horizontal,vertical,none
1d,24,100248,4,38,230,20,M,NA,constant,homogeneous,3,present,0.468508005142212,1,vertical,vertical,1,0.929413414001465,red,2,3,813.345668841951,345.349468637584,572.793336331966,715.767577433584,1013.86099482608,738.882953928832,813.345668841951,345.349468637584,572.793336331966,715.767577433584,NaN,NaN,NaN,NaN,NaN,NaN,0,4,0,NaN,NaN,NaN,vertical,vertical,vertical,none,none,none
1d,24,100248,4,39,231,20,M,NA,constant,homogeneous,6,absent,0.613990068435669,1,vertical,vertical,1,1.00000200271606,red,6,NaN,560.378381699593,687.215136548046,NaN,NaN,755.719714694933,851.125977018113,995.341332995339,763.910840470068,1039.62161830041,512.784863451954,844.280285305067,348.874022981887,604.658667004661,436.089159529932,560.378381699593,687.215136548046,0,0,0,0,0,4,vertical,vertical,vertical,horizontal,horizontal,vertical
1d,24,100248,4,40,232,20,M,NA,constant,homogeneous,3,absent,0.433955907821655,1,vertical,vertical,1,0.964707708358765,red,3,NaN,607.549057043193,432.704947607421,NaN,NaN,751.343706178981,850.314931779154,1041.10723677783,516.980120613425,607.549057043193,432.704947607421,NaN,NaN,NaN,NaN,NaN,NaN,0,0,4,NaN,NaN,NaN,horizontal,vertical,vertical,none,none,none
1d,24,100248,4,41,233,20,M,NA,constant,homogeneous,4,present,0.670046091079712,1,vertical,vertical,1,0.764706707000732,red,3,4,696.282156015671,367.045908301137,567.045908301137,703.717843984329,903.717843984329,832.954091698863,1032.95409169886,496.282156015671,696.282156015671,367.045908301137,567.045908301137,703.717843984329,NaN,NaN,NaN,NaN,0,0,4,0,NaN,NaN,horizontal,horizontal,vertical,vertical,none,none
1d,24,100248,4,42,234,20,M,NA,constant,homogeneous,4,absent,0.648376941680908,1,horizontal,horizontal,1,1.03529629707336,red,1,NaN,935.129412379467,816.252264519889,NaN,NaN,935.129412379467,816.252264519889,1016.25226451989,464.870587620533,664.870587620533,383.747735480111,583.747735480111,735.129412379467,NaN,NaN,NaN,NaN,4,0,0,0,NaN,NaN,horizontal,vertical,horizontal,horizontal,none,none
1d,24,100248,4,43,235,20,M,NA,constant,homogeneous,3,present,0.82250189781189,1,horizontal,horizontal,1,0.647059059143066,red,2,3,989.501930496736,429.371695378491,557.480588344736,521.200666434388,853.017481158529,849.42763818712,989.501930496736,429.371695378491,557.480588344736,521.200666434388,NaN,NaN,NaN,NaN,NaN,NaN,0,4,0,NaN,NaN,NaN,horizontal,horizontal,vertical,none,none,none
1d,24,100248,4,44,236,20,M,NA,constant,homogeneous,6,absent,0.656478881835938,1,horizontal,horizontal,1,0.658823823928833,red,6,NaN,596.34794493794,753.462830903772,NaN,NaN,831.076682568313,853.099268668537,1034.72873763037,699.636437764765,1003.65205506206,446.537169096228,768.923317431687,346.900731331463,565.271262369628,500.363562235235,596.34794493794,753.462830903772,0,0,0,0,0,4,horizontal,vertical,horizontal,horizontal,horizontal,horizontal
1d,24,100248,4,45,237,20,M,NA,constant,homogeneous,6,present,0.594340085983276,1,horizontal,horizontal,1,0.6352942943573,red,3,1,983.431649086356,422.862115532956,861.690083377915,847.425410200379,861.690083377915,847.425410200379,1045.12173246427,670.287525733335,983.431649086356,422.862115532956,738.309916622085,352.574589799621,554.878267535729,529.712474266665,616.568350913644,777.137884467044,0,0,4,0,0,0,horizontal,vertical,horizontal,horizontal,vertical,vertical
1d,24,100248,4,46,238,20,M,NA,constant,homogeneous,3,absent,0.57514500617981,1,horizontal,horizontal,1,1.03529629707336,red,3,NaN,545.349468637584,613.345668841951,NaN,NaN,938.882953928832,813.860994826083,915.767577433584,372.793336331966,545.349468637584,613.345668841951,NaN,NaN,NaN,NaN,NaN,NaN,0,0,4,NaN,NaN,NaN,horizontal,vertical,horizontal,none,none,none
1d,24,100248,4,47,239,20,M,NA,constant,homogeneous,5,present,0.522423982620239,1,vertical,vertical,1,0.776471471786499,red,1,2,704.475318678942,836.431882914531,995.341332995339,763.910840470068,704.475318678942,836.431882914531,995.341332995339,763.910840470068,1016.25226451989,464.870587620533,738.309916622085,352.574589799621,545.621167183745,582.212099195248,NaN,NaN,4,0,0,0,0,NaN,vertical,vertical,vertical,vertical,horizontal,none
1d,24,100248,4,48,240,20,M,NA,constant,homogeneous,6,absent,0.570580005645752,1,horizontal,horizontal,1,1.07059059143066,red,1,NaN,708.616172865948,838.063008756786,NaN,NaN,708.616172865948,838.063008756786,960.476699717708,798.172220171528,1051.86052685176,560.109211414741,891.383827134052,361.936991243214,639.523300282292,401.827779828472,548.13947314824,639.890788585259,4,0,0,0,0,0,horizontal,vertical,horizontal,horizontal,vertical,horizontal
1d,24,100248,4,49,241,20,M,NA,constant,homogeneous,3,present,0.563657999038696,1,vertical,vertical,1,0.894119119644165,red,1,3,998.172220171528,760.476699717708,561.936991243214,691.383827134052,998.172220171528,760.476699717708,839.890788585259,348.13947314824,561.936991243214,691.383827134052,NaN,NaN,NaN,NaN,NaN,NaN,4,0,0,NaN,NaN,NaN,vertical,vertical,vertical,none,none,none
1d,24,100248,4,50,242,20,M,NA,constant,homogeneous,5,present,0.596709012985229,1,horizontal,horizontal,1,1.07059059143066,red,2,1,1020.83647796503,727.5,746.982518841471,849.42763818712,746.982518841471,849.42763818712,1020.83647796503,727.5,989.501930496736,429.371695378491,696.282156015671,367.045908301137,546.39691668109,626.654758133252,NaN,NaN,0,4,0,0,0,NaN,vertical,horizontal,vertical,horizontal,vertical,none
1d,24,100248,4,51,243,20,M,NA,constant,homogeneous,4,absent,0.634436130523682,1,horizontal,horizontal,1,0.682353353500366,red,3,NaN,619.68777079743,419.68777079743,NaN,NaN,980.31222920257,780.31222920257,980.31222920257,419.68777079743,619.68777079743,419.68777079743,619.68777079743,780.31222920257,NaN,NaN,NaN,NaN,0,0,4,0,NaN,NaN,vertical,horizontal,horizontal,vertical,none,none
