experiment,subject,uniqueID,block,trial,trial_cumulative,age,gender,color_cond_blocking,color_history,shape_type,set_size,distractor,rt,acc,target_orient,response_key,response_made,iti,target_color,target_item,distractor_item,target_X,target_Y,distractor_X,distractor_Y,item1_X,item1_Y,item2_X,item2_Y,item3_X,item3_Y,item4_X,item4_Y,item5_X,item5_Y,item6_X,item6_Y,item1_shape,item2_shape,item3_shape,item4_shape,item5_shape,item6_shape,item1_line,item2_line,item3_line,item4_line,item5_line,item6_line
1d,2,100205,1,1,1,19,M,NA,constant,homogeneous,6,present,1.63986611366272,1,horizontal,horizontal,1,0.882347532419058,red,3,2,1054.37883281626,582.212099195248,942.594190385041,811.404581001536,688.215357568785,829.192481806288,942.594190385041,811.404581001536,1054.37883281626,582.212099195248,911.784642431215,370.807518193712,657.405809614959,388.595418998464,545.621167183745,617.787900804752,0,0,4,0,0,0,vertical,horizontal,horizontal,horizontal,horizontal,horizontal
1d,2,100205,1,2,2,19,M,NA,constant,homogeneous,5,absent,NaN,0,vertical,none,0,0.999992337593665,red,2,NaN,1051.86052685176,639.890788585259,NaN,NaN,839.890788585259,851.86052685176,1051.86052685176,639.890788585259,915.767577433584,372.793336331966,619.68777079743,419.68777079743,572.793336331966,715.767577433584,NaN,NaN,0,4,0,0,0,NaN,horizontal,vertical,horizontal,horizontal,horizontal,none
1d,2,100205,1,3,3,19,M,NA,constant,homogeneous,3,present,0.790317058563232,0,vertical,horizontal,1,0.670586883104764,red,3,1,704.475318678942,363.568117085469,643.006323791957,800.942742169714,643.006323791957,800.942742169714,1052.5183575291,635.489140744817,704.475318678942,363.568117085469,NaN,NaN,NaN,NaN,NaN,NaN,0,0,4,NaN,NaN,NaN,horizontal,vertical,vertical,none,none,none
1d,2,100205,1,4,4,19,M,NA,constant,homogeneous,3,present,1.29946804046631,0,horizontal,vertical,1,0.658822402587304,red,1,3,619.68777079743,780.31222920257,734.001143498857,353.688914296288,619.68777079743,780.31222920257,1046.31108570371,665.998856501143,734.001143498857,353.688914296288,NaN,NaN,NaN,NaN,NaN,NaN,4,0,0,NaN,NaN,NaN,horizontal,horizontal,horizontal,none,none,none
1d,2,100205,1,5,5,19,M,NA,constant,homogeneous,4,absent,NaN,0,vertical,none,0,1.05881474018097,red,4,NaN,546.900731331463,631.076682568313,NaN,NaN,831.076682568313,853.099268668537,1053.09926866854,568.923317431687,768.923317431687,346.900731331463,546.900731331463,631.076682568313,NaN,NaN,NaN,NaN,0,0,0,4,NaN,NaN,horizontal,vertical,vertical,vertical,none,none
1d,2,100205,1,6,6,19,M,NA,constant,homogeneous,4,present,0.828655958175659,1,horizontal,horizontal,1,0.670586883104764,red,1,4,725.445215295702,843.857712770574,556.142287229426,525.445215295702,725.445215295702,843.857712770574,1043.85771277057,674.554784704298,874.554784704298,356.142287229426,556.142287229426,525.445215295702,NaN,NaN,NaN,NaN,4,0,0,0,NaN,NaN,horizontal,horizontal,horizontal,horizontal,none,none
1d,2,100205,1,7,7,19,M,NA,constant,homogeneous,6,present,1.00993084907532,1,vertical,vertical,1,0.823525129831754,red,4,5,764.510859255183,347.4816424709,563.568117085469,504.475318678942,835.489140744817,852.518357529101,1036.43188291453,695.524681321058,1000.94274216971,443.006323791957,764.510859255183,347.4816424709,563.568117085469,504.475318678942,599.057257830286,756.993676208043,0,0,0,4,0,0,horizontal,horizontal,vertical,vertical,horizontal,horizontal
1d,2,100205,1,8,8,19,M,NA,constant,homogeneous,4,absent,1.78250598907471,0,vertical,horizontal,1,0.811760649314293,red,4,NaN,616.568350913644,777.137884467044,NaN,NaN,977.137884467044,783.431649086356,983.431649086356,422.862115532956,622.862115532956,416.568350913644,616.568350913644,777.137884467044,NaN,NaN,NaN,NaN,0,0,0,4,NaN,NaN,vertical,horizontal,horizontal,vertical,none,none
1d,2,100205,1,9,9,19,M,NA,constant,homogeneous,3,present,0.784862041473389,0,vertical,horizontal,1,0.729409285692068,red,2,1,1041.10723677783,516.980120613425,751.343706178981,850.314931779154,751.343706178981,850.314931779154,1041.10723677783,516.980120613425,607.549057043193,432.704947607421,NaN,NaN,NaN,NaN,NaN,NaN,0,4,0,NaN,NaN,NaN,horizontal,vertical,vertical,none,none,none
1d,2,100205,1,10,10,19,M,NA,constant,homogeneous,4,absent,0.829215049743652,0,horizontal,vertical,1,0.623528961034922,red,1,NaN,967.295052392579,792.450942956807,NaN,NaN,967.295052392579,792.450942956807,992.450942956807,432.704947607421,632.704947607421,407.549057043193,607.549057043193,767.295052392579,NaN,NaN,NaN,NaN,4,0,0,0,NaN,NaN,horizontal,vertical,vertical,vertical,none,none
1d,2,100205,1,11,11,19,M,NA,constant,homogeneous,5,absent,1.0316789150238,0,horizontal,vertical,1,0.882347532419058,red,1,NaN,786.654331158049,854.650531362416,NaN,NaN,786.654331158049,854.650531362416,1038.06300875679,691.383827134052,960.476699717708,401.827779828472,661.117046071168,386.139005173917,553.688914296288,665.998856501143,NaN,NaN,4,0,0,0,0,NaN,horizontal,vertical,vertical,horizontal,horizontal,none
1d,2,100205,1,12,12,19,M,NA,constant,homogeneous,5,present,0.719582796096802,0,horizontal,vertical,1,0.76470272724445,red,3,2,946.261991269517,391.116228706307,1043.85771277057,674.554784704298,804.450363641507,854.96116226488,1043.85771277057,674.554784704298,946.261991269517,391.116228706307,646.537169096228,396.34794493794,558.892763222174,683.019879386575,NaN,NaN,0,0,4,0,0,NaN,vertical,vertical,horizontal,vertical,vertical,none
1d,2,100205,1,13,13,19,M,NA,constant,homogeneous,3,present,0.758610963821411,0,horizontal,vertical,1,0.623528961034922,red,3,1,742.637481142314,351.535633479765,613.504806087112,773.909581815937,613.504806087112,773.909581815937,1043.85771277057,674.554784704298,742.637481142314,351.535633479765,NaN,NaN,NaN,NaN,NaN,NaN,0,0,4,NaN,NaN,NaN,vertical,vertical,horizontal,none,none,none
1d,2,100205,1,14,14,19,M,NA,constant,homogeneous,3,absent,0.711672067642212,0,horizontal,vertical,1,0.882347532419058,red,2,NaN,839.890788585259,348.13947314824,NaN,NaN,998.172220171528,760.476699717708,839.890788585259,348.13947314824,561.936991243214,691.383827134052,NaN,NaN,NaN,NaN,NaN,NaN,0,4,0,NaN,NaN,NaN,horizontal,horizontal,horizontal,none,none,none
1d,2,100205,1,15,15,19,M,NA,constant,homogeneous,6,present,0.976589918136597,0,horizontal,vertical,1,0.729409285692068,red,2,3,1025.15163617903,719.715248510402,1016.25226451989,464.870587620533,808.899371659138,854.844660889869,1025.15163617903,719.715248510402,1016.25226451989,464.870587620533,791.100628340862,345.155339110131,574.848363820974,480.284751489598,583.747735480111,735.129412379467,0,4,0,0,0,0,vertical,horizontal,horizontal,horizontal,vertical,vertical
1d,2,100205,1,16,16,19,M,NA,constant,homogeneous,6,absent,1.17108917236328,0,horizontal,vertical,1,0.929405454488901,red,6,NaN,548.13947314824,639.890788585259,NaN,NaN,708.616172865948,838.063008756786,960.476699717708,798.172220171528,1051.86052685176,560.109211414741,891.383827134052,361.936991243214,639.523300282292,401.827779828472,548.13947314824,639.890788585259,0,0,0,0,0,4,vertical,vertical,vertical,vertical,horizontal,horizontal
1d,2,100205,1,17,17,19,M,NA,constant,homogeneous,4,present,0.770852088928223,0,vertical,horizontal,1,0.999992337593665,red,2,4,998.172220171528,439.523300282291,601.827779828472,760.476699717708,960.476699717708,798.172220171528,998.172220171528,439.523300282291,639.523300282292,401.827779828472,601.827779828472,760.476699717708,NaN,NaN,NaN,NaN,0,4,0,0,NaN,NaN,horizontal,vertical,vertical,horizontal,none,none
1d,2,100205,1,18,18,19,M,NA,constant,homogeneous,3,absent,1.07566595077515,0,horizontal,vertical,1,0.870583051901597,red,3,NaN,773.345241866748,346.39691668109,NaN,NaN,593.700666434388,749.885239334581,1032.95409169886,703.717843984329,773.345241866748,346.39691668109,NaN,NaN,NaN,NaN,NaN,NaN,0,0,4,NaN,NaN,NaN,horizontal,horizontal,horizontal,none,none,none
1d,2,100205,1,19,19,19,M,NA,constant,homogeneous,4,absent,0.658815145492554,0,vertical,horizontal,1,0.870583051901597,red,2,NaN,998.172220171528,439.523300282291,NaN,NaN,960.476699717708,798.172220171528,998.172220171528,439.523300282291,639.523300282292,401.827779828472,601.827779828472,760.476699717708,NaN,NaN,NaN,NaN,0,4,0,0,NaN,NaN,horizontal,vertical,horizontal,horizontal,none,none
1d,2,100205,1,20,20,19,M,NA,constant,homogeneous,4,absent,0.805016994476318,0,horizontal,vertical,1,0.847054090866676,red,2,NaN,1036.43188291453,695.524681321058,NaN,NaN,704.475318678942,836.431882914531,1036.43188291453,695.524681321058,895.524681321058,363.568117085469,563.568117085469,504.475318678942,NaN,NaN,NaN,NaN,0,4,0,0,NaN,NaN,vertical,horizontal,horizontal,horizontal,none,none
1d,2,100205,1,21,21,19,M,NA,constant,homogeneous,6,absent,0.81215500831604,0,horizontal,vertical,1,0.941169935006362,red,1,NaN,716.980120613425,841.107236777826,NaN,NaN,716.980120613425,841.107236777826,967.295052392579,792.450942956807,1050.31493177915,551.343706178981,883.019879386575,358.892763222174,632.704947607421,407.549057043193,549.685068220846,648.656293821019,4,0,0,0,0,0,horizontal,vertical,vertical,vertical,vertical,vertical
1d,2,100205,1,22,22,19,M,NA,constant,homogeneous,6,absent,0.769493103027344,0,vertical,horizontal,1,0.835289610349215,red,6,NaN,619.68777079743,780.31222920257,NaN,NaN,865.998856501143,846.311085703712,1046.31108570371,665.998856501143,980.31222920257,419.68777079743,734.001143498857,353.688914296288,553.688914296288,534.001143498857,619.68777079743,780.31222920257,0,0,0,0,0,4,vertical,vertical,vertical,vertical,vertical,vertical
1d,2,100205,1,23,23,19,M,NA,constant,homogeneous,3,present,0.696027994155884,0,horizontal,vertical,1,0.75293824672699,red,2,3,973.909581815937,413.504806087112,551.535633479765,542.637481142314,874.554784704298,843.857712770574,973.909581815937,413.504806087112,551.535633479765,542.637481142314,NaN,NaN,NaN,NaN,NaN,NaN,0,4,0,NaN,NaN,NaN,vertical,horizontal,vertical,none,none,none
1d,2,100205,1,24,24,19,M,NA,constant,homogeneous,5,absent,0.823621034622192,0,horizontal,vertical,1,1.07057922069843,red,1,NaN,883.019879386575,841.107236777826,NaN,NaN,883.019879386575,841.107236777826,1054.96116226488,595.549636358493,874.554784704298,356.142287229426,591.116228706307,453.738008730483,596.34794493794,753.462830903772,NaN,NaN,4,0,0,0,0,NaN,horizontal,horizontal,horizontal,vertical,horizontal,none
1d,2,100205,1,25,25,19,M,NA,constant,homogeneous,4,present,0.616518020629883,0,vertical,horizontal,1,0.811760649314293,red,1,2,960.476699717708,798.172220171528,998.172220171528,439.523300282291,960.476699717708,798.172220171528,998.172220171528,439.523300282291,639.523300282292,401.827779828472,601.827779828472,760.476699717708,NaN,NaN,NaN,NaN,4,0,0,0,NaN,NaN,vertical,vertical,horizontal,horizontal,none,none
1d,2,100205,1,26,26,19,M,NA,constant,homogeneous,6,present,0.643726825714111,0,vertical,horizontal,1,0.741173766209529,red,5,6,545,600,672.5,820.836477965032,927.5,820.836477965032,1055,600,927.5,379.163522034968,672.5,379.163522034968,545,600,672.5,820.836477965032,0,0,0,0,4,0,horizontal,horizontal,horizontal,horizontal,vertical,horizontal
1d,2,100205,1,27,27,19,M,NA,constant,homogeneous,3,absent,0.568890810012817,0,vertical,horizontal,1,1.01175681811113,red,3,NaN,545,600,NaN,NaN,927.5,820.836477965032,927.5,379.163522034968,545,600,NaN,NaN,NaN,NaN,NaN,NaN,0,0,4,NaN,NaN,NaN,horizontal,vertical,vertical,none,none,none
1d,2,100205,1,28,28,19,M,NA,constant,homogeneous,4,present,0.676955938339233,0,horizontal,vertical,1,0.611764480517461,red,2,1,1049.42763818712,546.982518841471,853.017481158529,849.42763818712,853.017481158529,849.42763818712,1049.42763818712,546.982518841471,746.982518841471,350.57236181288,550.57236181288,653.017481158529,NaN,NaN,NaN,NaN,0,4,0,0,NaN,NaN,horizontal,horizontal,vertical,vertical,none,none
1d,2,100205,1,29,29,19,M,NA,constant,homogeneous,5,absent,0.744261026382446,1,horizontal,horizontal,1,0.882347532419058,red,3,NaN,822.224714400653,345.970351986605,NaN,NaN,931.334709102064,818.577661679039,1048.46436652023,542.637481142314,822.224714400653,345.970351986605,565.271262369628,500.363562235235,632.704947607421,792.450942956807,NaN,NaN,0,0,4,0,0,NaN,horizontal,vertical,horizontal,vertical,horizontal,none
1d,2,100205,1,30,30,19,M,NA,constant,homogeneous,5,present,1.05931401252747,0,vertical,horizontal,1,1.01175681811113,red,4,5,643.006323791957,399.057257830286,560.378381699593,687.215136548046,808.899371659138,854.844660889869,1045.12173246427,670.287525733335,942.594190385041,388.595418998464,643.006323791957,399.057257830286,560.378381699593,687.215136548046,NaN,NaN,0,0,0,4,0,NaN,horizontal,horizontal,vertical,vertical,vertical,none
1d,2,100205,1,31,31,19,M,NA,constant,homogeneous,5,absent,0.669929027557373,0,vertical,horizontal,1,0.647057922069843,red,4,NaN,568.891514305654,492.232343256122,NaN,NaN,923.626453162816,823.028025320546,1050.31493177915,551.343706178981,831.076682568313,346.900731331463,568.891514305654,492.232343256122,626.090418184063,786.495193912888,NaN,NaN,0,0,0,4,0,NaN,vertical,vertical,horizontal,vertical,horizontal,none
1d,2,100205,1,32,32,19,M,NA,constant,homogeneous,3,absent,0.803251028060913,0,vertical,horizontal,1,0.976463376558744,red,1,NaN,935.129412379467,816.252264519889,NaN,NaN,935.129412379467,816.252264519889,919.715248510402,374.848363820974,545.155339110131,608.899371659138,NaN,NaN,NaN,NaN,NaN,NaN,4,0,0,NaN,NaN,NaN,vertical,vertical,horizontal,none,none,none
1d,2,100205,1,33,33,19,M,NA,constant,homogeneous,4,present,1.15709686279297,0,horizontal,vertical,1,0.882347532419058,red,2,1,980.31222920257,419.68777079743,980.31222920257,780.31222920257,980.31222920257,780.31222920257,980.31222920257,419.68777079743,619.68777079743,419.68777079743,619.68777079743,780.31222920257,NaN,NaN,NaN,NaN,0,4,0,0,NaN,NaN,vertical,horizontal,horizontal,vertical,none,none
1d,2,100205,1,34,34,19,M,NA,constant,homogeneous,5,absent,0.821723937988281,0,vertical,horizontal,1,1.05881474018097,red,1,NaN,684.232422566416,827.206663668034,NaN,NaN,684.232422566416,827.206663668034,980.31222920257,780.31222920257,1027.20666366803,484.232422566416,760.109211414741,348.13947314824,548.13947314824,560.109211414741,NaN,NaN,4,0,0,0,0,NaN,vertical,vertical,horizontal,horizontal,horizontal,none
1d,2,100205,1,35,35,19,M,NA,constant,homogeneous,5,present,0.688982009887695,0,vertical,horizontal,1,0.941169935006362,red,2,1,989.501930496736,770.628304621509,696.282156015671,832.954091698863,696.282156015671,832.954091698863,989.501930496736,770.628304621509,1020.83647796503,472.5,746.982518841471,350.57236181288,546.39691668109,573.345241866748,NaN,NaN,0,4,0,0,0,NaN,horizontal,vertical,horizontal,vertical,vertical,none
1d,2,100205,1,36,36,19,M,NA,constant,homogeneous,3,present,0.58781909942627,0,vertical,horizontal,1,0.847054090866676,red,3,2,704.475318678942,363.568117085469,1052.5183575291,635.489140744817,643.006323791957,800.942742169714,1052.5183575291,635.489140744817,704.475318678942,363.568117085469,NaN,NaN,NaN,NaN,NaN,NaN,0,0,4,NaN,NaN,NaN,horizontal,vertical,vertical,none,none,none
1d,2,100205,1,37,37,19,M,NA,constant,homogeneous,5,present,0.760617971420288,0,horizontal,vertical,1,0.635293441552382,red,3,2,973.909581815937,413.504806087112,1031.10848569435,707.767656743878,768.923317431687,853.099268668537,1031.10848569435,707.767656743878,973.909581815937,413.504806087112,676.373546837184,376.971974679454,549.685068220846,648.656293821019,NaN,NaN,0,0,4,0,0,NaN,vertical,horizontal,horizontal,horizontal,horizontal,none
1d,2,100205,1,38,38,19,M,NA,constant,homogeneous,6,present,0.547041893005371,0,horizontal,vertical,1,0.952934415523822,red,3,1,956.993676208043,399.057257830286,895.524681321058,836.431882914531,895.524681321058,836.431882914531,1052.5183575291,635.489140744817,956.993676208043,399.057257830286,704.475318678942,363.568117085469,547.481642470899,564.510859255183,643.006323791957,800.942742169714,0,0,4,0,0,0,horizontal,horizontal,horizontal,vertical,vertical,horizontal
1d,2,100205,1,39,39,19,M,NA,constant,homogeneous,5,present,0.621977090835571,0,vertical,horizontal,1,0.988227857076205,red,2,5,1053.09926866854,631.076682568313,576.971974679454,723.626453162816,848.656293821019,850.314931779154,1053.09926866854,631.076682568313,907.767656743878,368.891514305654,613.504806087112,426.090418184063,576.971974679454,723.626453162816,NaN,NaN,0,4,0,0,0,NaN,vertical,vertical,vertical,vertical,horizontal,none
1d,2,100205,1,40,40,19,M,NA,constant,homogeneous,3,present,0.506739854812622,1,horizontal,horizontal,1,0.611764480517461,red,3,1,549.685068220846,551.343706178981,883.019879386575,841.107236777826,883.019879386575,841.107236777826,967.295052392579,407.549057043193,549.685068220846,551.343706178981,NaN,NaN,NaN,NaN,NaN,NaN,0,0,4,NaN,NaN,NaN,vertical,vertical,horizontal,none,none,none
1d,2,100205,1,41,41,19,M,NA,constant,homogeneous,3,absent,0.646420955657959,0,vertical,horizontal,1,1.07057922069843,red,1,NaN,734.001143498857,846.311085703712,NaN,NaN,734.001143498857,846.311085703712,1046.31108570371,534.001143498857,619.68777079743,419.68777079743,NaN,NaN,NaN,NaN,NaN,NaN,4,0,0,NaN,NaN,NaN,vertical,vertical,horizontal,none,none,none
1d,2,100205,1,42,42,19,M,NA,constant,homogeneous,6,present,0.699646949768066,0,vertical,horizontal,1,0.6,red,6,4,570.807518193712,711.784642431215,817.787900804752,345.621167183745,782.212099195248,854.378832816255,1011.40458100154,742.594190385041,1029.19248180629,488.215357568785,817.787900804752,345.621167183745,588.595418998464,457.40580961496,570.807518193712,711.784642431215,0,0,0,0,0,4,vertical,vertical,horizontal,horizontal,horizontal,vertical
1d,2,100205,1,43,43,19,M,NA,constant,homogeneous,5,present,0.673311948776245,0,vertical,horizontal,1,0.776467207761911,red,1,5,755.719714694933,851.125977018113,547.481642470899,635.489140744817,755.719714694933,851.125977018113,1025.15163617903,719.715248510402,983.431649086356,422.862115532956,688.215357568785,370.807518193712,547.481642470899,635.489140744817,NaN,NaN,4,0,0,0,0,NaN,vertical,vertical,horizontal,vertical,vertical,none
1d,2,100205,1,44,44,19,M,NA,constant,homogeneous,3,absent,0.652646064758301,0,horizontal,vertical,1,1.08234370121589,red,3,NaN,716.980120613425,358.892763222174,NaN,NaN,632.704947607421,792.450942956807,1050.31493177915,648.656293821019,716.980120613425,358.892763222174,NaN,NaN,NaN,NaN,NaN,NaN,0,0,4,NaN,NaN,NaN,horizontal,horizontal,horizontal,none,none,none
1d,2,100205,1,45,45,19,M,NA,constant,homogeneous,6,absent,1.09966492652893,0,horizontal,vertical,1,0.894112012936519,red,5,NaN,545.970351986605,577.775285599347,NaN,NaN,907.767656743878,831.108485694346,1054.0296480134,622.224714400653,946.261991269517,391.116228706307,692.232343256122,368.891514305654,545.970351986605,577.775285599347,653.738008730483,808.883771293693,0,0,0,0,4,0,horizontal,vertical,horizontal,horizontal,horizontal,vertical
1d,2,100205,1,46,46,19,M,NA,constant,homogeneous,5,present,0.901931047439575,0,horizontal,vertical,1,1.01175681811113,red,4,1,729.712474266665,354.878267535729,712.784863451954,839.621618300407,712.784863451954,839.621618300407,1000.94274216971,756.993676208043,1011.40458100154,457.40580961496,729.712474266665,354.878267535729,545.155339110131,591.100628340862,NaN,NaN,0,0,0,4,0,NaN,horizontal,horizontal,vertical,horizontal,horizontal,none
1d,2,100205,1,47,47,19,M,NA,constant,homogeneous,4,absent,1.29054403305054,0,horizontal,vertical,1,0.929405454488901,red,2,NaN,1016.25226451989,735.129412379467,NaN,NaN,664.870587620533,816.252264519889,1016.25226451989,735.129412379467,935.129412379467,383.747735480111,583.747735480111,464.870587620533,NaN,NaN,NaN,NaN,0,4,0,0,NaN,NaN,vertical,horizontal,vertical,vertical,none,none
1d,2,100205,1,48,48,19,M,NA,constant,homogeneous,3,absent,0.564229011535645,0,vertical,horizontal,1,0.776467207761911,red,3,NaN,632.704947607421,407.549057043193,NaN,NaN,716.980120613425,841.107236777826,1050.31493177915,551.343706178981,632.704947607421,407.549057043193,NaN,NaN,NaN,NaN,NaN,NaN,0,0,4,NaN,NaN,NaN,horizontal,horizontal,vertical,none,none,none
1d,2,100205,1,49,49,19,M,NA,constant,homogeneous,3,present,0.588866949081421,0,vertical,horizontal,1,1.04705025966351,red,1,2,755.719714694933,851.125977018113,1039.62161830041,512.784863451954,755.719714694933,851.125977018113,1039.62161830041,512.784863451954,604.658667004661,436.089159529932,NaN,NaN,NaN,NaN,NaN,NaN,4,0,0,NaN,NaN,NaN,vertical,vertical,vertical,none,none,none
1d,2,100205,1,50,50,19,M,NA,constant,homogeneous,6,absent,0.675140857696533,0,vertical,horizontal,1,0.705880324657147,red,4,NaN,676.373546837184,376.971974679454,NaN,NaN,923.626453162816,823.028025320546,1054.96116226488,604.450363641507,931.334709102064,381.422338320961,676.373546837184,376.971974679454,545.03883773512,595.549636358493,668.665290897936,818.577661679039,0,0,0,4,0,0,vertical,horizontal,vertical,vertical,vertical,horizontal
1d,2,100205,1,51,51,19,M,NA,constant,homogeneous,5,absent,0.688663005828857,0,horizontal,vertical,1,0.6,red,3,NaN,967.295052392579,407.549057043193,NaN,NaN,777.775285599347,854.029648013395,1034.72873763037,699.636437764765,967.295052392579,407.549057043193,668.665290897936,381.422338320961,551.535633479765,657.362518857686,NaN,NaN,0,0,4,0,0,NaN,vertical,vertical,horizontal,horizontal,vertical,none
1d,2,100205,1,52,52,19,M,NA,constant,homogeneous,6,absent,0.708034992218018,0,horizontal,vertical,1,0.870583051901597,red,2,NaN,989.501930496736,770.628304621509,NaN,NaN,746.982518841471,849.42763818712,989.501930496736,770.628304621509,1042.51941165526,521.200666434388,853.017481158529,350.57236181288,610.498069503264,429.371695378491,557.480588344736,678.799333565612,0,4,0,0,0,0,horizontal,horizontal,horizontal,horizontal,vertical,horizontal
1d,2,100205,1,53,53,19,M,NA,constant,homogeneous,5,absent,0.823853969573975,1,vertical,vertical,1,0.670586883104764,red,3,NaN,1032.95409169886,496.282156015671,NaN,NaN,672.5,820.836477965032,970.628304621509,789.501930496736,1032.95409169886,496.282156015671,773.345241866748,346.39691668109,550.57236181288,546.982518841471,NaN,NaN,0,0,4,0,0,NaN,vertical,horizontal,vertical,horizontal,horizontal,none
1d,2,100205,1,54,54,19,M,NA,constant,homogeneous,4,absent,0.97252893447876,0,horizontal,vertical,1,0.999992337593665,red,1,NaN,773.345241866748,853.60308331891,NaN,NaN,773.345241866748,853.60308331891,1053.60308331891,626.654758133252,826.654758133252,346.39691668109,546.39691668109,573.345241866748,NaN,NaN,NaN,NaN,4,0,0,0,NaN,NaN,horizontal,vertical,vertical,vertical,none,none
1d,2,100205,1,55,55,19,M,NA,constant,homogeneous,6,absent,0.665331840515137,0,vertical,horizontal,1,1.05881474018097,red,1,NaN,708.616172865948,838.063008756786,NaN,NaN,708.616172865948,838.063008756786,960.476699717708,798.172220171528,1051.86052685176,560.109211414741,891.383827134052,361.936991243214,639.523300282292,401.827779828472,548.13947314824,639.890788585259,4,0,0,0,0,0,vertical,vertical,vertical,horizontal,horizontal,vertical
1d,2,100205,1,56,56,19,M,NA,constant,homogeneous,6,present,0.676692962646484,0,vertical,horizontal,1,0.694115844139686,red,6,5,554.878267535729,670.287525733335,616.568350913644,422.862115532956,738.309916622085,847.425410200379,983.431649086356,777.137884467044,1045.12173246427,529.712474266665,861.690083377915,352.574589799621,616.568350913644,422.862115532956,554.878267535729,670.287525733335,0,0,0,0,0,4,vertical,horizontal,horizontal,horizontal,horizontal,vertical
1d,2,100205,1,57,57,19,M,NA,constant,homogeneous,4,present,0.646018028259277,0,horizontal,vertical,1,0.788231688279372,red,2,1,1013.86099482608,738.882953928832,661.117046071168,813.860994826083,661.117046071168,813.860994826083,1013.86099482608,738.882953928832,938.882953928832,386.139005173917,586.139005173917,461.117046071168,NaN,NaN,NaN,NaN,0,4,0,0,NaN,NaN,horizontal,horizontal,vertical,vertical,none,none
1d,2,100205,1,58,58,19,M,NA,constant,homogeneous,3,absent,1.14385890960693,0,horizontal,vertical,1,0.635293441552382,red,3,NaN,646.537169096228,396.34794493794,NaN,NaN,700.363562235235,834.728737630372,1053.09926866854,568.923317431687,646.537169096228,396.34794493794,NaN,NaN,NaN,NaN,NaN,NaN,0,0,4,NaN,NaN,NaN,horizontal,vertical,horizontal,none,none,none
1d,2,100205,1,59,59,19,M,NA,constant,homogeneous,4,present,0.614217042922974,0,vertical,horizontal,1,0.75293824672699,red,1,2,915.767577433584,827.206663668034,1027.20666366803,484.232422566416,915.767577433584,827.206663668034,1027.20666366803,484.232422566416,684.232422566416,372.793336331966,572.793336331966,715.767577433584,NaN,NaN,NaN,NaN,4,0,0,0,NaN,NaN,vertical,horizontal,horizontal,vertical,none,none
1d,2,100205,1,60,60,19,M,NA,constant,homogeneous,5,present,0.78361701965332,0,horizontal,vertical,1,0.647057922069843,red,2,1,1043.85771277057,674.554784704298,804.450363641507,854.96116226488,804.450363641507,854.96116226488,1043.85771277057,674.554784704298,946.261991269517,391.116228706307,646.537169096228,396.34794493794,558.892763222174,683.019879386575,NaN,NaN,0,4,0,0,0,NaN,horizontal,horizontal,horizontal,vertical,horizontal,none
1d,2,100205,1,61,61,19,M,NA,constant,homogeneous,6,present,0.84148907661438,0,horizontal,vertical,1,0.705880324657147,red,5,1,574.848363820974,480.284751489598,808.899371659138,854.844660889869,808.899371659138,854.844660889869,1025.15163617903,719.715248510402,1016.25226451989,464.870587620533,791.100628340862,345.155339110131,574.848363820974,480.284751489598,583.747735480111,735.129412379467,0,0,0,0,4,0,vertical,vertical,horizontal,vertical,horizontal,vertical
1d,2,100205,1,62,62,19,M,NA,constant,homogeneous,6,absent,0.751167058944702,0,vertical,horizontal,1,0.635293441552382,red,5,NaN,601.827779828472,439.523300282291,NaN,NaN,760.109211414741,851.86052685176,998.172220171528,760.476699717708,1038.06300875679,508.616172865948,839.890788585259,348.13947314824,601.827779828472,439.523300282291,561.936991243214,691.383827134052,0,0,0,0,4,0,vertical,horizontal,horizontal,vertical,vertical,horizontal
1d,2,100205,1,63,63,19,M,NA,constant,homogeneous,4,absent,0.590805053710938,0,vertical,horizontal,1,1.02352129862859,red,3,NaN,746.982518841471,350.57236181288,NaN,NaN,853.017481158529,849.42763818712,1049.42763818712,546.982518841471,746.982518841471,350.57236181288,550.57236181288,653.017481158529,NaN,NaN,NaN,NaN,0,0,4,0,NaN,NaN,vertical,horizontal,vertical,vertical,none,none
1d,2,100205,1,64,64,19,M,NA,constant,homogeneous,4,present,0.606759071350098,0,vertical,horizontal,1,0.6,red,4,3,548.874022981887,644.280285305067,755.719714694933,348.874022981887,844.280285305067,851.125977018113,1051.12597701811,555.719714694933,755.719714694933,348.874022981887,548.874022981887,644.280285305067,NaN,NaN,NaN,NaN,0,0,0,4,NaN,NaN,vertical,horizontal,vertical,vertical,none,none
1d,2,100205,2,1,65,19,M,NA,constant,homogeneous,5,present,1.73696303367615,1,vertical,vertical,1,0.76470272724445,red,2,1,995.341332995339,763.910840470068,704.475318678942,836.431882914531,704.475318678942,836.431882914531,995.341332995339,763.910840470068,1016.25226451989,464.870587620533,738.309916622085,352.574589799621,545.621167183745,582.212099195248,NaN,NaN,0,4,0,0,0,NaN,horizontal,vertical,horizontal,horizontal,horizontal,none
1d,2,100205,2,2,66,19,M,NA,constant,homogeneous,4,absent,1.23370385169983,1,horizontal,horizontal,1,0.682351363622225,red,2,NaN,1054.65053136242,613.345668841951,NaN,NaN,786.654331158049,854.650531362416,1054.65053136242,613.345668841951,813.345668841951,345.349468637584,545.349468637584,586.654331158049,NaN,NaN,NaN,NaN,0,4,0,0,NaN,NaN,horizontal,horizontal,vertical,horizontal,none,none
1d,2,100205,2,3,67,19,M,NA,constant,homogeneous,3,absent,0.609614849090576,1,horizontal,horizontal,1,0.75293824672699,red,1,NaN,967.295052392579,792.450942956807,NaN,NaN,967.295052392579,792.450942956807,883.019879386575,358.892763222174,549.685068220846,648.656293821019,NaN,NaN,NaN,NaN,NaN,NaN,4,0,0,NaN,NaN,NaN,horizontal,horizontal,horizontal,none,none,none
1d,2,100205,2,4,68,19,M,NA,constant,homogeneous,4,absent,0.605052947998047,1,vertical,vertical,1,0.75293824672699,red,4,NaN,554.878267535729,670.287525733335,NaN,NaN,870.287525733335,845.121732464271,1045.12173246427,529.712474266665,729.712474266665,354.878267535729,554.878267535729,670.287525733335,NaN,NaN,NaN,NaN,0,0,0,4,NaN,NaN,vertical,horizontal,horizontal,vertical,none,none
1d,2,100205,2,5,69,19,M,NA,constant,homogeneous,6,absent,0.802227973937988,1,horizontal,horizontal,1,1.04705025966351,red,6,NaN,636.089159529932,795.341332995339,NaN,NaN,887.215136548046,839.621618300407,1051.12597701811,644.280285305067,963.910840470068,404.658667004661,712.784863451954,360.378381699593,548.874022981887,555.719714694933,636.089159529932,795.341332995339,0,0,0,0,0,4,vertical,horizontal,vertical,vertical,horizontal,horizontal
1d,2,100205,2,6,70,19,M,NA,constant,homogeneous,5,present,0.754749059677124,1,horizontal,horizontal,1,0.611764480517461,red,4,1,601.827779828472,439.523300282291,865.998856501143,846.311085703712,865.998856501143,846.311085703712,1054.65053136242,613.345668841951,891.383827134052,361.936991243214,601.827779828472,439.523300282291,586.139005173917,738.882953928832,NaN,NaN,0,0,0,4,0,NaN,horizontal,vertical,vertical,horizontal,vertical,none
1d,2,100205,2,7,71,19,M,NA,constant,homogeneous,5,absent,0.760425090789795,1,vertical,vertical,1,0.717644805174607,red,4,NaN,700.363562235235,365.271262369628,NaN,NaN,742.637481142314,848.464366520235,1018.57766167904,731.334709102064,992.450942956807,432.704947607421,700.363562235235,365.271262369628,545.970351986605,622.224714400653,NaN,NaN,0,0,0,4,0,NaN,horizontal,horizontal,horizontal,vertical,vertical,none
1d,2,100205,2,8,72,19,M,NA,constant,homogeneous,4,present,0.720546007156372,1,horizontal,horizontal,1,1.03528577914605,red,1,2,795.549636358493,854.96116226488,1054.96116226488,604.450363641507,795.549636358493,854.96116226488,1054.96116226488,604.450363641507,804.450363641507,345.03883773512,545.03883773512,595.549636358493,NaN,NaN,NaN,NaN,4,0,0,0,NaN,NaN,horizontal,vertical,vertical,horizontal,none,none
1d,2,100205,2,9,73,19,M,NA,constant,homogeneous,4,present,0.680503129959106,1,horizontal,horizontal,1,1.07057922069843,red,3,2,826.654758133252,346.39691668109,1053.60308331891,626.654758133252,773.345241866748,853.60308331891,1053.60308331891,626.654758133252,826.654758133252,346.39691668109,546.39691668109,573.345241866748,NaN,NaN,NaN,NaN,0,0,4,0,NaN,NaN,vertical,horizontal,horizontal,horizontal,none,none
1d,2,100205,2,10,74,19,M,NA,constant,homogeneous,5,absent,0.700275897979736,1,horizontal,horizontal,1,0.705880324657147,red,2,NaN,1054.84466088987,591.100628340862,NaN,NaN,887.215136548046,839.621618300407,1054.84466088987,591.100628340862,870.287525733335,354.878267535729,588.595418998464,457.40580961496,599.057257830286,756.993676208043,NaN,NaN,0,4,0,0,0,NaN,horizontal,horizontal,horizontal,vertical,vertical,none
1d,2,100205,2,11,75,19,M,NA,constant,homogeneous,4,present,0.657550096511841,1,vertical,vertical,1,0.952934415523822,red,3,1,942.594190385041,388.595418998464,657.405809614959,811.404581001536,657.405809614959,811.404581001536,1011.40458100154,742.594190385041,942.594190385041,388.595418998464,588.595418998464,457.40580961496,NaN,NaN,NaN,NaN,0,0,4,0,NaN,NaN,horizontal,vertical,vertical,horizontal,none,none
1d,2,100205,2,12,76,19,M,NA,constant,homogeneous,3,present,0.68455696105957,1,horizontal,horizontal,1,0.870583051901597,red,1,3,883.019879386575,841.107236777826,549.685068220846,551.343706178981,883.019879386575,841.107236777826,967.295052392579,407.549057043193,549.685068220846,551.343706178981,NaN,NaN,NaN,NaN,NaN,NaN,4,0,0,NaN,NaN,NaN,horizontal,vertical,horizontal,none,none,none
1d,2,100205,2,13,77,19,M,NA,constant,homogeneous,3,absent,0.616558074951172,1,vertical,vertical,1,0.717644805174607,red,3,NaN,561.936991243214,691.383827134052,NaN,NaN,998.172220171528,760.476699717708,839.890788585259,348.13947314824,561.936991243214,691.383827134052,NaN,NaN,NaN,NaN,NaN,NaN,0,0,4,NaN,NaN,NaN,vertical,vertical,vertical,none,none,none
1d,2,100205,2,14,78,19,M,NA,constant,homogeneous,6,present,0.54714298248291,1,vertical,vertical,1,0.694115844139686,red,3,6,938.882953928832,386.139005173917,661.117046071168,813.860994826083,915.767577433584,827.206663668034,1054.65053136242,613.345668841951,938.882953928832,386.139005173917,684.232422566416,372.793336331966,545.349468637584,586.654331158049,661.117046071168,813.860994826083,0,0,4,0,0,0,horizontal,vertical,vertical,horizontal,horizontal,vertical
1d,2,100205,2,15,79,19,M,NA,constant,homogeneous,4,absent,0.709309816360474,1,horizontal,horizontal,1,0.964698896041283,red,2,NaN,1049.42763818712,653.017481158529,NaN,NaN,746.982518841471,849.42763818712,1049.42763818712,653.017481158529,853.017481158529,350.57236181288,550.57236181288,546.982518841471,NaN,NaN,NaN,NaN,0,4,0,0,NaN,NaN,vertical,horizontal,horizontal,vertical,none,none
1d,2,100205,2,16,80,19,M,NA,constant,homogeneous,5,absent,0.651117086410522,1,horizontal,horizontal,1,0.76470272724445,red,4,NaN,613.504806087112,426.090418184063,NaN,NaN,848.656293821019,850.314931779154,1053.09926866854,631.076682568313,907.767656743878,368.891514305654,613.504806087112,426.090418184063,576.971974679454,723.626453162816,NaN,NaN,0,0,0,4,0,NaN,vertical,vertical,horizontal,horizontal,horizontal,none
1d,2,100205,2,17,81,19,M,NA,constant,homogeneous,6,absent,0.535633087158203,1,horizontal,horizontal,1,0.75293824672699,red,6,NaN,545.155339110131,608.899371659138,NaN,NaN,680.284751489598,825.151636179026,935.129412379467,816.252264519889,1054.84466088987,591.100628340862,919.715248510402,374.848363820974,664.870587620533,383.747735480111,545.155339110131,608.899371659138,0,0,0,0,0,4,horizontal,horizontal,vertical,horizontal,horizontal,horizontal
1d,2,100205,2,18,82,19,M,NA,constant,homogeneous,5,absent,0.518263101577759,1,horizontal,horizontal,1,1.01175681811113,red,5,NaN,556.142287229426,525.445215295702,NaN,NaN,653.738008730483,808.883771293693,953.462830903772,803.65205506206,1041.10723677783,516.980120613425,795.549636358493,345.03883773512,556.142287229426,525.445215295702,NaN,NaN,0,0,0,0,4,NaN,vertical,horizontal,vertical,vertical,horizontal,none
1d,2,100205,2,19,83,19,M,NA,constant,homogeneous,5,present,1.03770709037781,1,vertical,vertical,1,0.823525129831754,red,1,5,813.345668841951,854.650531362416,561.936991243214,691.383827134052,813.345668841951,854.650531362416,1046.31108570371,665.998856501143,938.882953928832,386.139005173917,639.523300282292,401.827779828472,561.936991243214,691.383827134052,NaN,NaN,4,0,0,0,0,NaN,vertical,horizontal,vertical,horizontal,vertical,none
1d,2,100205,2,20,84,19,M,NA,constant,homogeneous,4,absent,0.637629985809326,1,horizontal,horizontal,1,0.952934415523822,red,1,NaN,636.089159529932,795.341332995339,NaN,NaN,636.089159529932,795.341332995339,995.341332995339,763.910840470068,963.910840470068,404.658667004661,604.658667004661,436.089159529932,NaN,NaN,NaN,NaN,4,0,0,0,NaN,NaN,horizontal,vertical,vertical,horizontal,none,none
1d,2,100205,2,21,85,19,M,NA,constant,homogeneous,4,absent,0.550764083862305,1,vertical,vertical,1,0.799996168796833,red,3,NaN,795.549636358493,345.03883773512,NaN,NaN,804.450363641507,854.96116226488,1054.96116226488,595.549636358493,795.549636358493,345.03883773512,545.03883773512,604.450363641507,NaN,NaN,NaN,NaN,0,0,4,0,NaN,NaN,horizontal,vertical,vertical,vertical,none,none
1d,2,100205,2,22,86,19,M,NA,constant,homogeneous,6,present,0.618321180343628,1,horizontal,horizontal,1,0.835289610349215,red,5,1,568.891514305654,492.232343256122,822.224714400653,854.029648013395,822.224714400653,854.029648013395,1031.10848569435,707.767656743878,1008.88377129369,453.738008730483,777.775285599347,345.970351986605,568.891514305654,492.232343256122,591.116228706307,746.261991269517,0,0,0,0,4,0,vertical,horizontal,vertical,vertical,horizontal,horizontal
1d,2,100205,2,23,87,19,M,NA,constant,homogeneous,6,present,0.523739099502563,1,horizontal,horizontal,1,0.847054090866676,red,2,1,1043.85771277057,674.554784704298,857.362518857686,848.464366520235,857.362518857686,848.464366520235,1043.85771277057,674.554784704298,986.495193912888,426.090418184063,742.637481142314,351.535633479765,556.142287229426,525.445215295702,613.504806087112,773.909581815937,0,4,0,0,0,0,horizontal,horizontal,vertical,vertical,horizontal,vertical
1d,2,100205,2,24,88,19,M,NA,constant,homogeneous,3,absent,0.459506988525391,1,horizontal,horizontal,1,0.847054090866676,red,2,NaN,1038.06300875679,508.616172865948,NaN,NaN,760.109211414741,851.86052685176,1038.06300875679,508.616172865948,601.827779828472,439.523300282291,NaN,NaN,NaN,NaN,NaN,NaN,0,4,0,NaN,NaN,NaN,horizontal,horizontal,vertical,none,none,none
1d,2,100205,2,25,89,19,M,NA,constant,homogeneous,4,absent,0.607991933822632,1,vertical,vertical,1,0.964698896041283,red,4,NaN,545,600,NaN,NaN,800,855,1055,600,800,345,545,600,NaN,NaN,NaN,NaN,0,0,0,4,NaN,NaN,vertical,vertical,horizontal,vertical,none,none
1d,2,100205,2,26,90,19,M,NA,constant,homogeneous,3,present,0.624244213104248,1,vertical,vertical,1,0.988227857076205,red,1,3,791.100628340862,854.844660889869,583.747735480111,464.870587620533,791.100628340862,854.844660889869,1025.15163617903,480.284751489598,583.747735480111,464.870587620533,NaN,NaN,NaN,NaN,NaN,NaN,4,0,0,NaN,NaN,NaN,vertical,horizontal,vertical,none,none,none
1d,2,100205,2,27,91,19,M,NA,constant,homogeneous,6,present,0.556848049163818,1,horizontal,horizontal,1,0.999992337593665,red,4,6,899.636437764765,365.271262369628,546.900731331463,631.076682568313,700.363562235235,834.728737630372,953.462830903772,803.65205506206,1053.09926866854,568.923317431687,899.636437764765,365.271262369628,646.537169096228,396.34794493794,546.900731331463,631.076682568313,0,0,0,4,0,0,horizontal,horizontal,horizontal,horizontal,horizontal,vertical
1d,2,100205,2,28,92,19,M,NA,constant,homogeneous,5,present,0.625281095504761,1,horizontal,horizontal,1,0.647057922069843,red,1,5,895.524681321058,836.431882914531,604.658667004661,763.910840470068,895.524681321058,836.431882914531,1054.37883281626,582.212099195248,861.690083377915,352.574589799621,583.747735480111,464.870587620533,604.658667004661,763.910840470068,NaN,NaN,4,0,0,0,0,NaN,horizontal,vertical,vertical,vertical,vertical,none
1d,2,100205,2,29,93,19,M,NA,constant,homogeneous,3,present,0.54091215133667,1,horizontal,horizontal,1,0.952934415523822,red,1,3,935.129412379467,816.252264519889,545.155339110131,608.899371659138,935.129412379467,816.252264519889,919.715248510402,374.848363820974,545.155339110131,608.899371659138,NaN,NaN,NaN,NaN,NaN,NaN,4,0,0,NaN,NaN,NaN,horizontal,vertical,vertical,none,none,none
1d,2,100205,2,30,94,19,M,NA,constant,homogeneous,3,present,0.48395299911499,1,horizontal,horizontal,1,0.799996168796833,red,3,2,546.900731331463,631.076682568313,899.636437764765,365.271262369628,953.462830903772,803.65205506206,899.636437764765,365.271262369628,546.900731331463,631.076682568313,NaN,NaN,NaN,NaN,NaN,NaN,0,0,4,NaN,NaN,NaN,vertical,horizontal,horizontal,none,none,none
1d,2,100205,2,31,95,19,M,NA,constant,homogeneous,4,present,0.582933902740479,1,horizontal,horizontal,1,0.847054090866676,red,1,4,874.554784704298,843.857712770574,556.142287229426,674.554784704298,874.554784704298,843.857712770574,1043.85771277057,525.445215295702,725.445215295702,356.142287229426,556.142287229426,674.554784704298,NaN,NaN,NaN,NaN,4,0,0,0,NaN,NaN,horizontal,horizontal,vertical,vertical,none,none
1d,2,100205,2,32,96,19,M,NA,constant,homogeneous,5,present,0.470054149627686,1,horizontal,horizontal,1,0.964698896041283,red,4,2,588.595418998464,457.40580961496,1054.84466088987,591.100628340862,887.215136548046,839.621618300407,1054.84466088987,591.100628340862,870.287525733335,354.878267535729,588.595418998464,457.40580961496,599.057257830286,756.993676208043,NaN,NaN,0,0,0,4,0,NaN,vertical,horizontal,horizontal,horizontal,horizontal,none
1d,2,100205,2,33,97,19,M,NA,constant,homogeneous,3,absent,0.605608940124512,0,vertical,horizontal,1,0.694115844139686,red,3,NaN,560.378381699593,512.784863451954,NaN,NaN,844.280285305067,851.125977018113,995.341332995339,436.089159529932,560.378381699593,512.784863451954,NaN,NaN,NaN,NaN,NaN,NaN,0,0,4,NaN,NaN,NaN,horizontal,horizontal,vertical,none,none,none
1d,2,100205,2,34,98,19,M,NA,constant,homogeneous,3,absent,0.583356142044067,1,vertical,vertical,1,0.882347532419058,red,2,NaN,800,345,NaN,NaN,1020.83647796503,727.5,800,345,579.163522034968,727.5,NaN,NaN,NaN,NaN,NaN,NaN,0,4,0,NaN,NaN,NaN,vertical,vertical,horizontal,none,none,none
1d,2,100205,2,35,99,19,M,NA,constant,homogeneous,5,present,0.556778907775879,1,horizontal,horizontal,1,1.07057922069843,red,5,3,626.090418184063,786.495193912888,831.076682568313,346.900731331463,923.626453162816,823.028025320546,1050.31493177915,551.343706178981,831.076682568313,346.900731331463,568.891514305654,492.232343256122,626.090418184063,786.495193912888,NaN,NaN,0,0,0,0,4,NaN,horizontal,horizontal,horizontal,horizontal,horizontal,none
1d,2,100205,2,36,100,19,M,NA,constant,homogeneous,6,present,0.733726978302002,1,vertical,vertical,1,0.682351363622225,red,1,5,782.212099195248,854.378832816255,588.595418998464,457.40580961496,782.212099195248,854.378832816255,1011.40458100154,742.594190385041,1029.19248180629,488.215357568785,817.787900804752,345.621167183745,588.595418998464,457.40580961496,570.807518193712,711.784642431215,4,0,0,0,0,0,vertical,horizontal,horizontal,vertical,horizontal,horizontal
1d,2,100205,2,37,101,19,M,NA,constant,homogeneous,5,present,0.538462162017822,1,vertical,vertical,1,0.894112012936519,red,3,4,960.476699717708,401.827779828472,661.117046071168,386.139005173917,786.654331158049,854.650531362416,1038.06300875679,691.383827134052,960.476699717708,401.827779828472,661.117046071168,386.139005173917,553.688914296288,665.998856501143,NaN,NaN,0,0,4,0,0,NaN,vertical,vertical,vertical,vertical,horizontal,none
1d,2,100205,2,38,102,19,M,NA,constant,homogeneous,6,present,0.560752868652344,1,vertical,vertical,1,0.76470272724445,red,1,2,831.076682568313,853.099268668537,1034.72873763037,699.636437764765,831.076682568313,853.099268668537,1034.72873763037,699.636437764765,1003.65205506206,446.537169096228,768.923317431687,346.900731331463,565.271262369628,500.363562235235,596.34794493794,753.462830903772,4,0,0,0,0,0,vertical,horizontal,horizontal,vertical,vertical,vertical
1d,2,100205,2,39,103,19,M,NA,constant,homogeneous,4,absent,0.518290996551514,1,vertical,vertical,1,0.91764097397144,red,3,NaN,953.462830903772,396.34794493794,NaN,NaN,646.537169096228,803.65205506206,1003.65205506206,753.462830903772,953.462830903772,396.34794493794,596.34794493794,446.537169096228,NaN,NaN,NaN,NaN,0,0,4,0,NaN,NaN,vertical,horizontal,vertical,vertical,none,none
1d,2,100205,2,40,104,19,M,NA,constant,homogeneous,6,absent,0.631128072738647,1,horizontal,horizontal,1,0.717644805174607,red,6,NaN,549.685068220846,648.656293821019,NaN,NaN,716.980120613425,841.107236777826,967.295052392579,792.450942956807,1050.31493177915,551.343706178981,883.019879386575,358.892763222174,632.704947607421,407.549057043193,549.685068220846,648.656293821019,0,0,0,0,0,4,vertical,vertical,horizontal,vertical,horizontal,horizontal
1d,2,100205,2,41,105,19,M,NA,constant,homogeneous,3,absent,0.491061210632324,1,horizontal,horizontal,1,0.75293824672699,red,3,NaN,556.142287229426,674.554784704298,NaN,NaN,986.495193912888,773.909581815937,857.362518857686,351.535633479765,556.142287229426,674.554784704298,NaN,NaN,NaN,NaN,NaN,NaN,0,0,4,NaN,NaN,NaN,horizontal,vertical,horizontal,none,none,none
1d,2,100205,2,42,106,19,M,NA,constant,homogeneous,6,present,0.77199387550354,1,horizontal,horizontal,1,0.952934415523822,red,6,4,668.665290897936,818.577661679039,676.373546837184,376.971974679454,923.626453162816,823.028025320546,1054.96116226488,604.450363641507,931.334709102064,381.422338320961,676.373546837184,376.971974679454,545.03883773512,595.549636358493,668.665290897936,818.577661679039,0,0,0,0,0,4,horizontal,horizontal,horizontal,vertical,vertical,horizontal
1d,2,100205,2,43,107,19,M,NA,constant,homogeneous,4,present,0.544495105743408,1,horizontal,horizontal,1,0.635293441552382,red,4,3,545.03883773512,604.450363641507,795.549636358493,345.03883773512,804.450363641507,854.96116226488,1054.96116226488,595.549636358493,795.549636358493,345.03883773512,545.03883773512,604.450363641507,NaN,NaN,NaN,NaN,0,0,0,4,NaN,NaN,vertical,horizontal,vertical,horizontal,none,none
1d,2,100205,2,44,108,19,M,NA,constant,homogeneous,5,absent,0.606368064880371,1,vertical,vertical,1,0.952934415523822,red,3,NaN,874.554784704298,356.142287229426,NaN,NaN,883.019879386575,841.107236777826,1054.96116226488,595.549636358493,874.554784704298,356.142287229426,591.116228706307,453.738008730483,596.34794493794,753.462830903772,NaN,NaN,0,0,4,0,0,NaN,horizontal,vertical,vertical,vertical,horizontal,none
1d,2,100205,2,45,109,19,M,NA,constant,homogeneous,6,absent,0.564912080764771,1,horizontal,horizontal,1,0.91764097397144,red,5,NaN,574.848363820974,480.284751489598,NaN,NaN,808.899371659138,854.844660889869,1025.15163617903,719.715248510402,1016.25226451989,464.870587620533,791.100628340862,345.155339110131,574.848363820974,480.284751489598,583.747735480111,735.129412379467,0,0,0,0,4,0,horizontal,horizontal,vertical,horizontal,horizontal,horizontal
1d,2,100205,2,46,110,19,M,NA,constant,homogeneous,4,present,0.560585975646973,1,vertical,vertical,1,1.01175681811113,red,2,1,1054.96116226488,595.549636358493,804.450363641507,854.96116226488,804.450363641507,854.96116226488,1054.96116226488,595.549636358493,795.549636358493,345.03883773512,545.03883773512,604.450363641507,NaN,NaN,NaN,NaN,0,4,0,0,NaN,NaN,horizontal,vertical,vertical,vertical,none,none
1d,2,100205,2,47,111,19,M,NA,constant,homogeneous,5,absent,0.769802808761597,1,vertical,vertical,1,0.682351363622225,red,3,NaN,883.019879386575,358.892763222174,NaN,NaN,874.554784704298,843.857712770574,1054.96116226488,604.450363641507,883.019879386575,358.892763222174,596.34794493794,446.537169096228,591.116228706307,746.261991269517,NaN,NaN,0,0,4,0,0,NaN,horizontal,horizontal,vertical,vertical,horizontal,none
1d,2,100205,2,48,112,19,M,NA,constant,homogeneous,5,absent,0.719111919403076,1,horizontal,horizontal,1,0.682351363622225,red,3,NaN,1018.57766167904,468.665290897936,NaN,NaN,700.363562235235,834.728737630372,992.450942956807,767.295052392579,1018.57766167904,468.665290897936,742.637481142314,351.535633479765,545.970351986605,577.775285599347,NaN,NaN,0,0,4,0,0,NaN,horizontal,vertical,horizontal,vertical,horizontal,none
1d,2,100205,2,49,113,19,M,NA,constant,homogeneous,6,absent,0.521888971328735,1,vertical,vertical,1,0.811760649314293,red,5,NaN,557.480588344736,521.200666434388,NaN,NaN,853.017481158529,849.42763818712,1042.51941165526,678.799333565612,989.501930496736,429.371695378491,746.982518841471,350.57236181288,557.480588344736,521.200666434388,610.498069503264,770.628304621509,0,0,0,0,4,0,vertical,vertical,vertical,horizontal,vertical,vertical
1d,2,100205,2,50,114,19,M,NA,constant,homogeneous,3,present,0.514794826507568,1,vertical,vertical,1,0.91764097397144,red,2,3,891.383827134052,361.936991243214,548.13947314824,639.890788585259,960.476699717708,798.172220171528,891.383827134052,361.936991243214,548.13947314824,639.890788585259,NaN,NaN,NaN,NaN,NaN,NaN,0,4,0,NaN,NaN,NaN,vertical,vertical,vertical,none,none,none
1d,2,100205,2,51,115,19,M,NA,constant,homogeneous,6,absent,0.558681011199951,1,vertical,vertical,1,1.07057922069843,red,6,NaN,545.621167183745,617.787900804752,NaN,NaN,688.215357568785,829.192481806288,942.594190385041,811.404581001536,1054.37883281626,582.212099195248,911.784642431215,370.807518193712,657.405809614959,388.595418998464,545.621167183745,617.787900804752,0,0,0,0,0,4,horizontal,horizontal,vertical,vertical,vertical,vertical
1d,2,100205,2,52,116,19,M,NA,constant,homogeneous,6,present,0.6580650806427,1,vertical,vertical,1,0.999992337593665,red,4,3,729.712474266665,354.878267535729,977.137884467044,416.568350913644,870.287525733335,845.121732464271,1047.42541020038,661.690083377915,977.137884467044,416.568350913644,729.712474266665,354.878267535729,552.574589799621,538.309916622085,622.862115532956,783.431649086356,0,0,0,4,0,0,horizontal,horizontal,vertical,vertical,vertical,horizontal
1d,2,100205,2,53,117,19,M,NA,constant,homogeneous,3,absent,0.838238000869751,1,horizontal,horizontal,1,0.941169935006362,red,1,NaN,795.549636358493,854.96116226488,NaN,NaN,795.549636358493,854.96116226488,1023.02802532055,476.373546837184,581.422338320961,468.665290897936,NaN,NaN,NaN,NaN,NaN,NaN,4,0,0,NaN,NaN,NaN,horizontal,vertical,vertical,none,none,none
1d,2,100205,2,54,118,19,M,NA,constant,homogeneous,4,absent,0.547210931777954,1,horizontal,horizontal,1,1.01175681811113,red,1,NaN,626.090418184063,786.495193912888,NaN,NaN,626.090418184063,786.495193912888,986.495193912888,773.909581815937,973.909581815937,413.504806087112,613.504806087112,426.090418184063,NaN,NaN,NaN,NaN,4,0,0,0,NaN,NaN,horizontal,vertical,vertical,horizontal,none,none
1d,2,100205,2,55,119,19,M,NA,constant,homogeneous,4,present,0.665199995040894,1,vertical,vertical,1,0.929405454488901,red,3,1,716.980120613425,358.892763222174,883.019879386575,841.107236777826,883.019879386575,841.107236777826,1041.10723677783,516.980120613425,716.980120613425,358.892763222174,558.892763222174,683.019879386575,NaN,NaN,NaN,NaN,0,0,4,0,NaN,NaN,horizontal,horizontal,vertical,horizontal,none,none
1d,2,100205,2,56,120,19,M,NA,constant,homogeneous,5,present,0.649252891540527,1,vertical,vertical,1,0.929405454488901,red,5,3,545.155339110131,591.100628340862,1011.40458100154,457.40580961496,712.784863451954,839.621618300407,1000.94274216971,756.993676208043,1011.40458100154,457.40580961496,729.712474266665,354.878267535729,545.155339110131,591.100628340862,NaN,NaN,0,0,0,0,4,NaN,vertical,horizontal,horizontal,horizontal,vertical,none
1d,2,100205,2,57,121,19,M,NA,constant,homogeneous,3,present,0.490741014480591,1,vertical,vertical,1,0.811760649314293,red,2,1,963.910840470068,404.658667004661,887.215136548046,839.621618300407,887.215136548046,839.621618300407,963.910840470068,404.658667004661,548.874022981887,555.719714694933,NaN,NaN,NaN,NaN,NaN,NaN,0,4,0,NaN,NaN,NaN,vertical,vertical,horizontal,none,none,none
1d,2,100205,2,58,122,19,M,NA,constant,homogeneous,4,present,0.513238906860352,1,vertical,vertical,1,1.03528577914605,red,3,1,887.215136548046,360.378381699593,712.784863451954,839.621618300407,712.784863451954,839.621618300407,1039.62161830041,687.215136548046,887.215136548046,360.378381699593,560.378381699593,512.784863451954,NaN,NaN,NaN,NaN,0,0,4,0,NaN,NaN,horizontal,horizontal,vertical,horizontal,none,none
1d,2,100205,2,59,123,19,M,NA,constant,homogeneous,3,absent,0.491559028625488,1,vertical,vertical,1,0.799996168796833,red,2,NaN,938.882953928832,386.139005173917,NaN,NaN,915.767577433584,827.206663668034,938.882953928832,386.139005173917,545.349468637584,586.654331158049,NaN,NaN,NaN,NaN,NaN,NaN,0,4,0,NaN,NaN,NaN,vertical,vertical,vertical,none,none,none
1d,2,100205,2,60,124,19,M,NA,constant,homogeneous,3,present,0.581075191497803,1,horizontal,horizontal,1,0.776467207761911,red,2,3,1054.96116226488,604.450363641507,676.373546837184,376.971974679454,668.665290897936,818.577661679039,1054.96116226488,604.450363641507,676.373546837184,376.971974679454,NaN,NaN,NaN,NaN,NaN,NaN,0,4,0,NaN,NaN,NaN,vertical,horizontal,horizontal,none,none,none
1d,2,100205,2,61,125,19,M,NA,constant,homogeneous,6,absent,1.18686604499817,1,vertical,vertical,1,1.09410818173335,red,2,NaN,989.501930496736,770.628304621509,NaN,NaN,746.982518841471,849.42763818712,989.501930496736,770.628304621509,1042.51941165526,521.200666434388,853.017481158529,350.57236181288,610.498069503264,429.371695378491,557.480588344736,678.799333565612,0,4,0,0,0,0,vertical,vertical,vertical,horizontal,horizontal,horizontal
1d,2,100205,2,62,126,19,M,NA,constant,homogeneous,6,absent,0.670154094696045,1,vertical,vertical,1,0.964698896041283,red,1,NaN,865.998856501143,846.311085703712,NaN,NaN,865.998856501143,846.311085703712,1046.31108570371,665.998856501143,980.31222920257,419.68777079743,734.001143498857,353.688914296288,553.688914296288,534.001143498857,619.68777079743,780.31222920257,4,0,0,0,0,0,vertical,horizontal,vertical,horizontal,vertical,vertical
1d,2,100205,2,63,127,19,M,NA,constant,homogeneous,3,present,0.637181043624878,1,vertical,vertical,1,0.870583051901597,red,1,3,989.501930496736,770.628304621509,557.480588344736,678.799333565612,989.501930496736,770.628304621509,853.017481158529,350.57236181288,557.480588344736,678.799333565612,NaN,NaN,NaN,NaN,NaN,NaN,4,0,0,NaN,NaN,NaN,vertical,vertical,vertical,none,none,none
1d,2,100205,2,64,128,19,M,NA,constant,homogeneous,5,absent,0.835448026657104,1,vertical,vertical,1,0.658822402587304,red,4,NaN,742.637481142314,351.535633479765,NaN,NaN,700.363562235235,834.728737630372,992.450942956807,767.295052392579,1018.57766167904,468.665290897936,742.637481142314,351.535633479765,545.970351986605,577.775285599347,NaN,NaN,0,0,0,4,0,NaN,vertical,vertical,vertical,vertical,horizontal,none
1d,2,100205,3,1,129,19,M,NA,constant,homogeneous,6,present,1.19549608230591,1,vertical,vertical,1,0.847054090866676,red,4,2,777.775285599347,345.970351986605,1031.10848569435,707.767656743878,822.224714400653,854.029648013395,1031.10848569435,707.767656743878,1008.88377129369,453.738008730483,777.775285599347,345.970351986605,568.891514305654,492.232343256122,591.116228706307,746.261991269517,0,0,0,4,0,0,horizontal,vertical,vertical,vertical,vertical,horizontal
1d,2,100205,3,2,130,19,M,NA,constant,homogeneous,6,present,0.625686168670654,1,vertical,vertical,1,0.905876493453979,red,3,6,1034.72873763037,500.363562235235,565.271262369628,699.636437764765,768.923317431687,853.099268668537,1003.65205506206,753.462830903772,1034.72873763037,500.363562235235,831.076682568313,346.900731331463,596.34794493794,446.537169096228,565.271262369628,699.636437764765,0,0,4,0,0,0,vertical,vertical,vertical,vertical,vertical,vertical
1d,2,100205,3,3,131,19,M,NA,constant,homogeneous,3,present,0.584863901138306,1,vertical,vertical,1,0.717644805174607,red,2,1,1055,600,672.5,820.836477965032,672.5,820.836477965032,1055,600,672.5,379.163522034968,NaN,NaN,NaN,NaN,NaN,NaN,0,4,0,NaN,NaN,NaN,vertical,vertical,vertical,none,none,none
1d,2,100205,3,4,132,19,M,NA,constant,homogeneous,4,present,0.536726951599121,1,vertical,vertical,1,0.611764480517461,red,4,1,563.568117085469,695.524681321058,895.524681321058,836.431882914531,895.524681321058,836.431882914531,1036.43188291453,504.475318678942,704.475318678942,363.568117085469,563.568117085469,695.524681321058,NaN,NaN,NaN,NaN,0,0,0,4,NaN,NaN,vertical,vertical,horizontal,vertical,none,none
1d,2,100205,3,5,133,19,M,NA,constant,homogeneous,5,absent,0.525089979171753,1,vertical,vertical,1,0.670586883104764,red,1,NaN,700.363562235235,834.728737630372,NaN,NaN,700.363562235235,834.728737630372,992.450942956807,767.295052392579,1018.57766167904,468.665290897936,742.637481142314,351.535633479765,545.970351986605,577.775285599347,NaN,NaN,4,0,0,0,0,NaN,vertical,vertical,horizontal,horizontal,horizontal,none
1d,2,100205,3,6,134,19,M,NA,constant,homogeneous,5,present,0.488729000091553,1,vertical,vertical,1,0.658822402587304,red,3,5,960.476699717708,401.827779828472,553.688914296288,665.998856501143,786.654331158049,854.650531362416,1038.06300875679,691.383827134052,960.476699717708,401.827779828472,661.117046071168,386.139005173917,553.688914296288,665.998856501143,NaN,NaN,0,0,4,0,0,NaN,horizontal,vertical,vertical,vertical,vertical,none
1d,2,100205,3,7,135,19,M,NA,constant,homogeneous,5,present,0.566992044448853,1,vertical,vertical,1,0.611764480517461,red,2,4,1047.42541020038,538.309916622085,563.568117085469,504.475318678942,935.129412379467,816.252264519889,1047.42541020038,538.309916622085,817.787900804752,345.621167183745,563.568117085469,504.475318678942,636.089159529932,795.341332995339,NaN,NaN,0,4,0,0,0,NaN,horizontal,vertical,vertical,horizontal,vertical,none
1d,2,100205,3,8,136,19,M,NA,constant,homogeneous,4,present,0.57756781578064,1,horizontal,horizontal,1,1.01175681811113,red,4,3,549.685068220846,551.343706178981,848.656293821019,349.685068220846,751.343706178981,850.314931779154,1050.31493177915,648.656293821019,848.656293821019,349.685068220846,549.685068220846,551.343706178981,NaN,NaN,NaN,NaN,0,0,0,4,NaN,NaN,horizontal,vertical,vertical,horizontal,none,none
1d,2,100205,3,9,137,19,M,NA,constant,homogeneous,3,present,0.538884162902832,1,vertical,vertical,1,0.811760649314293,red,2,1,857.362518857686,351.535633479765,986.495193912888,773.909581815937,986.495193912888,773.909581815937,857.362518857686,351.535633479765,556.142287229426,674.554784704298,NaN,NaN,NaN,NaN,NaN,NaN,0,4,0,NaN,NaN,NaN,horizontal,vertical,vertical,none,none,none
1d,2,100205,3,10,138,19,M,NA,constant,homogeneous,3,absent,0.586906909942627,1,vertical,vertical,1,1.05881474018097,red,2,NaN,1054.96116226488,604.450363641507,NaN,NaN,668.665290897936,818.577661679039,1054.96116226488,604.450363641507,676.373546837184,376.971974679454,NaN,NaN,NaN,NaN,NaN,NaN,0,4,0,NaN,NaN,NaN,horizontal,vertical,horizontal,none,none,none
1d,2,100205,3,11,139,19,M,NA,constant,homogeneous,5,absent,0.578017950057983,1,horizontal,horizontal,1,0.75293824672699,red,5,NaN,588.595418998464,742.594190385041,NaN,NaN,870.287525733335,845.121732464271,1054.84466088987,608.899371659138,887.215136548046,360.378381699593,599.057257830286,443.006323791957,588.595418998464,742.594190385041,NaN,NaN,0,0,0,0,4,NaN,horizontal,horizontal,vertical,vertical,horizontal,none
1d,2,100205,3,12,140,19,M,NA,constant,homogeneous,6,absent,0.747285127639771,1,vertical,vertical,1,0.682351363622225,red,4,NaN,813.345668841951,345.349468637584,NaN,NaN,786.654331158049,854.650531362416,1013.86099482608,738.882953928832,1027.20666366803,484.232422566416,813.345668841951,345.349468637584,586.139005173917,461.117046071168,572.793336331966,715.767577433584,0,0,0,4,0,0,vertical,horizontal,vertical,vertical,horizontal,vertical
1d,2,100205,3,13,141,19,M,NA,constant,homogeneous,3,absent,0.623173952102661,1,horizontal,horizontal,1,0.635293441552382,red,3,NaN,764.510859255183,347.4816424709,NaN,NaN,599.057257830286,756.993676208043,1036.43188291453,695.524681321058,764.510859255183,347.4816424709,NaN,NaN,NaN,NaN,NaN,NaN,0,0,4,NaN,NaN,NaN,horizontal,vertical,horizontal,none,none,none
1d,2,100205,3,14,142,19,M,NA,constant,homogeneous,4,absent,0.568627834320068,1,horizontal,horizontal,1,1.03528577914605,red,3,NaN,826.654758133252,346.39691668109,NaN,NaN,773.345241866748,853.60308331891,1053.60308331891,626.654758133252,826.654758133252,346.39691668109,546.39691668109,573.345241866748,NaN,NaN,NaN,NaN,0,0,4,0,NaN,NaN,vertical,vertical,horizontal,horizontal,none,none
1d,2,100205,3,15,143,19,M,NA,constant,homogeneous,4,absent,0.528122901916504,1,horizontal,horizontal,1,0.6,red,3,NaN,680.284751489598,374.848363820974,NaN,NaN,919.715248510402,825.151636179026,1025.15163617903,480.284751489598,680.284751489598,374.848363820974,574.848363820974,719.715248510402,NaN,NaN,NaN,NaN,0,0,4,0,NaN,NaN,vertical,horizontal,horizontal,vertical,none,none
1d,2,100205,3,16,144,19,M,NA,constant,homogeneous,3,present,0.492063045501709,1,horizontal,horizontal,1,0.647057922069843,red,3,2,553.688914296288,665.998856501143,865.998856501143,353.688914296288,980.31222920257,780.31222920257,865.998856501143,353.688914296288,553.688914296288,665.998856501143,NaN,NaN,NaN,NaN,NaN,NaN,0,0,4,NaN,NaN,NaN,horizontal,vertical,horizontal,none,none,none
1d,2,100205,3,17,145,19,M,NA,constant,homogeneous,6,absent,0.675476789474487,1,vertical,vertical,1,1.08234370121589,red,6,NaN,546.39691668109,626.654758133252,NaN,NaN,696.282156015671,832.954091698863,949.885239334581,806.299333565612,1053.60308331891,573.345241866748,903.717843984329,367.045908301137,650.114760665419,393.700666434388,546.39691668109,626.654758133252,0,0,0,0,0,4,horizontal,vertical,horizontal,vertical,vertical,vertical
1d,2,100205,3,18,146,19,M,NA,constant,homogeneous,6,present,0.588289022445679,1,horizontal,horizontal,1,0.941169935006362,red,5,2,560.378381699593,512.784863451954,1039.62161830041,687.215136548046,844.280285305067,851.125977018113,1039.62161830041,687.215136548046,995.341332995339,436.089159529932,755.719714694933,348.874022981887,560.378381699593,512.784863451954,604.658667004661,763.910840470068,0,0,0,0,4,0,horizontal,vertical,vertical,horizontal,horizontal,horizontal
1d,2,100205,3,19,147,19,M,NA,constant,homogeneous,5,present,0.457473993301392,1,horizontal,horizontal,1,0.858818571384137,red,3,2,956.993676208043,399.057257830286,1039.62161830041,687.215136548046,791.100628340862,854.844660889869,1039.62161830041,687.215136548046,956.993676208043,399.057257830286,657.405809614959,388.595418998464,554.878267535729,670.287525733335,NaN,NaN,0,0,4,0,0,NaN,horizontal,vertical,horizontal,horizontal,vertical,none
1d,2,100205,3,20,148,19,M,NA,constant,homogeneous,3,present,0.622073888778687,1,horizontal,horizontal,1,0.964698896041283,red,2,1,874.554784704298,356.142287229426,973.909581815937,786.495193912888,973.909581815937,786.495193912888,874.554784704298,356.142287229426,551.535633479765,657.362518857686,NaN,NaN,NaN,NaN,NaN,NaN,0,4,0,NaN,NaN,NaN,vertical,horizontal,horizontal,none,none,none
1d,2,100205,3,21,149,19,M,NA,constant,homogeneous,4,present,0.513190984725952,1,horizontal,horizontal,1,0.941169935006362,red,2,4,1046.31108570371,534.001143498857,553.688914296288,665.998856501143,865.998856501143,846.311085703712,1046.31108570371,534.001143498857,734.001143498857,353.688914296288,553.688914296288,665.998856501143,NaN,NaN,NaN,NaN,0,4,0,0,NaN,NaN,horizontal,horizontal,vertical,horizontal,none,none
1d,2,100205,3,22,150,19,M,NA,constant,homogeneous,5,absent,0.897814035415649,1,horizontal,horizontal,1,0.905876493453979,red,1,NaN,800,855,NaN,NaN,800,855,1042.51941165526,678.799333565612,949.885239334581,393.700666434388,650.114760665419,393.700666434388,557.480588344736,678.799333565612,NaN,NaN,4,0,0,0,0,NaN,horizontal,horizontal,horizontal,horizontal,vertical,none
1d,2,100205,3,23,151,19,M,NA,constant,homogeneous,5,present,0.603726863861084,1,horizontal,horizontal,1,0.988227857076205,red,1,2,938.882953928832,813.860994826083,1046.31108570371,534.001143498857,938.882953928832,813.860994826083,1046.31108570371,534.001143498857,813.345668841951,345.349468637584,561.936991243214,508.616172865948,639.523300282292,798.172220171528,NaN,NaN,4,0,0,0,0,NaN,horizontal,horizontal,horizontal,vertical,horizontal,none
1d,2,100205,3,24,152,19,M,NA,constant,homogeneous,6,absent,0.518229007720947,1,horizontal,horizontal,1,0.705880324657147,red,6,NaN,560.378381699593,687.215136548046,NaN,NaN,755.719714694933,851.125977018113,995.341332995339,763.910840470068,1039.62161830041,512.784863451954,844.280285305067,348.874022981887,604.658667004661,436.089159529932,560.378381699593,687.215136548046,0,0,0,0,0,4,vertical,vertical,horizontal,horizontal,vertical,horizontal
1d,2,100205,3,25,153,19,M,NA,constant,homogeneous,3,absent,0.506220102310181,1,vertical,vertical,1,1.08234370121589,red,2,NaN,1054.37883281626,582.212099195248,NaN,NaN,688.215357568785,829.192481806288,1054.37883281626,582.212099195248,657.405809614959,388.595418998464,NaN,NaN,NaN,NaN,NaN,NaN,0,4,0,NaN,NaN,NaN,vertical,vertical,horizontal,none,none,none
1d,2,100205,3,26,154,19,M,NA,constant,homogeneous,3,present,0.567659139633179,1,vertical,vertical,1,0.941169935006362,red,1,2,622.862115532956,783.431649086356,1047.42541020038,661.690083377915,622.862115532956,783.431649086356,1047.42541020038,661.690083377915,729.712474266665,354.878267535729,NaN,NaN,NaN,NaN,NaN,NaN,4,0,0,NaN,NaN,NaN,vertical,horizontal,vertical,none,none,none
1d,2,100205,3,27,155,19,M,NA,constant,homogeneous,3,present,0.535520076751709,1,vertical,vertical,1,0.623528961034922,red,1,2,935.129412379467,816.252264519889,919.715248510402,374.848363820974,935.129412379467,816.252264519889,919.715248510402,374.848363820974,545.155339110131,608.899371659138,NaN,NaN,NaN,NaN,NaN,NaN,4,0,0,NaN,NaN,NaN,vertical,vertical,horizontal,none,none,none
1d,2,100205,3,28,156,19,M,NA,constant,homogeneous,5,absent,0.519753932952881,1,horizontal,horizontal,1,0.658822402587304,red,4,NaN,586.139005173917,461.117046071168,NaN,NaN,891.383827134052,838.063008756786,1054.65053136242,586.654331158049,865.998856501143,353.688914296288,586.139005173917,461.117046071168,601.827779828472,760.476699717708,NaN,NaN,0,0,0,4,0,NaN,vertical,vertical,horizontal,horizontal,horizontal,none
1d,2,100205,3,29,157,19,M,NA,constant,homogeneous,3,absent,0.459082126617432,1,horizontal,horizontal,1,1.03528577914605,red,3,NaN,586.139005173917,461.117046071168,NaN,NaN,786.654331158049,854.650531362416,1027.20666366803,484.232422566416,586.139005173917,461.117046071168,NaN,NaN,NaN,NaN,NaN,NaN,0,0,4,NaN,NaN,NaN,vertical,horizontal,horizontal,none,none,none
1d,2,100205,3,30,158,19,M,NA,constant,homogeneous,3,absent,0.831816911697388,1,vertical,vertical,1,0.964698896041283,red,3,NaN,672.5,379.163522034968,NaN,NaN,672.5,820.836477965032,1055,600,672.5,379.163522034968,NaN,NaN,NaN,NaN,NaN,NaN,0,0,4,NaN,NaN,NaN,horizontal,vertical,vertical,none,none,none
1d,2,100205,3,31,159,19,M,NA,constant,homogeneous,4,present,0.788134098052979,1,vertical,vertical,1,0.776467207761911,red,2,4,1023.02802532055,723.626453162816,576.971974679454,476.373546837184,676.373546837184,823.028025320546,1023.02802532055,723.626453162816,923.626453162816,376.971974679454,576.971974679454,476.373546837184,NaN,NaN,NaN,NaN,0,4,0,0,NaN,NaN,vertical,vertical,horizontal,horizontal,none,none
1d,2,100205,3,32,160,19,M,NA,constant,homogeneous,6,absent,0.550893068313599,1,vertical,vertical,1,0.941169935006362,red,2,NaN,1018.57766167904,731.334709102064,NaN,NaN,795.549636358493,854.96116226488,1018.57766167904,731.334709102064,1023.02802532055,476.373546837184,804.450363641507,345.03883773512,581.422338320961,468.665290897936,576.971974679454,723.626453162816,0,4,0,0,0,0,vertical,vertical,vertical,horizontal,horizontal,vertical
1d,2,100205,3,33,161,19,M,NA,constant,homogeneous,3,present,0.55828595161438,1,horizontal,horizontal,1,0.799996168796833,red,2,3,953.462830903772,396.34794493794,546.900731331463,568.923317431687,899.636437764765,834.728737630372,953.462830903772,396.34794493794,546.900731331463,568.923317431687,NaN,NaN,NaN,NaN,NaN,NaN,0,4,0,NaN,NaN,NaN,vertical,horizontal,horizontal,none,none,none
1d,2,100205,3,34,162,19,M,NA,constant,homogeneous,4,present,0.464883089065552,0,vertical,horizontal,1,0.776467207761911,red,4,2,593.700666434388,450.114760665419,1006.29933356561,749.885239334581,650.114760665419,806.299333565612,1006.29933356561,749.885239334581,949.885239334581,393.700666434388,593.700666434388,450.114760665419,NaN,NaN,NaN,NaN,0,0,0,4,NaN,NaN,vertical,horizontal,horizontal,vertical,none,none
1d,2,100205,3,35,163,19,M,NA,constant,homogeneous,4,absent,0.847760915756226,1,vertical,vertical,1,1.08234370121589,red,1,NaN,708.616172865948,838.063008756786,NaN,NaN,708.616172865948,838.063008756786,1038.06300875679,691.383827134052,891.383827134052,361.936991243214,561.936991243214,508.616172865948,NaN,NaN,NaN,NaN,4,0,0,0,NaN,NaN,vertical,vertical,vertical,horizontal,none,none
1d,2,100205,3,36,164,19,M,NA,constant,homogeneous,6,absent,0.668694972991943,1,horizontal,horizontal,1,0.776467207761911,red,2,NaN,970.628304621509,789.501930496736,NaN,NaN,721.200666434388,842.519411655264,970.628304621509,789.501930496736,1049.42763818712,546.982518841471,878.799333565612,357.480588344736,629.371695378491,410.498069503264,550.57236181288,653.017481158529,0,4,0,0,0,0,horizontal,horizontal,vertical,horizontal,vertical,vertical
1d,2,100205,3,37,165,19,M,NA,constant,homogeneous,5,present,0.612884044647217,1,vertical,vertical,1,0.729409285692068,red,5,3,546.39691668109,573.345241866748,1020.83647796503,472.5,696.282156015671,832.954091698863,989.501930496736,770.628304621509,1020.83647796503,472.5,746.982518841471,350.57236181288,546.39691668109,573.345241866748,NaN,NaN,0,0,0,0,4,NaN,horizontal,horizontal,horizontal,horizontal,vertical,none
1d,2,100205,3,38,166,19,M,NA,constant,homogeneous,4,absent,0.618628025054932,1,vertical,vertical,1,0.858818571384137,red,1,NaN,626.090418184063,786.495193912888,NaN,NaN,626.090418184063,786.495193912888,986.495193912888,773.909581815937,973.909581815937,413.504806087112,613.504806087112,426.090418184063,NaN,NaN,NaN,NaN,4,0,0,0,NaN,NaN,vertical,vertical,horizontal,vertical,none,none
1d,2,100205,3,39,167,19,M,NA,constant,homogeneous,6,present,0.696153879165649,1,horizontal,horizontal,1,1.05881474018097,red,5,3,550.57236181288,546.982518841471,970.628304621509,410.498069503264,878.799333565612,842.519411655264,1049.42763818712,653.017481158529,970.628304621509,410.498069503264,721.200666434388,357.480588344736,550.57236181288,546.982518841471,629.371695378491,789.501930496736,0,0,0,0,4,0,horizontal,horizontal,vertical,horizontal,horizontal,horizontal
1d,2,100205,3,40,168,19,M,NA,constant,homogeneous,6,absent,0.715954065322876,1,vertical,vertical,1,1.08234370121589,red,2,NaN,1051.86052685176,639.890788585259,NaN,NaN,891.383827134052,838.063008756786,1051.86052685176,639.890788585259,960.476699717708,401.827779828472,708.616172865948,361.936991243214,548.13947314824,560.109211414741,639.523300282292,798.172220171528,0,4,0,0,0,0,vertical,vertical,vertical,vertical,vertical,horizontal
1d,2,100205,3,41,169,19,M,NA,constant,homogeneous,4,absent,0.533339023590088,0,vertical,horizontal,1,0.952934415523822,red,1,NaN,764.510859255183,852.518357529101,NaN,NaN,764.510859255183,852.518357529101,1052.5183575291,635.489140744817,835.489140744817,347.4816424709,547.481642470899,564.510859255183,NaN,NaN,NaN,NaN,4,0,0,0,NaN,NaN,vertical,vertical,vertical,horizontal,none,none
1d,2,100205,3,42,170,19,M,NA,constant,homogeneous,4,absent,0.690187931060791,1,horizontal,horizontal,1,0.694115844139686,red,4,NaN,545.970351986605,622.224714400653,NaN,NaN,822.224714400653,854.029648013395,1054.0296480134,577.775285599347,777.775285599347,345.970351986605,545.970351986605,622.224714400653,NaN,NaN,NaN,NaN,0,0,0,4,NaN,NaN,vertical,vertical,horizontal,horizontal,none,none
1d,2,100205,3,43,171,19,M,NA,constant,homogeneous,6,absent,0.890614032745361,1,horizontal,horizontal,1,0.929405454488901,red,4,NaN,786.654331158049,345.349468637584,NaN,NaN,813.345668841951,854.650531362416,1027.20666366803,715.767577433584,1013.86099482608,461.117046071168,786.654331158049,345.349468637584,572.793336331966,484.232422566416,586.139005173917,738.882953928832,0,0,0,4,0,0,horizontal,horizontal,vertical,horizontal,vertical,horizontal
1d,2,100205,3,44,172,19,M,NA,constant,homogeneous,4,present,0.512810945510864,1,horizontal,horizontal,1,0.811760649314293,red,1,4,919.715248510402,825.151636179026,574.848363820974,719.715248510402,919.715248510402,825.151636179026,1025.15163617903,480.284751489598,680.284751489598,374.848363820974,574.848363820974,719.715248510402,NaN,NaN,NaN,NaN,4,0,0,0,NaN,NaN,horizontal,vertical,horizontal,horizontal,none,none
1d,2,100205,3,45,173,19,M,NA,constant,homogeneous,3,absent,0.463898897171021,0,vertical,horizontal,1,1.03528577914605,red,3,NaN,547.481642470899,635.489140744817,NaN,NaN,956.993676208043,800.942742169714,895.524681321058,363.568117085469,547.481642470899,635.489140744817,NaN,NaN,NaN,NaN,NaN,NaN,0,0,4,NaN,NaN,NaN,vertical,horizontal,vertical,none,none,none
1d,2,100205,3,46,174,19,M,NA,constant,homogeneous,5,absent,0.758542060852051,1,horizontal,horizontal,1,0.658822402587304,red,2,NaN,1053.60308331891,573.345241866748,NaN,NaN,903.717843984329,832.954091698863,1053.60308331891,573.345241866748,853.017481158529,350.57236181288,579.163522034968,472.5,610.498069503264,770.628304621509,NaN,NaN,0,4,0,0,0,NaN,horizontal,horizontal,vertical,horizontal,horizontal,none
1d,2,100205,3,47,175,19,M,NA,constant,homogeneous,5,present,0.618839025497437,1,vertical,vertical,1,0.847054090866676,red,2,5,1038.06300875679,691.383827134052,553.688914296288,665.998856501143,786.654331158049,854.650531362416,1038.06300875679,691.383827134052,960.476699717708,401.827779828472,661.117046071168,386.139005173917,553.688914296288,665.998856501143,NaN,NaN,0,4,0,0,0,NaN,horizontal,vertical,horizontal,vertical,vertical,none
1d,2,100205,3,48,176,19,M,NA,constant,homogeneous,4,absent,0.555305004119873,1,horizontal,horizontal,1,0.799996168796833,red,4,NaN,545.621167183745,617.787900804752,NaN,NaN,817.787900804752,854.378832816255,1054.37883281626,582.212099195248,782.212099195248,345.621167183745,545.621167183745,617.787900804752,NaN,NaN,NaN,NaN,0,0,0,4,NaN,NaN,vertical,vertical,horizontal,horizontal,none,none
1d,2,100205,3,49,177,19,M,NA,constant,homogeneous,6,absent,0.96998405456543,1,horizontal,horizontal,1,0.76470272724445,red,4,NaN,919.715248510402,374.848363820974,NaN,NaN,680.284751489598,825.151636179026,935.129412379467,816.252264519889,1054.84466088987,591.100628340862,919.715248510402,374.848363820974,664.870587620533,383.747735480111,545.155339110131,608.899371659138,0,0,0,4,0,0,horizontal,horizontal,horizontal,horizontal,vertical,vertical
1d,2,100205,3,50,178,19,M,NA,constant,homogeneous,6,present,0.596812009811401,1,vertical,vertical,1,0.964698896041283,red,6,3,560.378381699593,687.215136548046,1039.62161830041,512.784863451954,755.719714694933,851.125977018113,995.341332995339,763.910840470068,1039.62161830041,512.784863451954,844.280285305067,348.874022981887,604.658667004661,436.089159529932,560.378381699593,687.215136548046,0,0,0,0,0,4,vertical,vertical,vertical,vertical,horizontal,vertical
1d,2,100205,3,51,179,19,M,NA,constant,homogeneous,3,absent,0.588424921035767,1,horizontal,horizontal,1,0.976463376558744,red,1,NaN,831.076682568313,853.099268668537,NaN,NaN,831.076682568313,853.099268668537,1003.65205506206,446.537169096228,565.271262369628,500.363562235235,NaN,NaN,NaN,NaN,NaN,NaN,4,0,0,NaN,NaN,NaN,horizontal,horizontal,vertical,none,none,none
1d,2,100205,3,52,180,19,M,NA,constant,homogeneous,3,absent,0.532883167266846,1,horizontal,horizontal,1,0.623528961034922,red,2,NaN,1023.02802532055,723.626453162816,NaN,NaN,581.422338320961,731.334709102064,1023.02802532055,723.626453162816,795.549636358493,345.03883773512,NaN,NaN,NaN,NaN,NaN,NaN,0,4,0,NaN,NaN,NaN,horizontal,horizontal,vertical,none,none,none
1d,2,100205,3,53,181,19,M,NA,constant,homogeneous,6,present,0.768857955932617,1,vertical,vertical,1,0.647057922069843,red,4,2,729.712474266665,354.878267535729,1047.42541020038,661.690083377915,870.287525733335,845.121732464271,1047.42541020038,661.690083377915,977.137884467044,416.568350913644,729.712474266665,354.878267535729,552.574589799621,538.309916622085,622.862115532956,783.431649086356,0,0,0,4,0,0,horizontal,vertical,horizontal,vertical,horizontal,horizontal
1d,2,100205,3,54,182,19,M,NA,constant,homogeneous,5,absent,0.617696046829224,1,vertical,vertical,1,0.670586883104764,red,4,NaN,795.549636358493,345.03883773512,NaN,NaN,653.738008730483,808.883771293693,953.462830903772,803.65205506206,1041.10723677783,516.980120613425,795.549636358493,345.03883773512,556.142287229426,525.445215295702,NaN,NaN,0,0,0,4,0,NaN,horizontal,horizontal,vertical,vertical,vertical,none
1d,2,100205,3,55,183,19,M,NA,constant,homogeneous,4,present,0.762659072875977,1,horizontal,horizontal,1,0.623528961034922,red,2,1,1053.60308331891,573.345241866748,826.654758133252,853.60308331891,826.654758133252,853.60308331891,1053.60308331891,573.345241866748,773.345241866748,346.39691668109,546.39691668109,626.654758133252,NaN,NaN,NaN,NaN,0,4,0,0,NaN,NaN,vertical,horizontal,vertical,vertical,none,none
1d,2,100205,3,56,184,19,M,NA,constant,homogeneous,6,present,0.686376810073853,1,horizontal,horizontal,1,0.623528961034922,red,1,4,795.549636358493,854.96116226488,804.450363641507,345.03883773512,795.549636358493,854.96116226488,1018.57766167904,731.334709102064,1023.02802532055,476.373546837184,804.450363641507,345.03883773512,581.422338320961,468.665290897936,576.971974679454,723.626453162816,4,0,0,0,0,0,horizontal,vertical,vertical,horizontal,vertical,horizontal
1d,2,100205,3,57,185,19,M,NA,constant,homogeneous,5,absent,0.709918022155762,1,vertical,vertical,1,0.882347532419058,red,4,NaN,610.498069503264,429.371695378491,NaN,NaN,853.017481158529,849.42763818712,1053.60308331891,626.654758133252,903.717843984329,367.045908301137,610.498069503264,429.371695378491,579.163522034968,727.5,NaN,NaN,0,0,0,4,0,NaN,vertical,horizontal,vertical,vertical,horizontal,none
1d,2,100205,3,58,186,19,M,NA,constant,homogeneous,3,present,0.690284013748169,1,horizontal,horizontal,1,0.694115844139686,red,3,2,729.712474266665,354.878267535729,1047.42541020038,661.690083377915,622.862115532956,783.431649086356,1047.42541020038,661.690083377915,729.712474266665,354.878267535729,NaN,NaN,NaN,NaN,NaN,NaN,0,0,4,NaN,NaN,NaN,horizontal,vertical,horizontal,none,none,none
1d,2,100205,3,59,187,19,M,NA,constant,homogeneous,6,present,0.690792798995972,1,horizontal,horizontal,1,0.729409285692068,red,1,4,676.373546837184,823.028025320546,923.626453162816,376.971974679454,676.373546837184,823.028025320546,931.334709102064,818.577661679039,1054.96116226488,595.549636358493,923.626453162816,376.971974679454,668.665290897936,381.422338320961,545.03883773512,604.450363641507,4,0,0,0,0,0,horizontal,vertical,vertical,horizontal,vertical,horizontal
1d,2,100205,3,60,188,19,M,NA,constant,homogeneous,4,absent,0.692710876464844,1,vertical,vertical,1,0.6,red,1,NaN,960.476699717708,798.172220171528,NaN,NaN,960.476699717708,798.172220171528,998.172220171528,439.523300282291,639.523300282292,401.827779828472,601.827779828472,760.476699717708,NaN,NaN,NaN,NaN,4,0,0,0,NaN,NaN,vertical,vertical,vertical,horizontal,none,none
1d,2,100205,3,61,189,19,M,NA,constant,homogeneous,5,present,0.582983016967773,1,horizontal,horizontal,1,0.811760649314293,red,3,1,839.890788585259,348.13947314824,915.767577433584,827.206663668034,915.767577433584,827.206663668034,1051.86052685176,560.109211414741,839.890788585259,348.13947314824,572.793336331966,484.232422566416,619.68777079743,780.31222920257,NaN,NaN,0,0,4,0,0,NaN,horizontal,horizontal,horizontal,horizontal,horizontal,none
1d,2,100205,3,62,190,19,M,NA,constant,homogeneous,5,absent,0.683371782302856,1,vertical,vertical,1,0.623528961034922,red,5,NaN,545.970351986605,577.775285599347,NaN,NaN,700.363562235235,834.728737630372,992.450942956807,767.295052392579,1018.57766167904,468.665290897936,742.637481142314,351.535633479765,545.970351986605,577.775285599347,NaN,NaN,0,0,0,0,4,NaN,vertical,vertical,horizontal,horizontal,vertical,none
1d,2,100205,3,63,191,19,M,NA,constant,homogeneous,4,present,0.914947032928467,1,vertical,vertical,1,0.882347532419058,red,3,1,688.215357568785,370.807518193712,911.784642431215,829.192481806288,911.784642431215,829.192481806288,1029.19248180629,488.215357568785,688.215357568785,370.807518193712,570.807518193712,711.784642431215,NaN,NaN,NaN,NaN,0,0,4,0,NaN,NaN,horizontal,horizontal,vertical,horizontal,none,none
1d,2,100205,3,64,192,19,M,NA,constant,homogeneous,5,present,0.594027996063232,1,horizontal,horizontal,1,1.03528577914605,red,2,3,956.993676208043,800.942742169714,1039.62161830041,512.784863451954,657.405809614959,811.404581001536,956.993676208043,800.942742169714,1039.62161830041,512.784863451954,791.100628340862,345.155339110131,554.878267535729,529.712474266665,NaN,NaN,0,4,0,0,0,NaN,vertical,horizontal,horizontal,vertical,vertical,none
1d,2,100205,4,1,193,19,M,NA,constant,homogeneous,5,absent,1.54324698448181,1,vertical,vertical,1,0.694115844139686,red,5,NaN,646.537169096228,803.65205506206,NaN,NaN,946.261991269517,808.883771293693,1043.85771277057,525.445215295702,804.450363641507,345.03883773512,558.892763222174,516.980120613425,646.537169096228,803.65205506206,NaN,NaN,0,0,0,0,4,NaN,vertical,horizontal,horizontal,vertical,vertical,none
1d,2,100205,4,2,194,19,M,NA,constant,homogeneous,4,absent,0.556469917297363,1,horizontal,horizontal,1,0.905876493453979,red,2,NaN,1043.85771277057,525.445215295702,NaN,NaN,874.554784704298,843.857712770574,1043.85771277057,525.445215295702,725.445215295702,356.142287229426,556.142287229426,674.554784704298,NaN,NaN,NaN,NaN,0,4,0,0,NaN,NaN,vertical,horizontal,horizontal,horizontal,none,none
1d,2,100205,4,3,195,19,M,NA,constant,homogeneous,3,absent,0.661498069763184,1,vertical,vertical,1,0.882347532419058,red,1,NaN,883.019879386575,841.107236777826,NaN,NaN,883.019879386575,841.107236777826,967.295052392579,407.549057043193,549.685068220846,551.343706178981,NaN,NaN,NaN,NaN,NaN,NaN,4,0,0,NaN,NaN,NaN,vertical,horizontal,horizontal,none,none,none
1d,2,100205,4,4,196,19,M,NA,constant,homogeneous,4,absent,0.535387992858887,1,vertical,vertical,1,1.02352129862859,red,3,NaN,899.636437764765,365.271262369628,NaN,NaN,700.363562235235,834.728737630372,1034.72873763037,699.636437764765,899.636437764765,365.271262369628,565.271262369628,500.363562235235,NaN,NaN,NaN,NaN,0,0,4,0,NaN,NaN,vertical,vertical,vertical,vertical,none,none
1d,2,100205,4,5,197,19,M,NA,constant,homogeneous,6,present,0.614480972290039,1,horizontal,horizontal,1,0.611764480517461,red,4,1,848.656293821019,349.685068220846,751.343706178981,850.314931779154,751.343706178981,850.314931779154,992.450942956807,767.295052392579,1041.10723677783,516.980120613425,848.656293821019,349.685068220846,607.549057043193,432.704947607421,558.892763222174,683.019879386575,0,0,0,4,0,0,horizontal,vertical,horizontal,horizontal,vertical,vertical
1d,2,100205,4,6,198,19,M,NA,constant,homogeneous,4,present,0.544897794723511,1,vertical,vertical,1,0.694115844139686,red,4,3,572.793336331966,484.232422566416,915.767577433584,372.793336331966,684.232422566416,827.206663668034,1027.20666366803,715.767577433584,915.767577433584,372.793336331966,572.793336331966,484.232422566416,NaN,NaN,NaN,NaN,0,0,0,4,NaN,NaN,vertical,vertical,vertical,vertical,none,none
1d,2,100205,4,7,199,19,M,NA,constant,homogeneous,5,absent,0.676526069641113,1,vertical,vertical,1,0.835289610349215,red,5,NaN,560.378381699593,687.215136548046,NaN,NaN,808.899371659138,854.844660889869,1045.12173246427,670.287525733335,942.594190385041,388.595418998464,643.006323791957,399.057257830286,560.378381699593,687.215136548046,NaN,NaN,0,0,0,0,4,NaN,horizontal,vertical,vertical,vertical,vertical,none
1d,2,100205,4,8,200,19,M,NA,constant,homogeneous,4,present,0.527070045471191,1,horizontal,horizontal,1,0.635293441552382,red,4,2,561.936991243214,508.616172865948,1038.06300875679,691.383827134052,708.616172865948,838.063008756786,1038.06300875679,691.383827134052,891.383827134052,361.936991243214,561.936991243214,508.616172865948,NaN,NaN,NaN,NaN,0,0,0,4,NaN,NaN,horizontal,horizontal,vertical,horizontal,none,none
1d,2,100205,4,9,201,19,M,NA,constant,homogeneous,5,present,0.725090980529785,1,horizontal,horizontal,1,0.776467207761911,red,3,4,831.076682568313,346.900731331463,568.891514305654,492.232343256122,923.626453162816,823.028025320546,1050.31493177915,551.343706178981,831.076682568313,346.900731331463,568.891514305654,492.232343256122,626.090418184063,786.495193912888,NaN,NaN,0,0,4,0,0,NaN,horizontal,horizontal,horizontal,vertical,vertical,none
1d,2,100205,4,10,202,19,M,NA,constant,homogeneous,5,absent,0.584897041320801,1,vertical,vertical,1,0.658822402587304,red,3,NaN,891.383827134052,361.936991243214,NaN,NaN,865.998856501143,846.311085703712,1054.65053136242,613.345668841951,891.383827134052,361.936991243214,601.827779828472,439.523300282291,586.139005173917,738.882953928832,NaN,NaN,0,0,4,0,0,NaN,vertical,horizontal,vertical,vertical,vertical,none
1d,2,100205,4,11,203,19,M,NA,constant,homogeneous,5,absent,0.658374071121216,1,horizontal,horizontal,1,0.682351363622225,red,5,NaN,588.595418998464,742.594190385041,NaN,NaN,870.287525733335,845.121732464271,1054.84466088987,608.899371659138,887.215136548046,360.378381699593,599.057257830286,443.006323791957,588.595418998464,742.594190385041,NaN,NaN,0,0,0,0,4,NaN,vertical,vertical,vertical,horizontal,horizontal,none
1d,2,100205,4,12,204,19,M,NA,constant,homogeneous,5,absent,0.522496938705444,1,horizontal,horizontal,1,0.729409285692068,red,3,NaN,808.899371659138,345.155339110131,NaN,NaN,942.594190385041,811.404581001536,1045.12173246427,529.712474266665,808.899371659138,345.155339110131,560.378381699593,512.784863451954,643.006323791957,800.942742169714,NaN,NaN,0,0,4,0,0,NaN,horizontal,vertical,horizontal,vertical,vertical,none
1d,2,100205,4,13,205,19,M,NA,constant,homogeneous,6,present,0.667943000793457,1,horizontal,horizontal,1,0.941169935006362,red,6,3,622.862115532956,783.431649086356,977.137884467044,416.568350913644,870.287525733335,845.121732464271,1047.42541020038,661.690083377915,977.137884467044,416.568350913644,729.712474266665,354.878267535729,552.574589799621,538.309916622085,622.862115532956,783.431649086356,0,0,0,0,0,4,horizontal,horizontal,vertical,horizontal,vertical,horizontal
1d,2,100205,4,14,206,19,M,NA,constant,homogeneous,3,absent,0.577996969223022,1,vertical,vertical,1,0.635293441552382,red,2,NaN,1046.31108570371,665.998856501143,NaN,NaN,619.68777079743,780.31222920257,1046.31108570371,665.998856501143,734.001143498857,353.688914296288,NaN,NaN,NaN,NaN,NaN,NaN,0,4,0,NaN,NaN,NaN,horizontal,vertical,vertical,none,none,none
1d,2,100205,4,15,207,19,M,NA,constant,homogeneous,4,absent,0.549849987030029,1,vertical,vertical,1,0.799996168796833,red,3,NaN,923.626453162816,376.971974679454,NaN,NaN,676.373546837184,823.028025320546,1023.02802532055,723.626453162816,923.626453162816,376.971974679454,576.971974679454,476.373546837184,NaN,NaN,NaN,NaN,0,0,4,0,NaN,NaN,vertical,horizontal,vertical,vertical,none,none
1d,2,100205,4,16,208,19,M,NA,constant,homogeneous,3,absent,0.569159984588623,1,horizontal,horizontal,1,0.611764480517461,red,3,NaN,610.498069503264,429.371695378491,NaN,NaN,746.982518841471,849.42763818712,1042.51941165526,521.200666434388,610.498069503264,429.371695378491,NaN,NaN,NaN,NaN,NaN,NaN,0,0,4,NaN,NaN,NaN,vertical,horizontal,horizontal,none,none,none
1d,2,100205,4,17,209,19,M,NA,constant,homogeneous,4,absent,0.513171911239624,1,vertical,vertical,1,0.823525129831754,red,2,NaN,1045.12173246427,670.287525733335,NaN,NaN,729.712474266665,845.121732464271,1045.12173246427,670.287525733335,870.287525733335,354.878267535729,554.878267535729,529.712474266665,NaN,NaN,NaN,NaN,0,4,0,0,NaN,NaN,vertical,vertical,vertical,vertical,none,none
1d,2,100205,4,18,210,19,M,NA,constant,homogeneous,3,absent,0.64879298210144,1,horizontal,horizontal,1,1.05881474018097,red,2,NaN,992.450942956807,432.704947607421,NaN,NaN,848.656293821019,850.314931779154,992.450942956807,432.704947607421,558.892763222174,516.980120613425,NaN,NaN,NaN,NaN,NaN,NaN,0,4,0,NaN,NaN,NaN,vertical,horizontal,horizontal,none,none,none
1d,2,100205,4,19,211,19,M,NA,constant,homogeneous,6,present,0.679450988769531,1,vertical,vertical,1,1.07057922069843,red,5,3,546.900731331463,568.923317431687,953.462830903772,396.34794493794,899.636437764765,834.728737630372,1053.09926866854,631.076682568313,953.462830903772,396.34794493794,700.363562235235,365.271262369628,546.900731331463,568.923317431687,646.537169096228,803.65205506206,0,0,0,0,4,0,horizontal,horizontal,vertical,vertical,vertical,vertical
1d,2,100205,4,20,212,19,M,NA,constant,homogeneous,5,present,0.830003976821899,1,horizontal,horizontal,1,0.847054090866676,red,1,4,817.787900804752,854.378832816255,636.089159529932,404.658667004661,817.787900804752,854.378832816255,1047.42541020038,661.690083377915,935.129412379467,383.747735480111,636.089159529932,404.658667004661,563.568117085469,695.524681321058,NaN,NaN,4,0,0,0,0,NaN,horizontal,horizontal,vertical,horizontal,horizontal,none
1d,2,100205,4,21,213,19,M,NA,constant,homogeneous,6,present,0.824450969696045,1,vertical,vertical,1,0.882347532419058,red,2,6,1018.57766167904,731.334709102064,576.971974679454,723.626453162816,795.549636358493,854.96116226488,1018.57766167904,731.334709102064,1023.02802532055,476.373546837184,804.450363641507,345.03883773512,581.422338320961,468.665290897936,576.971974679454,723.626453162816,0,4,0,0,0,0,horizontal,vertical,vertical,horizontal,vertical,vertical
1d,2,100205,4,22,214,19,M,NA,constant,homogeneous,5,present,0.815066814422607,1,horizontal,horizontal,1,1.09410818173335,red,1,3,946.261991269517,808.883771293693,804.450363641507,345.03883773512,946.261991269517,808.883771293693,1043.85771277057,525.445215295702,804.450363641507,345.03883773512,558.892763222174,516.980120613425,646.537169096228,803.65205506206,NaN,NaN,4,0,0,0,0,NaN,horizontal,vertical,horizontal,horizontal,vertical,none
1d,2,100205,4,23,215,19,M,NA,constant,homogeneous,5,absent,0.544986963272095,1,vertical,vertical,1,0.870583051901597,red,5,NaN,549.685068220846,551.343706178981,NaN,NaN,676.373546837184,823.028025320546,973.909581815937,786.495193912888,1031.10848569435,492.232343256122,768.923317431687,346.900731331463,549.685068220846,551.343706178981,NaN,NaN,0,0,0,0,4,NaN,horizontal,vertical,horizontal,horizontal,vertical,none
1d,2,100205,4,24,216,19,M,NA,constant,homogeneous,3,absent,0.496541976928711,1,horizontal,horizontal,1,0.823525129831754,red,1,NaN,970.628304621509,789.501930496736,NaN,NaN,970.628304621509,789.501930496736,878.799333565612,357.480588344736,550.57236181288,653.017481158529,NaN,NaN,NaN,NaN,NaN,NaN,4,0,0,NaN,NaN,NaN,horizontal,horizontal,horizontal,none,none,none
1d,2,100205,4,25,217,19,M,NA,constant,homogeneous,6,present,0.741773128509521,1,vertical,vertical,1,0.75293824672699,red,2,6,1054.84466088987,608.899371659138,664.870587620533,816.252264519889,919.715248510402,825.151636179026,1054.84466088987,608.899371659138,935.129412379467,383.747735480111,680.284751489598,374.848363820974,545.155339110131,591.100628340862,664.870587620533,816.252264519889,0,4,0,0,0,0,vertical,vertical,vertical,vertical,horizontal,vertical
1d,2,100205,4,26,218,19,M,NA,constant,homogeneous,3,absent,0.69752311706543,1,vertical,vertical,1,0.635293441552382,red,1,NaN,853.017481158529,849.42763818712,NaN,NaN,853.017481158529,849.42763818712,989.501930496736,429.371695378491,557.480588344736,521.200666434388,NaN,NaN,NaN,NaN,NaN,NaN,4,0,0,NaN,NaN,NaN,vertical,vertical,vertical,none,none,none
1d,2,100205,4,27,219,19,M,NA,constant,homogeneous,4,present,0.595462083816528,1,horizontal,horizontal,1,1.01175681811113,red,1,3,688.215357568785,829.192481806288,911.784642431215,370.807518193712,688.215357568785,829.192481806288,1029.19248180629,711.784642431215,911.784642431215,370.807518193712,570.807518193712,488.215357568785,NaN,NaN,NaN,NaN,4,0,0,0,NaN,NaN,horizontal,horizontal,horizontal,vertical,none,none
1d,2,100205,4,28,220,19,M,NA,constant,homogeneous,6,absent,0.724493980407715,1,vertical,vertical,1,0.823525129831754,red,3,NaN,1043.85771277057,525.445215295702,NaN,NaN,742.637481142314,848.464366520235,986.495193912888,773.909581815937,1043.85771277057,525.445215295702,857.362518857686,351.535633479765,613.504806087112,426.090418184063,556.142287229426,674.554784704298,0,0,4,0,0,0,vertical,vertical,vertical,horizontal,horizontal,vertical
1d,2,100205,4,29,221,19,M,NA,constant,homogeneous,4,absent,0.632287979125977,1,horizontal,horizontal,1,0.658822402587304,red,3,NaN,895.524681321058,363.568117085469,NaN,NaN,704.475318678942,836.431882914531,1036.43188291453,695.524681321058,895.524681321058,363.568117085469,563.568117085469,504.475318678942,NaN,NaN,NaN,NaN,0,0,4,0,NaN,NaN,horizontal,vertical,horizontal,vertical,none,none
1d,2,100205,4,30,222,19,M,NA,constant,homogeneous,6,absent,0.7654869556427,1,horizontal,horizontal,1,0.623528961034922,red,3,NaN,1013.86099482608,461.117046071168,NaN,NaN,813.345668841951,854.650531362416,1027.20666366803,715.767577433584,1013.86099482608,461.117046071168,786.654331158049,345.349468637584,572.793336331966,484.232422566416,586.139005173917,738.882953928832,0,0,4,0,0,0,vertical,horizontal,horizontal,horizontal,vertical,vertical
1d,2,100205,4,31,223,19,M,NA,constant,homogeneous,5,present,0.616338014602661,1,vertical,vertical,1,0.76470272724445,red,1,4,716.980120613425,841.107236777826,725.445215295702,356.142287229426,716.980120613425,841.107236777826,1003.65205506206,753.462830903772,1008.88377129369,453.738008730483,725.445215295702,356.142287229426,545.03883773512,595.549636358493,NaN,NaN,4,0,0,0,0,NaN,vertical,vertical,horizontal,vertical,horizontal,none
1d,2,100205,4,32,224,19,M,NA,constant,homogeneous,4,present,0.499082803726196,1,horizontal,horizontal,1,0.91764097397144,red,2,3,1041.10723677783,683.019879386575,883.019879386575,358.892763222174,716.980120613425,841.107236777826,1041.10723677783,683.019879386575,883.019879386575,358.892763222174,558.892763222174,516.980120613425,NaN,NaN,NaN,NaN,0,4,0,0,NaN,NaN,horizontal,horizontal,horizontal,vertical,none,none
1d,2,100205,4,33,225,19,M,NA,constant,homogeneous,3,present,0.579140901565552,1,vertical,vertical,1,1.09410818173335,red,3,2,565.271262369628,699.636437764765,831.076682568313,346.900731331463,1003.65205506206,753.462830903772,831.076682568313,346.900731331463,565.271262369628,699.636437764765,NaN,NaN,NaN,NaN,NaN,NaN,0,0,4,NaN,NaN,NaN,horizontal,vertical,vertical,none,none,none
1d,2,100205,4,34,226,19,M,NA,constant,homogeneous,4,absent,0.642653942108154,1,horizontal,horizontal,1,1.01175681811113,red,2,NaN,1016.25226451989,735.129412379467,NaN,NaN,664.870587620533,816.252264519889,1016.25226451989,735.129412379467,935.129412379467,383.747735480111,583.747735480111,464.870587620533,NaN,NaN,NaN,NaN,0,4,0,0,NaN,NaN,horizontal,horizontal,horizontal,horizontal,none,none
1d,2,100205,4,35,227,19,M,NA,constant,homogeneous,3,absent,0.578344106674194,1,vertical,vertical,1,0.905876493453979,red,3,NaN,570.807518193712,711.784642431215,NaN,NaN,1011.40458100154,742.594190385041,817.787900804752,345.621167183745,570.807518193712,711.784642431215,NaN,NaN,NaN,NaN,NaN,NaN,0,0,4,NaN,NaN,NaN,vertical,horizontal,vertical,none,none,none
1d,2,100205,4,36,228,19,M,NA,constant,homogeneous,3,present,0.506752014160156,1,horizontal,horizontal,1,1.03528577914605,red,2,3,1049.42763818712,653.017481158529,721.200666434388,357.480588344736,629.371695378491,789.501930496736,1049.42763818712,653.017481158529,721.200666434388,357.480588344736,NaN,NaN,NaN,NaN,NaN,NaN,0,4,0,NaN,NaN,NaN,horizontal,horizontal,horizontal,none,none,none
1d,2,100205,4,37,229,19,M,NA,constant,homogeneous,3,present,0.78726601600647,1,vertical,vertical,1,0.705880324657147,red,3,2,688.215357568785,370.807518193712,1054.37883281626,617.787900804752,657.405809614959,811.404581001536,1054.37883281626,617.787900804752,688.215357568785,370.807518193712,NaN,NaN,NaN,NaN,NaN,NaN,0,0,4,NaN,NaN,NaN,vertical,vertical,vertical,none,none,none
1d,2,100205,4,38,230,19,M,NA,constant,homogeneous,6,absent,0.643837928771973,1,vertical,vertical,1,0.623528961034922,red,5,NaN,599.057257830286,443.006323791957,NaN,NaN,764.510859255183,852.518357529101,1000.94274216971,756.993676208043,1036.43188291453,504.475318678942,835.489140744817,347.4816424709,599.057257830286,443.006323791957,563.568117085469,695.524681321058,0,0,0,0,4,0,horizontal,horizontal,vertical,horizontal,vertical,horizontal
1d,2,100205,4,39,231,19,M,NA,constant,homogeneous,4,absent,0.588870048522949,1,vertical,vertical,1,0.799996168796833,red,2,NaN,1053.09926866854,631.076682568313,NaN,NaN,768.923317431687,853.099268668537,1053.09926866854,631.076682568313,831.076682568313,346.900731331463,546.900731331463,568.923317431687,NaN,NaN,NaN,NaN,0,4,0,0,NaN,NaN,horizontal,vertical,horizontal,horizontal,none,none
1d,2,100205,4,40,232,19,M,NA,constant,homogeneous,6,present,0.461408138275146,1,vertical,vertical,1,0.823525129831754,red,4,6,764.510859255183,347.4816424709,599.057257830286,756.993676208043,835.489140744817,852.518357529101,1036.43188291453,695.524681321058,1000.94274216971,443.006323791957,764.510859255183,347.4816424709,563.568117085469,504.475318678942,599.057257830286,756.993676208043,0,0,0,4,0,0,vertical,vertical,vertical,vertical,vertical,horizontal
1d,2,100205,4,41,233,19,M,NA,constant,homogeneous,3,present,0.767632961273193,1,horizontal,horizontal,1,1.04705025966351,red,1,3,636.089159529932,795.341332995339,712.784863451954,360.378381699593,636.089159529932,795.341332995339,1051.12597701811,644.280285305067,712.784863451954,360.378381699593,NaN,NaN,NaN,NaN,NaN,NaN,4,0,0,NaN,NaN,NaN,horizontal,vertical,vertical,none,none,none
1d,2,100205,4,42,234,19,M,NA,constant,homogeneous,3,present,0.615725994110107,1,horizontal,horizontal,1,1.02352129862859,red,2,1,1047.42541020038,538.309916622085,729.712474266665,845.121732464271,729.712474266665,845.121732464271,1047.42541020038,538.309916622085,622.862115532956,416.568350913644,NaN,NaN,NaN,NaN,NaN,NaN,0,4,0,NaN,NaN,NaN,horizontal,horizontal,horizontal,none,none,none
1d,2,100205,4,43,235,19,M,NA,constant,homogeneous,6,absent,0.593232154846191,1,vertical,vertical,1,1.04705025966351,red,5,NaN,572.793336331966,484.232422566416,NaN,NaN,813.345668841951,854.650531362416,1027.20666366803,715.767577433584,1013.86099482608,461.117046071168,786.654331158049,345.349468637584,572.793336331966,484.232422566416,586.139005173917,738.882953928832,0,0,0,0,4,0,horizontal,vertical,horizontal,vertical,vertical,vertical
1d,2,100205,4,44,236,19,M,NA,constant,homogeneous,3,present,0.663431882858276,1,vertical,vertical,1,0.705880324657147,red,2,1,1016.25226451989,464.870587620533,808.899371659138,854.844660889869,808.899371659138,854.844660889869,1016.25226451989,464.870587620533,574.848363820974,480.284751489598,NaN,NaN,NaN,NaN,NaN,NaN,0,4,0,NaN,NaN,NaN,vertical,vertical,horizontal,none,none,none
1d,2,100205,4,45,237,19,M,NA,constant,homogeneous,3,absent,0.652074813842773,1,horizontal,horizontal,1,0.76470272724445,red,1,NaN,986.495193912888,773.909581815937,NaN,NaN,986.495193912888,773.909581815937,857.362518857686,351.535633479765,556.142287229426,674.554784704298,NaN,NaN,NaN,NaN,NaN,NaN,4,0,0,NaN,NaN,NaN,horizontal,vertical,vertical,none,none,none
1d,2,100205,4,46,238,19,M,NA,constant,homogeneous,6,absent,0.752456903457642,1,horizontal,horizontal,1,0.952934415523822,red,3,NaN,1051.86052685176,560.109211414741,NaN,NaN,708.616172865948,838.063008756786,960.476699717708,798.172220171528,1051.86052685176,560.109211414741,891.383827134052,361.936991243214,639.523300282292,401.827779828472,548.13947314824,639.890788585259,0,0,4,0,0,0,vertical,horizontal,horizontal,horizontal,vertical,horizontal
1d,2,100205,4,47,239,19,M,NA,constant,homogeneous,6,present,0.553868055343628,1,horizontal,horizontal,1,0.905876493453979,red,5,3,604.658667004661,436.089159529932,1039.62161830041,512.784863451954,755.719714694933,851.125977018113,995.341332995339,763.910840470068,1039.62161830041,512.784863451954,844.280285305067,348.874022981887,604.658667004661,436.089159529932,560.378381699593,687.215136548046,0,0,0,0,4,0,horizontal,horizontal,vertical,vertical,horizontal,vertical
1d,2,100205,4,48,240,19,M,NA,constant,homogeneous,5,present,0.558593988418579,1,vertical,vertical,1,0.870583051901597,red,2,5,1018.57766167904,731.334709102064,545.970351986605,622.224714400653,742.637481142314,848.464366520235,1018.57766167904,731.334709102064,992.450942956807,432.704947607421,700.363562235235,365.271262369628,545.970351986605,622.224714400653,NaN,NaN,0,4,0,0,0,NaN,vertical,vertical,vertical,vertical,vertical,none
1d,2,100205,4,49,241,19,M,NA,constant,homogeneous,5,present,0.729342937469482,1,horizontal,horizontal,1,0.976463376558744,red,2,1,956.993676208043,800.942742169714,657.405809614959,811.404581001536,657.405809614959,811.404581001536,956.993676208043,800.942742169714,1039.62161830041,512.784863451954,791.100628340862,345.155339110131,554.878267535729,529.712474266665,NaN,NaN,0,4,0,0,0,NaN,vertical,horizontal,vertical,horizontal,vertical,none
1d,2,100205,4,50,242,19,M,NA,constant,homogeneous,5,present,0.587862968444824,1,vertical,vertical,1,0.776467207761911,red,2,3,1042.51941165526,678.799333565612,949.885239334581,393.700666434388,800,855,1042.51941165526,678.799333565612,949.885239334581,393.700666434388,650.114760665419,393.700666434388,557.480588344736,678.799333565612,NaN,NaN,0,4,0,0,0,NaN,horizontal,vertical,horizontal,vertical,vertical,none
