experiment,subject,uniqueID,block,trial,trial_cumulative,age,gender,color_cond_blocking,color_history,shape_type,set_size,distractor,rt,acc,target_orient,response_key,response_made,iti,target_color,target_item,distractor_item,target_X,target_Y,distractor_X,distractor_Y,item1_X,item1_Y,item2_X,item2_Y,item3_X,item3_Y,item4_X,item4_Y,item5_X,item5_Y,item6_X,item6_Y,item1_shape,item2_shape,item3_shape,item4_shape,item5_shape,item6_shape,item1_line,item2_line,item3_line,item4_line,item5_line,item6_line
1d,3,100209,1,1,1,21,F,NA,constant,homogeneous,5,absent,1.07107305526733,1,vertical,vertical,1,1.0941004647149,green,3,NaN,931.334709102064,381.422338320961,NaN,NaN,822.224714400653,854.029648013395,1048.46436652023,657.362518857686,931.334709102064,381.422338320961,632.704947607421,407.549057043193,565.271262369628,699.636437764765,NaN,NaN,0,0,4,0,0,NaN,horizontal,horizontal,vertical,horizontal,horizontal,none
1d,3,100209,1,2,2,21,F,NA,constant,homogeneous,5,absent,0.639929056167603,1,vertical,vertical,1,0.96469320014671,green,1,NaN,768.923317431687,853.099268668537,NaN,NaN,768.923317431687,853.099268668537,1031.10848569435,707.767656743878,973.909581815937,413.504806087112,676.373546837184,376.971974679454,549.685068220846,648.656293821019,NaN,NaN,4,0,0,0,0,NaN,vertical,horizontal,vertical,vertical,vertical,none
1d,3,100209,1,3,3,21,F,NA,constant,homogeneous,4,present,1.03541898727417,1,horizontal,horizontal,1,0.917636013031006,green,2,1,983.431649086356,422.862115532956,977.137884467044,783.431649086356,977.137884467044,783.431649086356,983.431649086356,422.862115532956,622.862115532956,416.568350913644,616.568350913644,777.137884467044,NaN,NaN,NaN,NaN,0,4,0,0,NaN,NaN,horizontal,horizontal,vertical,horizontal,none,none
1d,3,100209,1,4,4,21,F,NA,constant,homogeneous,3,present,0.815165042877197,1,horizontal,horizontal,1,0.764700154904966,green,3,2,760.109211414741,348.13947314824,1038.06300875679,691.383827134052,601.827779828472,760.476699717708,1038.06300875679,691.383827134052,760.109211414741,348.13947314824,NaN,NaN,NaN,NaN,NaN,NaN,0,0,4,NaN,NaN,NaN,horizontal,horizontal,horizontal,none,none,none
1d,3,100209,1,5,5,21,F,NA,constant,homogeneous,3,absent,0.978589057922363,1,horizontal,horizontal,1,0.741171561347114,green,1,NaN,588.595418998464,742.594190385041,NaN,NaN,588.595418998464,742.594190385041,1029.19248180629,711.784642431215,782.212099195248,345.621167183745,NaN,NaN,NaN,NaN,NaN,NaN,4,0,0,NaN,NaN,NaN,horizontal,vertical,horizontal,none,none,none
1d,3,100209,1,6,6,21,F,NA,constant,homogeneous,5,present,0.956140995025635,1,vertical,vertical,1,0.682350077452483,green,5,3,636.089159529932,795.341332995339,817.787900804752,345.621167183745,935.129412379467,816.252264519889,1047.42541020038,538.309916622085,817.787900804752,345.621167183745,563.568117085469,504.475318678942,636.089159529932,795.341332995339,NaN,NaN,0,0,0,0,4,NaN,horizontal,horizontal,vertical,horizontal,vertical,none
1d,3,100209,1,7,7,21,F,NA,constant,homogeneous,4,absent,1.11642503738403,1,vertical,vertical,1,0.658821483894631,green,4,NaN,574.848363820974,480.284751489598,NaN,NaN,680.284751489598,825.151636179026,1025.15163617903,719.715248510402,919.715248510402,374.848363820974,574.848363820974,480.284751489598,NaN,NaN,NaN,NaN,0,0,0,4,NaN,NaN,horizontal,vertical,horizontal,vertical,none,none
1d,3,100209,1,8,8,21,F,NA,constant,homogeneous,4,absent,1.5529990196228,1,horizontal,horizontal,1,0.882343122694227,green,1,NaN,813.345668841951,854.650531362416,NaN,NaN,813.345668841951,854.650531362416,1054.65053136242,586.654331158049,786.654331158049,345.349468637584,545.349468637584,613.345668841951,NaN,NaN,NaN,NaN,4,0,0,0,NaN,NaN,horizontal,horizontal,vertical,vertical,none,none
1d,3,100209,1,9,9,21,F,NA,constant,homogeneous,6,present,0.803735971450806,1,horizontal,horizontal,1,0.976457496925637,green,3,2,1031.10848569435,492.232343256122,1008.88377129369,746.261991269517,777.775285599347,854.029648013395,1008.88377129369,746.261991269517,1031.10848569435,492.232343256122,822.224714400653,345.970351986605,591.116228706307,453.738008730483,568.891514305654,707.767656743878,0,0,4,0,0,0,vertical,vertical,horizontal,vertical,vertical,horizontal
1d,3,100209,1,10,10,21,F,NA,constant,homogeneous,4,present,0.983466863632202,1,vertical,vertical,1,0.776464451683892,green,1,3,949.885239334581,806.299333565612,650.114760665419,393.700666434388,949.885239334581,806.299333565612,1006.29933356561,450.114760665419,650.114760665419,393.700666434388,593.700666434388,749.885239334581,NaN,NaN,NaN,NaN,4,0,0,0,NaN,NaN,vertical,horizontal,vertical,vertical,none,none
1d,3,100209,1,11,11,21,F,NA,constant,homogeneous,4,absent,0.609153985977173,1,vertical,vertical,1,0.682350077452483,green,3,NaN,826.654758133252,346.39691668109,NaN,NaN,773.345241866748,853.60308331891,1053.60308331891,626.654758133252,826.654758133252,346.39691668109,546.39691668109,573.345241866748,NaN,NaN,NaN,NaN,0,0,4,0,NaN,NaN,vertical,vertical,vertical,vertical,none,none
1d,3,100209,1,12,12,21,F,NA,constant,homogeneous,3,absent,0.802473068237305,0,vertical,horizontal,1,0.658821483894631,green,3,NaN,565.271262369628,699.636437764765,NaN,NaN,1003.65205506206,753.462830903772,831.076682568313,346.900731331463,565.271262369628,699.636437764765,NaN,NaN,NaN,NaN,NaN,NaN,0,0,4,NaN,NaN,NaN,horizontal,vertical,vertical,none,none,none
1d,3,100209,1,13,13,21,F,NA,constant,homogeneous,6,absent,1.15636420249939,1,horizontal,horizontal,1,1.08233616793597,green,1,NaN,760.109211414741,851.86052685176,NaN,NaN,760.109211414741,851.86052685176,998.172220171528,760.476699717708,1038.06300875679,508.616172865948,839.890788585259,348.13947314824,601.827779828472,439.523300282291,561.936991243214,691.383827134052,4,0,0,0,0,0,horizontal,horizontal,vertical,horizontal,horizontal,horizontal
1d,3,100209,1,14,14,21,F,NA,constant,homogeneous,5,absent,0.889386892318726,1,vertical,vertical,1,0.894107419473154,green,3,NaN,1031.10848569435,492.232343256122,NaN,NaN,676.373546837184,823.028025320546,973.909581815937,786.495193912888,1031.10848569435,492.232343256122,768.923317431687,346.900731331463,549.685068220846,551.343706178981,NaN,NaN,0,0,4,0,0,NaN,horizontal,vertical,vertical,vertical,horizontal,none
1d,3,100209,1,15,15,21,F,NA,constant,homogeneous,6,present,0.843459129333496,1,horizontal,horizontal,1,0.999986090483489,green,2,1,1034.72873763037,699.636437764765,831.076682568313,853.099268668537,831.076682568313,853.099268668537,1034.72873763037,699.636437764765,1003.65205506206,446.537169096228,768.923317431687,346.900731331463,565.271262369628,500.363562235235,596.34794493794,753.462830903772,0,4,0,0,0,0,vertical,horizontal,horizontal,vertical,horizontal,vertical
1d,3,100209,1,16,16,21,F,NA,constant,homogeneous,5,present,0.971185922622681,1,horizontal,horizontal,1,0.929400309809932,green,1,4,822.224714400653,854.029648013395,632.704947607421,407.549057043193,822.224714400653,854.029648013395,1048.46436652023,657.362518857686,931.334709102064,381.422338320961,632.704947607421,407.549057043193,565.271262369628,699.636437764765,NaN,NaN,4,0,0,0,0,NaN,horizontal,horizontal,horizontal,horizontal,horizontal,none
1d,3,100209,1,17,17,21,F,NA,constant,homogeneous,3,absent,1.57753705978394,1,horizontal,horizontal,1,0.75293585812604,green,3,NaN,664.870587620533,383.747735480111,NaN,NaN,680.284751489598,825.151636179026,1054.84466088987,591.100628340862,664.870587620533,383.747735480111,NaN,NaN,NaN,NaN,NaN,NaN,0,0,4,NaN,NaN,NaN,horizontal,vertical,horizontal,none,none,none
1d,3,100209,1,18,18,21,F,NA,constant,homogeneous,3,present,0.912292957305908,1,vertical,vertical,1,0.741171561347114,green,3,2,547.481642470899,564.510859255183,956.993676208043,399.057257830286,895.524681321058,836.431882914531,956.993676208043,399.057257830286,547.481642470899,564.510859255183,NaN,NaN,NaN,NaN,NaN,NaN,0,0,4,NaN,NaN,NaN,vertical,horizontal,vertical,none,none,none
1d,3,100209,1,19,19,21,F,NA,constant,homogeneous,6,present,1.21765208244324,0,vertical,horizontal,1,0.75293585812604,green,1,3,676.373546837184,823.028025320546,1054.96116226488,595.549636358493,676.373546837184,823.028025320546,931.334709102064,818.577661679039,1054.96116226488,595.549636358493,923.626453162816,376.971974679454,668.665290897936,381.422338320961,545.03883773512,604.450363641507,4,0,0,0,0,0,vertical,vertical,vertical,vertical,vertical,vertical
1d,3,100209,1,20,20,21,F,NA,constant,homogeneous,6,absent,0.871373891830444,0,vertical,horizontal,1,0.858814529136375,green,5,NaN,610.498069503264,429.371695378491,NaN,NaN,746.982518841471,849.42763818712,989.501930496736,770.628304621509,1042.51941165526,521.200666434388,853.017481158529,350.57236181288,610.498069503264,429.371695378491,557.480588344736,678.799333565612,0,0,0,0,4,0,vertical,vertical,vertical,vertical,vertical,vertical
1d,3,100209,1,21,21,21,F,NA,constant,homogeneous,6,present,NaN,0,horizontal,none,0,0.788228748462818,green,5,1,586.139005173917,461.117046071168,786.654331158049,854.650531362416,786.654331158049,854.650531362416,1013.86099482608,738.882953928832,1027.20666366803,484.232422566416,813.345668841951,345.349468637584,586.139005173917,461.117046071168,572.793336331966,715.767577433584,0,0,0,0,4,0,vertical,horizontal,horizontal,horizontal,horizontal,horizontal
1d,3,100209,1,22,22,21,F,NA,constant,homogeneous,4,absent,0.909090042114258,1,vertical,vertical,1,0.6,green,2,NaN,1050.31493177915,648.656293821019,NaN,NaN,751.343706178981,850.314931779154,1050.31493177915,648.656293821019,848.656293821019,349.685068220846,549.685068220846,551.343706178981,NaN,NaN,NaN,NaN,0,4,0,0,NaN,NaN,horizontal,vertical,vertical,horizontal,none,none
1d,3,100209,1,23,23,21,F,NA,constant,homogeneous,4,present,0.67616081237793,1,vertical,vertical,1,1.03527898082027,green,3,1,716.980120613425,358.892763222174,883.019879386575,841.107236777826,883.019879386575,841.107236777826,1041.10723677783,516.980120613425,716.980120613425,358.892763222174,558.892763222174,683.019879386575,NaN,NaN,NaN,NaN,0,0,4,0,NaN,NaN,horizontal,vertical,vertical,horizontal,none,none
1d,3,100209,1,24,24,21,F,NA,constant,homogeneous,3,absent,1.85064697265625,1,horizontal,horizontal,1,1.04704327759919,green,3,NaN,777.775285599347,345.970351986605,NaN,NaN,591.116228706307,746.261991269517,1031.10848569435,707.767656743878,777.775285599347,345.970351986605,NaN,NaN,NaN,NaN,NaN,NaN,0,0,4,NaN,NaN,NaN,vertical,horizontal,horizontal,none,none,none
1d,3,100209,1,25,25,21,F,NA,constant,homogeneous,5,absent,0.953483104705811,1,vertical,vertical,1,1.07057187115705,green,5,NaN,550.57236181288,546.982518841471,NaN,NaN,672.5,820.836477965032,970.628304621509,789.501930496736,1032.95409169886,496.282156015671,773.345241866748,346.39691668109,550.57236181288,546.982518841471,NaN,NaN,0,0,0,0,4,NaN,vertical,horizontal,vertical,vertical,vertical,none
1d,3,100209,1,26,26,21,F,NA,constant,homogeneous,4,absent,0.947049140930176,1,horizontal,horizontal,1,0.90587171625208,green,3,NaN,927.5,379.163522034968,NaN,NaN,672.5,820.836477965032,1020.83647796503,727.5,927.5,379.163522034968,579.163522034968,472.5,NaN,NaN,NaN,NaN,0,0,4,0,NaN,NaN,horizontal,horizontal,horizontal,vertical,none,none
1d,3,100209,1,27,27,21,F,NA,constant,homogeneous,5,present,1.07538294792175,1,vertical,vertical,1,0.670585780673557,green,1,4,911.784642431215,829.192481806288,574.848363820974,480.284751489598,911.784642431215,829.192481806288,1052.5183575291,564.510859255183,844.280285305067,348.874022981887,574.848363820974,480.284751489598,616.568350913644,777.137884467044,NaN,NaN,4,0,0,0,0,NaN,vertical,horizontal,horizontal,horizontal,vertical,none
1d,3,100209,1,28,28,21,F,NA,constant,homogeneous,3,present,1.10872888565063,1,vertical,vertical,1,0.988221793704563,green,3,2,721.200666434388,357.480588344736,1049.42763818712,653.017481158529,629.371695378491,789.501930496736,1049.42763818712,653.017481158529,721.200666434388,357.480588344736,NaN,NaN,NaN,NaN,NaN,NaN,0,0,4,NaN,NaN,NaN,horizontal,vertical,vertical,none,none,none
1d,3,100209,1,29,29,21,F,NA,constant,homogeneous,4,present,0.663554906845093,1,vertical,vertical,1,1.02351468404134,green,2,3,1025.15163617903,719.715248510402,919.715248510402,374.848363820974,680.284751489598,825.151636179026,1025.15163617903,719.715248510402,919.715248510402,374.848363820974,574.848363820974,480.284751489598,NaN,NaN,NaN,NaN,0,4,0,0,NaN,NaN,horizontal,vertical,vertical,vertical,none,none
1d,3,100209,1,30,30,21,F,NA,constant,homogeneous,5,present,0.593216896057129,1,vertical,vertical,1,0.6,green,3,5,907.767656743878,368.891514305654,576.971974679454,723.626453162816,848.656293821019,850.314931779154,1053.09926866854,631.076682568313,907.767656743878,368.891514305654,613.504806087112,426.090418184063,576.971974679454,723.626453162816,NaN,NaN,0,0,4,0,0,NaN,vertical,horizontal,vertical,horizontal,vertical,none
1d,3,100209,1,31,31,21,F,NA,constant,homogeneous,6,present,0.961549997329712,1,horizontal,horizontal,1,1.02351468404134,green,4,5,708.616172865948,361.936991243214,548.13947314824,560.109211414741,891.383827134052,838.063008756786,1051.86052685176,639.890788585259,960.476699717708,401.827779828472,708.616172865948,361.936991243214,548.13947314824,560.109211414741,639.523300282292,798.172220171528,0,0,0,4,0,0,vertical,horizontal,vertical,horizontal,horizontal,horizontal
1d,3,100209,1,32,32,21,F,NA,constant,homogeneous,4,present,1.30097603797913,1,vertical,vertical,1,0.999986090483489,green,1,3,773.345241866748,853.60308331891,826.654758133252,346.39691668109,773.345241866748,853.60308331891,1053.60308331891,626.654758133252,826.654758133252,346.39691668109,546.39691668109,573.345241866748,NaN,NaN,NaN,NaN,4,0,0,0,NaN,NaN,vertical,horizontal,vertical,vertical,none,none
1d,3,100209,1,33,33,21,F,NA,constant,homogeneous,3,present,1.32728505134583,1,horizontal,horizontal,1,0.611764296778926,green,1,2,973.909581815937,786.495193912888,874.554784704298,356.142287229426,973.909581815937,786.495193912888,874.554784704298,356.142287229426,551.535633479765,657.362518857686,NaN,NaN,NaN,NaN,NaN,NaN,4,0,0,NaN,NaN,NaN,horizontal,horizontal,horizontal,none,none,none
1d,3,100209,1,34,34,21,F,NA,constant,homogeneous,6,absent,0.800683975219727,1,vertical,vertical,1,0.941164606588858,green,2,NaN,1039.62161830041,687.215136548046,NaN,NaN,844.280285305067,851.125977018113,1039.62161830041,687.215136548046,995.341332995339,436.089159529932,755.719714694933,348.874022981887,560.378381699593,512.784863451954,604.658667004661,763.910840470068,0,4,0,0,0,0,vertical,vertical,vertical,horizontal,horizontal,horizontal
1d,3,100209,1,35,35,21,F,NA,constant,homogeneous,4,present,0.740801095962524,1,horizontal,horizontal,1,0.776464451683892,green,2,3,992.450942956807,767.295052392579,967.295052392579,407.549057043193,632.704947607421,792.450942956807,992.450942956807,767.295052392579,967.295052392579,407.549057043193,607.549057043193,432.704947607421,NaN,NaN,NaN,NaN,0,4,0,0,NaN,NaN,horizontal,horizontal,horizontal,horizontal,none,none
1d,3,100209,1,36,36,21,F,NA,constant,homogeneous,5,absent,1.18905782699585,1,horizontal,horizontal,1,0.670585780673557,green,1,NaN,813.345668841951,854.650531362416,NaN,NaN,813.345668841951,854.650531362416,1046.31108570371,665.998856501143,938.882953928832,386.139005173917,639.523300282292,401.827779828472,561.936991243214,691.383827134052,NaN,NaN,4,0,0,0,0,NaN,horizontal,horizontal,vertical,vertical,horizontal,none
1d,3,100209,1,37,37,21,F,NA,constant,homogeneous,5,present,0.722332954406738,1,horizontal,horizontal,1,0.658821483894631,green,5,4,574.848363820974,719.715248510402,616.568350913644,422.862115532956,844.280285305067,851.125977018113,1052.5183575291,635.489140744817,911.784642431215,370.807518193712,616.568350913644,422.862115532956,574.848363820974,719.715248510402,NaN,NaN,0,0,0,0,4,NaN,horizontal,horizontal,horizontal,horizontal,horizontal,none
1d,3,100209,1,38,38,21,F,NA,constant,homogeneous,6,absent,0.676276922225952,1,horizontal,horizontal,1,0.96469320014671,green,6,NaN,616.568350913644,777.137884467044,NaN,NaN,861.690083377915,847.425410200379,1045.12173246427,670.287525733335,983.431649086356,422.862115532956,738.309916622085,352.574589799621,554.878267535729,529.712474266665,616.568350913644,777.137884467044,0,0,0,0,0,4,horizontal,vertical,vertical,vertical,vertical,horizontal
1d,3,100209,1,39,39,21,F,NA,constant,homogeneous,3,present,0.711529970169067,1,vertical,vertical,1,0.882343122694227,green,1,3,639.523300282292,798.172220171528,708.616172865948,361.936991243214,639.523300282292,798.172220171528,1051.86052685176,639.890788585259,708.616172865948,361.936991243214,NaN,NaN,NaN,NaN,NaN,NaN,4,0,0,NaN,NaN,NaN,vertical,vertical,vertical,none,none,none
1d,3,100209,1,40,40,21,F,NA,constant,homogeneous,6,absent,0.651752948760986,1,vertical,vertical,1,0.694114374231409,green,6,NaN,632.704947607421,792.450942956807,NaN,NaN,883.019879386575,841.107236777826,1050.31493177915,648.656293821019,967.295052392579,407.549057043193,716.980120613425,358.892763222174,549.685068220846,551.343706178981,632.704947607421,792.450942956807,0,0,0,0,0,4,horizontal,vertical,horizontal,vertical,horizontal,vertical
1d,3,100209,1,41,41,21,F,NA,constant,homogeneous,4,absent,0.75776195526123,1,vertical,vertical,1,0.635292890336778,green,3,NaN,643.006323791957,399.057257830286,NaN,NaN,956.993676208043,800.942742169714,1000.94274216971,443.006323791957,643.006323791957,399.057257830286,599.057257830286,756.993676208043,NaN,NaN,NaN,NaN,0,0,4,0,NaN,NaN,vertical,horizontal,vertical,horizontal,none,none
1d,3,100209,1,42,42,21,F,NA,constant,homogeneous,3,present,1.36271905899048,1,horizontal,horizontal,1,0.870578825915301,green,2,1,800,345,1020.83647796503,727.5,1020.83647796503,727.5,800,345,579.163522034968,727.5,NaN,NaN,NaN,NaN,NaN,NaN,0,4,0,NaN,NaN,NaN,horizontal,horizontal,horizontal,none,none,none
1d,3,100209,1,43,43,21,F,NA,constant,homogeneous,3,present,1.61264610290527,0,horizontal,vertical,1,0.729407264568187,green,2,1,927.5,379.163522034968,927.5,820.836477965032,927.5,820.836477965032,927.5,379.163522034968,545,600,NaN,NaN,NaN,NaN,NaN,NaN,0,4,0,NaN,NaN,NaN,vertical,horizontal,horizontal,none,none,none
1d,3,100209,1,44,44,21,F,NA,constant,homogeneous,4,present,0.966301918029785,1,horizontal,horizontal,1,1.07057187115705,green,2,1,1053.09926866854,631.076682568313,768.923317431687,853.099268668537,768.923317431687,853.099268668537,1053.09926866854,631.076682568313,831.076682568313,346.900731331463,546.900731331463,568.923317431687,NaN,NaN,NaN,NaN,0,4,0,0,NaN,NaN,vertical,horizontal,vertical,horizontal,none,none
1d,3,100209,1,45,45,21,F,NA,constant,homogeneous,4,present,0.65599799156189,1,horizontal,horizontal,1,1.0941004647149,green,4,3,557.480588344736,521.200666434388,878.799333565612,357.480588344736,721.200666434388,842.519411655264,1042.51941165526,678.799333565612,878.799333565612,357.480588344736,557.480588344736,521.200666434388,NaN,NaN,NaN,NaN,0,0,0,4,NaN,NaN,vertical,vertical,horizontal,horizontal,none,none
1d,3,100209,1,46,46,21,F,NA,constant,homogeneous,5,present,0.862851142883301,1,vertical,vertical,1,0.694114374231409,green,3,2,1034.72873763037,500.363562235235,967.295052392579,792.450942956807,668.665290897936,818.577661679039,967.295052392579,792.450942956807,1034.72873763037,500.363562235235,777.775285599347,345.970351986605,551.535633479765,542.637481142314,NaN,NaN,0,0,4,0,0,NaN,horizontal,vertical,vertical,horizontal,horizontal,none
1d,3,100209,1,47,47,21,F,NA,constant,homogeneous,6,absent,0.772029161453247,1,horizontal,horizontal,1,0.788228748462818,green,6,NaN,613.504806087112,773.909581815937,NaN,NaN,857.362518857686,848.464366520235,1043.85771277057,674.554784704298,986.495193912888,426.090418184063,742.637481142314,351.535633479765,556.142287229426,525.445215295702,613.504806087112,773.909581815937,0,0,0,0,0,4,vertical,horizontal,horizontal,horizontal,vertical,horizontal
1d,3,100209,1,48,48,21,F,NA,constant,homogeneous,3,absent,0.818610906600952,0,vertical,horizontal,1,0.75293585812604,green,3,NaN,570.807518193712,711.784642431215,NaN,NaN,1011.40458100154,742.594190385041,817.787900804752,345.621167183745,570.807518193712,711.784642431215,NaN,NaN,NaN,NaN,NaN,NaN,0,0,4,NaN,NaN,NaN,vertical,vertical,vertical,none,none,none
1d,3,100209,1,49,49,21,F,NA,constant,homogeneous,6,present,1.13138818740845,1,vertical,vertical,1,0.999986090483489,green,1,3,878.799333565612,842.519411655264,970.628304621509,410.498069503264,878.799333565612,842.519411655264,1049.42763818712,653.017481158529,970.628304621509,410.498069503264,721.200666434388,357.480588344736,550.57236181288,546.982518841471,629.371695378491,789.501930496736,4,0,0,0,0,0,vertical,horizontal,horizontal,horizontal,horizontal,vertical
1d,3,100209,1,50,50,21,F,NA,constant,homogeneous,5,absent,0.676342964172363,1,horizontal,horizontal,1,0.705878671010335,green,4,NaN,639.523300282292,401.827779828472,NaN,NaN,813.345668841951,854.650531362416,1046.31108570371,665.998856501143,938.882953928832,386.139005173917,639.523300282292,401.827779828472,561.936991243214,691.383827134052,NaN,NaN,0,0,0,4,0,NaN,vertical,vertical,horizontal,horizontal,vertical,none
1d,3,100209,1,51,51,21,F,NA,constant,homogeneous,6,present,1.08136296272278,1,vertical,vertical,1,0.776464451683892,green,3,2,1050.31493177915,551.343706178981,967.295052392579,792.450942956807,716.980120613425,841.107236777826,967.295052392579,792.450942956807,1050.31493177915,551.343706178981,883.019879386575,358.892763222174,632.704947607421,407.549057043193,549.685068220846,648.656293821019,0,0,4,0,0,0,vertical,vertical,vertical,horizontal,horizontal,vertical
1d,3,100209,1,52,52,21,F,NA,constant,homogeneous,5,present,0.974495887756348,1,horizontal,horizontal,1,0.96469320014671,green,1,4,911.784642431215,829.192481806288,574.848363820974,480.284751489598,911.784642431215,829.192481806288,1052.5183575291,564.510859255183,844.280285305067,348.874022981887,574.848363820974,480.284751489598,616.568350913644,777.137884467044,NaN,NaN,4,0,0,0,0,NaN,horizontal,vertical,horizontal,vertical,horizontal,none
1d,3,100209,1,53,53,21,F,NA,constant,homogeneous,3,absent,1.03008198738098,0,vertical,horizontal,1,0.799993045241744,green,1,NaN,831.076682568313,853.099268668537,NaN,NaN,831.076682568313,853.099268668537,1003.65205506206,446.537169096228,565.271262369628,500.363562235235,NaN,NaN,NaN,NaN,NaN,NaN,4,0,0,NaN,NaN,NaN,vertical,horizontal,vertical,none,none,none
1d,3,100209,1,54,54,21,F,NA,constant,homogeneous,6,absent,0.829651117324829,1,horizontal,horizontal,1,0.941164606588858,green,4,NaN,835.489140744817,347.4816424709,NaN,NaN,764.510859255183,852.518357529101,1000.94274216971,756.993676208043,1036.43188291453,504.475318678942,835.489140744817,347.4816424709,599.057257830286,443.006323791957,563.568117085469,695.524681321058,0,0,0,4,0,0,horizontal,vertical,horizontal,horizontal,horizontal,horizontal
1d,3,100209,1,55,55,21,F,NA,constant,homogeneous,5,present,0.891391038894653,1,horizontal,horizontal,1,1.04704327759919,green,3,2,919.715248510402,374.848363820974,1051.12597701811,644.280285305067,835.489140744817,852.518357529101,1051.12597701811,644.280285305067,919.715248510402,374.848363820974,622.862115532956,416.568350913644,570.807518193712,711.784642431215,NaN,NaN,0,0,4,0,0,NaN,vertical,horizontal,horizontal,horizontal,horizontal,none
1d,3,100209,1,56,56,21,F,NA,constant,homogeneous,3,present,1.28996419906616,1,vertical,vertical,1,0.635292890336778,green,1,2,980.31222920257,780.31222920257,865.998856501143,353.688914296288,980.31222920257,780.31222920257,865.998856501143,353.688914296288,553.688914296288,665.998856501143,NaN,NaN,NaN,NaN,NaN,NaN,4,0,0,NaN,NaN,NaN,vertical,horizontal,vertical,none,none,none
1d,3,100209,1,57,57,21,F,NA,constant,homogeneous,4,absent,0.84606409072876,1,horizontal,horizontal,1,0.917636013031006,green,3,NaN,835.489140744817,347.4816424709,NaN,NaN,764.510859255183,852.518357529101,1052.5183575291,635.489140744817,835.489140744817,347.4816424709,547.481642470899,564.510859255183,NaN,NaN,NaN,NaN,0,0,4,0,NaN,NaN,vertical,vertical,horizontal,vertical,none,none
1d,3,100209,1,58,58,21,F,NA,constant,homogeneous,6,absent,0.792783975601196,1,vertical,vertical,1,0.658821483894631,green,4,NaN,826.654758133252,346.39691668109,NaN,NaN,773.345241866748,853.60308331891,1006.29933356561,749.885239334581,1032.95409169886,496.282156015671,826.654758133252,346.39691668109,593.700666434388,450.114760665419,567.045908301137,703.717843984329,0,0,0,4,0,0,vertical,horizontal,vertical,vertical,horizontal,vertical
1d,3,100209,1,59,59,21,F,NA,constant,homogeneous,6,present,0.659054040908813,0,vertical,horizontal,1,0.917636013031006,green,5,1,646.537169096228,396.34794493794,700.363562235235,834.728737630372,700.363562235235,834.728737630372,953.462830903772,803.65205506206,1053.09926866854,568.923317431687,899.636437764765,365.271262369628,646.537169096228,396.34794493794,546.900731331463,631.076682568313,0,0,0,0,4,0,vertical,horizontal,horizontal,horizontal,vertical,horizontal
1d,3,100209,1,60,60,21,F,NA,constant,homogeneous,3,absent,0.829214811325073,1,vertical,vertical,1,0.647057187115705,green,2,NaN,822.224714400653,345.970351986605,NaN,NaN,1008.88377129369,746.261991269517,822.224714400653,345.970351986605,568.891514305654,707.767656743878,NaN,NaN,NaN,NaN,NaN,NaN,0,4,0,NaN,NaN,NaN,horizontal,vertical,horizontal,none,none,none
1d,3,100209,1,61,61,21,F,NA,constant,homogeneous,4,absent,1.15631294250488,1,horizontal,horizontal,1,0.917636013031006,green,2,NaN,1042.51941165526,678.799333565612,NaN,NaN,721.200666434388,842.519411655264,1042.51941165526,678.799333565612,878.799333565612,357.480588344736,557.480588344736,521.200666434388,NaN,NaN,NaN,NaN,0,4,0,0,NaN,NaN,vertical,horizontal,vertical,vertical,none,none
1d,3,100209,1,62,62,21,F,NA,constant,homogeneous,5,absent,1.18882703781128,1,horizontal,horizontal,1,1.05880757437812,green,1,NaN,786.654331158049,854.650531362416,NaN,NaN,786.654331158049,854.650531362416,1038.06300875679,691.383827134052,960.476699717708,401.827779828472,661.117046071168,386.139005173917,553.688914296288,665.998856501143,NaN,NaN,4,0,0,0,0,NaN,horizontal,horizontal,horizontal,horizontal,horizontal,none
1d,3,100209,1,63,63,21,F,NA,constant,homogeneous,3,absent,NaN,0,horizontal,none,0,0.682350077452483,green,3,NaN,664.870587620533,383.747735480111,NaN,NaN,680.284751489598,825.151636179026,1054.84466088987,591.100628340862,664.870587620533,383.747735480111,NaN,NaN,NaN,NaN,NaN,NaN,0,0,4,NaN,NaN,NaN,vertical,horizontal,horizontal,none,none,none
1d,3,100209,1,64,64,21,F,NA,constant,homogeneous,5,absent,0.898781061172485,1,horizontal,horizontal,1,0.988221793704563,green,1,NaN,653.738008730483,808.883771293693,NaN,NaN,653.738008730483,808.883771293693,953.462830903772,803.65205506206,1041.10723677783,516.980120613425,795.549636358493,345.03883773512,556.142287229426,525.445215295702,NaN,NaN,4,0,0,0,0,NaN,horizontal,vertical,vertical,vertical,horizontal,none
1d,3,100209,2,1,65,21,F,NA,constant,homogeneous,3,absent,0.838282108306885,1,vertical,vertical,1,0.835285935578523,green,3,NaN,567.045908301137,703.717843984329,NaN,NaN,1006.29933356561,749.885239334581,826.654758133252,346.39691668109,567.045908301137,703.717843984329,NaN,NaN,NaN,NaN,NaN,NaN,0,0,4,NaN,NaN,NaN,horizontal,vertical,vertical,none,none,none
1d,3,100209,2,2,66,21,F,NA,constant,homogeneous,6,present,1.02382183074951,1,vertical,vertical,1,0.647057187115705,green,5,6,632.704947607421,407.549057043193,549.685068220846,648.656293821019,716.980120613425,841.107236777826,967.295052392579,792.450942956807,1050.31493177915,551.343706178981,883.019879386575,358.892763222174,632.704947607421,407.549057043193,549.685068220846,648.656293821019,0,0,0,0,4,0,vertical,vertical,horizontal,horizontal,vertical,vertical
1d,3,100209,2,3,67,21,F,NA,constant,homogeneous,3,present,0.811563014984131,1,horizontal,horizontal,1,0.929400309809932,green,2,3,931.334709102064,381.422338320961,545.03883773512,595.549636358493,923.626453162816,823.028025320546,931.334709102064,381.422338320961,545.03883773512,595.549636358493,NaN,NaN,NaN,NaN,NaN,NaN,0,4,0,NaN,NaN,NaN,horizontal,horizontal,vertical,none,none,none
1d,3,100209,2,4,68,21,F,NA,constant,homogeneous,3,present,0.787518978118896,1,vertical,vertical,1,0.976457496925637,green,3,1,547.481642470899,635.489140744817,956.993676208043,800.942742169714,956.993676208043,800.942742169714,895.524681321058,363.568117085469,547.481642470899,635.489140744817,NaN,NaN,NaN,NaN,NaN,NaN,0,0,4,NaN,NaN,NaN,vertical,horizontal,vertical,none,none,none
1d,3,100209,2,5,69,21,F,NA,constant,homogeneous,3,absent,0.680988073348999,1,horizontal,horizontal,1,0.682350077452483,green,2,NaN,956.993676208043,399.057257830286,NaN,NaN,895.524681321058,836.431882914531,956.993676208043,399.057257830286,547.481642470899,564.510859255183,NaN,NaN,NaN,NaN,NaN,NaN,0,4,0,NaN,NaN,NaN,horizontal,horizontal,horizontal,none,none,none
1d,3,100209,2,6,70,21,F,NA,constant,homogeneous,4,absent,0.842077970504761,1,vertical,vertical,1,0.75293585812604,green,4,NaN,567.045908301137,496.282156015671,NaN,NaN,696.282156015671,832.954091698863,1032.95409169886,703.717843984329,903.717843984329,367.045908301137,567.045908301137,496.282156015671,NaN,NaN,NaN,NaN,0,0,0,4,NaN,NaN,vertical,horizontal,horizontal,vertical,none,none
1d,3,100209,2,7,71,21,F,NA,constant,homogeneous,4,absent,0.796989917755127,1,vertical,vertical,1,0.694114374231409,green,2,NaN,1047.42541020038,538.309916622085,NaN,NaN,861.690083377915,847.425410200379,1047.42541020038,538.309916622085,738.309916622085,352.574589799621,552.574589799621,661.690083377915,NaN,NaN,NaN,NaN,0,4,0,0,NaN,NaN,vertical,vertical,horizontal,vertical,none,none
1d,3,100209,2,8,72,21,F,NA,constant,homogeneous,3,absent,0.744584083557129,1,horizontal,horizontal,1,1.01175038726241,green,3,NaN,556.142287229426,674.554784704298,NaN,NaN,986.495193912888,773.909581815937,857.362518857686,351.535633479765,556.142287229426,674.554784704298,NaN,NaN,NaN,NaN,NaN,NaN,0,0,4,NaN,NaN,NaN,horizontal,horizontal,horizontal,none,none,none
1d,3,100209,2,9,73,21,F,NA,constant,homogeneous,3,present,0.813493967056274,1,vertical,vertical,1,0.658821483894631,green,2,1,1054.0296480134,622.224714400653,653.738008730483,808.883771293693,653.738008730483,808.883771293693,1054.0296480134,622.224714400653,692.232343256122,368.891514305654,NaN,NaN,NaN,NaN,NaN,NaN,0,4,0,NaN,NaN,NaN,horizontal,vertical,vertical,none,none,none
1d,3,100209,2,10,74,21,F,NA,constant,homogeneous,5,absent,1.29862189292908,1,horizontal,horizontal,1,0.835285935578523,green,5,NaN,545,600,NaN,NaN,721.200666434388,842.519411655264,1006.29933356561,749.885239334581,1006.29933356561,450.114760665419,721.200666434388,357.480588344736,545,600,NaN,NaN,0,0,0,0,4,NaN,horizontal,horizontal,vertical,horizontal,horizontal,none
1d,3,100209,2,11,75,21,F,NA,constant,homogeneous,5,absent,1.84487390518188,1,vertical,vertical,1,0.611764296778926,green,1,NaN,738.309916622085,847.425410200379,NaN,NaN,738.309916622085,847.425410200379,1016.25226451989,735.129412379467,995.341332995339,436.089159529932,704.475318678942,363.568117085469,545.621167183745,617.787900804752,NaN,NaN,4,0,0,0,0,NaN,vertical,horizontal,horizontal,vertical,horizontal,none
1d,3,100209,2,12,76,21,F,NA,constant,homogeneous,3,present,0.676257133483887,1,vertical,vertical,1,0.705878671010335,green,2,1,953.462830903772,396.34794493794,899.636437764765,834.728737630372,899.636437764765,834.728737630372,953.462830903772,396.34794493794,546.900731331463,568.923317431687,NaN,NaN,NaN,NaN,NaN,NaN,0,4,0,NaN,NaN,NaN,horizontal,vertical,vertical,none,none,none
1d,3,100209,2,13,77,21,F,NA,constant,homogeneous,3,absent,0.935889005661011,1,vertical,vertical,1,0.90587171625208,green,1,NaN,596.34794493794,753.462830903772,NaN,NaN,596.34794493794,753.462830903772,1034.72873763037,699.636437764765,768.923317431687,346.900731331463,NaN,NaN,NaN,NaN,NaN,NaN,4,0,0,NaN,NaN,NaN,vertical,vertical,vertical,none,none,none
1d,3,100209,2,14,78,21,F,NA,constant,homogeneous,5,present,1.51156806945801,1,vertical,vertical,1,0.835285935578523,green,5,4,545.155339110131,591.100628340862,729.712474266665,354.878267535729,712.784863451954,839.621618300407,1000.94274216971,756.993676208043,1011.40458100154,457.40580961496,729.712474266665,354.878267535729,545.155339110131,591.100628340862,NaN,NaN,0,0,0,0,4,NaN,vertical,horizontal,horizontal,horizontal,vertical,none
1d,3,100209,2,15,79,21,F,NA,constant,homogeneous,4,present,0.798494100570679,1,vertical,vertical,1,0.635292890336778,green,4,2,560.378381699593,687.215136548046,1039.62161830041,512.784863451954,887.215136548046,839.621618300407,1039.62161830041,512.784863451954,712.784863451954,360.378381699593,560.378381699593,687.215136548046,NaN,NaN,NaN,NaN,0,0,0,4,NaN,NaN,vertical,horizontal,vertical,vertical,none,none
1d,3,100209,2,16,80,21,F,NA,constant,homogeneous,6,present,0.90700101852417,1,vertical,vertical,1,0.799993045241744,green,4,5,692.232343256122,368.891514305654,545.970351986605,577.775285599347,907.767656743878,831.108485694346,1054.0296480134,622.224714400653,946.261991269517,391.116228706307,692.232343256122,368.891514305654,545.970351986605,577.775285599347,653.738008730483,808.883771293693,0,0,0,4,0,0,vertical,vertical,horizontal,vertical,horizontal,horizontal
1d,3,100209,2,17,81,21,F,NA,constant,homogeneous,6,absent,0.700683116912842,1,vertical,vertical,1,0.976457496925637,green,6,NaN,636.089159529932,795.341332995339,NaN,NaN,887.215136548046,839.621618300407,1051.12597701811,644.280285305067,963.910840470068,404.658667004661,712.784863451954,360.378381699593,548.874022981887,555.719714694933,636.089159529932,795.341332995339,0,0,0,0,0,4,horizontal,vertical,vertical,vertical,horizontal,vertical
1d,3,100209,2,18,82,21,F,NA,constant,homogeneous,4,absent,1.25542783737183,1,horizontal,horizontal,1,0.835285935578523,green,1,NaN,738.309916622085,847.425410200379,NaN,NaN,738.309916622085,847.425410200379,1047.42541020038,661.690083377915,861.690083377915,352.574589799621,552.574589799621,538.309916622085,NaN,NaN,NaN,NaN,4,0,0,0,NaN,NaN,horizontal,vertical,horizontal,horizontal,none,none
1d,3,100209,2,19,83,21,F,NA,constant,homogeneous,3,present,1.00948095321655,0,vertical,horizontal,1,1.03527898082027,green,3,2,604.658667004661,436.089159529932,1039.62161830041,512.784863451954,755.719714694933,851.125977018113,1039.62161830041,512.784863451954,604.658667004661,436.089159529932,NaN,NaN,NaN,NaN,NaN,NaN,0,0,4,NaN,NaN,NaN,vertical,vertical,vertical,none,none,none
1d,3,100209,2,20,84,21,F,NA,constant,homogeneous,5,absent,1.8206148147583,1,horizontal,horizontal,1,0.952928903367784,green,4,NaN,613.504806087112,426.090418184063,NaN,NaN,848.656293821019,850.314931779154,1053.09926866854,631.076682568313,907.767656743878,368.891514305654,613.504806087112,426.090418184063,576.971974679454,723.626453162816,NaN,NaN,0,0,0,4,0,NaN,vertical,horizontal,horizontal,horizontal,vertical,none
1d,3,100209,2,21,85,21,F,NA,constant,homogeneous,5,present,0.894325971603394,1,horizontal,horizontal,1,1.04704327759919,green,5,1,601.827779828472,760.476699717708,891.383827134052,838.063008756786,891.383827134052,838.063008756786,1054.65053136242,586.654331158049,865.998856501143,353.688914296288,586.139005173917,461.117046071168,601.827779828472,760.476699717708,NaN,NaN,0,0,0,0,4,NaN,horizontal,vertical,vertical,horizontal,horizontal,none
1d,3,100209,2,22,86,21,F,NA,constant,homogeneous,4,present,0.771308898925781,1,horizontal,horizontal,1,0.75293585812604,green,2,1,1049.42763818712,546.982518841471,853.017481158529,849.42763818712,853.017481158529,849.42763818712,1049.42763818712,546.982518841471,746.982518841471,350.57236181288,550.57236181288,653.017481158529,NaN,NaN,NaN,NaN,0,4,0,0,NaN,NaN,horizontal,horizontal,vertical,horizontal,none,none
1d,3,100209,2,23,87,21,F,NA,constant,homogeneous,6,present,0.653650045394897,1,vertical,vertical,1,0.917636013031006,green,4,6,844.280285305067,348.874022981887,560.378381699593,687.215136548046,755.719714694933,851.125977018113,995.341332995339,763.910840470068,1039.62161830041,512.784863451954,844.280285305067,348.874022981887,604.658667004661,436.089159529932,560.378381699593,687.215136548046,0,0,0,4,0,0,vertical,vertical,vertical,vertical,horizontal,vertical
1d,3,100209,2,24,88,21,F,NA,constant,homogeneous,6,absent,1.31316995620728,1,vertical,vertical,1,0.729407264568187,green,5,NaN,591.116228706307,453.738008730483,NaN,NaN,777.775285599347,854.029648013395,1008.88377129369,746.261991269517,1031.10848569435,492.232343256122,822.224714400653,345.970351986605,591.116228706307,453.738008730483,568.891514305654,707.767656743878,0,0,0,0,4,0,vertical,vertical,horizontal,horizontal,vertical,vertical
1d,3,100209,2,25,89,21,F,NA,constant,homogeneous,6,present,0.865150928497314,0,horizontal,vertical,1,0.682350077452483,green,4,2,848.656293821019,349.685068220846,992.450942956807,767.295052392579,751.343706178981,850.314931779154,992.450942956807,767.295052392579,1041.10723677783,516.980120613425,848.656293821019,349.685068220846,607.549057043193,432.704947607421,558.892763222174,683.019879386575,0,0,0,4,0,0,horizontal,vertical,vertical,horizontal,horizontal,vertical
1d,3,100209,2,26,90,21,F,NA,constant,homogeneous,6,present,0.800523996353149,1,horizontal,horizontal,1,0.682350077452483,green,1,4,672.5,820.836477965032,927.5,379.163522034968,672.5,820.836477965032,927.5,820.836477965032,1055,600,927.5,379.163522034968,672.5,379.163522034968,545,600,4,0,0,0,0,0,horizontal,horizontal,horizontal,horizontal,vertical,vertical
1d,3,100209,2,27,91,21,F,NA,constant,homogeneous,3,absent,1.01116394996643,1,vertical,vertical,1,0.929400309809932,green,2,NaN,1047.42541020038,661.690083377915,NaN,NaN,622.862115532956,783.431649086356,1047.42541020038,661.690083377915,729.712474266665,354.878267535729,NaN,NaN,NaN,NaN,NaN,NaN,0,4,0,NaN,NaN,NaN,vertical,vertical,vertical,none,none,none
1d,3,100209,2,28,92,21,F,NA,constant,homogeneous,4,absent,0.87485408782959,1,vertical,vertical,1,0.952928903367784,green,1,NaN,938.882953928832,813.860994826083,NaN,NaN,938.882953928832,813.860994826083,1013.86099482608,461.117046071168,661.117046071168,386.139005173917,586.139005173917,738.882953928832,NaN,NaN,NaN,NaN,4,0,0,0,NaN,NaN,vertical,vertical,horizontal,vertical,none,none
1d,3,100209,2,29,93,21,F,NA,constant,homogeneous,4,present,0.812671184539795,1,horizontal,horizontal,1,0.611764296778926,green,1,2,861.690083377915,847.425410200379,1047.42541020038,538.309916622085,861.690083377915,847.425410200379,1047.42541020038,538.309916622085,738.309916622085,352.574589799621,552.574589799621,661.690083377915,NaN,NaN,NaN,NaN,4,0,0,0,NaN,NaN,horizontal,vertical,horizontal,vertical,none,none
1d,3,100209,2,30,94,21,F,NA,constant,homogeneous,6,absent,1.32428693771362,1,vertical,vertical,1,0.75293585812604,green,3,NaN,1053.60308331891,573.345241866748,NaN,NaN,696.282156015671,832.954091698863,949.885239334581,806.299333565612,1053.60308331891,573.345241866748,903.717843984329,367.045908301137,650.114760665419,393.700666434388,546.39691668109,626.654758133252,0,0,4,0,0,0,vertical,vertical,vertical,vertical,vertical,vertical
1d,3,100209,2,31,95,21,F,NA,constant,homogeneous,3,present,1.0337598323822,1,horizontal,horizontal,1,0.75293585812604,green,1,3,696.282156015671,832.954091698863,650.114760665419,393.700666434388,696.282156015671,832.954091698863,1053.60308331891,573.345241866748,650.114760665419,393.700666434388,NaN,NaN,NaN,NaN,NaN,NaN,4,0,0,NaN,NaN,NaN,horizontal,vertical,horizontal,none,none,none
1d,3,100209,2,32,96,21,F,NA,constant,homogeneous,3,absent,0.696249008178711,1,horizontal,horizontal,1,0.858814529136375,green,2,NaN,1020.83647796503,727.5,NaN,NaN,579.163522034968,727.5,1020.83647796503,727.5,800,345,NaN,NaN,NaN,NaN,NaN,NaN,0,4,0,NaN,NaN,NaN,vertical,horizontal,horizontal,none,none,none
1d,3,100209,2,33,97,21,F,NA,constant,homogeneous,6,absent,0.723681926727295,1,horizontal,horizontal,1,1.08233616793597,green,2,NaN,1048.46436652023,657.362518857686,NaN,NaN,874.554784704298,843.857712770574,1048.46436652023,657.362518857686,973.909581815937,413.504806087112,725.445215295702,356.142287229426,551.535633479765,542.637481142314,626.090418184063,786.495193912888,0,4,0,0,0,0,horizontal,horizontal,horizontal,horizontal,vertical,horizontal
1d,3,100209,2,34,98,21,F,NA,constant,homogeneous,5,absent,0.917188882827759,1,vertical,vertical,1,0.941164606588858,green,1,NaN,923.626453162816,823.028025320546,NaN,NaN,923.626453162816,823.028025320546,1050.31493177915,551.343706178981,831.076682568313,346.900731331463,568.891514305654,492.232343256122,626.090418184063,786.495193912888,NaN,NaN,4,0,0,0,0,NaN,vertical,horizontal,horizontal,vertical,vertical,none
1d,3,100209,2,35,99,21,F,NA,constant,homogeneous,4,present,1.1036171913147,1,horizontal,horizontal,1,0.988221793704563,green,4,3,546.39691668109,573.345241866748,826.654758133252,346.39691668109,773.345241866748,853.60308331891,1053.60308331891,626.654758133252,826.654758133252,346.39691668109,546.39691668109,573.345241866748,NaN,NaN,NaN,NaN,0,0,0,4,NaN,NaN,horizontal,horizontal,horizontal,horizontal,none,none
1d,3,100209,2,36,100,21,F,NA,constant,homogeneous,4,present,0.898445844650269,1,vertical,vertical,1,0.635292890336778,green,3,4,696.282156015671,367.045908301137,567.045908301137,703.717843984329,903.717843984329,832.954091698863,1032.95409169886,496.282156015671,696.282156015671,367.045908301137,567.045908301137,703.717843984329,NaN,NaN,NaN,NaN,0,0,4,0,NaN,NaN,vertical,horizontal,vertical,vertical,none,none
1d,3,100209,2,37,101,21,F,NA,constant,homogeneous,6,absent,NaN,0,horizontal,none,0,1.03527898082027,green,3,NaN,1006.29933356561,450.114760665419,NaN,NaN,826.654758133252,853.60308331891,1032.95409169886,703.717843984329,1006.29933356561,450.114760665419,773.345241866748,346.39691668109,567.045908301137,496.282156015671,593.700666434388,749.885239334581,0,0,4,0,0,0,horizontal,vertical,horizontal,horizontal,horizontal,horizontal
1d,3,100209,2,38,102,21,F,NA,constant,homogeneous,4,present,1.20653486251831,0,vertical,horizontal,1,1.03527898082027,green,4,1,554.878267535729,529.712474266665,729.712474266665,845.121732464271,729.712474266665,845.121732464271,1045.12173246427,670.287525733335,870.287525733335,354.878267535729,554.878267535729,529.712474266665,NaN,NaN,NaN,NaN,0,0,0,4,NaN,NaN,horizontal,horizontal,vertical,vertical,none,none
1d,3,100209,2,39,103,21,F,NA,constant,homogeneous,3,present,0.971390008926392,1,horizontal,horizontal,1,0.847050232357449,green,3,1,742.637481142314,351.535633479765,613.504806087112,773.909581815937,613.504806087112,773.909581815937,1043.85771277057,674.554784704298,742.637481142314,351.535633479765,NaN,NaN,NaN,NaN,NaN,NaN,0,0,4,NaN,NaN,NaN,vertical,horizontal,horizontal,none,none,none
1d,3,100209,2,40,104,21,F,NA,constant,homogeneous,4,absent,1.16120600700378,1,horizontal,horizontal,1,0.90587171625208,green,2,NaN,1031.10848569435,492.232343256122,NaN,NaN,907.767656743878,831.108485694346,1031.10848569435,492.232343256122,692.232343256122,368.891514305654,568.891514305654,707.767656743878,NaN,NaN,NaN,NaN,0,4,0,0,NaN,NaN,horizontal,horizontal,horizontal,vertical,none,none
1d,3,100209,2,41,105,21,F,NA,constant,homogeneous,6,present,0.663038015365601,1,vertical,vertical,1,0.917636013031006,green,3,5,980.31222920257,419.68777079743,553.688914296288,534.001143498857,865.998856501143,846.311085703712,1046.31108570371,665.998856501143,980.31222920257,419.68777079743,734.001143498857,353.688914296288,553.688914296288,534.001143498857,619.68777079743,780.31222920257,0,0,4,0,0,0,horizontal,horizontal,vertical,horizontal,vertical,horizontal
1d,3,100209,2,42,106,21,F,NA,constant,homogeneous,5,present,0.856865167617798,1,horizontal,horizontal,1,0.623528593557852,green,1,2,938.882953928832,813.860994826083,1046.31108570371,534.001143498857,938.882953928832,813.860994826083,1046.31108570371,534.001143498857,813.345668841951,345.349468637584,561.936991243214,508.616172865948,639.523300282292,798.172220171528,NaN,NaN,4,0,0,0,0,NaN,horizontal,horizontal,vertical,vertical,horizontal,none
1d,3,100209,2,43,107,21,F,NA,constant,homogeneous,5,present,0.9011549949646,1,vertical,vertical,1,0.952928903367784,green,4,2,791.100628340862,345.155339110131,956.993676208043,800.942742169714,657.405809614959,811.404581001536,956.993676208043,800.942742169714,1039.62161830041,512.784863451954,791.100628340862,345.155339110131,554.878267535729,529.712474266665,NaN,NaN,0,0,0,4,0,NaN,vertical,vertical,vertical,vertical,vertical,none
1d,3,100209,2,44,108,21,F,NA,constant,homogeneous,5,absent,0.835796117782593,1,horizontal,horizontal,1,0.823521638799597,green,5,NaN,556.142287229426,674.554784704298,NaN,NaN,795.549636358493,854.96116226488,1041.10723677783,683.019879386575,953.462830903772,396.34794493794,653.738008730483,391.116228706307,556.142287229426,674.554784704298,NaN,NaN,0,0,0,0,4,NaN,horizontal,horizontal,horizontal,vertical,horizontal,none
1d,3,100209,2,45,109,21,F,NA,constant,homogeneous,3,absent,0.633869171142578,1,horizontal,horizontal,1,0.658821483894631,green,3,NaN,545.349468637584,586.654331158049,NaN,NaN,915.767577433584,827.206663668034,938.882953928832,386.139005173917,545.349468637584,586.654331158049,NaN,NaN,NaN,NaN,NaN,NaN,0,0,4,NaN,NaN,NaN,horizontal,vertical,horizontal,none,none,none
1d,3,100209,2,46,110,21,F,NA,constant,homogeneous,3,absent,0.628260135650635,1,vertical,vertical,1,0.670585780673557,green,1,NaN,931.334709102064,818.577661679039,NaN,NaN,931.334709102064,818.577661679039,923.626453162816,376.971974679454,545.03883773512,604.450363641507,NaN,NaN,NaN,NaN,NaN,NaN,4,0,0,NaN,NaN,NaN,vertical,vertical,horizontal,none,none,none
1d,3,100209,2,47,111,21,F,NA,constant,homogeneous,4,present,1.05787992477417,0,vertical,horizontal,1,0.847050232357449,green,3,1,907.767656743878,368.891514305654,692.232343256122,831.108485694346,692.232343256122,831.108485694346,1031.10848569435,707.767656743878,907.767656743878,368.891514305654,568.891514305654,492.232343256122,NaN,NaN,NaN,NaN,0,0,4,0,NaN,NaN,vertical,horizontal,vertical,vertical,none,none
1d,3,100209,2,48,112,21,F,NA,constant,homogeneous,6,present,0.666355848312378,1,horizontal,horizontal,1,0.75293585812604,green,3,2,1051.12597701811,555.719714694933,963.910840470068,795.341332995339,712.784863451954,839.621618300407,963.910840470068,795.341332995339,1051.12597701811,555.719714694933,887.215136548046,360.378381699593,636.089159529932,404.658667004661,548.874022981887,644.280285305067,0,0,4,0,0,0,horizontal,horizontal,horizontal,horizontal,horizontal,horizontal
1d,3,100209,2,49,113,21,F,NA,constant,homogeneous,5,present,0.784605979919434,1,horizontal,horizontal,1,0.635292890336778,green,2,5,956.993676208043,800.942742169714,554.878267535729,529.712474266665,657.405809614959,811.404581001536,956.993676208043,800.942742169714,1039.62161830041,512.784863451954,791.100628340862,345.155339110131,554.878267535729,529.712474266665,NaN,NaN,0,4,0,0,0,NaN,vertical,horizontal,horizontal,vertical,vertical,none
1d,3,100209,2,50,114,21,F,NA,constant,homogeneous,6,absent,0.782210111618042,1,horizontal,horizontal,1,0.694114374231409,green,2,NaN,1034.72873763037,699.636437764765,NaN,NaN,831.076682568313,853.099268668537,1034.72873763037,699.636437764765,1003.65205506206,446.537169096228,768.923317431687,346.900731331463,565.271262369628,500.363562235235,596.34794493794,753.462830903772,0,4,0,0,0,0,vertical,horizontal,vertical,horizontal,horizontal,horizontal
1d,3,100209,2,51,115,21,F,NA,constant,homogeneous,4,present,0.674975872039795,1,horizontal,horizontal,1,1.04704327759919,green,3,4,857.362518857686,351.535633479765,551.535633479765,542.637481142314,742.637481142314,848.464366520235,1048.46436652023,657.362518857686,857.362518857686,351.535633479765,551.535633479765,542.637481142314,NaN,NaN,NaN,NaN,0,0,4,0,NaN,NaN,vertical,horizontal,horizontal,horizontal,none,none
1d,3,100209,2,52,116,21,F,NA,constant,homogeneous,4,absent,0.610095024108887,1,vertical,vertical,1,1.07057187115705,green,2,NaN,1053.60308331891,626.654758133252,NaN,NaN,773.345241866748,853.60308331891,1053.60308331891,626.654758133252,826.654758133252,346.39691668109,546.39691668109,573.345241866748,NaN,NaN,NaN,NaN,0,4,0,0,NaN,NaN,vertical,vertical,horizontal,vertical,none,none
1d,3,100209,2,53,117,21,F,NA,constant,homogeneous,5,absent,1.29524993896484,1,horizontal,horizontal,1,1.04704327759919,green,5,NaN,596.34794493794,753.462830903772,NaN,NaN,883.019879386575,841.107236777826,1054.96116226488,595.549636358493,874.554784704298,356.142287229426,591.116228706307,453.738008730483,596.34794493794,753.462830903772,NaN,NaN,0,0,0,0,4,NaN,vertical,vertical,horizontal,horizontal,horizontal,none
1d,3,100209,2,54,118,21,F,NA,constant,homogeneous,5,present,0.673283815383911,1,horizontal,horizontal,1,0.788228748462818,green,2,4,1054.65053136242,613.345668841951,601.827779828472,439.523300282291,865.998856501143,846.311085703712,1054.65053136242,613.345668841951,891.383827134052,361.936991243214,601.827779828472,439.523300282291,586.139005173917,738.882953928832,NaN,NaN,0,4,0,0,0,NaN,horizontal,horizontal,vertical,horizontal,vertical,none
1d,3,100209,2,55,119,21,F,NA,constant,homogeneous,5,absent,0.882660865783691,1,vertical,vertical,1,1.01175038726241,green,5,NaN,545.621167183745,582.212099195248,NaN,NaN,704.475318678942,836.431882914531,995.341332995339,763.910840470068,1016.25226451989,464.870587620533,738.309916622085,352.574589799621,545.621167183745,582.212099195248,NaN,NaN,0,0,0,0,4,NaN,horizontal,horizontal,vertical,horizontal,vertical,none
1d,3,100209,2,56,120,21,F,NA,constant,homogeneous,5,present,0.756059169769287,1,vertical,vertical,1,0.952928903367784,green,5,2,550.57236181288,546.982518841471,970.628304621509,789.501930496736,672.5,820.836477965032,970.628304621509,789.501930496736,1032.95409169886,496.282156015671,773.345241866748,346.39691668109,550.57236181288,546.982518841471,NaN,NaN,0,0,0,0,4,NaN,vertical,horizontal,vertical,vertical,vertical,none
1d,3,100209,2,57,121,21,F,NA,constant,homogeneous,6,present,0.81346321105957,1,horizontal,horizontal,1,0.90587171625208,green,3,4,1008.88377129369,453.738008730483,777.775285599347,345.970351986605,822.224714400653,854.029648013395,1031.10848569435,707.767656743878,1008.88377129369,453.738008730483,777.775285599347,345.970351986605,568.891514305654,492.232343256122,591.116228706307,746.261991269517,0,0,4,0,0,0,horizontal,horizontal,horizontal,horizontal,horizontal,horizontal
1d,3,100209,2,58,122,21,F,NA,constant,homogeneous,5,absent,1.02531814575195,1,vertical,vertical,1,0.764700154904966,green,1,NaN,887.215136548046,839.621618300407,NaN,NaN,887.215136548046,839.621618300407,1054.84466088987,591.100628340862,870.287525733335,354.878267535729,588.595418998464,457.40580961496,599.057257830286,756.993676208043,NaN,NaN,4,0,0,0,0,NaN,vertical,horizontal,vertical,vertical,vertical,none
1d,3,100209,2,59,123,21,F,NA,constant,homogeneous,3,present,0.752856969833374,1,horizontal,horizontal,1,0.941164606588858,green,3,2,553.688914296288,534.001143498857,980.31222920257,419.68777079743,865.998856501143,846.311085703712,980.31222920257,419.68777079743,553.688914296288,534.001143498857,NaN,NaN,NaN,NaN,NaN,NaN,0,0,4,NaN,NaN,NaN,horizontal,horizontal,horizontal,none,none,none
1d,3,100209,2,60,124,21,F,NA,constant,homogeneous,6,absent,1.44514989852905,1,vertical,vertical,1,0.647057187115705,green,6,NaN,599.057257830286,756.993676208043,NaN,NaN,835.489140744817,852.518357529101,1036.43188291453,695.524681321058,1000.94274216971,443.006323791957,764.510859255183,347.4816424709,563.568117085469,504.475318678942,599.057257830286,756.993676208043,0,0,0,0,0,4,vertical,horizontal,horizontal,horizontal,vertical,vertical
1d,3,100209,2,61,125,21,F,NA,constant,homogeneous,4,absent,0.64421010017395,1,horizontal,horizontal,1,0.90587171625208,green,1,NaN,729.712474266665,845.121732464271,NaN,NaN,729.712474266665,845.121732464271,1045.12173246427,670.287525733335,870.287525733335,354.878267535729,554.878267535729,529.712474266665,NaN,NaN,NaN,NaN,4,0,0,0,NaN,NaN,horizontal,horizontal,vertical,horizontal,none,none
1d,3,100209,2,62,126,21,F,NA,constant,homogeneous,6,absent,0.793950080871582,1,horizontal,horizontal,1,0.635292890336778,green,2,NaN,1038.06300875679,691.383827134052,NaN,NaN,839.890788585259,851.86052685176,1038.06300875679,691.383827134052,998.172220171528,439.523300282291,760.109211414741,348.13947314824,561.936991243214,508.616172865948,601.827779828472,760.476699717708,0,4,0,0,0,0,horizontal,horizontal,horizontal,vertical,horizontal,horizontal
1d,3,100209,2,63,127,21,F,NA,constant,homogeneous,5,present,0.681092023849487,1,vertical,vertical,1,0.952928903367784,green,2,5,1034.72873763037,699.636437764765,551.535633479765,657.362518857686,777.775285599347,854.029648013395,1034.72873763037,699.636437764765,967.295052392579,407.549057043193,668.665290897936,381.422338320961,551.535633479765,657.362518857686,NaN,NaN,0,4,0,0,0,NaN,vertical,vertical,horizontal,horizontal,vertical,none
1d,3,100209,2,64,128,21,F,NA,constant,homogeneous,4,absent,0.593477010726929,1,horizontal,horizontal,1,0.929400309809932,green,4,NaN,572.793336331966,715.767577433584,NaN,NaN,915.767577433584,827.206663668034,1027.20666366803,484.232422566416,684.232422566416,372.793336331966,572.793336331966,715.767577433584,NaN,NaN,NaN,NaN,0,0,0,4,NaN,NaN,vertical,vertical,horizontal,horizontal,none,none
1d,3,100209,3,1,129,21,F,NA,constant,homogeneous,5,present,0.654566049575806,1,horizontal,horizontal,1,0.823521638799597,green,2,1,1047.42541020038,538.309916622085,935.129412379467,816.252264519889,935.129412379467,816.252264519889,1047.42541020038,538.309916622085,817.787900804752,345.621167183745,563.568117085469,504.475318678942,636.089159529932,795.341332995339,NaN,NaN,0,4,0,0,0,NaN,vertical,horizontal,vertical,horizontal,horizontal,none
1d,3,100209,3,2,130,21,F,NA,constant,homogeneous,5,absent,0.571048974990845,1,vertical,vertical,1,0.776464451683892,green,2,NaN,1042.51941165526,521.200666434388,NaN,NaN,949.885239334581,806.299333565612,1042.51941165526,521.200666434388,800,345,557.480588344736,521.200666434388,650.114760665419,806.299333565612,NaN,NaN,0,4,0,0,0,NaN,horizontal,vertical,vertical,horizontal,vertical,none
1d,3,100209,3,3,131,21,F,NA,constant,homogeneous,4,present,0.825711965560913,1,vertical,vertical,1,0.75293585812604,green,1,2,768.923317431687,853.099268668537,1053.09926866854,631.076682568313,768.923317431687,853.099268668537,1053.09926866854,631.076682568313,831.076682568313,346.900731331463,546.900731331463,568.923317431687,NaN,NaN,NaN,NaN,4,0,0,0,NaN,NaN,vertical,horizontal,vertical,horizontal,none,none
1d,3,100209,3,4,132,21,F,NA,constant,homogeneous,6,absent,0.863235950469971,1,horizontal,horizontal,1,1.04704327759919,green,1,NaN,831.076682568313,853.099268668537,NaN,NaN,831.076682568313,853.099268668537,1034.72873763037,699.636437764765,1003.65205506206,446.537169096228,768.923317431687,346.900731331463,565.271262369628,500.363562235235,596.34794493794,753.462830903772,4,0,0,0,0,0,horizontal,horizontal,horizontal,horizontal,vertical,horizontal
1d,3,100209,3,5,133,21,F,NA,constant,homogeneous,6,present,0.861908912658691,1,horizontal,horizontal,1,0.658821483894631,green,1,3,734.001143498857,846.311085703712,1046.31108570371,534.001143498857,734.001143498857,846.311085703712,980.31222920257,780.31222920257,1046.31108570371,534.001143498857,865.998856501143,353.688914296288,619.68777079743,419.68777079743,553.688914296288,665.998856501143,4,0,0,0,0,0,horizontal,vertical,vertical,horizontal,vertical,horizontal
1d,3,100209,3,6,134,21,F,NA,constant,homogeneous,5,present,0.891824960708618,1,horizontal,horizontal,1,0.835285935578523,green,5,3,593.700666434388,749.885239334581,878.799333565612,357.480588344736,878.799333565612,842.519411655264,1055,600,878.799333565612,357.480588344736,593.700666434388,450.114760665419,593.700666434388,749.885239334581,NaN,NaN,0,0,0,0,4,NaN,horizontal,vertical,horizontal,vertical,horizontal,none
1d,3,100209,3,7,135,21,F,NA,constant,homogeneous,3,present,0.737819194793701,1,horizontal,horizontal,1,1.01175038726241,green,3,1,601.827779828472,439.523300282291,760.109211414741,851.86052685176,760.109211414741,851.86052685176,1038.06300875679,508.616172865948,601.827779828472,439.523300282291,NaN,NaN,NaN,NaN,NaN,NaN,0,0,4,NaN,NaN,NaN,horizontal,vertical,horizontal,none,none,none
1d,3,100209,3,8,136,21,F,NA,constant,homogeneous,4,absent,0.769999980926514,1,horizontal,horizontal,1,1.03527898082027,green,4,NaN,546.39691668109,573.345241866748,NaN,NaN,773.345241866748,853.60308331891,1053.60308331891,626.654758133252,826.654758133252,346.39691668109,546.39691668109,573.345241866748,NaN,NaN,NaN,NaN,0,0,0,4,NaN,NaN,vertical,vertical,horizontal,horizontal,none,none
1d,3,100209,3,9,137,21,F,NA,constant,homogeneous,3,present,0.796205997467041,1,vertical,vertical,1,0.741171561347114,green,3,1,734.001143498857,353.688914296288,619.68777079743,780.31222920257,619.68777079743,780.31222920257,1046.31108570371,665.998856501143,734.001143498857,353.688914296288,NaN,NaN,NaN,NaN,NaN,NaN,0,0,4,NaN,NaN,NaN,vertical,horizontal,vertical,none,none,none
1d,3,100209,3,10,138,21,F,NA,constant,homogeneous,4,present,0.79938793182373,1,horizontal,horizontal,1,0.764700154904966,green,1,2,942.594190385041,811.404581001536,1011.40458100154,457.40580961496,942.594190385041,811.404581001536,1011.40458100154,457.40580961496,657.405809614959,388.595418998464,588.595418998464,742.594190385041,NaN,NaN,NaN,NaN,4,0,0,0,NaN,NaN,horizontal,horizontal,horizontal,vertical,none,none
1d,3,100209,3,11,139,21,F,NA,constant,homogeneous,3,absent,0.816463947296143,0,vertical,horizontal,1,0.635292890336778,green,3,NaN,545.155339110131,608.899371659138,NaN,NaN,935.129412379467,816.252264519889,919.715248510402,374.848363820974,545.155339110131,608.899371659138,NaN,NaN,NaN,NaN,NaN,NaN,0,0,4,NaN,NaN,NaN,horizontal,horizontal,vertical,none,none,none
1d,3,100209,3,12,140,21,F,NA,constant,homogeneous,5,present,0.867137908935547,1,vertical,vertical,1,0.717642967789261,green,4,2,664.870587620533,383.747735480111,1036.43188291453,695.524681321058,782.212099195248,854.378832816255,1036.43188291453,695.524681321058,963.910840470068,404.658667004661,664.870587620533,383.747735480111,552.574589799621,661.690083377915,NaN,NaN,0,0,0,4,0,NaN,horizontal,vertical,horizontal,vertical,horizontal,none
1d,3,100209,3,13,141,21,F,NA,constant,homogeneous,3,present,0.92326807975769,1,vertical,vertical,1,0.705878671010335,green,3,2,545.03883773512,604.450363641507,923.626453162816,376.971974679454,931.334709102064,818.577661679039,923.626453162816,376.971974679454,545.03883773512,604.450363641507,NaN,NaN,NaN,NaN,NaN,NaN,0,0,4,NaN,NaN,NaN,vertical,horizontal,vertical,none,none,none
1d,3,100209,3,14,142,21,F,NA,constant,homogeneous,4,present,0.888439178466797,1,horizontal,horizontal,1,0.75293585812604,green,4,1,574.848363820974,480.284751489598,680.284751489598,825.151636179026,680.284751489598,825.151636179026,1025.15163617903,719.715248510402,919.715248510402,374.848363820974,574.848363820974,480.284751489598,NaN,NaN,NaN,NaN,0,0,0,4,NaN,NaN,vertical,horizontal,horizontal,horizontal,none,none
1d,3,100209,3,15,143,21,F,NA,constant,homogeneous,5,absent,1.61182713508606,1,horizontal,horizontal,1,1.07057187115705,green,3,NaN,839.890788585259,348.13947314824,NaN,NaN,915.767577433584,827.206663668034,1051.86052685176,560.109211414741,839.890788585259,348.13947314824,572.793336331966,484.232422566416,619.68777079743,780.31222920257,NaN,NaN,0,0,4,0,0,NaN,horizontal,horizontal,horizontal,vertical,vertical,none
1d,3,100209,3,16,144,21,F,NA,constant,homogeneous,3,present,0.555056095123291,1,horizontal,horizontal,1,0.929400309809932,green,3,1,550.57236181288,546.982518841471,878.799333565612,842.519411655264,878.799333565612,842.519411655264,970.628304621509,410.498069503264,550.57236181288,546.982518841471,NaN,NaN,NaN,NaN,NaN,NaN,0,0,4,NaN,NaN,NaN,vertical,horizontal,horizontal,none,none,none
1d,3,100209,3,17,145,21,F,NA,constant,homogeneous,6,absent,0.66471004486084,1,vertical,vertical,1,0.917636013031006,green,5,NaN,563.568117085469,504.475318678942,NaN,NaN,835.489140744817,852.518357529101,1036.43188291453,695.524681321058,1000.94274216971,443.006323791957,764.510859255183,347.4816424709,563.568117085469,504.475318678942,599.057257830286,756.993676208043,0,0,0,0,4,0,horizontal,vertical,vertical,horizontal,vertical,horizontal
1d,3,100209,3,18,146,21,F,NA,constant,homogeneous,4,absent,0.658591985702515,1,horizontal,horizontal,1,1.02351468404134,green,4,NaN,548.13947314824,560.109211414741,NaN,NaN,760.109211414741,851.86052685176,1051.86052685176,639.890788585259,839.890788585259,348.13947314824,548.13947314824,560.109211414741,NaN,NaN,NaN,NaN,0,0,0,4,NaN,NaN,vertical,horizontal,horizontal,horizontal,none,none
1d,3,100209,3,19,147,21,F,NA,constant,homogeneous,6,absent,0.894385814666748,1,horizontal,horizontal,1,0.917636013031006,green,4,NaN,911.784642431215,370.807518193712,NaN,NaN,688.215357568785,829.192481806288,942.594190385041,811.404581001536,1054.37883281626,582.212099195248,911.784642431215,370.807518193712,657.405809614959,388.595418998464,545.621167183745,617.787900804752,0,0,0,4,0,0,horizontal,vertical,horizontal,horizontal,horizontal,horizontal
1d,3,100209,3,20,148,21,F,NA,constant,homogeneous,3,present,0.651111125946045,1,vertical,vertical,1,0.929400309809932,green,1,3,599.057257830286,756.993676208043,764.510859255183,347.4816424709,599.057257830286,756.993676208043,1036.43188291453,695.524681321058,764.510859255183,347.4816424709,NaN,NaN,NaN,NaN,NaN,NaN,4,0,0,NaN,NaN,NaN,vertical,vertical,vertical,none,none,none
1d,3,100209,3,21,149,21,F,NA,constant,homogeneous,5,absent,0.860946893692017,1,vertical,vertical,1,1.03527898082027,green,2,NaN,1046.31108570371,665.998856501143,NaN,NaN,813.345668841951,854.650531362416,1046.31108570371,665.998856501143,938.882953928832,386.139005173917,639.523300282292,401.827779828472,561.936991243214,691.383827134052,NaN,NaN,0,4,0,0,0,NaN,vertical,vertical,horizontal,horizontal,vertical,none
1d,3,100209,3,22,150,21,F,NA,constant,homogeneous,6,present,0.925902128219604,0,vertical,horizontal,1,0.976457496925637,green,6,2,550.57236181288,653.017481158529,970.628304621509,789.501930496736,721.200666434388,842.519411655264,970.628304621509,789.501930496736,1049.42763818712,546.982518841471,878.799333565612,357.480588344736,629.371695378491,410.498069503264,550.57236181288,653.017481158529,0,0,0,0,0,4,horizontal,vertical,vertical,horizontal,horizontal,vertical
1d,3,100209,3,23,151,21,F,NA,constant,homogeneous,6,present,0.786736965179443,1,horizontal,horizontal,1,0.90587171625208,green,2,6,953.462830903772,803.65205506206,546.900731331463,631.076682568313,700.363562235235,834.728737630372,953.462830903772,803.65205506206,1053.09926866854,568.923317431687,899.636437764765,365.271262369628,646.537169096228,396.34794493794,546.900731331463,631.076682568313,0,4,0,0,0,0,vertical,horizontal,vertical,vertical,horizontal,vertical
1d,3,100209,3,24,152,21,F,NA,constant,homogeneous,3,absent,0.852584838867188,1,horizontal,horizontal,1,0.705878671010335,green,2,NaN,956.993676208043,399.057257830286,NaN,NaN,895.524681321058,836.431882914531,956.993676208043,399.057257830286,547.481642470899,564.510859255183,NaN,NaN,NaN,NaN,NaN,NaN,0,4,0,NaN,NaN,NaN,vertical,horizontal,horizontal,none,none,none
1d,3,100209,3,25,153,21,F,NA,constant,homogeneous,4,present,0.867192029953003,1,vertical,vertical,1,0.670585780673557,green,2,4,1008.88377129369,453.738008730483,591.116228706307,746.261991269517,946.261991269517,808.883771293693,1008.88377129369,453.738008730483,653.738008730483,391.116228706307,591.116228706307,746.261991269517,NaN,NaN,NaN,NaN,0,4,0,0,NaN,NaN,horizontal,vertical,horizontal,horizontal,none,none
1d,3,100209,3,26,154,21,F,NA,constant,homogeneous,5,absent,1.26631999015808,1,horizontal,horizontal,1,0.682350077452483,green,5,NaN,546.39691668109,573.345241866748,NaN,NaN,696.282156015671,832.954091698863,989.501930496736,770.628304621509,1020.83647796503,472.5,746.982518841471,350.57236181288,546.39691668109,573.345241866748,NaN,NaN,0,0,0,0,4,NaN,vertical,horizontal,horizontal,horizontal,horizontal,none
1d,3,100209,3,27,155,21,F,NA,constant,homogeneous,4,absent,1.21173000335693,1,vertical,vertical,1,0.999986090483489,green,4,NaN,613.504806087112,426.090418184063,NaN,NaN,626.090418184063,786.495193912888,986.495193912888,773.909581815937,973.909581815937,413.504806087112,613.504806087112,426.090418184063,NaN,NaN,NaN,NaN,0,0,0,4,NaN,NaN,horizontal,vertical,vertical,vertical,none,none
1d,3,100209,3,28,156,21,F,NA,constant,homogeneous,5,absent,0.789215087890625,1,horizontal,horizontal,1,1.04704327759919,green,4,NaN,588.595418998464,457.40580961496,NaN,NaN,887.215136548046,839.621618300407,1054.84466088987,591.100628340862,870.287525733335,354.878267535729,588.595418998464,457.40580961496,599.057257830286,756.993676208043,NaN,NaN,0,0,0,4,0,NaN,vertical,vertical,vertical,horizontal,vertical,none
1d,3,100209,3,29,157,21,F,NA,constant,homogeneous,4,present,1.7373960018158,0,vertical,horizontal,1,0.811757342020671,green,4,3,619.68777079743,419.68777079743,980.31222920257,419.68777079743,619.68777079743,780.31222920257,980.31222920257,780.31222920257,980.31222920257,419.68777079743,619.68777079743,419.68777079743,NaN,NaN,NaN,NaN,0,0,0,4,NaN,NaN,horizontal,horizontal,vertical,vertical,none,none
1d,3,100209,3,30,158,21,F,NA,constant,homogeneous,5,present,1.12204098701477,1,horizontal,horizontal,1,1.08233616793597,green,1,2,826.654758133252,853.60308331891,1049.42763818712,653.017481158529,826.654758133252,853.60308331891,1049.42763818712,653.017481158529,927.5,379.163522034968,629.371695378491,410.498069503264,567.045908301137,703.717843984329,NaN,NaN,4,0,0,0,0,NaN,horizontal,vertical,horizontal,vertical,horizontal,none
1d,3,100209,3,31,159,21,F,NA,constant,homogeneous,5,absent,1.31779217720032,1,horizontal,horizontal,1,1.05880757437812,green,2,NaN,977.137884467044,783.431649086356,NaN,NaN,680.284751489598,825.151636179026,977.137884467044,783.431649086356,1029.19248180629,488.215357568785,764.510859255183,347.4816424709,548.874022981887,555.719714694933,NaN,NaN,0,4,0,0,0,NaN,horizontal,horizontal,horizontal,horizontal,horizontal,none
1d,3,100209,3,32,160,21,F,NA,constant,homogeneous,3,absent,1.18363904953003,1,vertical,vertical,1,0.764700154904966,green,3,NaN,574.848363820974,480.284751489598,NaN,NaN,808.899371659138,854.844660889869,1016.25226451989,464.870587620533,574.848363820974,480.284751489598,NaN,NaN,NaN,NaN,NaN,NaN,0,0,4,NaN,NaN,NaN,horizontal,horizontal,vertical,none,none,none
1d,3,100209,3,33,161,21,F,NA,constant,homogeneous,5,present,0.661726951599121,1,horizontal,horizontal,1,0.717642967789261,green,3,4,1032.95409169886,496.282156015671,773.345241866748,346.39691668109,672.5,820.836477965032,970.628304621509,789.501930496736,1032.95409169886,496.282156015671,773.345241866748,346.39691668109,550.57236181288,546.982518841471,NaN,NaN,0,0,4,0,0,NaN,horizontal,horizontal,horizontal,vertical,vertical,none
1d,3,100209,3,34,162,21,F,NA,constant,homogeneous,6,absent,1.26162004470825,1,horizontal,horizontal,1,0.705878671010335,green,5,NaN,616.568350913644,422.862115532956,NaN,NaN,738.309916622085,847.425410200379,983.431649086356,777.137884467044,1045.12173246427,529.712474266665,861.690083377915,352.574589799621,616.568350913644,422.862115532956,554.878267535729,670.287525733335,0,0,0,0,4,0,vertical,vertical,horizontal,horizontal,horizontal,vertical
1d,3,100209,3,35,163,21,F,NA,constant,homogeneous,3,absent,0.616426944732666,1,horizontal,horizontal,1,0.670585780673557,green,3,NaN,777.775285599347,345.970351986605,NaN,NaN,591.116228706307,746.261991269517,1031.10848569435,707.767656743878,777.775285599347,345.970351986605,NaN,NaN,NaN,NaN,NaN,NaN,0,0,4,NaN,NaN,NaN,horizontal,horizontal,horizontal,none,none,none
1d,3,100209,3,36,164,21,F,NA,constant,homogeneous,6,absent,0.811164140701294,1,horizontal,horizontal,1,0.717642967789261,green,1,NaN,692.232343256122,831.108485694346,NaN,NaN,692.232343256122,831.108485694346,946.261991269517,808.883771293693,1054.0296480134,577.775285599347,907.767656743878,368.891514305654,653.738008730483,391.116228706307,545.970351986605,622.224714400653,4,0,0,0,0,0,horizontal,vertical,horizontal,horizontal,vertical,vertical
1d,3,100209,3,37,165,21,F,NA,constant,homogeneous,3,absent,0.88368821144104,1,vertical,vertical,1,0.999986090483489,green,2,NaN,942.594190385041,388.595418998464,NaN,NaN,911.784642431215,829.192481806288,942.594190385041,388.595418998464,545.621167183745,582.212099195248,NaN,NaN,NaN,NaN,NaN,NaN,0,4,0,NaN,NaN,NaN,vertical,vertical,vertical,none,none,none
1d,3,100209,3,38,166,21,F,NA,constant,homogeneous,5,present,0.82861590385437,1,vertical,vertical,1,0.75293585812604,green,4,1,639.523300282292,401.827779828472,813.345668841951,854.650531362416,813.345668841951,854.650531362416,1046.31108570371,665.998856501143,938.882953928832,386.139005173917,639.523300282292,401.827779828472,561.936991243214,691.383827134052,NaN,NaN,0,0,0,4,0,NaN,vertical,horizontal,horizontal,vertical,vertical,none
1d,3,100209,3,39,167,21,F,NA,constant,homogeneous,4,absent,0.690781116485596,1,horizontal,horizontal,1,0.870578825915301,green,2,NaN,1051.86052685176,560.109211414741,NaN,NaN,839.890788585259,851.86052685176,1051.86052685176,560.109211414741,760.109211414741,348.13947314824,548.13947314824,639.890788585259,NaN,NaN,NaN,NaN,0,4,0,0,NaN,NaN,horizontal,horizontal,horizontal,horizontal,none,none
1d,3,100209,3,40,168,21,F,NA,constant,homogeneous,6,present,1.07014799118042,1,horizontal,horizontal,1,1.07057187115705,green,1,2,700.363562235235,834.728737630372,953.462830903772,803.65205506206,700.363562235235,834.728737630372,953.462830903772,803.65205506206,1053.09926866854,568.923317431687,899.636437764765,365.271262369628,646.537169096228,396.34794493794,546.900731331463,631.076682568313,4,0,0,0,0,0,horizontal,horizontal,horizontal,horizontal,horizontal,vertical
1d,3,100209,3,41,169,21,F,NA,constant,homogeneous,4,absent,0.851306915283203,0,vertical,horizontal,1,0.976457496925637,green,1,NaN,672.5,820.836477965032,NaN,NaN,672.5,820.836477965032,1020.83647796503,727.5,927.5,379.163522034968,579.163522034968,472.5,NaN,NaN,NaN,NaN,4,0,0,0,NaN,NaN,vertical,vertical,horizontal,horizontal,none,none
1d,3,100209,3,42,170,21,F,NA,constant,homogeneous,4,absent,1.13651299476624,1,vertical,vertical,1,0.6,green,2,NaN,1043.85771277057,674.554784704298,NaN,NaN,725.445215295702,843.857712770574,1043.85771277057,674.554784704298,874.554784704298,356.142287229426,556.142287229426,525.445215295702,NaN,NaN,NaN,NaN,0,4,0,0,NaN,NaN,horizontal,vertical,horizontal,vertical,none,none
1d,3,100209,3,43,171,21,F,NA,constant,homogeneous,6,absent,0.904721975326538,1,vertical,vertical,1,1.05880757437812,green,1,NaN,696.282156015671,832.954091698863,NaN,NaN,696.282156015671,832.954091698863,949.885239334581,806.299333565612,1053.60308331891,573.345241866748,903.717843984329,367.045908301137,650.114760665419,393.700666434388,546.39691668109,626.654758133252,4,0,0,0,0,0,vertical,horizontal,vertical,horizontal,vertical,horizontal
1d,3,100209,3,44,172,21,F,NA,constant,homogeneous,6,absent,0.77885103225708,1,vertical,vertical,1,0.799993045241744,green,4,NaN,676.373546837184,376.971974679454,NaN,NaN,923.626453162816,823.028025320546,1054.96116226488,604.450363641507,931.334709102064,381.422338320961,676.373546837184,376.971974679454,545.03883773512,595.549636358493,668.665290897936,818.577661679039,0,0,0,4,0,0,vertical,horizontal,horizontal,vertical,horizontal,horizontal
1d,3,100209,3,45,173,21,F,NA,constant,homogeneous,4,present,0.75587010383606,1,vertical,vertical,1,0.658821483894631,green,2,4,1016.25226451989,464.870587620533,583.747735480111,735.129412379467,935.129412379467,816.252264519889,1016.25226451989,464.870587620533,664.870587620533,383.747735480111,583.747735480111,735.129412379467,NaN,NaN,NaN,NaN,0,4,0,0,NaN,NaN,horizontal,vertical,horizontal,horizontal,none,none
1d,3,100209,3,46,174,21,F,NA,constant,homogeneous,4,absent,0.627928018569946,1,horizontal,horizontal,1,0.835285935578523,green,2,NaN,1036.43188291453,504.475318678942,NaN,NaN,895.524681321058,836.431882914531,1036.43188291453,504.475318678942,704.475318678942,363.568117085469,563.568117085469,695.524681321058,NaN,NaN,NaN,NaN,0,4,0,0,NaN,NaN,vertical,horizontal,horizontal,horizontal,none,none
1d,3,100209,3,47,175,21,F,NA,constant,homogeneous,5,absent,1.37347197532654,1,vertical,vertical,1,0.635292890336778,green,2,NaN,1051.86052685176,639.890788585259,NaN,NaN,839.890788585259,851.86052685176,1051.86052685176,639.890788585259,915.767577433584,372.793336331966,619.68777079743,419.68777079743,572.793336331966,715.767577433584,NaN,NaN,0,4,0,0,0,NaN,vertical,vertical,horizontal,horizontal,horizontal,none
1d,3,100209,3,48,176,21,F,NA,constant,homogeneous,4,present,1.24545097351074,1,horizontal,horizontal,1,1.02351468404134,green,4,1,601.827779828472,760.476699717708,960.476699717708,798.172220171528,960.476699717708,798.172220171528,998.172220171528,439.523300282291,639.523300282292,401.827779828472,601.827779828472,760.476699717708,NaN,NaN,NaN,NaN,0,0,0,4,NaN,NaN,horizontal,horizontal,vertical,horizontal,none,none
1d,3,100209,3,49,177,21,F,NA,constant,homogeneous,3,present,0.644116163253784,1,horizontal,horizontal,1,1.08233616793597,green,3,1,560.378381699593,512.784863451954,844.280285305067,851.125977018113,844.280285305067,851.125977018113,995.341332995339,436.089159529932,560.378381699593,512.784863451954,NaN,NaN,NaN,NaN,NaN,NaN,0,0,4,NaN,NaN,NaN,vertical,horizontal,horizontal,none,none,none
1d,3,100209,3,50,178,21,F,NA,constant,homogeneous,3,absent,0.99848198890686,1,vertical,vertical,1,1.07057187115705,green,1,NaN,813.345668841951,854.650531362416,NaN,NaN,813.345668841951,854.650531362416,1013.86099482608,461.117046071168,572.793336331966,484.232422566416,NaN,NaN,NaN,NaN,NaN,NaN,4,0,0,NaN,NaN,NaN,vertical,vertical,horizontal,none,none,none
1d,3,100209,3,51,179,21,F,NA,constant,homogeneous,6,present,0.889277935028076,1,vertical,vertical,1,0.929400309809932,green,4,2,874.554784704298,356.142287229426,973.909581815937,786.495193912888,725.445215295702,843.857712770574,973.909581815937,786.495193912888,1048.46436652023,542.637481142314,874.554784704298,356.142287229426,626.090418184063,413.504806087112,551.535633479765,657.362518857686,0,0,0,4,0,0,vertical,horizontal,horizontal,vertical,horizontal,horizontal
1d,3,100209,3,52,180,21,F,NA,constant,homogeneous,3,present,0.66110897064209,1,vertical,vertical,1,1.0941004647149,green,1,2,844.280285305067,851.125977018113,995.341332995339,436.089159529932,844.280285305067,851.125977018113,995.341332995339,436.089159529932,560.378381699593,512.784863451954,NaN,NaN,NaN,NaN,NaN,NaN,4,0,0,NaN,NaN,NaN,vertical,horizontal,vertical,none,none,none
1d,3,100209,3,53,181,21,F,NA,constant,homogeneous,6,present,1.25122404098511,1,vertical,vertical,1,0.835285935578523,green,6,5,583.747735480111,735.129412379467,574.848363820974,480.284751489598,808.899371659138,854.844660889869,1025.15163617903,719.715248510402,1016.25226451989,464.870587620533,791.100628340862,345.155339110131,574.848363820974,480.284751489598,583.747735480111,735.129412379467,0,0,0,0,0,4,horizontal,horizontal,vertical,horizontal,horizontal,vertical
1d,3,100209,3,54,182,21,F,NA,constant,homogeneous,6,absent,0.995656967163086,1,vertical,vertical,1,0.764700154904966,green,5,NaN,561.936991243214,508.616172865948,NaN,NaN,839.890788585259,851.86052685176,1038.06300875679,691.383827134052,998.172220171528,439.523300282291,760.109211414741,348.13947314824,561.936991243214,508.616172865948,601.827779828472,760.476699717708,0,0,0,0,4,0,horizontal,horizontal,horizontal,horizontal,vertical,vertical
1d,3,100209,3,55,183,21,F,NA,constant,homogeneous,4,present,0.889362096786499,1,horizontal,horizontal,1,1.08233616793597,green,2,3,1036.43188291453,695.524681321058,895.524681321058,363.568117085469,704.475318678942,836.431882914531,1036.43188291453,695.524681321058,895.524681321058,363.568117085469,563.568117085469,504.475318678942,NaN,NaN,NaN,NaN,0,4,0,0,NaN,NaN,horizontal,horizontal,vertical,horizontal,none,none
1d,3,100209,3,56,184,21,F,NA,constant,homogeneous,6,present,1.0278148651123,1,horizontal,horizontal,1,1.02351468404134,green,5,4,583.747735480111,464.870587620533,808.899371659138,345.155339110131,791.100628340862,854.844660889869,1016.25226451989,735.129412379467,1025.15163617903,480.284751489598,808.899371659138,345.155339110131,583.747735480111,464.870587620533,574.848363820974,719.715248510402,0,0,0,0,4,0,vertical,vertical,vertical,horizontal,horizontal,horizontal
1d,3,100209,3,57,185,21,F,NA,constant,homogeneous,5,absent,1.04761290550232,1,vertical,vertical,1,0.952928903367784,green,2,NaN,1054.37883281626,582.212099195248,NaN,NaN,895.524681321058,836.431882914531,1054.37883281626,582.212099195248,861.690083377915,352.574589799621,583.747735480111,464.870587620533,604.658667004661,763.910840470068,NaN,NaN,0,4,0,0,0,NaN,horizontal,vertical,vertical,vertical,vertical,none
1d,3,100209,3,58,186,21,F,NA,constant,homogeneous,6,present,0.903114080429077,1,vertical,vertical,1,0.917636013031006,green,5,1,545.155339110131,591.100628340862,919.715248510402,825.151636179026,919.715248510402,825.151636179026,1054.84466088987,608.899371659138,935.129412379467,383.747735480111,680.284751489598,374.848363820974,545.155339110131,591.100628340862,664.870587620533,816.252264519889,0,0,0,0,4,0,horizontal,vertical,vertical,vertical,vertical,vertical
1d,3,100209,3,59,187,21,F,NA,constant,homogeneous,3,present,0.674505949020386,1,horizontal,horizontal,1,0.858814529136375,green,3,1,613.504806087112,426.090418184063,742.637481142314,848.464366520235,742.637481142314,848.464366520235,1043.85771277057,525.445215295702,613.504806087112,426.090418184063,NaN,NaN,NaN,NaN,NaN,NaN,0,0,4,NaN,NaN,NaN,horizontal,vertical,horizontal,none,none,none
1d,3,100209,3,60,188,21,F,NA,constant,homogeneous,5,present,0.959153175354004,1,vertical,vertical,1,0.75293585812604,green,1,3,844.280285305067,851.125977018113,911.784642431215,370.807518193712,844.280285305067,851.125977018113,1052.5183575291,635.489140744817,911.784642431215,370.807518193712,616.568350913644,422.862115532956,574.848363820974,719.715248510402,NaN,NaN,4,0,0,0,0,NaN,vertical,horizontal,vertical,vertical,vertical,none
1d,3,100209,3,61,189,21,F,NA,constant,homogeneous,4,absent,0.794182062149048,1,vertical,vertical,1,0.976457496925637,green,3,NaN,826.654758133252,346.39691668109,NaN,NaN,773.345241866748,853.60308331891,1053.60308331891,626.654758133252,826.654758133252,346.39691668109,546.39691668109,573.345241866748,NaN,NaN,NaN,NaN,0,0,4,0,NaN,NaN,vertical,horizontal,vertical,vertical,none,none
1d,3,100209,3,62,190,21,F,NA,constant,homogeneous,3,absent,1.58926486968994,0,horizontal,vertical,1,0.96469320014671,green,2,NaN,1046.31108570371,665.998856501143,NaN,NaN,619.68777079743,780.31222920257,1046.31108570371,665.998856501143,734.001143498857,353.688914296288,NaN,NaN,NaN,NaN,NaN,NaN,0,4,0,NaN,NaN,NaN,vertical,horizontal,vertical,none,none,none
1d,3,100209,3,63,191,21,F,NA,constant,homogeneous,3,absent,0.979076147079468,1,horizontal,horizontal,1,0.682350077452483,green,2,NaN,1048.46436652023,542.637481142314,NaN,NaN,725.445215295702,843.857712770574,1048.46436652023,542.637481142314,626.090418184063,413.504806087112,NaN,NaN,NaN,NaN,NaN,NaN,0,4,0,NaN,NaN,NaN,vertical,horizontal,horizontal,none,none,none
1d,3,100209,3,64,192,21,F,NA,constant,homogeneous,5,present,1.26089787483215,1,vertical,vertical,1,0.705878671010335,green,2,5,1045.12173246427,670.287525733335,560.378381699593,687.215136548046,808.899371659138,854.844660889869,1045.12173246427,670.287525733335,942.594190385041,388.595418998464,643.006323791957,399.057257830286,560.378381699593,687.215136548046,NaN,NaN,0,4,0,0,0,NaN,horizontal,vertical,horizontal,horizontal,horizontal,none
1d,3,100209,4,1,193,21,F,NA,constant,homogeneous,3,absent,0.879472017288208,1,vertical,vertical,1,0.976457496925637,green,3,NaN,632.704947607421,407.549057043193,NaN,NaN,716.980120613425,841.107236777826,1050.31493177915,551.343706178981,632.704947607421,407.549057043193,NaN,NaN,NaN,NaN,NaN,NaN,0,0,4,NaN,NaN,NaN,horizontal,vertical,vertical,none,none,none
1d,3,100209,4,2,194,21,F,NA,constant,homogeneous,5,present,1.16078305244446,1,horizontal,horizontal,1,0.988221793704563,green,5,3,557.480588344736,678.799333565612,949.885239334581,393.700666434388,800,855,1042.51941165526,678.799333565612,949.885239334581,393.700666434388,650.114760665419,393.700666434388,557.480588344736,678.799333565612,NaN,NaN,0,0,0,0,4,NaN,horizontal,vertical,horizontal,vertical,horizontal,none
1d,3,100209,4,3,195,21,F,NA,constant,homogeneous,4,absent,0.847225904464722,1,vertical,vertical,1,0.941164606588858,green,3,NaN,712.784863451954,360.378381699593,NaN,NaN,887.215136548046,839.621618300407,1039.62161830041,512.784863451954,712.784863451954,360.378381699593,560.378381699593,687.215136548046,NaN,NaN,NaN,NaN,0,0,4,0,NaN,NaN,horizontal,horizontal,vertical,horizontal,none,none
1d,3,100209,4,4,196,21,F,NA,constant,homogeneous,5,present,0.979924917221069,1,horizontal,horizontal,1,0.976457496925637,green,2,5,1054.96116226488,595.549636358493,596.34794493794,753.462830903772,883.019879386575,841.107236777826,1054.96116226488,595.549636358493,874.554784704298,356.142287229426,591.116228706307,453.738008730483,596.34794493794,753.462830903772,NaN,NaN,0,4,0,0,0,NaN,horizontal,horizontal,vertical,horizontal,horizontal,none
1d,3,100209,4,5,197,21,F,NA,constant,homogeneous,5,present,1.38457202911377,0,vertical,horizontal,1,0.647057187115705,green,5,2,581.422338320961,731.334709102064,1054.0296480134,622.224714400653,857.362518857686,848.464366520235,1054.0296480134,622.224714400653,899.636437764765,365.271262369628,607.549057043193,432.704947607421,581.422338320961,731.334709102064,NaN,NaN,0,0,0,0,4,NaN,horizontal,horizontal,horizontal,vertical,vertical,none
1d,3,100209,4,6,198,21,F,NA,constant,homogeneous,4,present,0.868870973587036,1,horizontal,horizontal,1,1.02351468404134,green,3,2,661.117046071168,386.139005173917,1013.86099482608,461.117046071168,938.882953928832,813.860994826083,1013.86099482608,461.117046071168,661.117046071168,386.139005173917,586.139005173917,738.882953928832,NaN,NaN,NaN,NaN,0,0,4,0,NaN,NaN,vertical,horizontal,horizontal,horizontal,none,none
1d,3,100209,4,7,199,21,F,NA,constant,homogeneous,4,present,0.972383975982666,1,vertical,vertical,1,0.705878671010335,green,1,2,704.475318678942,836.431882914531,1036.43188291453,695.524681321058,704.475318678942,836.431882914531,1036.43188291453,695.524681321058,895.524681321058,363.568117085469,563.568117085469,504.475318678942,NaN,NaN,NaN,NaN,4,0,0,0,NaN,NaN,vertical,horizontal,horizontal,vertical,none,none
1d,3,100209,4,8,200,21,F,NA,constant,homogeneous,6,absent,0.757124900817871,1,horizontal,horizontal,1,0.847050232357449,green,3,NaN,998.172220171528,439.523300282291,NaN,NaN,839.890788585259,851.86052685176,1038.06300875679,691.383827134052,998.172220171528,439.523300282291,760.109211414741,348.13947314824,561.936991243214,508.616172865948,601.827779828472,760.476699717708,0,0,4,0,0,0,horizontal,vertical,horizontal,vertical,vertical,horizontal
1d,3,100209,4,9,201,21,F,NA,constant,homogeneous,4,absent,0.852030992507935,1,horizontal,horizontal,1,0.988221793704563,green,2,NaN,995.341332995339,763.910840470068,NaN,NaN,636.089159529932,795.341332995339,995.341332995339,763.910840470068,963.910840470068,404.658667004661,604.658667004661,436.089159529932,NaN,NaN,NaN,NaN,0,4,0,0,NaN,NaN,vertical,horizontal,vertical,vertical,none,none
1d,3,100209,4,10,202,21,F,NA,constant,homogeneous,4,present,1.14197397232056,1,vertical,vertical,1,0.835285935578523,green,1,3,919.715248510402,825.151636179026,680.284751489598,374.848363820974,919.715248510402,825.151636179026,1025.15163617903,480.284751489598,680.284751489598,374.848363820974,574.848363820974,719.715248510402,NaN,NaN,NaN,NaN,4,0,0,0,NaN,NaN,vertical,vertical,vertical,vertical,none,none
1d,3,100209,4,11,203,21,F,NA,constant,homogeneous,5,absent,1.84596610069275,0,horizontal,vertical,1,0.647057187115705,green,2,NaN,1042.51941165526,678.799333565612,NaN,NaN,800,855,1042.51941165526,678.799333565612,949.885239334581,393.700666434388,650.114760665419,393.700666434388,557.480588344736,678.799333565612,NaN,NaN,0,4,0,0,0,NaN,vertical,horizontal,horizontal,vertical,vertical,none
1d,3,100209,4,12,204,21,F,NA,constant,homogeneous,4,absent,1.08806991577148,1,vertical,vertical,1,0.835285935578523,green,1,NaN,704.475318678942,836.431882914531,NaN,NaN,704.475318678942,836.431882914531,1036.43188291453,695.524681321058,895.524681321058,363.568117085469,563.568117085469,504.475318678942,NaN,NaN,NaN,NaN,4,0,0,0,NaN,NaN,vertical,horizontal,horizontal,horizontal,none,none
1d,3,100209,4,13,205,21,F,NA,constant,homogeneous,4,absent,0.708539962768555,1,horizontal,horizontal,1,0.741171561347114,green,3,NaN,935.129412379467,383.747735480111,NaN,NaN,664.870587620533,816.252264519889,1016.25226451989,735.129412379467,935.129412379467,383.747735480111,583.747735480111,464.870587620533,NaN,NaN,NaN,NaN,0,0,4,0,NaN,NaN,horizontal,horizontal,horizontal,horizontal,none,none
1d,3,100209,4,14,206,21,F,NA,constant,homogeneous,3,present,0.737876892089844,1,horizontal,horizontal,1,0.941164606588858,green,2,3,1027.20666366803,715.767577433584,786.654331158049,345.349468637584,586.139005173917,738.882953928832,1027.20666366803,715.767577433584,786.654331158049,345.349468637584,NaN,NaN,NaN,NaN,NaN,NaN,0,4,0,NaN,NaN,NaN,horizontal,horizontal,horizontal,none,none,none
1d,3,100209,4,15,207,21,F,NA,constant,homogeneous,5,absent,0.677250146865845,1,horizontal,horizontal,1,0.823521638799597,green,2,NaN,1020.83647796503,727.5,NaN,NaN,746.982518841471,849.42763818712,1020.83647796503,727.5,989.501930496736,429.371695378491,696.282156015671,367.045908301137,546.39691668109,626.654758133252,NaN,NaN,0,4,0,0,0,NaN,vertical,horizontal,vertical,vertical,vertical,none
1d,3,100209,4,16,208,21,F,NA,constant,homogeneous,6,absent,0.845980882644653,1,vertical,vertical,1,0.96469320014671,green,6,NaN,657.405809614959,811.404581001536,NaN,NaN,911.784642431215,829.192481806288,1054.37883281626,617.787900804752,942.594190385041,388.595418998464,688.215357568785,370.807518193712,545.621167183745,582.212099195248,657.405809614959,811.404581001536,0,0,0,0,0,4,vertical,horizontal,vertical,horizontal,vertical,vertical
1d,3,100209,4,17,209,21,F,NA,constant,homogeneous,6,present,0.731482982635498,0,vertical,horizontal,1,0.799993045241744,green,3,2,1041.10723677783,516.980120613425,992.450942956807,767.295052392579,751.343706178981,850.314931779154,992.450942956807,767.295052392579,1041.10723677783,516.980120613425,848.656293821019,349.685068220846,607.549057043193,432.704947607421,558.892763222174,683.019879386575,0,0,4,0,0,0,vertical,horizontal,vertical,vertical,horizontal,vertical
1d,3,100209,4,18,210,21,F,NA,constant,homogeneous,5,present,0.687566041946411,1,vertical,vertical,1,1.07057187115705,green,2,1,1045.12173246427,529.712474266665,942.594190385041,811.404581001536,942.594190385041,811.404581001536,1045.12173246427,529.712474266665,808.899371659138,345.155339110131,560.378381699593,512.784863451954,643.006323791957,800.942742169714,NaN,NaN,0,4,0,0,0,NaN,horizontal,vertical,vertical,horizontal,horizontal,none
1d,3,100209,4,19,211,21,F,NA,constant,homogeneous,5,present,0.89188814163208,1,vertical,vertical,1,0.917636013031006,green,5,4,639.523300282292,798.172220171528,561.936991243214,508.616172865948,938.882953928832,813.860994826083,1046.31108570371,534.001143498857,813.345668841951,345.349468637584,561.936991243214,508.616172865948,639.523300282292,798.172220171528,NaN,NaN,0,0,0,0,4,NaN,horizontal,horizontal,vertical,vertical,vertical,none
1d,3,100209,4,20,212,21,F,NA,constant,homogeneous,4,absent,0.911190032958984,1,horizontal,horizontal,1,1.07057187115705,green,1,NaN,822.224714400653,854.029648013395,NaN,NaN,822.224714400653,854.029648013395,1054.0296480134,577.775285599347,777.775285599347,345.970351986605,545.970351986605,622.224714400653,NaN,NaN,NaN,NaN,4,0,0,0,NaN,NaN,horizontal,vertical,horizontal,vertical,none,none
1d,3,100209,4,21,213,21,F,NA,constant,homogeneous,4,present,0.947937965393066,1,vertical,vertical,1,0.917636013031006,green,1,3,636.089159529932,795.341332995339,963.910840470068,404.658667004661,636.089159529932,795.341332995339,995.341332995339,763.910840470068,963.910840470068,404.658667004661,604.658667004661,436.089159529932,NaN,NaN,NaN,NaN,4,0,0,0,NaN,NaN,vertical,vertical,vertical,horizontal,none,none
1d,3,100209,4,22,214,21,F,NA,constant,homogeneous,5,present,0.912651062011719,1,vertical,vertical,1,1.08233616793597,green,4,5,653.738008730483,391.116228706307,556.142287229426,674.554784704298,795.549636358493,854.96116226488,1041.10723677783,683.019879386575,953.462830903772,396.34794493794,653.738008730483,391.116228706307,556.142287229426,674.554784704298,NaN,NaN,0,0,0,4,0,NaN,vertical,vertical,horizontal,vertical,vertical,none
1d,3,100209,4,23,215,21,F,NA,constant,homogeneous,3,absent,0.632683992385864,1,vertical,vertical,1,0.882343122694227,green,2,NaN,817.787900804752,345.621167183745,NaN,NaN,1011.40458100154,742.594190385041,817.787900804752,345.621167183745,570.807518193712,711.784642431215,NaN,NaN,NaN,NaN,NaN,NaN,0,4,0,NaN,NaN,NaN,horizontal,vertical,horizontal,none,none,none
1d,3,100209,4,24,216,21,F,NA,constant,homogeneous,3,present,0.661771059036255,1,vertical,vertical,1,1.02351468404134,green,1,2,1020.83647796503,727.5,800,345,1020.83647796503,727.5,800,345,579.163522034968,727.5,NaN,NaN,NaN,NaN,NaN,NaN,4,0,0,NaN,NaN,NaN,vertical,horizontal,horizontal,none,none,none
1d,3,100209,4,25,217,21,F,NA,constant,homogeneous,4,present,0.748187065124512,1,horizontal,horizontal,1,0.835285935578523,green,1,4,768.923317431687,853.099268668537,546.900731331463,568.923317431687,768.923317431687,853.099268668537,1053.09926866854,631.076682568313,831.076682568313,346.900731331463,546.900731331463,568.923317431687,NaN,NaN,NaN,NaN,4,0,0,0,NaN,NaN,horizontal,horizontal,horizontal,vertical,none,none
1d,3,100209,4,26,218,21,F,NA,constant,homogeneous,5,absent,0.763140916824341,1,vertical,vertical,1,0.999986090483489,green,4,NaN,653.738008730483,391.116228706307,NaN,NaN,795.549636358493,854.96116226488,1041.10723677783,683.019879386575,953.462830903772,396.34794493794,653.738008730483,391.116228706307,556.142287229426,674.554784704298,NaN,NaN,0,0,0,4,0,NaN,vertical,vertical,vertical,vertical,vertical,none
1d,3,100209,4,27,219,21,F,NA,constant,homogeneous,6,absent,0.879042863845825,1,vertical,vertical,1,0.823521638799597,green,5,NaN,553.688914296288,534.001143498857,NaN,NaN,865.998856501143,846.311085703712,1046.31108570371,665.998856501143,980.31222920257,419.68777079743,734.001143498857,353.688914296288,553.688914296288,534.001143498857,619.68777079743,780.31222920257,0,0,0,0,4,0,horizontal,vertical,vertical,horizontal,vertical,vertical
1d,3,100209,4,28,220,21,F,NA,constant,homogeneous,3,absent,1.15206098556519,1,horizontal,horizontal,1,0.764700154904966,green,2,NaN,1051.12597701811,644.280285305067,NaN,NaN,636.089159529932,795.341332995339,1051.12597701811,644.280285305067,712.784863451954,360.378381699593,NaN,NaN,NaN,NaN,NaN,NaN,0,4,0,NaN,NaN,NaN,vertical,horizontal,horizontal,none,none,none
1d,3,100209,4,29,221,21,F,NA,constant,homogeneous,5,absent,1.40417289733887,1,vertical,vertical,1,0.847050232357449,green,4,NaN,688.215357568785,370.807518193712,NaN,NaN,755.719714694933,851.125977018113,1025.15163617903,719.715248510402,983.431649086356,422.862115532956,688.215357568785,370.807518193712,547.481642470899,635.489140744817,NaN,NaN,0,0,0,4,0,NaN,vertical,vertical,horizontal,vertical,vertical,none
1d,3,100209,4,30,222,21,F,NA,constant,homogeneous,4,absent,0.654948949813843,1,horizontal,horizontal,1,0.729407264568187,green,3,NaN,911.784642431215,370.807518193712,NaN,NaN,688.215357568785,829.192481806288,1029.19248180629,711.784642431215,911.784642431215,370.807518193712,570.807518193712,488.215357568785,NaN,NaN,NaN,NaN,0,0,4,0,NaN,NaN,vertical,horizontal,horizontal,vertical,none,none
1d,3,100209,4,31,223,21,F,NA,constant,homogeneous,4,absent,0.72149395942688,1,vertical,vertical,1,0.858814529136375,green,1,NaN,653.738008730483,808.883771293693,NaN,NaN,653.738008730483,808.883771293693,1008.88377129369,746.261991269517,946.261991269517,391.116228706307,591.116228706307,453.738008730483,NaN,NaN,NaN,NaN,4,0,0,0,NaN,NaN,vertical,vertical,horizontal,vertical,none,none
1d,3,100209,4,32,224,21,F,NA,constant,homogeneous,3,absent,0.625977993011475,1,vertical,vertical,1,1.0941004647149,green,3,NaN,547.481642470899,564.510859255183,NaN,NaN,895.524681321058,836.431882914531,956.993676208043,399.057257830286,547.481642470899,564.510859255183,NaN,NaN,NaN,NaN,NaN,NaN,0,0,4,NaN,NaN,NaN,vertical,horizontal,vertical,none,none,none
1d,3,100209,4,33,225,21,F,NA,constant,homogeneous,3,present,0.561941862106323,1,horizontal,horizontal,1,0.764700154904966,green,2,3,878.799333565612,357.480588344736,550.57236181288,653.017481158529,970.628304621509,789.501930496736,878.799333565612,357.480588344736,550.57236181288,653.017481158529,NaN,NaN,NaN,NaN,NaN,NaN,0,4,0,NaN,NaN,NaN,vertical,horizontal,horizontal,none,none,none
1d,3,100209,4,34,226,21,F,NA,constant,homogeneous,4,present,0.710392951965332,1,horizontal,horizontal,1,0.847050232357449,green,3,2,639.523300282292,401.827779828472,998.172220171528,439.523300282291,960.476699717708,798.172220171528,998.172220171528,439.523300282291,639.523300282292,401.827779828472,601.827779828472,760.476699717708,NaN,NaN,NaN,NaN,0,0,4,0,NaN,NaN,vertical,vertical,horizontal,vertical,none,none
1d,3,100209,4,35,227,21,F,NA,constant,homogeneous,6,present,1.10818195343018,1,horizontal,horizontal,1,0.988221793704563,green,1,5,716.980120613425,841.107236777826,632.704947607421,407.549057043193,716.980120613425,841.107236777826,967.295052392579,792.450942956807,1050.31493177915,551.343706178981,883.019879386575,358.892763222174,632.704947607421,407.549057043193,549.685068220846,648.656293821019,4,0,0,0,0,0,horizontal,horizontal,horizontal,vertical,vertical,horizontal
1d,3,100209,4,36,228,21,F,NA,constant,homogeneous,3,present,0.659767866134644,1,vertical,vertical,1,1.05880757437812,green,2,3,1046.31108570371,665.998856501143,734.001143498857,353.688914296288,619.68777079743,780.31222920257,1046.31108570371,665.998856501143,734.001143498857,353.688914296288,NaN,NaN,NaN,NaN,NaN,NaN,0,4,0,NaN,NaN,NaN,vertical,vertical,vertical,none,none,none
1d,3,100209,4,37,229,21,F,NA,constant,homogeneous,3,present,0.550650835037231,1,vertical,vertical,1,0.670585780673557,green,2,1,1031.10848569435,492.232343256122,777.775285599347,854.029648013395,777.775285599347,854.029648013395,1031.10848569435,492.232343256122,591.116228706307,453.738008730483,NaN,NaN,NaN,NaN,NaN,NaN,0,4,0,NaN,NaN,NaN,horizontal,vertical,horizontal,none,none,none
1d,3,100209,4,38,230,21,F,NA,constant,homogeneous,5,absent,0.888613939285278,1,vertical,vertical,1,0.941164606588858,green,1,NaN,903.717843984329,832.954091698863,NaN,NaN,903.717843984329,832.954091698863,1053.60308331891,573.345241866748,853.017481158529,350.57236181288,579.163522034968,472.5,610.498069503264,770.628304621509,NaN,NaN,4,0,0,0,0,NaN,vertical,vertical,horizontal,horizontal,vertical,none
1d,3,100209,4,39,231,21,F,NA,constant,homogeneous,3,absent,1.37470293045044,0,horizontal,vertical,1,1.01175038726241,green,2,NaN,874.554784704298,356.142287229426,NaN,NaN,973.909581815937,786.495193912888,874.554784704298,356.142287229426,551.535633479765,657.362518857686,NaN,NaN,NaN,NaN,NaN,NaN,0,4,0,NaN,NaN,NaN,horizontal,horizontal,horizontal,none,none,none
1d,3,100209,4,40,232,21,F,NA,constant,homogeneous,3,present,1.854896068573,1,vertical,vertical,1,0.811757342020671,green,1,2,583.747735480111,735.129412379467,1025.15163617903,719.715248510402,583.747735480111,735.129412379467,1025.15163617903,719.715248510402,791.100628340862,345.155339110131,NaN,NaN,NaN,NaN,NaN,NaN,4,0,0,NaN,NaN,NaN,vertical,horizontal,vertical,none,none,none
1d,3,100209,4,41,233,21,F,NA,constant,homogeneous,3,absent,0.92446494102478,1,horizontal,horizontal,1,1.02351468404134,green,3,NaN,545.621167183745,617.787900804752,NaN,NaN,942.594190385041,811.404581001536,911.784642431215,370.807518193712,545.621167183745,617.787900804752,NaN,NaN,NaN,NaN,NaN,NaN,0,0,4,NaN,NaN,NaN,vertical,vertical,horizontal,none,none,none
1d,3,100209,4,42,234,21,F,NA,constant,homogeneous,5,absent,0.950953006744385,1,horizontal,horizontal,1,0.988221793704563,green,5,NaN,545.621167183745,582.212099195248,NaN,NaN,704.475318678942,836.431882914531,995.341332995339,763.910840470068,1016.25226451989,464.870587620533,738.309916622085,352.574589799621,545.621167183745,582.212099195248,NaN,NaN,0,0,0,0,4,NaN,horizontal,vertical,vertical,horizontal,horizontal,none
1d,3,100209,4,43,235,21,F,NA,constant,homogeneous,3,present,0.785901069641113,1,horizontal,horizontal,1,0.988221793704563,green,3,1,643.006323791957,399.057257830286,704.475318678942,836.431882914531,704.475318678942,836.431882914531,1052.5183575291,564.510859255183,643.006323791957,399.057257830286,NaN,NaN,NaN,NaN,NaN,NaN,0,0,4,NaN,NaN,NaN,vertical,vertical,horizontal,none,none,none
1d,3,100209,4,44,236,21,F,NA,constant,homogeneous,6,present,0.778307914733887,1,vertical,vertical,1,0.635292890336778,green,5,1,549.685068220846,551.343706178981,883.019879386575,841.107236777826,883.019879386575,841.107236777826,1050.31493177915,648.656293821019,967.295052392579,407.549057043193,716.980120613425,358.892763222174,549.685068220846,551.343706178981,632.704947607421,792.450942956807,0,0,0,0,4,0,vertical,horizontal,vertical,horizontal,vertical,horizontal
1d,3,100209,4,45,237,21,F,NA,constant,homogeneous,4,present,0.978944063186646,1,horizontal,horizontal,1,0.835285935578523,green,2,1,1020.83647796503,727.5,672.5,820.836477965032,672.5,820.836477965032,1020.83647796503,727.5,927.5,379.163522034968,579.163522034968,472.5,NaN,NaN,NaN,NaN,0,4,0,0,NaN,NaN,horizontal,horizontal,horizontal,vertical,none,none
1d,3,100209,4,46,238,21,F,NA,constant,homogeneous,6,absent,0.949193000793457,1,vertical,vertical,1,0.729407264568187,green,6,NaN,599.057257830286,756.993676208043,NaN,NaN,835.489140744817,852.518357529101,1036.43188291453,695.524681321058,1000.94274216971,443.006323791957,764.510859255183,347.4816424709,563.568117085469,504.475318678942,599.057257830286,756.993676208043,0,0,0,0,0,4,vertical,vertical,horizontal,horizontal,horizontal,vertical
1d,3,100209,4,47,239,21,F,NA,constant,homogeneous,3,present,0.921846866607666,1,horizontal,horizontal,1,1.08233616793597,green,2,1,1054.84466088987,608.899371659138,664.870587620533,816.252264519889,664.870587620533,816.252264519889,1054.84466088987,608.899371659138,680.284751489598,374.848363820974,NaN,NaN,NaN,NaN,NaN,NaN,0,4,0,NaN,NaN,NaN,horizontal,horizontal,horizontal,none,none,none
1d,3,100209,4,48,240,21,F,NA,constant,homogeneous,6,absent,1.01187491416931,1,horizontal,horizontal,1,0.764700154904966,green,6,NaN,574.848363820974,719.715248510402,NaN,NaN,791.100628340862,854.844660889869,1016.25226451989,735.129412379467,1025.15163617903,480.284751489598,808.899371659138,345.155339110131,583.747735480111,464.870587620533,574.848363820974,719.715248510402,0,0,0,0,0,4,horizontal,vertical,horizontal,horizontal,horizontal,horizontal
1d,3,100209,4,49,241,21,F,NA,constant,homogeneous,6,present,NaN,0,vertical,none,0,0.929400309809932,green,6,1,557.480588344736,678.799333565612,746.982518841471,849.42763818712,746.982518841471,849.42763818712,989.501930496736,770.628304621509,1042.51941165526,521.200666434388,853.017481158529,350.57236181288,610.498069503264,429.371695378491,557.480588344736,678.799333565612,0,0,0,0,0,4,vertical,vertical,horizontal,vertical,vertical,vertical
