experiment,subject,uniqueID,block,trial,trial_cumulative,age,gender,color_cond_blocking,color_history,shape_type,set_size,distractor,rt,acc,target_orient,response_key,response_made,iti,target_color,target_item,distractor_item,target_X,target_Y,distractor_X,distractor_Y,item1_X,item1_Y,item2_X,item2_Y,item3_X,item3_Y,item4_X,item4_Y,item5_X,item5_Y,item6_X,item6_Y,item1_shape,item2_shape,item3_shape,item4_shape,item5_shape,item6_shape,item1_line,item2_line,item3_line,item4_line,item5_line,item6_line
1d,4,100207,1,1,1,19,M,NA,constant,homogeneous,4,absent,0.761428117752075,1,vertical,vertical,1,0.77646632194519,red,1,NaN,967.295052392579,792.450942956807,NaN,NaN,967.295052392579,792.450942956807,992.450942956807,432.704947607421,632.704947607421,407.549057043193,607.549057043193,767.295052392579,NaN,NaN,NaN,NaN,4,0,0,0,NaN,NaN,vertical,horizontal,horizontal,horizontal,none,none
1d,4,100207,1,2,2,19,M,NA,constant,homogeneous,5,present,1.09368896484375,1,horizontal,horizontal,1,0.858817272186279,red,4,2,572.793336331966,484.232422566416,1051.86052685176,560.109211414741,915.767577433584,827.206663668034,1051.86052685176,560.109211414741,839.890788585259,348.13947314824,572.793336331966,484.232422566416,619.68777079743,780.31222920257,NaN,NaN,0,0,0,4,0,NaN,vertical,vertical,horizontal,horizontal,vertical,none
1d,4,100207,1,3,3,19,M,NA,constant,homogeneous,5,present,0.776441812515259,1,horizontal,horizontal,1,0.635293264389038,red,5,3,626.090418184063,786.495193912888,831.076682568313,346.900731331463,923.626453162816,823.028025320546,1050.31493177915,551.343706178981,831.076682568313,346.900731331463,568.891514305654,492.232343256122,626.090418184063,786.495193912888,NaN,NaN,0,0,0,0,4,NaN,horizontal,horizontal,horizontal,vertical,horizontal,none
1d,4,100207,1,4,4,19,M,NA,constant,homogeneous,6,present,0.691272020339966,1,horizontal,horizontal,1,0.752937479019165,red,3,4,953.462830903772,396.34794493794,700.363562235235,365.271262369628,899.636437764765,834.728737630372,1053.09926866854,631.076682568313,953.462830903772,396.34794493794,700.363562235235,365.271262369628,546.900731331463,568.923317431687,646.537169096228,803.65205506206,0,0,4,0,0,0,horizontal,horizontal,horizontal,horizontal,vertical,horizontal
1d,4,100207,1,5,5,19,M,NA,constant,homogeneous,5,absent,0.765793085098267,1,vertical,vertical,1,0.623528842926025,red,4,NaN,773.345241866748,346.39691668109,NaN,NaN,672.5,820.836477965032,970.628304621509,789.501930496736,1032.95409169886,496.282156015671,773.345241866748,346.39691668109,550.57236181288,546.982518841471,NaN,NaN,0,0,0,4,0,NaN,vertical,horizontal,vertical,vertical,vertical,none
1d,4,100207,1,6,6,19,M,NA,constant,homogeneous,6,absent,1.08005905151367,1,vertical,vertical,1,0.941168222427368,red,5,NaN,561.936991243214,508.616172865948,NaN,NaN,839.890788585259,851.86052685176,1038.06300875679,691.383827134052,998.172220171528,439.523300282291,760.109211414741,348.13947314824,561.936991243214,508.616172865948,601.827779828472,760.476699717708,0,0,0,0,4,0,horizontal,vertical,horizontal,horizontal,vertical,vertical
1d,4,100207,1,7,7,19,M,NA,constant,homogeneous,6,present,0.76294207572937,1,vertical,vertical,1,0.658822107315063,red,2,3,963.910840470068,795.341332995339,1051.12597701811,555.719714694933,712.784863451954,839.621618300407,963.910840470068,795.341332995339,1051.12597701811,555.719714694933,887.215136548046,360.378381699593,636.089159529932,404.658667004661,548.874022981887,644.280285305067,0,4,0,0,0,0,vertical,vertical,horizontal,horizontal,vertical,vertical
1d,4,100207,1,8,8,19,M,NA,constant,homogeneous,5,present,0.580336093902588,1,vertical,vertical,1,0.90587495803833,red,1,2,878.799333565612,842.519411655264,1055,600,878.799333565612,842.519411655264,1055,600,878.799333565612,357.480588344736,593.700666434388,450.114760665419,593.700666434388,749.885239334581,NaN,NaN,4,0,0,0,0,NaN,vertical,horizontal,horizontal,vertical,horizontal,none
1d,4,100207,1,9,9,19,M,NA,constant,homogeneous,6,present,0.601733922958374,1,horizontal,horizontal,1,1.07057685852051,red,1,2,738.309916622085,847.425410200379,983.431649086356,777.137884467044,738.309916622085,847.425410200379,983.431649086356,777.137884467044,1045.12173246427,529.712474266665,861.690083377915,352.574589799621,616.568350913644,422.862115532956,554.878267535729,670.287525733335,4,0,0,0,0,0,horizontal,vertical,horizontal,vertical,vertical,vertical
1d,4,100207,1,10,10,19,M,NA,constant,homogeneous,4,absent,0.890475034713745,1,horizontal,horizontal,1,0.635293264389038,red,4,NaN,557.480588344736,678.799333565612,NaN,NaN,878.799333565612,842.519411655264,1042.51941165526,521.200666434388,721.200666434388,357.480588344736,557.480588344736,678.799333565612,NaN,NaN,NaN,NaN,0,0,0,4,NaN,NaN,vertical,horizontal,vertical,horizontal,none,none
1d,4,100207,1,11,11,19,M,NA,constant,homogeneous,5,absent,0.533303022384644,1,vertical,vertical,1,1.04704801559448,red,2,NaN,1047.42541020038,538.309916622085,NaN,NaN,935.129412379467,816.252264519889,1047.42541020038,538.309916622085,817.787900804752,345.621167183745,563.568117085469,504.475318678942,636.089159529932,795.341332995339,NaN,NaN,0,4,0,0,0,NaN,horizontal,vertical,horizontal,horizontal,horizontal,none
1d,4,100207,1,12,12,19,M,NA,constant,homogeneous,3,present,0.996869087219238,1,horizontal,horizontal,1,0.835288429260254,red,2,3,1050.31493177915,648.656293821019,716.980120613425,358.892763222174,632.704947607421,792.450942956807,1050.31493177915,648.656293821019,716.980120613425,358.892763222174,NaN,NaN,NaN,NaN,NaN,NaN,0,4,0,NaN,NaN,NaN,vertical,horizontal,horizontal,none,none,none
1d,4,100207,1,13,13,19,M,NA,constant,homogeneous,3,present,0.614908933639526,1,horizontal,horizontal,1,0.694115371704102,red,1,2,804.450363641507,854.96116226488,1018.57766167904,468.665290897936,804.450363641507,854.96116226488,1018.57766167904,468.665290897936,576.971974679454,476.373546837184,NaN,NaN,NaN,NaN,NaN,NaN,4,0,0,NaN,NaN,NaN,horizontal,vertical,vertical,none,none,none
1d,4,100207,1,14,14,19,M,NA,constant,homogeneous,5,absent,0.805091142654419,1,horizontal,horizontal,1,0.882346115112305,red,1,NaN,839.890788585259,851.86052685176,NaN,NaN,839.890788585259,851.86052685176,1051.86052685176,639.890788585259,915.767577433584,372.793336331966,619.68777079743,419.68777079743,572.793336331966,715.767577433584,NaN,NaN,4,0,0,0,0,NaN,horizontal,horizontal,vertical,vertical,vertical,none
1d,4,100207,1,15,15,19,M,NA,constant,homogeneous,6,present,0.768798112869263,1,horizontal,horizontal,1,0.77646632194519,red,6,1,554.878267535729,670.287525733335,738.309916622085,847.425410200379,738.309916622085,847.425410200379,983.431649086356,777.137884467044,1045.12173246427,529.712474266665,861.690083377915,352.574589799621,616.568350913644,422.862115532956,554.878267535729,670.287525733335,0,0,0,0,0,4,vertical,vertical,horizontal,horizontal,horizontal,horizontal
1d,4,100207,1,16,16,19,M,NA,constant,homogeneous,3,absent,0.591037034988403,1,horizontal,horizontal,1,0.72940863609314,red,1,NaN,738.309916622085,847.425410200379,NaN,NaN,738.309916622085,847.425410200379,1045.12173246427,529.712474266665,616.568350913644,422.862115532956,NaN,NaN,NaN,NaN,NaN,NaN,4,0,0,NaN,NaN,NaN,horizontal,horizontal,vertical,none,none,none
1d,4,100207,1,17,17,19,M,NA,constant,homogeneous,6,absent,0.699647903442383,1,horizontal,horizontal,1,0.635293264389038,red,2,NaN,1023.02802532055,723.626453162816,NaN,NaN,804.450363641507,854.96116226488,1023.02802532055,723.626453162816,1018.57766167904,468.665290897936,795.549636358493,345.03883773512,576.971974679454,476.373546837184,581.422338320961,731.334709102064,0,4,0,0,0,0,vertical,horizontal,horizontal,horizontal,vertical,horizontal
1d,4,100207,1,18,18,19,M,NA,constant,homogeneous,6,present,0.517779111862183,1,horizontal,horizontal,1,0.788230743408203,red,6,3,668.665290897936,818.577661679039,931.334709102064,381.422338320961,923.626453162816,823.028025320546,1054.96116226488,604.450363641507,931.334709102064,381.422338320961,676.373546837184,376.971974679454,545.03883773512,595.549636358493,668.665290897936,818.577661679039,0,0,0,0,0,4,vertical,vertical,vertical,vertical,horizontal,horizontal
1d,4,100207,1,19,19,19,M,NA,constant,homogeneous,4,absent,0.542271852493286,1,horizontal,horizontal,1,1.09410570144653,red,1,NaN,949.885239334581,806.299333565612,NaN,NaN,949.885239334581,806.299333565612,1006.29933356561,450.114760665419,650.114760665419,393.700666434388,593.700666434388,749.885239334581,NaN,NaN,NaN,NaN,4,0,0,0,NaN,NaN,horizontal,vertical,horizontal,horizontal,none,none
1d,4,100207,1,20,20,19,M,NA,constant,homogeneous,5,absent,0.66411018371582,1,horizontal,horizontal,1,0.941168222427368,red,5,NaN,548.874022981887,644.280285305067,NaN,NaN,764.510859255183,852.518357529101,1029.19248180629,711.784642431215,977.137884467044,416.568350913644,680.284751489598,374.848363820974,548.874022981887,644.280285305067,NaN,NaN,0,0,0,0,4,NaN,vertical,horizontal,vertical,horizontal,horizontal,none
1d,4,100207,1,21,21,19,M,NA,constant,homogeneous,6,present,0.539071083068848,1,vertical,vertical,1,1.07057685852051,red,2,3,1032.95409169886,703.717843984329,1006.29933356561,450.114760665419,826.654758133252,853.60308331891,1032.95409169886,703.717843984329,1006.29933356561,450.114760665419,773.345241866748,346.39691668109,567.045908301137,496.282156015671,593.700666434388,749.885239334581,0,4,0,0,0,0,horizontal,vertical,horizontal,horizontal,vertical,vertical
1d,4,100207,1,22,22,19,M,NA,constant,homogeneous,4,absent,0.670773029327393,1,vertical,vertical,1,0.847052850723267,red,1,NaN,865.998856501143,846.311085703712,NaN,NaN,865.998856501143,846.311085703712,1046.31108570371,534.001143498857,734.001143498857,353.688914296288,553.688914296288,665.998856501143,NaN,NaN,NaN,NaN,4,0,0,0,NaN,NaN,vertical,horizontal,vertical,vertical,none,none
1d,4,100207,1,23,23,19,M,NA,constant,homogeneous,4,absent,0.877807140350342,1,vertical,vertical,1,0.870581693649292,red,4,NaN,570.807518193712,488.215357568785,NaN,NaN,688.215357568785,829.192481806288,1029.19248180629,711.784642431215,911.784642431215,370.807518193712,570.807518193712,488.215357568785,NaN,NaN,NaN,NaN,0,0,0,4,NaN,NaN,vertical,horizontal,vertical,vertical,none,none
1d,4,100207,1,24,24,19,M,NA,constant,homogeneous,5,absent,0.583333969116211,1,horizontal,horizontal,1,0.788230743408203,red,1,NaN,891.383827134052,838.063008756786,NaN,NaN,891.383827134052,838.063008756786,1054.65053136242,586.654331158049,865.998856501143,353.688914296288,586.139005173917,461.117046071168,601.827779828472,760.476699717708,NaN,NaN,4,0,0,0,0,NaN,horizontal,vertical,vertical,horizontal,horizontal,none
1d,4,100207,1,25,25,19,M,NA,constant,homogeneous,6,absent,0.679001092910767,1,horizontal,horizontal,1,1.01175475120544,red,6,NaN,553.688914296288,665.998856501143,NaN,NaN,734.001143498857,846.311085703712,980.31222920257,780.31222920257,1046.31108570371,534.001143498857,865.998856501143,353.688914296288,619.68777079743,419.68777079743,553.688914296288,665.998856501143,0,0,0,0,0,4,vertical,horizontal,vertical,vertical,vertical,horizontal
1d,4,100207,1,26,26,19,M,NA,constant,homogeneous,3,present,0.606868982315063,1,horizontal,horizontal,1,0.894110536575317,red,3,1,552.574589799621,538.309916622085,870.287525733335,845.121732464271,870.287525733335,845.121732464271,977.137884467044,416.568350913644,552.574589799621,538.309916622085,NaN,NaN,NaN,NaN,NaN,NaN,0,0,4,NaN,NaN,NaN,vertical,horizontal,horizontal,none,none,none
1d,4,100207,1,27,27,19,M,NA,constant,homogeneous,3,present,0.748147010803223,1,vertical,vertical,1,0.847052850723267,red,1,3,684.232422566416,827.206663668034,661.117046071168,386.139005173917,684.232422566416,827.206663668034,1054.65053136242,586.654331158049,661.117046071168,386.139005173917,NaN,NaN,NaN,NaN,NaN,NaN,4,0,0,NaN,NaN,NaN,vertical,vertical,horizontal,none,none,none
1d,4,100207,1,28,28,19,M,NA,constant,homogeneous,4,present,0.726778984069824,1,vertical,vertical,1,0.788230743408203,red,3,1,895.524681321058,363.568117085469,704.475318678942,836.431882914531,704.475318678942,836.431882914531,1036.43188291453,695.524681321058,895.524681321058,363.568117085469,563.568117085469,504.475318678942,NaN,NaN,NaN,NaN,0,0,4,0,NaN,NaN,horizontal,vertical,vertical,horizontal,none,none
1d,4,100207,1,29,29,19,M,NA,constant,homogeneous,6,absent,0.612618923187256,1,vertical,vertical,1,0.952932643890381,red,4,NaN,844.280285305067,348.874022981887,NaN,NaN,755.719714694933,851.125977018113,995.341332995339,763.910840470068,1039.62161830041,512.784863451954,844.280285305067,348.874022981887,604.658667004661,436.089159529932,560.378381699593,687.215136548046,0,0,0,4,0,0,horizontal,horizontal,vertical,vertical,horizontal,horizontal
1d,4,100207,1,30,30,19,M,NA,constant,homogeneous,3,present,0.565944910049438,1,horizontal,horizontal,1,0.847052850723267,red,1,3,973.909581815937,786.495193912888,551.535633479765,657.362518857686,973.909581815937,786.495193912888,874.554784704298,356.142287229426,551.535633479765,657.362518857686,NaN,NaN,NaN,NaN,NaN,NaN,4,0,0,NaN,NaN,NaN,horizontal,vertical,vertical,none,none,none
1d,4,100207,1,31,31,19,M,NA,constant,homogeneous,5,present,0.607556104660034,1,vertical,vertical,1,0.694115371704102,red,5,3,545.155339110131,608.899371659138,1000.94274216971,443.006323791957,729.712474266665,845.121732464271,1011.40458100154,742.594190385041,1000.94274216971,443.006323791957,712.784863451954,360.378381699593,545.155339110131,608.899371659138,NaN,NaN,0,0,0,0,4,NaN,horizontal,horizontal,vertical,horizontal,vertical,none
1d,4,100207,1,32,32,19,M,NA,constant,homogeneous,3,absent,0.680928945541382,1,vertical,vertical,1,1.0588124370575,red,2,NaN,992.450942956807,432.704947607421,NaN,NaN,848.656293821019,850.314931779154,992.450942956807,432.704947607421,558.892763222174,516.980120613425,NaN,NaN,NaN,NaN,NaN,NaN,0,4,0,NaN,NaN,NaN,vertical,vertical,horizontal,none,none,none
1d,4,100207,1,33,33,19,M,NA,constant,homogeneous,4,absent,0.754482984542847,1,horizontal,horizontal,1,0.976461486816406,red,4,NaN,547.481642470899,564.510859255183,NaN,NaN,764.510859255183,852.518357529101,1052.5183575291,635.489140744817,835.489140744817,347.4816424709,547.481642470899,564.510859255183,NaN,NaN,NaN,NaN,0,0,0,4,NaN,NaN,horizontal,horizontal,horizontal,horizontal,none,none
1d,4,100207,1,34,34,19,M,NA,constant,homogeneous,6,present,0.691610097885132,1,vertical,vertical,1,0.882346115112305,red,6,3,576.971974679454,723.626453162816,1023.02802532055,476.373546837184,795.549636358493,854.96116226488,1018.57766167904,731.334709102064,1023.02802532055,476.373546837184,804.450363641507,345.03883773512,581.422338320961,468.665290897936,576.971974679454,723.626453162816,0,0,0,0,0,4,vertical,vertical,vertical,vertical,vertical,vertical
1d,4,100207,1,35,35,19,M,NA,constant,homogeneous,4,absent,0.735167026519775,1,horizontal,horizontal,1,0.894110536575317,red,1,NaN,688.215357568785,829.192481806288,NaN,NaN,688.215357568785,829.192481806288,1029.19248180629,711.784642431215,911.784642431215,370.807518193712,570.807518193712,488.215357568785,NaN,NaN,NaN,NaN,4,0,0,0,NaN,NaN,horizontal,vertical,vertical,vertical,none,none
1d,4,100207,1,36,36,19,M,NA,constant,homogeneous,5,present,0.538482904434204,1,horizontal,horizontal,1,0.623528842926025,red,1,2,672.5,820.836477965032,970.628304621509,789.501930496736,672.5,820.836477965032,970.628304621509,789.501930496736,1032.95409169886,496.282156015671,773.345241866748,346.39691668109,550.57236181288,546.982518841471,NaN,NaN,4,0,0,0,0,NaN,horizontal,vertical,vertical,vertical,vertical,none
1d,4,100207,1,37,37,19,M,NA,constant,homogeneous,4,present,0.574404954910278,1,vertical,vertical,1,0.847052850723267,red,2,1,1046.31108570371,665.998856501143,734.001143498857,846.311085703712,734.001143498857,846.311085703712,1046.31108570371,665.998856501143,865.998856501143,353.688914296288,553.688914296288,534.001143498857,NaN,NaN,NaN,NaN,0,4,0,0,NaN,NaN,vertical,vertical,vertical,vertical,none,none
1d,4,100207,1,38,38,19,M,NA,constant,homogeneous,5,present,0.64971399307251,1,vertical,vertical,1,0.788230743408203,red,1,2,822.224714400653,854.029648013395,1048.46436652023,657.362518857686,822.224714400653,854.029648013395,1048.46436652023,657.362518857686,931.334709102064,381.422338320961,632.704947607421,407.549057043193,565.271262369628,699.636437764765,NaN,NaN,4,0,0,0,0,NaN,vertical,horizontal,vertical,vertical,horizontal,none
1d,4,100207,1,39,39,19,M,NA,constant,homogeneous,5,absent,0.58287501335144,1,vertical,vertical,1,0.799995164871216,red,5,NaN,572.793336331966,715.767577433584,NaN,NaN,839.890788585259,851.86052685176,1051.86052685176,639.890788585259,915.767577433584,372.793336331966,619.68777079743,419.68777079743,572.793336331966,715.767577433584,NaN,NaN,0,0,0,0,4,NaN,vertical,horizontal,vertical,vertical,vertical,none
1d,4,100207,1,40,40,19,M,NA,constant,homogeneous,6,absent,0.644642114639282,1,horizontal,horizontal,1,0.694115371704102,red,4,NaN,857.362518857686,351.535633479765,NaN,NaN,742.637481142314,848.464366520235,986.495193912888,773.909581815937,1043.85771277057,525.445215295702,857.362518857686,351.535633479765,613.504806087112,426.090418184063,556.142287229426,674.554784704298,0,0,0,4,0,0,vertical,horizontal,horizontal,horizontal,vertical,vertical
1d,4,100207,1,41,41,19,M,NA,constant,homogeneous,3,present,0.735502958297729,1,vertical,vertical,1,0.894110536575317,red,2,3,963.910840470068,404.658667004661,548.874022981887,555.719714694933,887.215136548046,839.621618300407,963.910840470068,404.658667004661,548.874022981887,555.719714694933,NaN,NaN,NaN,NaN,NaN,NaN,0,4,0,NaN,NaN,NaN,horizontal,vertical,vertical,none,none,none
1d,4,100207,1,42,42,19,M,NA,constant,homogeneous,4,present,0.779278993606567,0,horizontal,vertical,1,0.847052850723267,red,2,3,998.172220171528,439.523300282291,639.523300282292,401.827779828472,960.476699717708,798.172220171528,998.172220171528,439.523300282291,639.523300282292,401.827779828472,601.827779828472,760.476699717708,NaN,NaN,NaN,NaN,0,4,0,0,NaN,NaN,vertical,horizontal,horizontal,horizontal,none,none
1d,4,100207,1,43,43,19,M,NA,constant,homogeneous,4,present,0.603665113449097,1,horizontal,horizontal,1,1.03528359413147,red,4,3,601.827779828472,760.476699717708,639.523300282292,401.827779828472,960.476699717708,798.172220171528,998.172220171528,439.523300282291,639.523300282292,401.827779828472,601.827779828472,760.476699717708,NaN,NaN,NaN,NaN,0,0,0,4,NaN,NaN,horizontal,vertical,vertical,horizontal,none,none
1d,4,100207,1,44,44,19,M,NA,constant,homogeneous,3,absent,0.628817081451416,1,vertical,vertical,1,0.835288429260254,red,2,NaN,980.31222920257,419.68777079743,NaN,NaN,865.998856501143,846.311085703712,980.31222920257,419.68777079743,553.688914296288,534.001143498857,NaN,NaN,NaN,NaN,NaN,NaN,0,4,0,NaN,NaN,NaN,horizontal,vertical,vertical,none,none,none
1d,4,100207,1,45,45,19,M,NA,constant,homogeneous,4,present,0.924710035324097,1,horizontal,horizontal,1,0.764701900482178,red,3,2,980.31222920257,419.68777079743,980.31222920257,780.31222920257,619.68777079743,780.31222920257,980.31222920257,780.31222920257,980.31222920257,419.68777079743,619.68777079743,419.68777079743,NaN,NaN,NaN,NaN,0,0,4,0,NaN,NaN,horizontal,horizontal,horizontal,horizontal,none,none
1d,4,100207,1,46,46,19,M,NA,constant,homogeneous,4,absent,0.649026155471802,1,vertical,vertical,1,0.882346115112305,red,1,NaN,826.654758133252,853.60308331891,NaN,NaN,826.654758133252,853.60308331891,1053.60308331891,573.345241866748,773.345241866748,346.39691668109,546.39691668109,626.654758133252,NaN,NaN,NaN,NaN,4,0,0,0,NaN,NaN,vertical,vertical,vertical,horizontal,none,none
1d,4,100207,1,47,47,19,M,NA,constant,homogeneous,3,absent,0.671325922012329,1,horizontal,horizontal,1,0.647057685852051,red,2,NaN,1020.83647796503,472.5,NaN,NaN,800,855,1020.83647796503,472.5,579.163522034968,472.5,NaN,NaN,NaN,NaN,NaN,NaN,0,4,0,NaN,NaN,NaN,horizontal,horizontal,vertical,none,none,none
1d,4,100207,1,48,48,19,M,NA,constant,homogeneous,3,absent,0.703032970428467,1,horizontal,horizontal,1,1.09410570144653,red,3,NaN,586.139005173917,461.117046071168,NaN,NaN,786.654331158049,854.650531362416,1027.20666366803,484.232422566416,586.139005173917,461.117046071168,NaN,NaN,NaN,NaN,NaN,NaN,0,0,4,NaN,NaN,NaN,horizontal,vertical,horizontal,none,none,none
1d,4,100207,1,49,49,19,M,NA,constant,homogeneous,5,present,0.717324018478394,1,horizontal,horizontal,1,0.623528842926025,red,5,4,545.03883773512,604.450363641507,716.980120613425,358.892763222174,725.445215295702,843.857712770574,1008.88377129369,746.261991269517,1003.65205506206,446.537169096228,716.980120613425,358.892763222174,545.03883773512,604.450363641507,NaN,NaN,0,0,0,0,4,NaN,vertical,vertical,vertical,vertical,horizontal,none
1d,4,100207,1,50,50,19,M,NA,constant,homogeneous,6,absent,0.764456033706665,1,vertical,vertical,1,0.823524007797241,red,5,NaN,668.665290897936,381.422338320961,NaN,NaN,676.373546837184,823.028025320546,931.334709102064,818.577661679039,1054.96116226488,595.549636358493,923.626453162816,376.971974679454,668.665290897936,381.422338320961,545.03883773512,604.450363641507,0,0,0,0,4,0,vertical,horizontal,vertical,horizontal,vertical,vertical
1d,4,100207,1,51,51,19,M,NA,constant,homogeneous,5,absent,0.75275707244873,1,vertical,vertical,1,0.835288429260254,red,2,NaN,1046.31108570371,534.001143498857,NaN,NaN,938.882953928832,813.860994826083,1046.31108570371,534.001143498857,813.345668841951,345.349468637584,561.936991243214,508.616172865948,639.523300282292,798.172220171528,NaN,NaN,0,4,0,0,0,NaN,vertical,vertical,horizontal,vertical,vertical,none
1d,4,100207,1,52,52,19,M,NA,constant,homogeneous,4,present,0.541990995407104,1,vertical,vertical,1,1.09410570144653,red,2,4,1025.15163617903,480.284751489598,574.848363820974,719.715248510402,919.715248510402,825.151636179026,1025.15163617903,480.284751489598,680.284751489598,374.848363820974,574.848363820974,719.715248510402,NaN,NaN,NaN,NaN,0,4,0,0,NaN,NaN,vertical,vertical,vertical,vertical,none,none
1d,4,100207,1,53,53,19,M,NA,constant,homogeneous,5,absent,0.782844066619873,1,horizontal,horizontal,1,1.09410570144653,red,2,NaN,1054.37883281626,617.787900804752,NaN,NaN,861.690083377915,847.425410200379,1054.37883281626,617.787900804752,895.524681321058,363.568117085469,604.658667004661,436.089159529932,583.747735480111,735.129412379467,NaN,NaN,0,4,0,0,0,NaN,vertical,horizontal,vertical,horizontal,vertical,none
1d,4,100207,1,54,54,19,M,NA,constant,homogeneous,3,present,0.647050142288208,1,vertical,vertical,1,0.611764421463013,red,3,2,629.371695378491,410.498069503264,1049.42763818712,546.982518841471,721.200666434388,842.519411655264,1049.42763818712,546.982518841471,629.371695378491,410.498069503264,NaN,NaN,NaN,NaN,NaN,NaN,0,0,4,NaN,NaN,NaN,horizontal,horizontal,vertical,none,none,none
1d,4,100207,1,55,55,19,M,NA,constant,homogeneous,5,present,0.690821886062622,1,vertical,vertical,1,0.929403800964355,red,1,4,692.232343256122,831.108485694346,751.343706178981,349.685068220846,692.232343256122,831.108485694346,986.495193912888,773.909581815937,1023.02802532055,476.373546837184,751.343706178981,349.685068220846,546.900731331463,568.923317431687,NaN,NaN,4,0,0,0,0,NaN,vertical,horizontal,vertical,vertical,vertical,none
1d,4,100207,1,56,56,19,M,NA,constant,homogeneous,3,present,0.479558944702148,1,vertical,vertical,1,0.941168222427368,red,1,3,800,855,579.163522034968,472.5,800,855,1020.83647796503,472.5,579.163522034968,472.5,NaN,NaN,NaN,NaN,NaN,NaN,4,0,0,NaN,NaN,NaN,vertical,vertical,horizontal,none,none,none
1d,4,100207,1,57,57,19,M,NA,constant,homogeneous,4,present,0.562818050384521,1,horizontal,horizontal,1,0.682350950241089,red,3,4,646.537169096228,396.34794493794,596.34794493794,753.462830903772,953.462830903772,803.65205506206,1003.65205506206,446.537169096228,646.537169096228,396.34794493794,596.34794493794,753.462830903772,NaN,NaN,NaN,NaN,0,0,4,0,NaN,NaN,horizontal,horizontal,horizontal,horizontal,none,none
1d,4,100207,1,58,58,19,M,NA,constant,homogeneous,4,present,0.709163904190063,1,vertical,vertical,1,0.952932643890381,red,1,4,676.373546837184,823.028025320546,576.971974679454,476.373546837184,676.373546837184,823.028025320546,1023.02802532055,723.626453162816,923.626453162816,376.971974679454,576.971974679454,476.373546837184,NaN,NaN,NaN,NaN,4,0,0,0,NaN,NaN,vertical,horizontal,vertical,horizontal,none,none
1d,4,100207,1,59,59,19,M,NA,constant,homogeneous,6,present,0.916991949081421,1,vertical,vertical,1,1.0588124370575,red,3,5,1027.20666366803,484.232422566416,586.139005173917,461.117046071168,786.654331158049,854.650531362416,1013.86099482608,738.882953928832,1027.20666366803,484.232422566416,813.345668841951,345.349468637584,586.139005173917,461.117046071168,572.793336331966,715.767577433584,0,0,4,0,0,0,horizontal,vertical,vertical,vertical,vertical,vertical
1d,4,100207,1,60,60,19,M,NA,constant,homogeneous,3,absent,0.600687026977539,1,horizontal,horizontal,1,0.858817272186279,red,3,NaN,729.712474266665,354.878267535729,NaN,NaN,622.862115532956,783.431649086356,1047.42541020038,661.690083377915,729.712474266665,354.878267535729,NaN,NaN,NaN,NaN,NaN,NaN,0,0,4,NaN,NaN,NaN,vertical,vertical,horizontal,none,none,none
1d,4,100207,1,61,61,19,M,NA,constant,homogeneous,3,absent,0.744659900665283,1,vertical,vertical,1,0.988225908279419,red,1,NaN,742.637481142314,848.464366520235,NaN,NaN,742.637481142314,848.464366520235,1043.85771277057,525.445215295702,613.504806087112,426.090418184063,NaN,NaN,NaN,NaN,NaN,NaN,4,0,0,NaN,NaN,NaN,vertical,vertical,vertical,none,none,none
1d,4,100207,1,62,62,19,M,NA,constant,homogeneous,6,absent,1.14003610610962,1,horizontal,horizontal,1,0.611764421463013,red,5,NaN,556.142287229426,525.445215295702,NaN,NaN,857.362518857686,848.464366520235,1043.85771277057,674.554784704298,986.495193912888,426.090418184063,742.637481142314,351.535633479765,556.142287229426,525.445215295702,613.504806087112,773.909581815937,0,0,0,0,4,0,horizontal,vertical,horizontal,horizontal,horizontal,horizontal
1d,4,100207,1,63,63,19,M,NA,constant,homogeneous,3,absent,0.83425498008728,1,vertical,vertical,1,0.752937479019165,red,1,NaN,923.626453162816,823.028025320546,NaN,NaN,923.626453162816,823.028025320546,931.334709102064,381.422338320961,545.03883773512,595.549636358493,NaN,NaN,NaN,NaN,NaN,NaN,4,0,0,NaN,NaN,NaN,vertical,vertical,vertical,none,none,none
1d,4,100207,1,64,64,19,M,NA,constant,homogeneous,6,absent,0.744197130203247,1,vertical,vertical,1,0.635293264389038,red,1,NaN,768.923317431687,853.099268668537,NaN,NaN,768.923317431687,853.099268668537,1003.65205506206,753.462830903772,1034.72873763037,500.363562235235,831.076682568313,346.900731331463,596.34794493794,446.537169096228,565.271262369628,699.636437764765,4,0,0,0,0,0,vertical,horizontal,horizontal,horizontal,vertical,vertical
1d,4,100207,2,1,65,19,M,NA,constant,homogeneous,6,present,0.680810928344727,1,vertical,vertical,1,0.658822107315063,red,1,5,708.616172865948,838.063008756786,639.523300282292,401.827779828472,708.616172865948,838.063008756786,960.476699717708,798.172220171528,1051.86052685176,560.109211414741,891.383827134052,361.936991243214,639.523300282292,401.827779828472,548.13947314824,639.890788585259,4,0,0,0,0,0,vertical,horizontal,horizontal,vertical,vertical,vertical
1d,4,100207,2,2,66,19,M,NA,constant,homogeneous,3,absent,0.651757001876831,1,horizontal,horizontal,1,1.0588124370575,red,1,NaN,751.343706178981,850.314931779154,NaN,NaN,751.343706178981,850.314931779154,1041.10723677783,516.980120613425,607.549057043193,432.704947607421,NaN,NaN,NaN,NaN,NaN,NaN,4,0,0,NaN,NaN,NaN,horizontal,vertical,vertical,none,none,none
1d,4,100207,2,3,67,19,M,NA,constant,homogeneous,3,present,0.553006887435913,1,vertical,vertical,1,0.799995164871216,red,3,2,579.163522034968,727.5,800,345,1020.83647796503,727.5,800,345,579.163522034968,727.5,NaN,NaN,NaN,NaN,NaN,NaN,0,0,4,NaN,NaN,NaN,vertical,horizontal,vertical,none,none,none
1d,4,100207,2,4,68,19,M,NA,constant,homogeneous,5,present,0.727953910827637,1,horizontal,horizontal,1,0.988225908279419,red,4,1,746.982518841471,350.57236181288,696.282156015671,832.954091698863,696.282156015671,832.954091698863,989.501930496736,770.628304621509,1020.83647796503,472.5,746.982518841471,350.57236181288,546.39691668109,573.345241866748,NaN,NaN,0,0,0,4,0,NaN,horizontal,horizontal,horizontal,horizontal,vertical,none
1d,4,100207,2,5,69,19,M,NA,constant,homogeneous,3,absent,0.678677082061768,1,horizontal,horizontal,1,0.988225908279419,red,2,NaN,883.019879386575,358.892763222174,NaN,NaN,967.295052392579,792.450942956807,883.019879386575,358.892763222174,549.685068220846,648.656293821019,NaN,NaN,NaN,NaN,NaN,NaN,0,4,0,NaN,NaN,NaN,vertical,horizontal,vertical,none,none,none
1d,4,100207,2,6,70,19,M,NA,constant,homogeneous,6,absent,0.616305828094482,1,horizontal,horizontal,1,1.01175475120544,red,6,NaN,661.117046071168,813.860994826083,NaN,NaN,915.767577433584,827.206663668034,1054.65053136242,613.345668841951,938.882953928832,386.139005173917,684.232422566416,372.793336331966,545.349468637584,586.654331158049,661.117046071168,813.860994826083,0,0,0,0,0,4,vertical,vertical,horizontal,horizontal,horizontal,horizontal
1d,4,100207,2,7,71,19,M,NA,constant,homogeneous,4,absent,0.538210153579712,1,vertical,vertical,1,0.847052850723267,red,2,NaN,1025.15163617903,719.715248510402,NaN,NaN,680.284751489598,825.151636179026,1025.15163617903,719.715248510402,919.715248510402,374.848363820974,574.848363820974,480.284751489598,NaN,NaN,NaN,NaN,0,4,0,0,NaN,NaN,horizontal,vertical,horizontal,horizontal,none,none
1d,4,100207,2,8,72,19,M,NA,constant,homogeneous,3,absent,0.757326126098633,1,vertical,vertical,1,0.823524007797241,red,1,NaN,661.117046071168,813.860994826083,NaN,NaN,661.117046071168,813.860994826083,1054.65053136242,613.345668841951,684.232422566416,372.793336331966,NaN,NaN,NaN,NaN,NaN,NaN,4,0,0,NaN,NaN,NaN,vertical,horizontal,horizontal,none,none,none
1d,4,100207,2,9,73,19,M,NA,constant,homogeneous,5,present,0.697189807891846,1,horizontal,horizontal,1,0.623528842926025,red,3,2,808.899371659138,345.155339110131,1045.12173246427,529.712474266665,942.594190385041,811.404581001536,1045.12173246427,529.712474266665,808.899371659138,345.155339110131,560.378381699593,512.784863451954,643.006323791957,800.942742169714,NaN,NaN,0,0,4,0,0,NaN,horizontal,horizontal,horizontal,horizontal,vertical,none
1d,4,100207,2,10,74,19,M,NA,constant,homogeneous,6,present,0.569645881652832,1,horizontal,horizontal,1,0.717644214630127,red,1,5,927.5,820.836477965032,545,600,927.5,820.836477965032,1055,600,927.5,379.163522034968,672.5,379.163522034968,545,600,672.5,820.836477965032,4,0,0,0,0,0,horizontal,vertical,vertical,vertical,vertical,vertical
1d,4,100207,2,11,75,19,M,NA,constant,homogeneous,5,present,0.580092906951904,1,vertical,vertical,1,0.741173057556152,red,4,1,668.665290897936,381.422338320961,777.775285599347,854.029648013395,777.775285599347,854.029648013395,1034.72873763037,699.636437764765,967.295052392579,407.549057043193,668.665290897936,381.422338320961,551.535633479765,657.362518857686,NaN,NaN,0,0,0,4,0,NaN,vertical,horizontal,horizontal,vertical,vertical,none
1d,4,100207,2,12,76,19,M,NA,constant,homogeneous,5,present,0.687500953674316,1,vertical,vertical,1,0.77646632194519,red,2,4,1051.86052685176,560.109211414741,572.793336331966,484.232422566416,915.767577433584,827.206663668034,1051.86052685176,560.109211414741,839.890788585259,348.13947314824,572.793336331966,484.232422566416,619.68777079743,780.31222920257,NaN,NaN,0,4,0,0,0,NaN,vertical,vertical,vertical,horizontal,horizontal,none
1d,4,100207,2,13,77,19,M,NA,constant,homogeneous,4,absent,0.616413116455078,1,horizontal,horizontal,1,0.752937479019165,red,1,NaN,967.295052392579,792.450942956807,NaN,NaN,967.295052392579,792.450942956807,992.450942956807,432.704947607421,632.704947607421,407.549057043193,607.549057043193,767.295052392579,NaN,NaN,NaN,NaN,4,0,0,0,NaN,NaN,horizontal,horizontal,vertical,vertical,none,none
1d,4,100207,2,14,78,19,M,NA,constant,homogeneous,6,absent,0.768854141235352,1,vertical,vertical,1,0.999990329742432,red,6,NaN,567.045908301137,703.717843984329,NaN,NaN,773.345241866748,853.60308331891,1006.29933356561,749.885239334581,1032.95409169886,496.282156015671,826.654758133252,346.39691668109,593.700666434388,450.114760665419,567.045908301137,703.717843984329,0,0,0,0,0,4,vertical,horizontal,vertical,vertical,vertical,vertical
1d,4,100207,2,15,79,19,M,NA,constant,homogeneous,4,absent,0.706951141357422,1,horizontal,horizontal,1,0.917639379501343,red,4,NaN,551.535633479765,657.362518857686,NaN,NaN,857.362518857686,848.464366520235,1048.46436652023,542.637481142314,742.637481142314,351.535633479765,551.535633479765,657.362518857686,NaN,NaN,NaN,NaN,0,0,0,4,NaN,NaN,vertical,horizontal,vertical,horizontal,none,none
1d,4,100207,2,16,80,19,M,NA,constant,homogeneous,5,present,0.525274038314819,1,vertical,vertical,1,0.999990329742432,red,4,2,570.807518193712,488.215357568785,1051.12597701811,555.719714694933,919.715248510402,825.151636179026,1051.12597701811,555.719714694933,835.489140744817,347.4816424709,570.807518193712,488.215357568785,622.862115532956,783.431649086356,NaN,NaN,0,0,0,4,0,NaN,horizontal,vertical,horizontal,vertical,horizontal,none
1d,4,100207,2,17,81,19,M,NA,constant,homogeneous,6,absent,0.723870992660522,1,horizontal,horizontal,1,0.999990329742432,red,5,NaN,653.738008730483,391.116228706307,NaN,NaN,692.232343256122,831.108485694346,946.261991269517,808.883771293693,1054.0296480134,577.775285599347,907.767656743878,368.891514305654,653.738008730483,391.116228706307,545.970351986605,622.224714400653,0,0,0,0,4,0,vertical,vertical,horizontal,horizontal,horizontal,horizontal
1d,4,100207,2,18,82,19,M,NA,constant,homogeneous,6,present,0.57854700088501,1,horizontal,horizontal,1,0.999990329742432,red,2,3,1013.86099482608,738.882953928832,1027.20666366803,484.232422566416,786.654331158049,854.650531362416,1013.86099482608,738.882953928832,1027.20666366803,484.232422566416,813.345668841951,345.349468637584,586.139005173917,461.117046071168,572.793336331966,715.767577433584,0,4,0,0,0,0,horizontal,horizontal,horizontal,horizontal,horizontal,horizontal
1d,4,100207,2,19,83,19,M,NA,constant,homogeneous,3,present,0.643707036972046,1,vertical,vertical,1,0.882346115112305,red,3,2,583.747735480111,464.870587620533,1025.15163617903,480.284751489598,791.100628340862,854.844660889869,1025.15163617903,480.284751489598,583.747735480111,464.870587620533,NaN,NaN,NaN,NaN,NaN,NaN,0,0,4,NaN,NaN,NaN,vertical,vertical,vertical,none,none,none
1d,4,100207,2,20,84,19,M,NA,constant,homogeneous,3,absent,0.528687953948975,0,vertical,horizontal,1,0.988225908279419,red,2,NaN,1048.46436652023,657.362518857686,NaN,NaN,626.090418184063,786.495193912888,1048.46436652023,657.362518857686,725.445215295702,356.142287229426,NaN,NaN,NaN,NaN,NaN,NaN,0,4,0,NaN,NaN,NaN,horizontal,vertical,horizontal,none,none,none
1d,4,100207,2,21,85,19,M,NA,constant,homogeneous,6,present,0.757765054702759,1,vertical,vertical,1,0.717644214630127,red,2,5,970.628304621509,789.501930496736,629.371695378491,410.498069503264,721.200666434388,842.519411655264,970.628304621509,789.501930496736,1049.42763818712,546.982518841471,878.799333565612,357.480588344736,629.371695378491,410.498069503264,550.57236181288,653.017481158529,0,4,0,0,0,0,horizontal,vertical,vertical,horizontal,horizontal,horizontal
1d,4,100207,2,22,86,19,M,NA,constant,homogeneous,3,present,0.706119060516357,1,vertical,vertical,1,0.647057685852051,red,3,1,601.827779828472,439.523300282291,760.109211414741,851.86052685176,760.109211414741,851.86052685176,1038.06300875679,508.616172865948,601.827779828472,439.523300282291,NaN,NaN,NaN,NaN,NaN,NaN,0,0,4,NaN,NaN,NaN,horizontal,vertical,vertical,none,none,none
1d,4,100207,2,23,87,19,M,NA,constant,homogeneous,6,present,0.728854894638062,1,vertical,vertical,1,0.811759586334229,red,5,3,551.535633479765,542.637481142314,973.909581815937,413.504806087112,874.554784704298,843.857712770574,1048.46436652023,657.362518857686,973.909581815937,413.504806087112,725.445215295702,356.142287229426,551.535633479765,542.637481142314,626.090418184063,786.495193912888,0,0,0,0,4,0,horizontal,horizontal,horizontal,vertical,vertical,horizontal
1d,4,100207,2,24,88,19,M,NA,constant,homogeneous,6,absent,0.61072301864624,1,horizontal,horizontal,1,0.752937479019165,red,2,NaN,935.129412379467,816.252264519889,NaN,NaN,680.284751489598,825.151636179026,935.129412379467,816.252264519889,1054.84466088987,591.100628340862,919.715248510402,374.848363820974,664.870587620533,383.747735480111,545.155339110131,608.899371659138,0,4,0,0,0,0,horizontal,horizontal,vertical,vertical,horizontal,vertical
1d,4,100207,2,25,89,19,M,NA,constant,homogeneous,5,absent,0.754732131958008,1,vertical,vertical,1,0.976461486816406,red,5,NaN,593.700666434388,749.885239334581,NaN,NaN,878.799333565612,842.519411655264,1055,600,878.799333565612,357.480588344736,593.700666434388,450.114760665419,593.700666434388,749.885239334581,NaN,NaN,0,0,0,0,4,NaN,vertical,vertical,horizontal,vertical,vertical,none
1d,4,100207,2,26,90,19,M,NA,constant,homogeneous,6,present,1.03902196884155,1,vertical,vertical,1,0.647057685852051,red,4,5,692.232343256122,368.891514305654,545.970351986605,577.775285599347,907.767656743878,831.108485694346,1054.0296480134,622.224714400653,946.261991269517,391.116228706307,692.232343256122,368.891514305654,545.970351986605,577.775285599347,653.738008730483,808.883771293693,0,0,0,4,0,0,vertical,vertical,horizontal,vertical,horizontal,horizontal
1d,4,100207,2,27,91,19,M,NA,constant,homogeneous,4,present,0.614504098892212,1,vertical,vertical,1,0.929403800964355,red,1,4,619.68777079743,780.31222920257,619.68777079743,419.68777079743,619.68777079743,780.31222920257,980.31222920257,780.31222920257,980.31222920257,419.68777079743,619.68777079743,419.68777079743,NaN,NaN,NaN,NaN,4,0,0,0,NaN,NaN,vertical,vertical,horizontal,horizontal,none,none
1d,4,100207,2,28,92,19,M,NA,constant,homogeneous,3,present,0.581746816635132,1,horizontal,horizontal,1,0.929403800964355,red,2,1,804.450363641507,345.03883773512,1018.57766167904,731.334709102064,1018.57766167904,731.334709102064,804.450363641507,345.03883773512,576.971974679454,723.626453162816,NaN,NaN,NaN,NaN,NaN,NaN,0,4,0,NaN,NaN,NaN,vertical,horizontal,horizontal,none,none,none
1d,4,100207,2,29,93,19,M,NA,constant,homogeneous,4,present,0.610469102859497,1,horizontal,horizontal,1,0.647057685852051,red,2,1,995.341332995339,436.089159529932,963.910840470068,795.341332995339,963.910840470068,795.341332995339,995.341332995339,436.089159529932,636.089159529932,404.658667004661,604.658667004661,763.910840470068,NaN,NaN,NaN,NaN,0,4,0,0,NaN,NaN,horizontal,horizontal,horizontal,vertical,none,none
1d,4,100207,2,30,94,19,M,NA,constant,homogeneous,3,absent,0.763924121856689,1,vertical,vertical,1,1.04704801559448,red,2,NaN,1052.5183575291,635.489140744817,NaN,NaN,643.006323791957,800.942742169714,1052.5183575291,635.489140744817,704.475318678942,363.568117085469,NaN,NaN,NaN,NaN,NaN,NaN,0,4,0,NaN,NaN,NaN,horizontal,vertical,vertical,none,none,none
1d,4,100207,2,31,95,19,M,NA,constant,homogeneous,4,absent,0.621245861053467,1,vertical,vertical,1,1.09410570144653,red,3,NaN,755.719714694933,348.874022981887,NaN,NaN,844.280285305067,851.125977018113,1051.12597701811,555.719714694933,755.719714694933,348.874022981887,548.874022981887,644.280285305067,NaN,NaN,NaN,NaN,0,0,4,0,NaN,NaN,horizontal,horizontal,vertical,horizontal,none,none
1d,4,100207,2,32,96,19,M,NA,constant,homogeneous,4,absent,0.644901037216187,1,horizontal,horizontal,1,0.952932643890381,red,1,NaN,661.117046071168,813.860994826083,NaN,NaN,661.117046071168,813.860994826083,1013.86099482608,738.882953928832,938.882953928832,386.139005173917,586.139005173917,461.117046071168,NaN,NaN,NaN,NaN,4,0,0,0,NaN,NaN,horizontal,horizontal,vertical,vertical,none,none
1d,4,100207,2,33,97,19,M,NA,constant,homogeneous,5,present,0.721196889877319,1,vertical,vertical,1,0.764701900482178,red,1,2,672.5,820.836477965032,970.628304621509,789.501930496736,672.5,820.836477965032,970.628304621509,789.501930496736,1032.95409169886,496.282156015671,773.345241866748,346.39691668109,550.57236181288,546.982518841471,NaN,NaN,4,0,0,0,0,NaN,vertical,horizontal,vertical,horizontal,vertical,none
1d,4,100207,2,34,98,19,M,NA,constant,homogeneous,6,present,0.601195096969604,1,horizontal,horizontal,1,0.670586528778076,red,2,5,1053.60308331891,626.654758133252,546.39691668109,573.345241866748,903.717843984329,832.954091698863,1053.60308331891,626.654758133252,949.885239334581,393.700666434388,696.282156015671,367.045908301137,546.39691668109,573.345241866748,650.114760665419,806.299333565612,0,4,0,0,0,0,horizontal,horizontal,vertical,vertical,vertical,horizontal
1d,4,100207,2,35,99,19,M,NA,constant,homogeneous,4,present,0.564555883407593,1,horizontal,horizontal,1,0.752937479019165,red,4,2,551.535633479765,542.637481142314,1048.46436652023,657.362518857686,742.637481142314,848.464366520235,1048.46436652023,657.362518857686,857.362518857686,351.535633479765,551.535633479765,542.637481142314,NaN,NaN,NaN,NaN,0,0,0,4,NaN,NaN,horizontal,vertical,horizontal,horizontal,none,none
1d,4,100207,2,36,100,19,M,NA,constant,homogeneous,3,present,0.509067058563232,1,vertical,vertical,1,0.647057685852051,red,3,1,795.549636358493,345.03883773512,581.422338320961,731.334709102064,581.422338320961,731.334709102064,1023.02802532055,723.626453162816,795.549636358493,345.03883773512,NaN,NaN,NaN,NaN,NaN,NaN,0,0,4,NaN,NaN,NaN,vertical,vertical,vertical,none,none,none
1d,4,100207,2,37,101,19,M,NA,constant,homogeneous,5,absent,0.551947832107544,1,vertical,vertical,1,1.02351917266846,red,4,NaN,700.363562235235,365.271262369628,NaN,NaN,742.637481142314,848.464366520235,1018.57766167904,731.334709102064,992.450942956807,432.704947607421,700.363562235235,365.271262369628,545.970351986605,622.224714400653,NaN,NaN,0,0,0,4,0,NaN,vertical,horizontal,vertical,vertical,vertical,none
1d,4,100207,2,38,102,19,M,NA,constant,homogeneous,3,absent,0.687981128692627,1,vertical,vertical,1,0.835288429260254,red,1,NaN,593.700666434388,749.885239334581,NaN,NaN,593.700666434388,749.885239334581,1032.95409169886,703.717843984329,773.345241866748,346.39691668109,NaN,NaN,NaN,NaN,NaN,NaN,4,0,0,NaN,NaN,NaN,vertical,horizontal,horizontal,none,none,none
1d,4,100207,2,39,103,19,M,NA,constant,homogeneous,6,absent,0.651258945465088,1,horizontal,horizontal,1,1.07057685852051,red,2,NaN,1025.15163617903,719.715248510402,NaN,NaN,808.899371659138,854.844660889869,1025.15163617903,719.715248510402,1016.25226451989,464.870587620533,791.100628340862,345.155339110131,574.848363820974,480.284751489598,583.747735480111,735.129412379467,0,4,0,0,0,0,horizontal,horizontal,horizontal,vertical,horizontal,vertical
1d,4,100207,2,40,104,19,M,NA,constant,homogeneous,4,present,0.604701995849609,1,vertical,vertical,1,0.811759586334229,red,3,4,946.261991269517,391.116228706307,591.116228706307,453.738008730483,653.738008730483,808.883771293693,1008.88377129369,746.261991269517,946.261991269517,391.116228706307,591.116228706307,453.738008730483,NaN,NaN,NaN,NaN,0,0,4,0,NaN,NaN,horizontal,vertical,vertical,vertical,none,none
1d,4,100207,2,41,105,19,M,NA,constant,homogeneous,5,absent,0.645587921142578,1,vertical,vertical,1,0.835288429260254,red,1,NaN,822.224714400653,854.029648013395,NaN,NaN,822.224714400653,854.029648013395,1048.46436652023,657.362518857686,931.334709102064,381.422338320961,632.704947607421,407.549057043193,565.271262369628,699.636437764765,NaN,NaN,4,0,0,0,0,NaN,vertical,horizontal,horizontal,horizontal,horizontal,none
1d,4,100207,2,42,106,19,M,NA,constant,homogeneous,6,absent,0.585965871810913,1,vertical,vertical,1,0.952932643890381,red,2,NaN,949.885239334581,806.299333565612,NaN,NaN,696.282156015671,832.954091698863,949.885239334581,806.299333565612,1053.60308331891,573.345241866748,903.717843984329,367.045908301137,650.114760665419,393.700666434388,546.39691668109,626.654758133252,0,4,0,0,0,0,vertical,vertical,vertical,horizontal,horizontal,vertical
1d,4,100207,2,43,107,19,M,NA,constant,homogeneous,5,absent,0.68251895904541,1,horizontal,horizontal,1,0.835288429260254,red,4,NaN,616.568350913644,422.862115532956,NaN,NaN,844.280285305067,851.125977018113,1052.5183575291,635.489140744817,911.784642431215,370.807518193712,616.568350913644,422.862115532956,574.848363820974,719.715248510402,NaN,NaN,0,0,0,4,0,NaN,horizontal,horizontal,horizontal,horizontal,horizontal,none
1d,4,100207,2,44,108,19,M,NA,constant,homogeneous,5,absent,0.998862981796265,1,horizontal,horizontal,1,0.717644214630127,red,5,NaN,639.523300282292,798.172220171528,NaN,NaN,938.882953928832,813.860994826083,1046.31108570371,534.001143498857,813.345668841951,345.349468637584,561.936991243214,508.616172865948,639.523300282292,798.172220171528,NaN,NaN,0,0,0,0,4,NaN,vertical,horizontal,horizontal,horizontal,horizontal,none
1d,4,100207,2,45,109,19,M,NA,constant,homogeneous,5,present,0.539143085479736,1,horizontal,horizontal,1,0.999990329742432,red,5,2,570.807518193712,711.784642431215,1051.12597701811,644.280285305067,835.489140744817,852.518357529101,1051.12597701811,644.280285305067,919.715248510402,374.848363820974,622.862115532956,416.568350913644,570.807518193712,711.784642431215,NaN,NaN,0,0,0,0,4,NaN,horizontal,vertical,horizontal,vertical,horizontal,none
1d,4,100207,2,46,110,19,M,NA,constant,homogeneous,5,absent,0.673904895782471,1,horizontal,horizontal,1,0.988225908279419,red,1,NaN,813.345668841951,854.650531362416,NaN,NaN,813.345668841951,854.650531362416,1046.31108570371,665.998856501143,938.882953928832,386.139005173917,639.523300282292,401.827779828472,561.936991243214,691.383827134052,NaN,NaN,4,0,0,0,0,NaN,horizontal,horizontal,vertical,horizontal,vertical,none
1d,4,100207,2,47,111,19,M,NA,constant,homogeneous,4,absent,0.828027963638306,1,vertical,vertical,1,0.635293264389038,red,1,NaN,764.510859255183,852.518357529101,NaN,NaN,764.510859255183,852.518357529101,1052.5183575291,635.489140744817,835.489140744817,347.4816424709,547.481642470899,564.510859255183,NaN,NaN,NaN,NaN,4,0,0,0,NaN,NaN,vertical,vertical,horizontal,vertical,none,none
1d,4,100207,2,48,112,19,M,NA,constant,homogeneous,4,absent,0.685858011245728,1,vertical,vertical,1,0.858817272186279,red,1,NaN,636.089159529932,795.341332995339,NaN,NaN,636.089159529932,795.341332995339,995.341332995339,763.910840470068,963.910840470068,404.658667004661,604.658667004661,436.089159529932,NaN,NaN,NaN,NaN,4,0,0,0,NaN,NaN,vertical,horizontal,horizontal,vertical,none,none
1d,4,100207,2,49,113,19,M,NA,constant,homogeneous,5,absent,0.623779058456421,1,vertical,vertical,1,0.6,red,1,NaN,804.450363641507,854.96116226488,NaN,NaN,804.450363641507,854.96116226488,1043.85771277057,674.554784704298,946.261991269517,391.116228706307,646.537169096228,396.34794493794,558.892763222174,683.019879386575,NaN,NaN,4,0,0,0,0,NaN,vertical,horizontal,horizontal,vertical,horizontal,none
1d,4,100207,2,50,114,19,M,NA,constant,homogeneous,4,present,0.621848821640015,1,horizontal,horizontal,1,0.870581693649292,red,4,2,616.568350913644,422.862115532956,983.431649086356,777.137884467044,622.862115532956,783.431649086356,983.431649086356,777.137884467044,977.137884467044,416.568350913644,616.568350913644,422.862115532956,NaN,NaN,NaN,NaN,0,0,0,4,NaN,NaN,horizontal,horizontal,horizontal,horizontal,none,none
1d,4,100207,2,51,115,19,M,NA,constant,homogeneous,3,absent,0.756180047988892,1,horizontal,horizontal,1,1.07057685852051,red,3,NaN,782.212099195248,345.621167183745,NaN,NaN,588.595418998464,742.594190385041,1029.19248180629,711.784642431215,782.212099195248,345.621167183745,NaN,NaN,NaN,NaN,NaN,NaN,0,0,4,NaN,NaN,NaN,vertical,vertical,horizontal,none,none,none
1d,4,100207,2,52,116,19,M,NA,constant,homogeneous,3,present,0.687506914138794,1,horizontal,horizontal,1,0.999990329742432,red,3,2,616.568350913644,422.862115532956,1045.12173246427,529.712474266665,738.309916622085,847.425410200379,1045.12173246427,529.712474266665,616.568350913644,422.862115532956,NaN,NaN,NaN,NaN,NaN,NaN,0,0,4,NaN,NaN,NaN,vertical,horizontal,horizontal,none,none,none
1d,4,100207,2,53,117,19,M,NA,constant,homogeneous,6,absent,0.530389070510864,1,vertical,vertical,1,1.04704801559448,red,3,NaN,973.909581815937,413.504806087112,NaN,NaN,874.554784704298,843.857712770574,1048.46436652023,657.362518857686,973.909581815937,413.504806087112,725.445215295702,356.142287229426,551.535633479765,542.637481142314,626.090418184063,786.495193912888,0,0,4,0,0,0,horizontal,vertical,vertical,horizontal,vertical,vertical
1d,4,100207,2,54,118,19,M,NA,constant,homogeneous,4,present,0.710590124130249,1,horizontal,horizontal,1,1.07057685852051,red,3,4,646.537169096228,396.34794493794,596.34794493794,753.462830903772,953.462830903772,803.65205506206,1003.65205506206,446.537169096228,646.537169096228,396.34794493794,596.34794493794,753.462830903772,NaN,NaN,NaN,NaN,0,0,4,0,NaN,NaN,vertical,vertical,horizontal,horizontal,none,none
1d,4,100207,2,55,119,19,M,NA,constant,homogeneous,4,absent,0.765642166137695,1,horizontal,horizontal,1,1.03528359413147,red,2,NaN,1055,600,NaN,NaN,800,855,1055,600,800,345,545,600,NaN,NaN,NaN,NaN,0,4,0,0,NaN,NaN,vertical,horizontal,horizontal,horizontal,none,none
1d,4,100207,2,56,120,19,M,NA,constant,homogeneous,6,present,0.678276062011719,1,horizontal,horizontal,1,0.847052850723267,red,4,1,848.656293821019,349.685068220846,751.343706178981,850.314931779154,751.343706178981,850.314931779154,992.450942956807,767.295052392579,1041.10723677783,516.980120613425,848.656293821019,349.685068220846,607.549057043193,432.704947607421,558.892763222174,683.019879386575,0,0,0,4,0,0,vertical,horizontal,vertical,horizontal,horizontal,vertical
1d,4,100207,2,57,121,19,M,NA,constant,homogeneous,5,absent,0.658101797103882,1,horizontal,horizontal,1,0.90587495803833,red,1,NaN,729.712474266665,845.121732464271,NaN,NaN,729.712474266665,845.121732464271,1011.40458100154,742.594190385041,1000.94274216971,443.006323791957,712.784863451954,360.378381699593,545.155339110131,608.899371659138,NaN,NaN,4,0,0,0,0,NaN,horizontal,horizontal,vertical,vertical,horizontal,none
1d,4,100207,2,58,122,19,M,NA,constant,homogeneous,6,absent,0.680246114730835,1,vertical,vertical,1,0.635293264389038,red,2,NaN,1054.65053136242,613.345668841951,NaN,NaN,915.767577433584,827.206663668034,1054.65053136242,613.345668841951,938.882953928832,386.139005173917,684.232422566416,372.793336331966,545.349468637584,586.654331158049,661.117046071168,813.860994826083,0,4,0,0,0,0,horizontal,vertical,vertical,vertical,vertical,horizontal
1d,4,100207,2,59,123,19,M,NA,constant,homogeneous,5,present,0.556513786315918,1,horizontal,horizontal,1,0.929403800964355,red,2,5,963.910840470068,795.341332995339,552.574589799621,538.309916622085,664.870587620533,816.252264519889,963.910840470068,795.341332995339,1036.43188291453,504.475318678942,782.212099195248,345.621167183745,552.574589799621,538.309916622085,NaN,NaN,0,4,0,0,0,NaN,vertical,horizontal,vertical,vertical,vertical,none
1d,4,100207,2,60,124,19,M,NA,constant,homogeneous,4,present,0.900077104568481,1,vertical,vertical,1,0.611764421463013,red,1,3,657.405809614959,811.404581001536,942.594190385041,388.595418998464,657.405809614959,811.404581001536,1011.40458100154,742.594190385041,942.594190385041,388.595418998464,588.595418998464,457.40580961496,NaN,NaN,NaN,NaN,4,0,0,0,NaN,NaN,vertical,vertical,vertical,vertical,none,none
1d,4,100207,2,61,125,19,M,NA,constant,homogeneous,3,absent,0.607860088348389,1,horizontal,horizontal,1,0.682350950241089,red,1,NaN,751.343706178981,850.314931779154,NaN,NaN,751.343706178981,850.314931779154,1041.10723677783,516.980120613425,607.549057043193,432.704947607421,NaN,NaN,NaN,NaN,NaN,NaN,4,0,0,NaN,NaN,NaN,horizontal,vertical,vertical,none,none,none
1d,4,100207,2,62,126,19,M,NA,constant,homogeneous,3,present,0.713849067687988,1,horizontal,horizontal,1,0.882346115112305,red,2,1,1053.09926866854,631.076682568313,646.537169096228,803.65205506206,646.537169096228,803.65205506206,1053.09926866854,631.076682568313,700.363562235235,365.271262369628,NaN,NaN,NaN,NaN,NaN,NaN,0,4,0,NaN,NaN,NaN,vertical,horizontal,horizontal,none,none,none
1d,4,100207,2,63,127,19,M,NA,constant,homogeneous,3,present,0.55477499961853,1,horizontal,horizontal,1,0.929403800964355,red,1,2,734.001143498857,846.311085703712,1046.31108570371,534.001143498857,734.001143498857,846.311085703712,1046.31108570371,534.001143498857,619.68777079743,419.68777079743,NaN,NaN,NaN,NaN,NaN,NaN,4,0,0,NaN,NaN,NaN,horizontal,horizontal,vertical,none,none,none
1d,4,100207,2,64,128,19,M,NA,constant,homogeneous,4,present,0.738384008407593,1,vertical,vertical,1,0.611764421463013,red,2,1,1003.65205506206,753.462830903772,646.537169096228,803.65205506206,646.537169096228,803.65205506206,1003.65205506206,753.462830903772,953.462830903772,396.34794493794,596.34794493794,446.537169096228,NaN,NaN,NaN,NaN,0,4,0,0,NaN,NaN,vertical,vertical,horizontal,vertical,none,none
1d,4,100207,3,1,129,19,M,NA,constant,homogeneous,3,present,0.560309886932373,1,horizontal,horizontal,1,0.870581693649292,red,3,1,552.574589799621,661.690083377915,977.137884467044,783.431649086356,977.137884467044,783.431649086356,870.287525733335,354.878267535729,552.574589799621,661.690083377915,NaN,NaN,NaN,NaN,NaN,NaN,0,0,4,NaN,NaN,NaN,horizontal,horizontal,horizontal,none,none,none
1d,4,100207,3,2,130,19,M,NA,constant,homogeneous,4,absent,0.516619920730591,1,horizontal,horizontal,1,0.647057685852051,red,2,NaN,1032.95409169886,496.282156015671,NaN,NaN,903.717843984329,832.954091698863,1032.95409169886,496.282156015671,696.282156015671,367.045908301137,567.045908301137,703.717843984329,NaN,NaN,NaN,NaN,0,4,0,0,NaN,NaN,vertical,horizontal,vertical,vertical,none,none
1d,4,100207,3,3,131,19,M,NA,constant,homogeneous,5,present,0.575160026550293,1,vertical,vertical,1,1.01175475120544,red,1,3,813.345668841951,854.650531362416,938.882953928832,386.139005173917,813.345668841951,854.650531362416,1046.31108570371,665.998856501143,938.882953928832,386.139005173917,639.523300282292,401.827779828472,561.936991243214,691.383827134052,NaN,NaN,4,0,0,0,0,NaN,vertical,horizontal,horizontal,vertical,vertical,none
1d,4,100207,3,4,132,19,M,NA,constant,homogeneous,3,absent,0.592914819717407,1,vertical,vertical,1,0.882346115112305,red,3,NaN,560.378381699593,512.784863451954,NaN,NaN,844.280285305067,851.125977018113,995.341332995339,436.089159529932,560.378381699593,512.784863451954,NaN,NaN,NaN,NaN,NaN,NaN,0,0,4,NaN,NaN,NaN,horizontal,vertical,vertical,none,none,none
1d,4,100207,3,5,133,19,M,NA,constant,homogeneous,6,present,0.500985860824585,1,vertical,vertical,1,0.611764421463013,red,2,5,1049.42763818712,653.017481158529,550.57236181288,546.982518841471,878.799333565612,842.519411655264,1049.42763818712,653.017481158529,970.628304621509,410.498069503264,721.200666434388,357.480588344736,550.57236181288,546.982518841471,629.371695378491,789.501930496736,0,4,0,0,0,0,vertical,vertical,horizontal,horizontal,horizontal,vertical
1d,4,100207,3,6,134,19,M,NA,constant,homogeneous,3,present,0.511569023132324,1,vertical,vertical,1,0.811759586334229,red,3,2,558.892763222174,516.980120613425,992.450942956807,432.704947607421,848.656293821019,850.314931779154,992.450942956807,432.704947607421,558.892763222174,516.980120613425,NaN,NaN,NaN,NaN,NaN,NaN,0,0,4,NaN,NaN,NaN,horizontal,vertical,vertical,none,none,none
1d,4,100207,3,7,135,19,M,NA,constant,homogeneous,4,present,0.486776113510132,1,horizontal,horizontal,1,0.835288429260254,red,1,2,956.993676208043,800.942742169714,1000.94274216971,443.006323791957,956.993676208043,800.942742169714,1000.94274216971,443.006323791957,643.006323791957,399.057257830286,599.057257830286,756.993676208043,NaN,NaN,NaN,NaN,4,0,0,0,NaN,NaN,horizontal,horizontal,vertical,horizontal,none,none
1d,4,100207,3,8,136,19,M,NA,constant,homogeneous,4,absent,0.632722854614258,1,vertical,vertical,1,1.02351917266846,red,2,NaN,1054.84466088987,608.899371659138,NaN,NaN,791.100628340862,854.844660889869,1054.84466088987,608.899371659138,808.899371659138,345.155339110131,545.155339110131,591.100628340862,NaN,NaN,NaN,NaN,0,4,0,0,NaN,NaN,horizontal,vertical,vertical,vertical,none,none
1d,4,100207,3,9,137,19,M,NA,constant,homogeneous,6,present,0.555274963378906,1,vertical,vertical,1,0.882346115112305,red,6,2,548.874022981887,644.280285305067,963.910840470068,795.341332995339,712.784863451954,839.621618300407,963.910840470068,795.341332995339,1051.12597701811,555.719714694933,887.215136548046,360.378381699593,636.089159529932,404.658667004661,548.874022981887,644.280285305067,0,0,0,0,0,4,vertical,vertical,vertical,vertical,horizontal,vertical
1d,4,100207,3,10,138,19,M,NA,constant,homogeneous,4,present,0.588501930236816,1,horizontal,horizontal,1,1.08234127998352,red,4,3,565.271262369628,699.636437764765,700.363562235235,365.271262369628,899.636437764765,834.728737630372,1034.72873763037,500.363562235235,700.363562235235,365.271262369628,565.271262369628,699.636437764765,NaN,NaN,NaN,NaN,0,0,0,4,NaN,NaN,horizontal,horizontal,vertical,horizontal,none,none
1d,4,100207,3,11,139,19,M,NA,constant,homogeneous,3,present,0.553969860076904,1,vertical,vertical,1,1.08234127998352,red,3,2,601.827779828472,439.523300282291,1038.06300875679,508.616172865948,760.109211414741,851.86052685176,1038.06300875679,508.616172865948,601.827779828472,439.523300282291,NaN,NaN,NaN,NaN,NaN,NaN,0,0,4,NaN,NaN,NaN,horizontal,horizontal,vertical,none,none,none
1d,4,100207,3,12,140,19,M,NA,constant,homogeneous,3,absent,0.523205041885376,1,horizontal,horizontal,1,1.08234127998352,red,1,NaN,700.363562235235,834.728737630372,NaN,NaN,700.363562235235,834.728737630372,1053.09926866854,568.923317431687,646.537169096228,396.34794493794,NaN,NaN,NaN,NaN,NaN,NaN,4,0,0,NaN,NaN,NaN,horizontal,horizontal,horizontal,none,none,none
1d,4,100207,3,13,141,19,M,NA,constant,homogeneous,4,absent,0.702355861663818,1,vertical,vertical,1,1.03528359413147,red,3,NaN,626.090418184063,413.504806087112,NaN,NaN,973.909581815937,786.495193912888,986.495193912888,426.090418184063,626.090418184063,413.504806087112,613.504806087112,773.909581815937,NaN,NaN,NaN,NaN,0,0,4,0,NaN,NaN,vertical,horizontal,vertical,vertical,none,none
1d,4,100207,3,14,142,19,M,NA,constant,homogeneous,6,absent,0.665447950363159,1,horizontal,horizontal,1,0.835288429260254,red,4,NaN,777.775285599347,345.970351986605,NaN,NaN,822.224714400653,854.029648013395,1031.10848569435,707.767656743878,1008.88377129369,453.738008730483,777.775285599347,345.970351986605,568.891514305654,492.232343256122,591.116228706307,746.261991269517,0,0,0,4,0,0,vertical,horizontal,horizontal,horizontal,vertical,horizontal
1d,4,100207,3,15,143,19,M,NA,constant,homogeneous,3,absent,0.716094970703125,1,vertical,vertical,1,1.07057685852051,red,3,NaN,576.971974679454,723.626453162816,NaN,NaN,1018.57766167904,731.334709102064,804.450363641507,345.03883773512,576.971974679454,723.626453162816,NaN,NaN,NaN,NaN,NaN,NaN,0,0,4,NaN,NaN,NaN,horizontal,vertical,vertical,none,none,none
1d,4,100207,3,16,144,19,M,NA,constant,homogeneous,3,present,0.539726972579956,1,vertical,vertical,1,1.0588124370575,red,3,2,548.13947314824,639.890788585259,891.383827134052,361.936991243214,960.476699717708,798.172220171528,891.383827134052,361.936991243214,548.13947314824,639.890788585259,NaN,NaN,NaN,NaN,NaN,NaN,0,0,4,NaN,NaN,NaN,vertical,vertical,vertical,none,none,none
1d,4,100207,3,17,145,19,M,NA,constant,homogeneous,5,absent,0.934534072875977,1,horizontal,horizontal,1,0.6,red,3,NaN,903.717843984329,367.045908301137,NaN,NaN,853.017481158529,849.42763818712,1053.60308331891,626.654758133252,903.717843984329,367.045908301137,610.498069503264,429.371695378491,579.163522034968,727.5,NaN,NaN,0,0,4,0,0,NaN,vertical,horizontal,horizontal,horizontal,horizontal,none
1d,4,100207,3,18,146,19,M,NA,constant,homogeneous,6,absent,0.937786102294922,1,vertical,vertical,1,0.623528842926025,red,3,NaN,989.501930496736,429.371695378491,NaN,NaN,853.017481158529,849.42763818712,1042.51941165526,678.799333565612,989.501930496736,429.371695378491,746.982518841471,350.57236181288,557.480588344736,521.200666434388,610.498069503264,770.628304621509,0,0,4,0,0,0,vertical,vertical,vertical,vertical,vertical,horizontal
1d,4,100207,3,19,147,19,M,NA,constant,homogeneous,6,present,0.580776929855347,1,horizontal,horizontal,1,0.6,red,6,4,581.422338320961,731.334709102064,795.549636358493,345.03883773512,804.450363641507,854.96116226488,1023.02802532055,723.626453162816,1018.57766167904,468.665290897936,795.549636358493,345.03883773512,576.971974679454,476.373546837184,581.422338320961,731.334709102064,0,0,0,0,0,4,vertical,horizontal,horizontal,horizontal,horizontal,horizontal
1d,4,100207,3,20,148,19,M,NA,constant,homogeneous,4,present,0.60514497756958,1,vertical,vertical,1,1.03528359413147,red,1,3,923.626453162816,823.028025320546,676.373546837184,376.971974679454,923.626453162816,823.028025320546,1023.02802532055,476.373546837184,676.373546837184,376.971974679454,576.971974679454,723.626453162816,NaN,NaN,NaN,NaN,4,0,0,0,NaN,NaN,vertical,vertical,vertical,vertical,none,none
1d,4,100207,3,21,149,19,M,NA,constant,homogeneous,5,absent,0.776749849319458,1,vertical,vertical,1,0.752937479019165,red,5,NaN,554.878267535729,529.712474266665,NaN,NaN,657.405809614959,811.404581001536,956.993676208043,800.942742169714,1039.62161830041,512.784863451954,791.100628340862,345.155339110131,554.878267535729,529.712474266665,NaN,NaN,0,0,0,0,4,NaN,vertical,vertical,horizontal,vertical,vertical,none
1d,4,100207,3,22,150,19,M,NA,constant,homogeneous,5,present,0.538173913955688,1,vertical,vertical,1,0.682350950241089,red,4,2,588.595418998464,457.40580961496,1054.84466088987,591.100628340862,887.215136548046,839.621618300407,1054.84466088987,591.100628340862,870.287525733335,354.878267535729,588.595418998464,457.40580961496,599.057257830286,756.993676208043,NaN,NaN,0,0,0,4,0,NaN,vertical,horizontal,vertical,vertical,horizontal,none
1d,4,100207,3,23,151,19,M,NA,constant,homogeneous,3,absent,0.557749032974243,0,vertical,horizontal,1,0.847052850723267,red,2,NaN,804.450363641507,345.03883773512,NaN,NaN,1018.57766167904,731.334709102064,804.450363641507,345.03883773512,576.971974679454,723.626453162816,NaN,NaN,NaN,NaN,NaN,NaN,0,4,0,NaN,NaN,NaN,horizontal,vertical,horizontal,none,none,none
1d,4,100207,3,24,152,19,M,NA,constant,homogeneous,3,absent,0.641106843948364,1,vertical,vertical,1,0.999990329742432,red,3,NaN,768.923317431687,346.900731331463,NaN,NaN,596.34794493794,753.462830903772,1034.72873763037,699.636437764765,768.923317431687,346.900731331463,NaN,NaN,NaN,NaN,NaN,NaN,0,0,4,NaN,NaN,NaN,horizontal,horizontal,vertical,none,none,none
1d,4,100207,3,25,153,19,M,NA,constant,homogeneous,4,absent,0.559326171875,1,vertical,vertical,1,0.858817272186279,red,3,NaN,980.31222920257,419.68777079743,NaN,NaN,619.68777079743,780.31222920257,980.31222920257,780.31222920257,980.31222920257,419.68777079743,619.68777079743,419.68777079743,NaN,NaN,NaN,NaN,0,0,4,0,NaN,NaN,horizontal,vertical,vertical,vertical,none,none
1d,4,100207,3,26,154,19,M,NA,constant,homogeneous,5,absent,0.808358907699585,1,horizontal,horizontal,1,0.882346115112305,red,3,NaN,970.628304621509,410.498069503264,NaN,NaN,773.345241866748,853.60308331891,1032.95409169886,703.717843984329,970.628304621509,410.498069503264,672.5,379.163522034968,550.57236181288,653.017481158529,NaN,NaN,0,0,4,0,0,NaN,vertical,horizontal,horizontal,vertical,vertical,none
1d,4,100207,3,27,155,19,M,NA,constant,homogeneous,4,present,0.744958162307739,1,horizontal,horizontal,1,0.611764421463013,red,3,1,734.001143498857,353.688914296288,865.998856501143,846.311085703712,865.998856501143,846.311085703712,1046.31108570371,534.001143498857,734.001143498857,353.688914296288,553.688914296288,665.998856501143,NaN,NaN,NaN,NaN,0,0,4,0,NaN,NaN,horizontal,horizontal,horizontal,vertical,none,none
1d,4,100207,3,28,156,19,M,NA,constant,homogeneous,6,absent,0.875418901443481,1,horizontal,horizontal,1,0.764701900482178,red,5,NaN,561.936991243214,508.616172865948,NaN,NaN,839.890788585259,851.86052685176,1038.06300875679,691.383827134052,998.172220171528,439.523300282291,760.109211414741,348.13947314824,561.936991243214,508.616172865948,601.827779828472,760.476699717708,0,0,0,0,4,0,vertical,horizontal,vertical,vertical,horizontal,vertical
1d,4,100207,3,29,157,19,M,NA,constant,homogeneous,4,absent,0.582041025161743,1,horizontal,horizontal,1,0.658822107315063,red,3,NaN,729.712474266665,354.878267535729,NaN,NaN,870.287525733335,845.121732464271,1045.12173246427,529.712474266665,729.712474266665,354.878267535729,554.878267535729,670.287525733335,NaN,NaN,NaN,NaN,0,0,4,0,NaN,NaN,vertical,horizontal,horizontal,horizontal,none,none
1d,4,100207,3,30,158,19,M,NA,constant,homogeneous,4,absent,0.701982975006104,1,horizontal,horizontal,1,0.811759586334229,red,3,NaN,967.295052392579,407.549057043193,NaN,NaN,632.704947607421,792.450942956807,992.450942956807,767.295052392579,967.295052392579,407.549057043193,607.549057043193,432.704947607421,NaN,NaN,NaN,NaN,0,0,4,0,NaN,NaN,vertical,vertical,horizontal,horizontal,none,none
1d,4,100207,3,31,159,19,M,NA,constant,homogeneous,6,present,0.785071134567261,1,horizontal,horizontal,1,0.858817272186279,red,4,5,782.212099195248,345.621167183745,570.807518193712,488.215357568785,817.787900804752,854.378832816255,1029.19248180629,711.784642431215,1011.40458100154,457.40580961496,782.212099195248,345.621167183745,570.807518193712,488.215357568785,588.595418998464,742.594190385041,0,0,0,4,0,0,vertical,horizontal,vertical,horizontal,horizontal,vertical
1d,4,100207,3,32,160,19,M,NA,constant,homogeneous,5,absent,0.773484945297241,1,horizontal,horizontal,1,0.823524007797241,red,2,NaN,989.501930496736,770.628304621509,NaN,NaN,696.282156015671,832.954091698863,989.501930496736,770.628304621509,1020.83647796503,472.5,746.982518841471,350.57236181288,546.39691668109,573.345241866748,NaN,NaN,0,4,0,0,0,NaN,vertical,horizontal,vertical,horizontal,vertical,none
1d,4,100207,3,33,161,19,M,NA,constant,homogeneous,5,present,0.686669111251831,1,horizontal,horizontal,1,0.670586528778076,red,3,2,848.656293821019,349.685068220846,1053.09926866854,568.923317431687,907.767656743878,831.108485694346,1053.09926866854,568.923317431687,848.656293821019,349.685068220846,576.971974679454,476.373546837184,613.504806087112,773.909581815937,NaN,NaN,0,0,4,0,0,NaN,vertical,horizontal,horizontal,vertical,vertical,none
1d,4,100207,3,34,162,19,M,NA,constant,homogeneous,4,present,0.76811695098877,1,vertical,vertical,1,0.77646632194519,red,3,1,931.334709102064,381.422338320961,668.665290897936,818.577661679039,668.665290897936,818.577661679039,1018.57766167904,731.334709102064,931.334709102064,381.422338320961,581.422338320961,468.665290897936,NaN,NaN,NaN,NaN,0,0,4,0,NaN,NaN,horizontal,vertical,vertical,vertical,none,none
1d,4,100207,3,35,163,19,M,NA,constant,homogeneous,3,present,0.639173984527588,1,horizontal,horizontal,1,0.77646632194519,red,1,3,883.019879386575,841.107236777826,549.685068220846,551.343706178981,883.019879386575,841.107236777826,967.295052392579,407.549057043193,549.685068220846,551.343706178981,NaN,NaN,NaN,NaN,NaN,NaN,4,0,0,NaN,NaN,NaN,horizontal,vertical,vertical,none,none,none
1d,4,100207,3,36,164,19,M,NA,constant,homogeneous,4,absent,0.736201047897339,1,horizontal,horizontal,1,0.999990329742432,red,2,NaN,1011.40458100154,457.40580961496,NaN,NaN,942.594190385041,811.404581001536,1011.40458100154,457.40580961496,657.405809614959,388.595418998464,588.595418998464,742.594190385041,NaN,NaN,NaN,NaN,0,4,0,0,NaN,NaN,vertical,horizontal,horizontal,horizontal,none,none
1d,4,100207,3,37,165,19,M,NA,constant,homogeneous,3,present,0.499480009078979,1,horizontal,horizontal,1,0.823524007797241,red,2,1,853.017481158529,350.57236181288,989.501930496736,770.628304621509,989.501930496736,770.628304621509,853.017481158529,350.57236181288,557.480588344736,678.799333565612,NaN,NaN,NaN,NaN,NaN,NaN,0,4,0,NaN,NaN,NaN,horizontal,horizontal,vertical,none,none,none
1d,4,100207,3,38,166,19,M,NA,constant,homogeneous,6,present,0.575078964233398,1,horizontal,horizontal,1,1.08234127998352,red,2,6,1038.06300875679,691.383827134052,601.827779828472,760.476699717708,839.890788585259,851.86052685176,1038.06300875679,691.383827134052,998.172220171528,439.523300282291,760.109211414741,348.13947314824,561.936991243214,508.616172865948,601.827779828472,760.476699717708,0,4,0,0,0,0,vertical,horizontal,vertical,horizontal,vertical,horizontal
1d,4,100207,3,39,167,19,M,NA,constant,homogeneous,4,present,0.536972045898438,1,horizontal,horizontal,1,0.90587495803833,red,2,4,1032.95409169886,703.717843984329,567.045908301137,496.282156015671,696.282156015671,832.954091698863,1032.95409169886,703.717843984329,903.717843984329,367.045908301137,567.045908301137,496.282156015671,NaN,NaN,NaN,NaN,0,4,0,0,NaN,NaN,horizontal,horizontal,horizontal,horizontal,none,none
1d,4,100207,3,40,168,19,M,NA,constant,homogeneous,5,absent,0.71281099319458,0,vertical,horizontal,1,0.835288429260254,red,4,NaN,692.232343256122,368.891514305654,NaN,NaN,751.343706178981,850.314931779154,1023.02802532055,723.626453162816,986.495193912888,426.090418184063,692.232343256122,368.891514305654,546.900731331463,631.076682568313,NaN,NaN,0,0,0,4,0,NaN,horizontal,horizontal,vertical,vertical,vertical,none
1d,4,100207,3,41,169,19,M,NA,constant,homogeneous,6,present,0.760049104690552,1,vertical,vertical,1,0.835288429260254,red,6,4,646.537169096228,803.65205506206,700.363562235235,365.271262369628,899.636437764765,834.728737630372,1053.09926866854,631.076682568313,953.462830903772,396.34794493794,700.363562235235,365.271262369628,546.900731331463,568.923317431687,646.537169096228,803.65205506206,0,0,0,0,0,4,horizontal,vertical,vertical,vertical,horizontal,vertical
1d,4,100207,3,42,170,19,M,NA,constant,homogeneous,6,absent,0.586697816848755,1,vertical,vertical,1,0.976461486816406,red,3,NaN,1031.10848569435,492.232343256122,NaN,NaN,777.775285599347,854.029648013395,1008.88377129369,746.261991269517,1031.10848569435,492.232343256122,822.224714400653,345.970351986605,591.116228706307,453.738008730483,568.891514305654,707.767656743878,0,0,4,0,0,0,vertical,vertical,vertical,vertical,vertical,horizontal
1d,4,100207,3,43,171,19,M,NA,constant,homogeneous,5,absent,0.550534009933472,1,vertical,vertical,1,0.6,red,2,NaN,1029.19248180629,711.784642431215,NaN,NaN,764.510859255183,852.518357529101,1029.19248180629,711.784642431215,977.137884467044,416.568350913644,680.284751489598,374.848363820974,548.874022981887,644.280285305067,NaN,NaN,0,4,0,0,0,NaN,horizontal,vertical,horizontal,vertical,vertical,none
1d,4,100207,3,44,172,19,M,NA,constant,homogeneous,6,absent,1.02729392051697,1,vertical,vertical,1,1.08234127998352,red,3,NaN,1023.02802532055,476.373546837184,NaN,NaN,795.549636358493,854.96116226488,1018.57766167904,731.334709102064,1023.02802532055,476.373546837184,804.450363641507,345.03883773512,581.422338320961,468.665290897936,576.971974679454,723.626453162816,0,0,4,0,0,0,vertical,vertical,vertical,vertical,horizontal,vertical
1d,4,100207,3,45,173,19,M,NA,constant,homogeneous,6,absent,0.601497888565063,1,vertical,vertical,1,0.670586528778076,red,6,NaN,545.970351986605,622.224714400653,NaN,NaN,692.232343256122,831.108485694346,946.261991269517,808.883771293693,1054.0296480134,577.775285599347,907.767656743878,368.891514305654,653.738008730483,391.116228706307,545.970351986605,622.224714400653,0,0,0,0,0,4,horizontal,horizontal,horizontal,horizontal,vertical,vertical
1d,4,100207,3,46,174,19,M,NA,constant,homogeneous,4,absent,0.60807204246521,1,vertical,vertical,1,0.917639379501343,red,4,NaN,546.39691668109,626.654758133252,NaN,NaN,826.654758133252,853.60308331891,1053.60308331891,573.345241866748,773.345241866748,346.39691668109,546.39691668109,626.654758133252,NaN,NaN,NaN,NaN,0,0,0,4,NaN,NaN,horizontal,vertical,vertical,vertical,none,none
1d,4,100207,3,47,175,19,M,NA,constant,homogeneous,3,absent,0.72664999961853,1,horizontal,horizontal,1,0.917639379501343,red,3,NaN,668.665290897936,381.422338320961,NaN,NaN,676.373546837184,823.028025320546,1054.96116226488,595.549636358493,668.665290897936,381.422338320961,NaN,NaN,NaN,NaN,NaN,NaN,0,0,4,NaN,NaN,NaN,vertical,horizontal,horizontal,none,none,none
1d,4,100207,3,48,176,19,M,NA,constant,homogeneous,5,present,0.681083202362061,1,horizontal,horizontal,1,0.788230743408203,red,4,5,721.200666434388,357.480588344736,545,600,721.200666434388,842.519411655264,1006.29933356561,749.885239334581,1006.29933356561,450.114760665419,721.200666434388,357.480588344736,545,600,NaN,NaN,0,0,0,4,0,NaN,vertical,horizontal,horizontal,horizontal,vertical,none
1d,4,100207,3,49,177,19,M,NA,constant,homogeneous,5,present,1.15550398826599,1,horizontal,horizontal,1,0.623528842926025,red,2,1,1049.42763818712,546.982518841471,927.5,820.836477965032,927.5,820.836477965032,1049.42763818712,546.982518841471,826.654758133252,346.39691668109,567.045908301137,496.282156015671,629.371695378491,789.501930496736,NaN,NaN,0,4,0,0,0,NaN,vertical,horizontal,vertical,vertical,vertical,none
1d,4,100207,3,50,178,19,M,NA,constant,homogeneous,5,present,0.683556079864502,1,vertical,vertical,1,1.03528359413147,red,5,3,545.03883773512,604.450363641507,1003.65205506206,446.537169096228,725.445215295702,843.857712770574,1008.88377129369,746.261991269517,1003.65205506206,446.537169096228,716.980120613425,358.892763222174,545.03883773512,604.450363641507,NaN,NaN,0,0,0,0,4,NaN,vertical,vertical,horizontal,horizontal,vertical,none
1d,4,100207,3,51,179,19,M,NA,constant,homogeneous,3,present,0.585205078125,1,horizontal,horizontal,1,0.988225908279419,red,2,1,998.172220171528,439.523300282291,839.890788585259,851.86052685176,839.890788585259,851.86052685176,998.172220171528,439.523300282291,561.936991243214,508.616172865948,NaN,NaN,NaN,NaN,NaN,NaN,0,4,0,NaN,NaN,NaN,vertical,horizontal,horizontal,none,none,none
1d,4,100207,3,52,180,19,M,NA,constant,homogeneous,6,absent,0.673208951950073,1,horizontal,horizontal,1,0.811759586334229,red,2,NaN,1011.40458100154,742.594190385041,NaN,NaN,782.212099195248,854.378832816255,1011.40458100154,742.594190385041,1029.19248180629,488.215357568785,817.787900804752,345.621167183745,588.595418998464,457.40580961496,570.807518193712,711.784642431215,0,4,0,0,0,0,vertical,horizontal,horizontal,vertical,horizontal,vertical
1d,4,100207,3,53,181,19,M,NA,constant,homogeneous,5,present,0.859130859375,1,horizontal,horizontal,1,0.811759586334229,red,3,2,804.450363641507,345.03883773512,1043.85771277057,525.445215295702,946.261991269517,808.883771293693,1043.85771277057,525.445215295702,804.450363641507,345.03883773512,558.892763222174,516.980120613425,646.537169096228,803.65205506206,NaN,NaN,0,0,4,0,0,NaN,horizontal,horizontal,horizontal,vertical,horizontal,none
1d,4,100207,3,54,182,19,M,NA,constant,homogeneous,6,absent,0.584455966949463,1,horizontal,horizontal,1,0.988225908279419,red,4,NaN,768.923317431687,346.900731331463,NaN,NaN,831.076682568313,853.099268668537,1034.72873763037,699.636437764765,1003.65205506206,446.537169096228,768.923317431687,346.900731331463,565.271262369628,500.363562235235,596.34794493794,753.462830903772,0,0,0,4,0,0,horizontal,horizontal,vertical,horizontal,vertical,vertical
1d,4,100207,3,55,183,19,M,NA,constant,homogeneous,6,present,0.60045599937439,1,horizontal,horizontal,1,0.611764421463013,red,4,1,865.998856501143,353.688914296288,734.001143498857,846.311085703712,734.001143498857,846.311085703712,980.31222920257,780.31222920257,1046.31108570371,534.001143498857,865.998856501143,353.688914296288,619.68777079743,419.68777079743,553.688914296288,665.998856501143,0,0,0,4,0,0,horizontal,vertical,vertical,horizontal,horizontal,vertical
1d,4,100207,3,56,184,19,M,NA,constant,homogeneous,4,present,0.62919807434082,1,vertical,vertical,1,0.623528842926025,red,4,1,574.848363820974,480.284751489598,680.284751489598,825.151636179026,680.284751489598,825.151636179026,1025.15163617903,719.715248510402,919.715248510402,374.848363820974,574.848363820974,480.284751489598,NaN,NaN,NaN,NaN,0,0,0,4,NaN,NaN,horizontal,vertical,horizontal,vertical,none,none
1d,4,100207,3,57,185,19,M,NA,constant,homogeneous,3,present,0.703552961349487,1,vertical,vertical,1,1.08234127998352,red,2,1,1006.29933356561,450.114760665419,826.654758133252,853.60308331891,826.654758133252,853.60308331891,1006.29933356561,450.114760665419,567.045908301137,496.282156015671,NaN,NaN,NaN,NaN,NaN,NaN,0,4,0,NaN,NaN,NaN,horizontal,vertical,horizontal,none,none,none
1d,4,100207,3,58,186,19,M,NA,constant,homogeneous,5,present,0.577031135559082,1,vertical,vertical,1,0.764701900482178,red,2,5,960.476699717708,798.172220171528,553.688914296288,534.001143498857,661.117046071168,813.860994826083,960.476699717708,798.172220171528,1038.06300875679,508.616172865948,786.654331158049,345.349468637584,553.688914296288,534.001143498857,NaN,NaN,0,4,0,0,0,NaN,horizontal,vertical,vertical,vertical,horizontal,none
1d,4,100207,3,59,187,19,M,NA,constant,homogeneous,3,absent,0.5661940574646,1,horizontal,horizontal,1,0.670586528778076,red,3,NaN,553.688914296288,665.998856501143,NaN,NaN,980.31222920257,780.31222920257,865.998856501143,353.688914296288,553.688914296288,665.998856501143,NaN,NaN,NaN,NaN,NaN,NaN,0,0,4,NaN,NaN,NaN,vertical,vertical,horizontal,none,none,none
1d,4,100207,3,60,188,19,M,NA,constant,homogeneous,5,absent,0.962876796722412,1,vertical,vertical,1,0.658822107315063,red,2,NaN,1046.31108570371,665.998856501143,NaN,NaN,813.345668841951,854.650531362416,1046.31108570371,665.998856501143,938.882953928832,386.139005173917,639.523300282292,401.827779828472,561.936991243214,691.383827134052,NaN,NaN,0,4,0,0,0,NaN,horizontal,vertical,vertical,vertical,horizontal,none
1d,4,100207,3,61,189,19,M,NA,constant,homogeneous,4,present,0.506993055343628,1,vertical,vertical,1,0.835288429260254,red,3,2,848.656293821019,349.685068220846,1050.31493177915,648.656293821019,751.343706178981,850.314931779154,1050.31493177915,648.656293821019,848.656293821019,349.685068220846,549.685068220846,551.343706178981,NaN,NaN,NaN,NaN,0,0,4,0,NaN,NaN,horizontal,horizontal,vertical,vertical,none,none
1d,4,100207,3,62,190,19,M,NA,constant,homogeneous,6,present,0.711711883544922,1,vertical,vertical,1,0.717644214630127,red,5,2,550.57236181288,546.982518841471,1049.42763818712,653.017481158529,878.799333565612,842.519411655264,1049.42763818712,653.017481158529,970.628304621509,410.498069503264,721.200666434388,357.480588344736,550.57236181288,546.982518841471,629.371695378491,789.501930496736,0,0,0,0,4,0,horizontal,vertical,vertical,vertical,vertical,vertical
1d,4,100207,3,63,191,19,M,NA,constant,homogeneous,5,absent,0.562589168548584,1,horizontal,horizontal,1,0.823524007797241,red,2,NaN,1051.86052685176,639.890788585259,NaN,NaN,839.890788585259,851.86052685176,1051.86052685176,639.890788585259,915.767577433584,372.793336331966,619.68777079743,419.68777079743,572.793336331966,715.767577433584,NaN,NaN,0,4,0,0,0,NaN,vertical,horizontal,vertical,horizontal,vertical,none
1d,4,100207,3,64,192,19,M,NA,constant,homogeneous,3,absent,0.558389902114868,1,horizontal,horizontal,1,0.623528842926025,red,1,NaN,977.137884467044,783.431649086356,NaN,NaN,977.137884467044,783.431649086356,870.287525733335,354.878267535729,552.574589799621,661.690083377915,NaN,NaN,NaN,NaN,NaN,NaN,4,0,0,NaN,NaN,NaN,horizontal,horizontal,vertical,none,none,none
1d,4,100207,4,1,193,19,M,NA,constant,homogeneous,3,absent,0.764364004135132,1,horizontal,horizontal,1,0.752937479019165,red,1,NaN,895.524681321058,836.431882914531,NaN,NaN,895.524681321058,836.431882914531,956.993676208043,399.057257830286,547.481642470899,564.510859255183,NaN,NaN,NaN,NaN,NaN,NaN,4,0,0,NaN,NaN,NaN,horizontal,horizontal,horizontal,none,none,none
1d,4,100207,4,2,194,19,M,NA,constant,homogeneous,3,absent,0.644893884658813,1,vertical,vertical,1,0.847052850723267,red,2,NaN,1023.02802532055,723.626453162816,NaN,NaN,581.422338320961,731.334709102064,1023.02802532055,723.626453162816,795.549636358493,345.03883773512,NaN,NaN,NaN,NaN,NaN,NaN,0,4,0,NaN,NaN,NaN,horizontal,vertical,horizontal,none,none,none
1d,4,100207,4,3,195,19,M,NA,constant,homogeneous,6,present,0.871751070022583,1,vertical,vertical,1,0.694115371704102,red,6,1,601.827779828472,760.476699717708,839.890788585259,851.86052685176,839.890788585259,851.86052685176,1038.06300875679,691.383827134052,998.172220171528,439.523300282291,760.109211414741,348.13947314824,561.936991243214,508.616172865948,601.827779828472,760.476699717708,0,0,0,0,0,4,vertical,horizontal,vertical,horizontal,vertical,vertical
1d,4,100207,4,4,196,19,M,NA,constant,homogeneous,6,absent,0.609277009963989,1,horizontal,horizontal,1,0.788230743408203,red,2,NaN,1041.10723677783,683.019879386575,NaN,NaN,848.656293821019,850.314931779154,1041.10723677783,683.019879386575,992.450942956807,432.704947607421,751.343706178981,349.685068220846,558.892763222174,516.980120613425,607.549057043193,767.295052392579,0,4,0,0,0,0,vertical,horizontal,vertical,vertical,horizontal,horizontal
1d,4,100207,4,5,197,19,M,NA,constant,homogeneous,3,absent,0.532614946365356,1,vertical,vertical,1,0.952932643890381,red,3,NaN,639.523300282292,401.827779828472,NaN,NaN,708.616172865948,838.063008756786,1051.86052685176,560.109211414741,639.523300282292,401.827779828472,NaN,NaN,NaN,NaN,NaN,NaN,0,0,4,NaN,NaN,NaN,horizontal,horizontal,vertical,none,none,none
1d,4,100207,4,6,198,19,M,NA,constant,homogeneous,5,present,0.615947008132935,1,vertical,vertical,1,1.02351917266846,red,5,1,545.970351986605,622.224714400653,742.637481142314,848.464366520235,742.637481142314,848.464366520235,1018.57766167904,731.334709102064,992.450942956807,432.704947607421,700.363562235235,365.271262369628,545.970351986605,622.224714400653,NaN,NaN,0,0,0,0,4,NaN,horizontal,horizontal,vertical,horizontal,vertical,none
1d,4,100207,4,7,199,19,M,NA,constant,homogeneous,4,present,0.609534025192261,1,horizontal,horizontal,1,0.647057685852051,red,4,2,547.481642470899,564.510859255183,1052.5183575291,635.489140744817,764.510859255183,852.518357529101,1052.5183575291,635.489140744817,835.489140744817,347.4816424709,547.481642470899,564.510859255183,NaN,NaN,NaN,NaN,0,0,0,4,NaN,NaN,vertical,vertical,horizontal,horizontal,none,none
1d,4,100207,4,8,200,19,M,NA,constant,homogeneous,5,absent,0.838138103485107,1,vertical,vertical,1,0.823524007797241,red,1,NaN,857.362518857686,848.464366520235,NaN,NaN,857.362518857686,848.464366520235,1054.0296480134,622.224714400653,899.636437764765,365.271262369628,607.549057043193,432.704947607421,581.422338320961,731.334709102064,NaN,NaN,4,0,0,0,0,NaN,vertical,horizontal,vertical,horizontal,horizontal,none
1d,4,100207,4,9,201,19,M,NA,constant,homogeneous,3,absent,0.565823078155518,1,horizontal,horizontal,1,0.929403800964355,red,2,NaN,874.554784704298,356.142287229426,NaN,NaN,973.909581815937,786.495193912888,874.554784704298,356.142287229426,551.535633479765,657.362518857686,NaN,NaN,NaN,NaN,NaN,NaN,0,4,0,NaN,NaN,NaN,vertical,horizontal,horizontal,none,none,none
1d,4,100207,4,10,202,19,M,NA,constant,homogeneous,4,present,0.828222990036011,1,vertical,vertical,1,0.952932643890381,red,1,3,831.076682568313,853.099268668537,768.923317431687,346.900731331463,831.076682568313,853.099268668537,1053.09926866854,568.923317431687,768.923317431687,346.900731331463,546.900731331463,631.076682568313,NaN,NaN,NaN,NaN,4,0,0,0,NaN,NaN,vertical,horizontal,vertical,vertical,none,none
1d,4,100207,4,11,203,19,M,NA,constant,homogeneous,5,absent,0.658972978591919,1,vertical,vertical,1,1.09410570144653,red,5,NaN,568.891514305654,707.767656743878,NaN,NaN,831.076682568313,853.099268668537,1050.31493177915,648.656293821019,923.626453162816,376.971974679454,626.090418184063,413.504806087112,568.891514305654,707.767656743878,NaN,NaN,0,0,0,0,4,NaN,horizontal,vertical,horizontal,vertical,vertical,none
1d,4,100207,4,12,204,19,M,NA,constant,homogeneous,4,present,0.684862852096558,1,vertical,vertical,1,0.823524007797241,red,3,4,813.345668841951,345.349468637584,545.349468637584,586.654331158049,786.654331158049,854.650531362416,1054.65053136242,613.345668841951,813.345668841951,345.349468637584,545.349468637584,586.654331158049,NaN,NaN,NaN,NaN,0,0,4,0,NaN,NaN,vertical,vertical,vertical,horizontal,none,none
1d,4,100207,4,13,205,19,M,NA,constant,homogeneous,4,absent,0.638314962387085,1,horizontal,horizontal,1,0.77646632194519,red,2,NaN,1031.10848569435,707.767656743878,NaN,NaN,692.232343256122,831.108485694346,1031.10848569435,707.767656743878,907.767656743878,368.891514305654,568.891514305654,492.232343256122,NaN,NaN,NaN,NaN,0,4,0,0,NaN,NaN,vertical,horizontal,vertical,horizontal,none,none
1d,4,100207,4,14,206,19,M,NA,constant,homogeneous,5,present,0.616153001785278,1,horizontal,horizontal,1,0.847052850723267,red,4,1,610.498069503264,429.371695378491,853.017481158529,849.42763818712,853.017481158529,849.42763818712,1053.60308331891,626.654758133252,903.717843984329,367.045908301137,610.498069503264,429.371695378491,579.163522034968,727.5,NaN,NaN,0,0,0,4,0,NaN,horizontal,horizontal,horizontal,horizontal,horizontal,none
1d,4,100207,4,15,207,19,M,NA,constant,homogeneous,3,absent,0.636970043182373,1,horizontal,horizontal,1,0.811759586334229,red,2,NaN,919.715248510402,374.848363820974,NaN,NaN,935.129412379467,816.252264519889,919.715248510402,374.848363820974,545.155339110131,608.899371659138,NaN,NaN,NaN,NaN,NaN,NaN,0,4,0,NaN,NaN,NaN,vertical,horizontal,horizontal,none,none,none
1d,4,100207,4,16,208,19,M,NA,constant,homogeneous,6,absent,0.714643955230713,1,horizontal,horizontal,1,0.635293264389038,red,6,NaN,546.39691668109,626.654758133252,NaN,NaN,696.282156015671,832.954091698863,949.885239334581,806.299333565612,1053.60308331891,573.345241866748,903.717843984329,367.045908301137,650.114760665419,393.700666434388,546.39691668109,626.654758133252,0,0,0,0,0,4,horizontal,horizontal,vertical,horizontal,vertical,horizontal
1d,4,100207,4,17,209,19,M,NA,constant,homogeneous,3,present,0.574295997619629,1,horizontal,horizontal,1,1.07057685852051,red,2,3,1054.84466088987,608.899371659138,680.284751489598,374.848363820974,664.870587620533,816.252264519889,1054.84466088987,608.899371659138,680.284751489598,374.848363820974,NaN,NaN,NaN,NaN,NaN,NaN,0,4,0,NaN,NaN,NaN,horizontal,horizontal,vertical,none,none,none
1d,4,100207,4,18,210,19,M,NA,constant,homogeneous,4,absent,0.72789192199707,1,vertical,vertical,1,0.694115371704102,red,4,NaN,558.892763222174,516.980120613425,NaN,NaN,716.980120613425,841.107236777826,1041.10723677783,683.019879386575,883.019879386575,358.892763222174,558.892763222174,516.980120613425,NaN,NaN,NaN,NaN,0,0,0,4,NaN,NaN,horizontal,horizontal,horizontal,vertical,none,none
1d,4,100207,4,19,211,19,M,NA,constant,homogeneous,6,absent,1.13444781303406,1,horizontal,horizontal,1,0.799995164871216,red,5,NaN,545,600,NaN,NaN,927.5,820.836477965032,1055,600,927.5,379.163522034968,672.5,379.163522034968,545,600,672.5,820.836477965032,0,0,0,0,4,0,horizontal,horizontal,vertical,horizontal,horizontal,horizontal
1d,4,100207,4,20,212,19,M,NA,constant,homogeneous,6,present,0.661431074142456,1,horizontal,horizontal,1,0.788230743408203,red,2,3,1048.46436652023,657.362518857686,973.909581815937,413.504806087112,874.554784704298,843.857712770574,1048.46436652023,657.362518857686,973.909581815937,413.504806087112,725.445215295702,356.142287229426,551.535633479765,542.637481142314,626.090418184063,786.495193912888,0,4,0,0,0,0,vertical,horizontal,vertical,vertical,horizontal,horizontal
1d,4,100207,4,21,213,19,M,NA,constant,homogeneous,3,present,0.546243190765381,1,horizontal,horizontal,1,0.788230743408203,red,3,2,548.13947314824,560.109211414741,960.476699717708,401.827779828472,891.383827134052,838.063008756786,960.476699717708,401.827779828472,548.13947314824,560.109211414741,NaN,NaN,NaN,NaN,NaN,NaN,0,0,4,NaN,NaN,NaN,horizontal,vertical,horizontal,none,none,none
1d,4,100207,4,22,214,19,M,NA,constant,homogeneous,3,absent,0.695968866348267,1,vertical,vertical,1,0.929403800964355,red,1,NaN,653.738008730483,808.883771293693,NaN,NaN,653.738008730483,808.883771293693,1054.0296480134,622.224714400653,692.232343256122,368.891514305654,NaN,NaN,NaN,NaN,NaN,NaN,4,0,0,NaN,NaN,NaN,vertical,vertical,vertical,none,none,none
1d,4,100207,4,23,215,19,M,NA,constant,homogeneous,5,absent,0.604791879653931,1,horizontal,horizontal,1,0.72940863609314,red,4,NaN,579.163522034968,472.5,NaN,NaN,903.717843984329,832.954091698863,1053.60308331891,573.345241866748,853.017481158529,350.57236181288,579.163522034968,472.5,610.498069503264,770.628304621509,NaN,NaN,0,0,0,4,0,NaN,horizontal,vertical,horizontal,horizontal,horizontal,none
1d,4,100207,4,24,216,19,M,NA,constant,homogeneous,3,present,0.619049072265625,1,vertical,vertical,1,0.894110536575317,red,3,1,560.378381699593,512.784863451954,844.280285305067,851.125977018113,844.280285305067,851.125977018113,995.341332995339,436.089159529932,560.378381699593,512.784863451954,NaN,NaN,NaN,NaN,NaN,NaN,0,0,4,NaN,NaN,NaN,vertical,vertical,vertical,none,none,none
1d,4,100207,4,25,217,19,M,NA,constant,homogeneous,4,absent,0.876924991607666,1,vertical,vertical,1,1.07057685852051,red,2,NaN,1029.19248180629,711.784642431215,NaN,NaN,688.215357568785,829.192481806288,1029.19248180629,711.784642431215,911.784642431215,370.807518193712,570.807518193712,488.215357568785,NaN,NaN,NaN,NaN,0,4,0,0,NaN,NaN,vertical,vertical,horizontal,vertical,none,none
1d,4,100207,4,26,218,19,M,NA,constant,homogeneous,6,absent,0.629821062088013,1,vertical,vertical,1,0.964697065353394,red,6,NaN,588.595418998464,742.594190385041,NaN,NaN,817.787900804752,854.378832816255,1029.19248180629,711.784642431215,1011.40458100154,457.40580961496,782.212099195248,345.621167183745,570.807518193712,488.215357568785,588.595418998464,742.594190385041,0,0,0,0,0,4,horizontal,horizontal,vertical,vertical,horizontal,vertical
1d,4,100207,4,27,219,19,M,NA,constant,homogeneous,3,present,0.579347133636475,1,vertical,vertical,1,1.04704801559448,red,2,3,1046.31108570371,534.001143498857,619.68777079743,419.68777079743,734.001143498857,846.311085703712,1046.31108570371,534.001143498857,619.68777079743,419.68777079743,NaN,NaN,NaN,NaN,NaN,NaN,0,4,0,NaN,NaN,NaN,horizontal,vertical,vertical,none,none,none
1d,4,100207,4,28,220,19,M,NA,constant,homogeneous,6,present,0.754237174987793,1,horizontal,horizontal,1,0.741173057556152,red,4,3,721.200666434388,357.480588344736,970.628304621509,410.498069503264,878.799333565612,842.519411655264,1049.42763818712,653.017481158529,970.628304621509,410.498069503264,721.200666434388,357.480588344736,550.57236181288,546.982518841471,629.371695378491,789.501930496736,0,0,0,4,0,0,horizontal,horizontal,vertical,horizontal,vertical,horizontal
1d,4,100207,4,29,221,19,M,NA,constant,homogeneous,5,present,0.673675060272217,1,vertical,vertical,1,1.01175475120544,red,3,4,960.476699717708,401.827779828472,661.117046071168,386.139005173917,786.654331158049,854.650531362416,1038.06300875679,691.383827134052,960.476699717708,401.827779828472,661.117046071168,386.139005173917,553.688914296288,665.998856501143,NaN,NaN,0,0,4,0,0,NaN,vertical,vertical,vertical,vertical,vertical,none
1d,4,100207,4,30,222,19,M,NA,constant,homogeneous,5,absent,1.04132914543152,1,horizontal,horizontal,1,1.09410570144653,red,4,NaN,773.345241866748,346.39691668109,NaN,NaN,672.5,820.836477965032,970.628304621509,789.501930496736,1032.95409169886,496.282156015671,773.345241866748,346.39691668109,550.57236181288,546.982518841471,NaN,NaN,0,0,0,4,0,NaN,horizontal,horizontal,horizontal,horizontal,vertical,none
1d,4,100207,4,31,223,19,M,NA,constant,homogeneous,4,present,0.923278093338013,1,horizontal,horizontal,1,0.847052850723267,red,4,3,551.535633479765,657.362518857686,742.637481142314,351.535633479765,857.362518857686,848.464366520235,1048.46436652023,542.637481142314,742.637481142314,351.535633479765,551.535633479765,657.362518857686,NaN,NaN,NaN,NaN,0,0,0,4,NaN,NaN,horizontal,horizontal,vertical,horizontal,none,none
1d,4,100207,4,32,224,19,M,NA,constant,homogeneous,5,absent,0.635313987731934,1,vertical,vertical,1,1.07057685852051,red,1,NaN,931.334709102064,818.577661679039,NaN,NaN,931.334709102064,818.577661679039,1048.46436652023,542.637481142314,822.224714400653,345.970351986605,565.271262369628,500.363562235235,632.704947607421,792.450942956807,NaN,NaN,4,0,0,0,0,NaN,vertical,horizontal,horizontal,vertical,horizontal,none
1d,4,100207,4,33,225,19,M,NA,constant,homogeneous,4,absent,0.637701034545898,1,vertical,vertical,1,0.870581693649292,red,4,NaN,613.504806087112,426.090418184063,NaN,NaN,626.090418184063,786.495193912888,986.495193912888,773.909581815937,973.909581815937,413.504806087112,613.504806087112,426.090418184063,NaN,NaN,NaN,NaN,0,0,0,4,NaN,NaN,vertical,vertical,horizontal,vertical,none,none
1d,4,100207,4,34,226,19,M,NA,constant,homogeneous,6,present,0.571369886398315,1,vertical,vertical,1,1.03528359413147,red,6,1,639.523300282292,798.172220171528,891.383827134052,838.063008756786,891.383827134052,838.063008756786,1051.86052685176,639.890788585259,960.476699717708,401.827779828472,708.616172865948,361.936991243214,548.13947314824,560.109211414741,639.523300282292,798.172220171528,0,0,0,0,0,4,horizontal,horizontal,vertical,horizontal,horizontal,vertical
1d,4,100207,4,35,227,19,M,NA,constant,homogeneous,4,present,0.570195198059082,0,horizontal,vertical,1,0.976461486816406,red,4,2,616.568350913644,777.137884467044,983.431649086356,422.862115532956,977.137884467044,783.431649086356,983.431649086356,422.862115532956,622.862115532956,416.568350913644,616.568350913644,777.137884467044,NaN,NaN,NaN,NaN,0,0,0,4,NaN,NaN,vertical,vertical,vertical,horizontal,none,none
1d,4,100207,4,36,228,19,M,NA,constant,homogeneous,3,absent,0.816148042678833,1,horizontal,horizontal,1,0.90587495803833,red,3,NaN,563.568117085469,504.475318678942,NaN,NaN,835.489140744817,852.518357529101,1000.94274216971,443.006323791957,563.568117085469,504.475318678942,NaN,NaN,NaN,NaN,NaN,NaN,0,0,4,NaN,NaN,NaN,vertical,vertical,horizontal,none,none,none
1d,4,100207,4,37,229,19,M,NA,constant,homogeneous,6,present,0.718268156051636,1,horizontal,horizontal,1,0.682350950241089,red,1,6,891.383827134052,838.063008756786,639.523300282292,798.172220171528,891.383827134052,838.063008756786,1051.86052685176,639.890788585259,960.476699717708,401.827779828472,708.616172865948,361.936991243214,548.13947314824,560.109211414741,639.523300282292,798.172220171528,4,0,0,0,0,0,horizontal,horizontal,vertical,horizontal,vertical,vertical
1d,4,100207,4,38,230,19,M,NA,constant,homogeneous,5,present,0.568773984909058,1,horizontal,horizontal,1,0.988225908279419,red,4,1,557.480588344736,521.200666434388,949.885239334581,806.299333565612,949.885239334581,806.299333565612,1042.51941165526,521.200666434388,800,345,557.480588344736,521.200666434388,650.114760665419,806.299333565612,NaN,NaN,0,0,0,4,0,NaN,vertical,horizontal,vertical,horizontal,vertical,none
1d,4,100207,4,39,231,19,M,NA,constant,homogeneous,4,present,0.518448114395142,1,horizontal,horizontal,1,0.705879793167114,red,4,1,545.03883773512,604.450363641507,804.450363641507,854.96116226488,804.450363641507,854.96116226488,1054.96116226488,595.549636358493,795.549636358493,345.03883773512,545.03883773512,604.450363641507,NaN,NaN,NaN,NaN,0,0,0,4,NaN,NaN,vertical,horizontal,vertical,horizontal,none,none
1d,4,100207,4,40,232,19,M,NA,constant,homogeneous,4,absent,0.542856931686401,1,horizontal,horizontal,1,1.09410570144653,red,4,NaN,604.658667004661,436.089159529932,NaN,NaN,636.089159529932,795.341332995339,995.341332995339,763.910840470068,963.910840470068,404.658667004661,604.658667004661,436.089159529932,NaN,NaN,NaN,NaN,0,0,0,4,NaN,NaN,horizontal,vertical,vertical,horizontal,none,none
1d,4,100207,4,41,233,19,M,NA,constant,homogeneous,4,absent,0.576401948928833,1,horizontal,horizontal,1,0.917639379501343,red,3,NaN,861.690083377915,352.574589799621,NaN,NaN,738.309916622085,847.425410200379,1047.42541020038,661.690083377915,861.690083377915,352.574589799621,552.574589799621,538.309916622085,NaN,NaN,NaN,NaN,0,0,4,0,NaN,NaN,vertical,horizontal,horizontal,horizontal,none,none
1d,4,100207,4,42,234,19,M,NA,constant,homogeneous,3,present,0.630388975143433,1,horizontal,horizontal,1,0.717644214630127,red,1,2,599.057257830286,756.993676208043,1036.43188291453,695.524681321058,599.057257830286,756.993676208043,1036.43188291453,695.524681321058,764.510859255183,347.4816424709,NaN,NaN,NaN,NaN,NaN,NaN,4,0,0,NaN,NaN,NaN,horizontal,vertical,vertical,none,none,none
1d,4,100207,4,43,235,19,M,NA,constant,homogeneous,5,absent,0.663455963134766,1,vertical,vertical,1,0.611764421463013,red,1,NaN,721.200666434388,842.519411655264,NaN,NaN,721.200666434388,842.519411655264,1006.29933356561,749.885239334581,1006.29933356561,450.114760665419,721.200666434388,357.480588344736,545,600,NaN,NaN,4,0,0,0,0,NaN,vertical,vertical,vertical,vertical,vertical,none
1d,4,100207,4,44,236,19,M,NA,constant,homogeneous,6,absent,0.62805700302124,1,vertical,vertical,1,0.964697065353394,red,4,NaN,725.445215295702,356.142287229426,NaN,NaN,874.554784704298,843.857712770574,1048.46436652023,657.362518857686,973.909581815937,413.504806087112,725.445215295702,356.142287229426,551.535633479765,542.637481142314,626.090418184063,786.495193912888,0,0,0,4,0,0,horizontal,vertical,horizontal,vertical,horizontal,vertical
1d,4,100207,4,45,237,19,M,NA,constant,homogeneous,5,present,0.934119939804077,1,horizontal,horizontal,1,0.658822107315063,red,3,4,1025.15163617903,480.284751489598,755.719714694933,348.874022981887,688.215357568785,829.192481806288,983.431649086356,777.137884467044,1025.15163617903,480.284751489598,755.719714694933,348.874022981887,547.481642470899,564.510859255183,NaN,NaN,0,0,4,0,0,NaN,horizontal,vertical,horizontal,horizontal,vertical,none
1d,4,100207,4,46,238,19,M,NA,constant,homogeneous,3,present,0.618320941925049,1,vertical,vertical,1,1.07057685852051,red,1,3,599.057257830286,756.993676208043,764.510859255183,347.4816424709,599.057257830286,756.993676208043,1036.43188291453,695.524681321058,764.510859255183,347.4816424709,NaN,NaN,NaN,NaN,NaN,NaN,4,0,0,NaN,NaN,NaN,vertical,vertical,horizontal,none,none,none
1d,4,100207,4,47,239,19,M,NA,constant,homogeneous,6,present,0.684926986694336,1,vertical,vertical,1,0.894110536575317,red,3,2,1054.37883281626,582.212099195248,942.594190385041,811.404581001536,688.215357568785,829.192481806288,942.594190385041,811.404581001536,1054.37883281626,582.212099195248,911.784642431215,370.807518193712,657.405809614959,388.595418998464,545.621167183745,617.787900804752,0,0,4,0,0,0,vertical,horizontal,vertical,horizontal,vertical,vertical
1d,4,100207,4,48,240,19,M,NA,constant,homogeneous,5,present,0.66038990020752,1,horizontal,horizontal,1,0.882346115112305,red,2,4,1023.02802532055,723.626453162816,692.232343256122,368.891514305654,751.343706178981,850.314931779154,1023.02802532055,723.626453162816,986.495193912888,426.090418184063,692.232343256122,368.891514305654,546.900731331463,631.076682568313,NaN,NaN,0,4,0,0,0,NaN,horizontal,horizontal,vertical,horizontal,horizontal,none
1d,4,100207,4,49,241,19,M,NA,constant,homogeneous,5,present,0.706732988357544,1,vertical,vertical,1,1.0588124370575,red,4,2,572.793336331966,484.232422566416,1051.86052685176,560.109211414741,915.767577433584,827.206663668034,1051.86052685176,560.109211414741,839.890788585259,348.13947314824,572.793336331966,484.232422566416,619.68777079743,780.31222920257,NaN,NaN,0,0,0,4,0,NaN,horizontal,horizontal,horizontal,vertical,vertical,none
1d,4,100207,4,50,242,19,M,NA,constant,homogeneous,4,absent,0.658105134963989,1,horizontal,horizontal,1,0.835288429260254,red,1,NaN,938.882953928832,813.860994826083,NaN,NaN,938.882953928832,813.860994826083,1013.86099482608,461.117046071168,661.117046071168,386.139005173917,586.139005173917,738.882953928832,NaN,NaN,NaN,NaN,4,0,0,0,NaN,NaN,horizontal,horizontal,vertical,vertical,none,none
1d,4,100207,4,51,243,19,M,NA,constant,homogeneous,4,absent,0.632264852523804,1,vertical,vertical,1,0.635293264389038,red,1,NaN,619.68777079743,780.31222920257,NaN,NaN,619.68777079743,780.31222920257,980.31222920257,780.31222920257,980.31222920257,419.68777079743,619.68777079743,419.68777079743,NaN,NaN,NaN,NaN,4,0,0,0,NaN,NaN,vertical,horizontal,vertical,horizontal,none,none
