experiment,subject,uniqueID,block,trial,trial_cumulative,age,gender,color_cond_blocking,color_history,shape_type,set_size,distractor,rt,acc,target_orient,response_key,response_made,iti,target_color,target_item,distractor_item,target_X,target_Y,distractor_X,distractor_Y,item1_X,item1_Y,item2_X,item2_Y,item3_X,item3_Y,item4_X,item4_Y,item5_X,item5_Y,item6_X,item6_Y,item1_shape,item2_shape,item3_shape,item4_shape,item5_shape,item6_shape,item1_line,item2_line,item3_line,item4_line,item5_line,item6_line
1d,5,100208,1,1,1,19,F,NA,constant,homogeneous,6,present,0.644520044326782,0,vertical,horizontal,1,0.729414091110229,green,5,1,714.878267535729,529.712474266665,1021.69008337792,847.425410200379,1021.69008337792,847.425410200379,1205.12173246427,670.287525733335,1143.43164908636,422.862115532956,898.309916622085,352.574589799621,714.878267535729,529.712474266665,776.568350913644,777.137884467044,0,0,0,0,4,0,horizontal,horizontal,horizontal,horizontal,vertical,horizontal
1d,5,100208,1,2,2,19,F,NA,constant,homogeneous,4,present,1.20592212677002,1,horizontal,horizontal,1,1.03530194282532,green,2,4,1176.25226451989,464.870587620533,743.747735480111,735.129412379467,1095.12941237947,816.252264519889,1176.25226451989,464.870587620533,824.870587620533,383.747735480111,743.747735480111,735.129412379467,NaN,NaN,NaN,NaN,0,4,0,0,NaN,NaN,vertical,horizontal,horizontal,vertical,none,none
1d,5,100208,1,3,3,19,F,NA,constant,homogeneous,5,absent,0.868957996368408,1,vertical,vertical,1,0.858828182220459,green,1,NaN,955.549636358493,854.96116226488,NaN,NaN,955.549636358493,854.96116226488,1201.10723677783,683.019879386575,1113.46283090377,396.34794493794,813.738008730483,391.116228706307,716.142287229426,674.554784704298,NaN,NaN,4,0,0,0,0,NaN,vertical,vertical,horizontal,horizontal,vertical,none
1d,5,100208,1,4,4,19,F,NA,constant,homogeneous,5,absent,0.865935087203979,1,vertical,vertical,1,0.976477355957031,green,1,NaN,915.719714694933,851.125977018113,NaN,NaN,915.719714694933,851.125977018113,1185.15163617903,719.715248510402,1143.43164908636,422.862115532956,848.215357568785,370.807518193712,707.481642470899,635.489140744817,NaN,NaN,4,0,0,0,0,NaN,vertical,vertical,horizontal,horizontal,horizontal,none
1d,5,100208,1,5,5,19,F,NA,constant,homogeneous,4,absent,0.790361166000366,1,horizontal,horizontal,1,0.741179008483887,green,4,NaN,721.936991243214,691.383827134052,NaN,NaN,1051.38382713405,838.063008756786,1198.06300875679,508.616172865948,868.616172865948,361.936991243214,721.936991243214,691.383827134052,NaN,NaN,NaN,NaN,0,0,0,4,NaN,NaN,vertical,horizontal,vertical,horizontal,none,none
1d,5,100208,1,6,6,19,F,NA,constant,homogeneous,4,present,1.52985692024231,1,horizontal,horizontal,1,0.764708843231201,green,1,4,1079.7152485104,825.151636179026,734.848363820974,719.715248510402,1079.7152485104,825.151636179026,1185.15163617903,480.284751489598,840.284751489598,374.848363820974,734.848363820974,719.715248510402,NaN,NaN,NaN,NaN,4,0,0,0,NaN,NaN,horizontal,vertical,vertical,vertical,none,none
1d,5,100208,1,7,7,19,F,NA,constant,homogeneous,6,absent,NaN,0,vertical,none,0,0.917652769088745,green,5,NaN,792.704947607421,407.549057043193,NaN,NaN,876.980120613425,841.107236777826,1127.29505239258,792.450942956807,1210.31493177915,551.343706178981,1043.01987938657,358.892763222174,792.704947607421,407.549057043193,709.685068220846,648.656293821019,0,0,0,0,4,0,vertical,horizontal,horizontal,horizontal,vertical,horizontal
1d,5,100208,1,8,8,19,F,NA,constant,homogeneous,3,present,0.840734004974365,0,vertical,horizontal,1,1.08236161231995,green,1,2,739.163522034968,727.5,1180.83647796503,727.5,739.163522034968,727.5,1180.83647796503,727.5,960,345,NaN,NaN,NaN,NaN,NaN,NaN,4,0,0,NaN,NaN,NaN,vertical,horizontal,horizontal,none,none,none
1d,5,100208,1,9,9,19,F,NA,constant,homogeneous,5,present,0.962847948074341,1,vertical,vertical,1,1.04706686019897,green,2,5,1140.31222920257,780.31222920257,708.13947314824,560.109211414741,844.232422566416,827.206663668034,1140.31222920257,780.31222920257,1187.20666366803,484.232422566416,920.109211414741,348.13947314824,708.13947314824,560.109211414741,NaN,NaN,0,4,0,0,0,NaN,horizontal,vertical,vertical,horizontal,vertical,none
1d,5,100208,1,10,10,19,F,NA,constant,homogeneous,3,absent,0.782169103622437,1,vertical,vertical,1,0.788238677978516,green,2,NaN,1202.51941165526,678.799333565612,NaN,NaN,770.498069503264,770.628304621509,1202.51941165526,678.799333565612,906.982518841471,350.57236181288,NaN,NaN,NaN,NaN,NaN,NaN,0,4,0,NaN,NaN,NaN,vertical,vertical,vertical,none,none,none
1d,5,100208,1,11,11,19,F,NA,constant,homogeneous,4,present,0.894853830337524,1,vertical,vertical,1,1.08236161231995,green,3,2,828.665290897936,381.422338320961,1178.57766167904,468.665290897936,1091.33470910206,818.577661679039,1178.57766167904,468.665290897936,828.665290897936,381.422338320961,741.422338320961,731.334709102064,NaN,NaN,NaN,NaN,0,0,4,0,NaN,NaN,horizontal,horizontal,vertical,vertical,none,none
1d,5,100208,1,12,12,19,F,NA,constant,homogeneous,5,present,0.878343105316162,1,horizontal,horizontal,1,0.647059669494629,green,2,5,1133.90958181594,786.495193912888,709.685068220846,551.343706178981,836.373546837184,823.028025320546,1133.90958181594,786.495193912888,1191.10848569435,492.232343256122,928.923317431687,346.900731331463,709.685068220846,551.343706178981,NaN,NaN,0,4,0,0,0,NaN,horizontal,horizontal,vertical,horizontal,vertical,none
1d,5,100208,1,13,13,19,F,NA,constant,homogeneous,3,present,0.752259969711304,1,vertical,vertical,1,0.800003595352173,green,2,1,1183.02802532055,476.373546837184,955.549636358493,854.96116226488,955.549636358493,854.96116226488,1183.02802532055,476.373546837184,741.422338320961,468.665290897936,NaN,NaN,NaN,NaN,NaN,NaN,0,4,0,NaN,NaN,NaN,horizontal,vertical,vertical,none,none,none
1d,5,100208,1,14,14,19,F,NA,constant,homogeneous,6,absent,0.729843854904175,1,horizontal,horizontal,1,0.905887851715088,green,4,NaN,1083.62645316282,376.971974679454,NaN,NaN,836.373546837184,823.028025320546,1091.33470910206,818.577661679039,1214.96116226488,595.549636358493,1083.62645316282,376.971974679454,828.665290897936,381.422338320961,705.03883773512,604.450363641507,0,0,0,4,0,0,horizontal,horizontal,horizontal,horizontal,vertical,vertical
1d,5,100208,1,15,15,19,F,NA,constant,homogeneous,6,present,0.692930936813354,1,vertical,vertical,1,0.623529834747314,green,5,6,806.537169096228,396.34794493794,706.900731331463,631.076682568313,860.363562235235,834.728737630372,1113.46283090377,803.65205506206,1213.09926866854,568.923317431687,1059.63643776476,365.271262369628,806.537169096228,396.34794493794,706.900731331463,631.076682568313,0,0,0,0,4,0,horizontal,vertical,horizontal,horizontal,vertical,horizontal
1d,5,100208,1,16,16,19,F,NA,constant,homogeneous,4,absent,0.556528806686401,1,horizontal,horizontal,1,0.870593099594116,green,3,NaN,991.076682568313,346.900731331463,NaN,NaN,928.923317431687,853.099268668537,1213.09926866854,631.076682568313,991.076682568313,346.900731331463,706.900731331463,568.923317431687,NaN,NaN,NaN,NaN,0,0,4,0,NaN,NaN,vertical,vertical,horizontal,vertical,none,none
1d,5,100208,1,17,17,19,F,NA,constant,homogeneous,5,absent,0.678328990936279,1,vertical,vertical,1,0.705884256362915,green,1,NaN,999.890788585259,851.86052685176,NaN,NaN,999.890788585259,851.86052685176,1211.86052685176,639.890788585259,1075.76757743358,372.793336331966,779.68777079743,419.68777079743,732.793336331966,715.767577433584,NaN,NaN,4,0,0,0,0,NaN,vertical,vertical,horizontal,horizontal,vertical,none
1d,5,100208,1,18,18,19,F,NA,constant,homogeneous,5,present,0.619433164596558,1,vertical,vertical,1,0.788238677978516,green,4,5,806.537169096228,396.34794493794,718.892763222174,683.019879386575,964.450363641507,854.96116226488,1203.85771277057,674.554784704298,1106.26199126952,391.116228706307,806.537169096228,396.34794493794,718.892763222174,683.019879386575,NaN,NaN,0,0,0,4,0,NaN,vertical,horizontal,horizontal,vertical,vertical,none
1d,5,100208,1,19,19,19,F,NA,constant,homogeneous,5,absent,0.691122055053711,1,horizontal,horizontal,1,0.94118260383606,green,3,NaN,1034.5547847043,356.142287229426,NaN,NaN,1043.01987938657,841.107236777826,1214.96116226488,595.549636358493,1034.5547847043,356.142287229426,751.116228706307,453.738008730483,756.34794493794,753.462830903772,NaN,NaN,0,0,4,0,0,NaN,vertical,horizontal,horizontal,horizontal,horizontal,none
1d,5,100208,1,20,20,19,F,NA,constant,homogeneous,5,present,0.753711938858032,1,vertical,vertical,1,0.623529834747314,green,4,2,864.475318678942,363.568117085469,1176.25226451989,735.129412379467,898.309916622085,847.425410200379,1176.25226451989,735.129412379467,1155.34133299534,436.089159529932,864.475318678942,363.568117085469,705.621167183745,617.787900804752,NaN,NaN,0,0,0,4,0,NaN,horizontal,vertical,horizontal,vertical,vertical,none
1d,5,100208,1,21,21,19,F,NA,constant,homogeneous,5,present,0.741264820098877,1,horizontal,horizontal,1,0.800003595352173,green,4,1,817.405809614959,388.595418998464,951.100628340862,854.844660889869,951.100628340862,854.844660889869,1199.62161830041,687.215136548046,1116.99367620804,399.057257830286,817.405809614959,388.595418998464,714.878267535729,670.287525733335,NaN,NaN,0,0,0,4,0,NaN,vertical,vertical,horizontal,horizontal,vertical,none
1d,5,100208,1,22,22,19,F,NA,constant,homogeneous,6,present,0.721244096755981,1,horizontal,horizontal,1,0.835298347473145,green,2,1,1087.5,820.836477965032,832.5,820.836477965032,832.5,820.836477965032,1087.5,820.836477965032,1215,600,1087.5,379.163522034968,832.5,379.163522034968,705,600,0,4,0,0,0,0,horizontal,horizontal,vertical,vertical,vertical,vertical
1d,5,100208,1,23,23,19,F,NA,constant,homogeneous,4,present,0.541126012802124,1,vertical,vertical,1,0.905887851715088,green,4,2,711.535633479765,542.637481142314,1208.46436652023,657.362518857686,902.637481142314,848.464366520235,1208.46436652023,657.362518857686,1017.36251885769,351.535633479765,711.535633479765,542.637481142314,NaN,NaN,NaN,NaN,0,0,0,4,NaN,NaN,horizontal,horizontal,horizontal,vertical,none,none
1d,5,100208,1,24,24,19,F,NA,constant,homogeneous,6,present,0.570228099822998,0,vertical,horizontal,1,0.858828182220459,green,1,6,860.363562235235,834.728737630372,706.900731331463,631.076682568313,860.363562235235,834.728737630372,1113.46283090377,803.65205506206,1213.09926866854,568.923317431687,1059.63643776476,365.271262369628,806.537169096228,396.34794493794,706.900731331463,631.076682568313,4,0,0,0,0,0,vertical,vertical,vertical,vertical,horizontal,horizontal
1d,5,100208,1,25,25,19,F,NA,constant,homogeneous,5,absent,0.864859819412231,1,vertical,vertical,1,0.952947521209717,green,3,NaN,999.890788585259,348.13947314824,NaN,NaN,1075.76757743358,827.206663668034,1211.86052685176,560.109211414741,999.890788585259,348.13947314824,732.793336331966,484.232422566416,779.68777079743,780.31222920257,NaN,NaN,0,0,4,0,0,NaN,horizontal,horizontal,vertical,horizontal,vertical,none
1d,5,100208,1,26,26,19,F,NA,constant,homogeneous,6,absent,0.759186983108521,1,vertical,vertical,1,0.882358016967773,green,4,NaN,1075.76757743358,372.793336331966,NaN,NaN,844.232422566416,827.206663668034,1098.88295392883,813.860994826083,1214.65053136242,586.654331158049,1075.76757743358,372.793336331966,821.117046071168,386.139005173917,705.349468637584,613.345668841951,0,0,0,4,0,0,horizontal,horizontal,vertical,vertical,horizontal,horizontal
1d,5,100208,1,27,27,19,F,NA,constant,homogeneous,6,absent,0.675444841384888,1,horizontal,horizontal,1,0.823533430099487,green,6,NaN,732.793336331966,715.767577433584,NaN,NaN,946.654331158049,854.650531362416,1173.86099482608,738.882953928832,1187.20666366803,484.232422566416,973.345668841951,345.349468637584,746.139005173917,461.117046071168,732.793336331966,715.767577433584,0,0,0,0,0,4,horizontal,vertical,horizontal,vertical,horizontal,horizontal
1d,5,100208,1,28,28,19,F,NA,constant,homogeneous,3,present,0.703257083892822,1,vertical,vertical,1,0.729414091110229,green,1,3,748.595418998464,742.594190385041,942.212099195248,345.621167183745,748.595418998464,742.594190385041,1189.19248180629,711.784642431215,942.212099195248,345.621167183745,NaN,NaN,NaN,NaN,NaN,NaN,4,0,0,NaN,NaN,NaN,vertical,horizontal,horizontal,none,none,none
1d,5,100208,1,29,29,19,F,NA,constant,homogeneous,3,absent,0.736665964126587,1,vertical,vertical,1,0.705884256362915,green,1,NaN,995.489140744817,852.518357529101,NaN,NaN,995.489140744817,852.518357529101,1160.94274216971,443.006323791957,723.568117085469,504.475318678942,NaN,NaN,NaN,NaN,NaN,NaN,4,0,0,NaN,NaN,NaN,vertical,vertical,vertical,none,none,none
1d,5,100208,1,30,30,19,F,NA,constant,homogeneous,6,absent,0.910645008087158,1,horizontal,horizontal,1,0.764708843231201,green,2,NaN,1166.29933356561,749.885239334581,NaN,NaN,933.345241866748,853.60308331891,1166.29933356561,749.885239334581,1192.95409169886,496.282156015671,986.654758133252,346.39691668109,753.700666434388,450.114760665419,727.045908301137,703.717843984329,0,4,0,0,0,0,vertical,horizontal,horizontal,vertical,horizontal,vertical
1d,5,100208,1,31,31,19,F,NA,constant,homogeneous,5,present,0.846678018569946,1,vertical,vertical,1,0.682354421615601,green,3,1,1013.01748115853,350.57236181288,1063.71784398433,832.954091698863,1063.71784398433,832.954091698863,1213.60308331891,573.345241866748,1013.01748115853,350.57236181288,739.163522034968,472.5,770.498069503264,770.628304621509,NaN,NaN,0,0,4,0,0,NaN,horizontal,vertical,vertical,vertical,vertical,none
1d,5,100208,1,32,32,19,F,NA,constant,homogeneous,5,absent,0.583539962768555,1,horizontal,horizontal,1,0.988242273330688,green,1,NaN,915.719714694933,851.125977018113,NaN,NaN,915.719714694933,851.125977018113,1185.15163617903,719.715248510402,1143.43164908636,422.862115532956,848.215357568785,370.807518193712,707.481642470899,635.489140744817,NaN,NaN,4,0,0,0,0,NaN,horizontal,horizontal,horizontal,vertical,vertical,none
1d,5,100208,1,33,33,19,F,NA,constant,homogeneous,4,absent,0.661724805831909,1,vertical,vertical,1,0.917652769088745,green,3,NaN,942.212099195248,345.621167183745,NaN,NaN,977.787900804752,854.378832816255,1214.37883281626,582.212099195248,942.212099195248,345.621167183745,705.621167183745,617.787900804752,NaN,NaN,NaN,NaN,0,0,4,0,NaN,NaN,vertical,horizontal,vertical,horizontal,none,none
1d,5,100208,1,34,34,19,F,NA,constant,homogeneous,6,present,0.935588836669922,1,horizontal,horizontal,1,0.623529834747314,green,5,6,789.371695378491,410.498069503264,710.57236181288,653.017481158529,881.200666434388,842.519411655264,1130.62830462151,789.501930496736,1209.42763818712,546.982518841471,1038.79933356561,357.480588344736,789.371695378491,410.498069503264,710.57236181288,653.017481158529,0,0,0,0,4,0,horizontal,horizontal,horizontal,horizontal,horizontal,vertical
1d,5,100208,1,35,35,19,F,NA,constant,homogeneous,3,present,0.701288938522339,1,vertical,vertical,1,0.94118260383606,green,1,3,1133.90958181594,786.495193912888,711.535633479765,657.362518857686,1133.90958181594,786.495193912888,1034.5547847043,356.142287229426,711.535633479765,657.362518857686,NaN,NaN,NaN,NaN,NaN,NaN,4,0,0,NaN,NaN,NaN,vertical,horizontal,horizontal,none,none,none
1d,5,100208,1,36,36,19,F,NA,constant,homogeneous,5,present,0.709482908248901,1,horizontal,horizontal,1,0.741179008483887,green,5,1,717.480588344736,678.799333565612,960,855,960,855,1202.51941165526,678.799333565612,1109.88523933458,393.700666434388,810.114760665419,393.700666434388,717.480588344736,678.799333565612,NaN,NaN,0,0,0,0,4,NaN,horizontal,vertical,horizontal,vertical,horizontal,none
1d,5,100208,1,37,37,19,F,NA,constant,homogeneous,4,present,0.534767150878906,1,vertical,vertical,1,0.705884256362915,green,4,1,734.848363820974,719.715248510402,1079.7152485104,825.151636179026,1079.7152485104,825.151636179026,1185.15163617903,480.284751489598,840.284751489598,374.848363820974,734.848363820974,719.715248510402,NaN,NaN,NaN,NaN,0,0,0,4,NaN,NaN,vertical,vertical,horizontal,vertical,none,none
1d,5,100208,1,38,38,19,F,NA,constant,homogeneous,6,present,1.10653114318848,1,horizontal,horizontal,1,1.04706686019897,green,5,4,799.523300282292,401.827779828472,1051.38382713405,361.936991243214,868.616172865948,838.063008756786,1120.47669971771,798.172220171528,1211.86052685176,560.109211414741,1051.38382713405,361.936991243214,799.523300282292,401.827779828472,708.13947314824,639.890788585259,0,0,0,0,4,0,horizontal,vertical,horizontal,vertical,horizontal,horizontal
1d,5,100208,1,39,39,19,F,NA,constant,homogeneous,3,present,0.732914209365845,1,horizontal,horizontal,1,1.00000719070435,green,1,3,911.343706178981,850.314931779154,767.549057043193,432.704947607421,911.343706178981,850.314931779154,1201.10723677783,516.980120613425,767.549057043193,432.704947607421,NaN,NaN,NaN,NaN,NaN,NaN,4,0,0,NaN,NaN,NaN,horizontal,horizontal,vertical,none,none,none
1d,5,100208,1,40,40,19,F,NA,constant,homogeneous,3,absent,0.595177888870239,0,horizontal,vertical,1,1.011772108078,green,1,NaN,872.784863451954,839.621618300407,NaN,NaN,872.784863451954,839.621618300407,1211.12597701811,555.719714694933,796.089159529932,404.658667004661,NaN,NaN,NaN,NaN,NaN,NaN,4,0,0,NaN,NaN,NaN,horizontal,vertical,horizontal,none,none,none
1d,5,100208,1,41,41,19,F,NA,constant,homogeneous,3,absent,0.697211980819702,1,horizontal,horizontal,1,0.647059669494629,green,3,NaN,906.982518841471,350.57236181288,NaN,NaN,770.498069503264,770.628304621509,1202.51941165526,678.799333565612,906.982518841471,350.57236181288,NaN,NaN,NaN,NaN,NaN,NaN,0,0,4,NaN,NaN,NaN,vertical,vertical,horizontal,none,none,none
1d,5,100208,1,42,42,19,F,NA,constant,homogeneous,4,present,0.680724859237671,1,horizontal,horizontal,1,1.07059669494629,green,2,4,1155.34133299534,436.089159529932,764.658667004661,763.910840470068,1123.91084047007,795.341332995339,1155.34133299534,436.089159529932,796.089159529932,404.658667004661,764.658667004661,763.910840470068,NaN,NaN,NaN,NaN,0,4,0,0,NaN,NaN,horizontal,horizontal,horizontal,horizontal,none,none
1d,5,100208,1,43,43,19,F,NA,constant,homogeneous,5,absent,0.57069993019104,1,horizontal,horizontal,1,1.00000719070435,green,4,NaN,942.212099195248,345.621167183745,NaN,NaN,824.870587620533,816.252264519889,1123.91084047007,795.341332995339,1196.43188291453,504.475318678942,942.212099195248,345.621167183745,712.574589799621,538.309916622085,NaN,NaN,0,0,0,4,0,NaN,vertical,vertical,vertical,horizontal,vertical,none
1d,5,100208,1,44,44,19,F,NA,constant,homogeneous,3,absent,0.603637933731079,1,vertical,vertical,1,0.670589504241943,green,1,NaN,1127.29505239258,792.450942956807,NaN,NaN,1127.29505239258,792.450942956807,1043.01987938657,358.892763222174,709.685068220846,648.656293821019,NaN,NaN,NaN,NaN,NaN,NaN,4,0,0,NaN,NaN,NaN,vertical,horizontal,horizontal,none,none,none
1d,5,100208,1,45,45,19,F,NA,constant,homogeneous,4,absent,1.01178193092346,0,vertical,horizontal,1,0.788238677978516,green,3,NaN,911.343706178981,349.685068220846,NaN,NaN,1008.65629382102,850.314931779154,1210.31493177915,551.343706178981,911.343706178981,349.685068220846,709.685068220846,648.656293821019,NaN,NaN,NaN,NaN,0,0,4,0,NaN,NaN,vertical,horizontal,vertical,vertical,none,none
1d,5,100208,1,46,46,19,F,NA,constant,homogeneous,6,present,NaN,0,vertical,none,0,0.635294752120972,green,3,5,1166.29933356561,450.114760665419,727.045908301137,496.282156015671,986.654758133252,853.60308331891,1192.95409169886,703.717843984329,1166.29933356561,450.114760665419,933.345241866748,346.39691668109,727.045908301137,496.282156015671,753.700666434388,749.885239334581,0,0,4,0,0,0,horizontal,horizontal,vertical,vertical,horizontal,horizontal
1d,5,100208,1,47,47,19,F,NA,constant,homogeneous,3,absent,0.713872909545898,1,vertical,vertical,1,0.835298347473145,green,2,NaN,1083.62645316282,376.971974679454,NaN,NaN,1091.33470910206,818.577661679039,1083.62645316282,376.971974679454,705.03883773512,604.450363641507,NaN,NaN,NaN,NaN,NaN,NaN,0,4,0,NaN,NaN,NaN,vertical,vertical,vertical,none,none,none
1d,5,100208,1,48,48,19,F,NA,constant,homogeneous,5,present,0.555441856384277,1,horizontal,horizontal,1,0.741179008483887,green,3,2,999.890788585259,348.13947314824,1211.86052685176,560.109211414741,1075.76757743358,827.206663668034,1211.86052685176,560.109211414741,999.890788585259,348.13947314824,732.793336331966,484.232422566416,779.68777079743,780.31222920257,NaN,NaN,0,0,4,0,0,NaN,horizontal,vertical,horizontal,horizontal,horizontal,none
1d,5,100208,1,49,49,19,F,NA,constant,homogeneous,4,absent,1.60616612434387,1,vertical,vertical,1,0.976477355957031,green,4,NaN,759.057257830286,443.006323791957,NaN,NaN,803.006323791957,800.942742169714,1160.94274216971,756.993676208043,1116.99367620804,399.057257830286,759.057257830286,443.006323791957,NaN,NaN,NaN,NaN,0,0,0,4,NaN,NaN,vertical,vertical,horizontal,vertical,none,none
1d,5,100208,1,50,50,19,F,NA,constant,homogeneous,3,absent,0.462240934371948,1,horizontal,horizontal,1,0.988242273330688,green,3,NaN,730.807518193712,488.215357568785,NaN,NaN,977.787900804752,854.378832816255,1171.40458100154,457.40580961496,730.807518193712,488.215357568785,NaN,NaN,NaN,NaN,NaN,NaN,0,0,4,NaN,NaN,NaN,horizontal,horizontal,horizontal,none,none,none
1d,5,100208,1,51,51,19,F,NA,constant,homogeneous,3,present,0.697698831558228,1,horizontal,horizontal,1,0.94118260383606,green,2,3,1187.20666366803,715.767577433584,946.654331158049,345.349468637584,746.139005173917,738.882953928832,1187.20666366803,715.767577433584,946.654331158049,345.349468637584,NaN,NaN,NaN,NaN,NaN,NaN,0,4,0,NaN,NaN,NaN,horizontal,horizontal,horizontal,none,none,none
1d,5,100208,1,52,52,19,F,NA,constant,homogeneous,3,present,0.627388000488281,1,horizontal,horizontal,1,0.741179008483887,green,1,2,968.899371659138,854.844660889869,1176.25226451989,464.870587620533,968.899371659138,854.844660889869,1176.25226451989,464.870587620533,734.848363820974,480.284751489598,NaN,NaN,NaN,NaN,NaN,NaN,4,0,0,NaN,NaN,NaN,horizontal,vertical,vertical,none,none,none
1d,5,100208,1,53,53,19,F,NA,constant,homogeneous,4,absent,0.586043119430542,1,horizontal,horizontal,1,0.894122934341431,green,4,NaN,746.139005173917,461.117046071168,NaN,NaN,821.117046071168,813.860994826083,1173.86099482608,738.882953928832,1098.88295392883,386.139005173917,746.139005173917,461.117046071168,NaN,NaN,NaN,NaN,0,0,0,4,NaN,NaN,vertical,vertical,vertical,horizontal,none,none
1d,5,100208,1,54,54,19,F,NA,constant,homogeneous,4,absent,0.629356861114502,1,horizontal,horizontal,1,0.764708843231201,green,4,NaN,741.422338320961,731.334709102064,NaN,NaN,1091.33470910206,818.577661679039,1178.57766167904,468.665290897936,828.665290897936,381.422338320961,741.422338320961,731.334709102064,NaN,NaN,NaN,NaN,0,0,0,4,NaN,NaN,horizontal,vertical,vertical,horizontal,none,none
1d,5,100208,1,55,55,19,F,NA,constant,homogeneous,4,present,0.695284843444824,1,horizontal,horizontal,1,0.658824586868286,green,3,2,844.232422566416,372.793336331966,1187.20666366803,484.232422566416,1075.76757743358,827.206663668034,1187.20666366803,484.232422566416,844.232422566416,372.793336331966,732.793336331966,715.767577433584,NaN,NaN,NaN,NaN,0,0,4,0,NaN,NaN,horizontal,horizontal,horizontal,vertical,none,none
1d,5,100208,1,56,56,19,F,NA,constant,homogeneous,5,absent,0.542367935180664,1,horizontal,horizontal,1,1.04706686019897,green,4,NaN,736.971974679454,476.373546837184,NaN,NaN,1067.76765674388,831.108485694346,1213.09926866854,568.923317431687,1008.65629382102,349.685068220846,736.971974679454,476.373546837184,773.504806087112,773.909581815937,NaN,NaN,0,0,0,4,0,NaN,horizontal,horizontal,vertical,horizontal,horizontal,none
1d,5,100208,1,57,57,19,F,NA,constant,homogeneous,3,absent,0.51691198348999,1,horizontal,horizontal,1,0.976477355957031,green,3,NaN,817.405809614959,388.595418998464,NaN,NaN,848.215357568785,829.192481806288,1214.37883281626,582.212099195248,817.405809614959,388.595418998464,NaN,NaN,NaN,NaN,NaN,NaN,0,0,4,NaN,NaN,NaN,vertical,horizontal,horizontal,none,none,none
1d,5,100208,1,58,58,19,F,NA,constant,homogeneous,6,absent,0.625668048858643,1,vertical,vertical,1,0.705884256362915,green,1,NaN,973.345668841951,854.650531362416,NaN,NaN,973.345668841951,854.650531362416,1187.20666366803,715.767577433584,1173.86099482608,461.117046071168,946.654331158049,345.349468637584,732.793336331966,484.232422566416,746.139005173917,738.882953928832,4,0,0,0,0,0,vertical,vertical,vertical,horizontal,horizontal,vertical
1d,5,100208,1,59,59,19,F,NA,constant,homogeneous,4,absent,0.683072090148926,1,vertical,vertical,1,0.635294752120972,green,1,NaN,964.450363641507,854.96116226488,NaN,NaN,964.450363641507,854.96116226488,1214.96116226488,595.549636358493,955.549636358493,345.03883773512,705.03883773512,604.450363641507,NaN,NaN,NaN,NaN,4,0,0,0,NaN,NaN,vertical,horizontal,horizontal,vertical,none,none
1d,5,100208,1,60,60,19,F,NA,constant,homogeneous,6,absent,1.00026512145996,1,vertical,vertical,1,0.764708843231201,green,5,NaN,803.006323791957,399.057257830286,NaN,NaN,864.475318678942,836.431882914531,1116.99367620804,800.942742169714,1212.5183575291,564.510859255183,1055.52468132106,363.568117085469,803.006323791957,399.057257830286,707.481642470899,635.489140744817,0,0,0,0,4,0,horizontal,horizontal,horizontal,horizontal,vertical,vertical
1d,5,100208,1,61,61,19,F,NA,constant,homogeneous,6,present,0.681885004043579,1,horizontal,horizontal,1,0.858828182220459,green,3,1,1187.20666366803,484.232422566416,946.654331158049,854.650531362416,946.654331158049,854.650531362416,1173.86099482608,738.882953928832,1187.20666366803,484.232422566416,973.345668841951,345.349468637584,746.139005173917,461.117046071168,732.793336331966,715.767577433584,0,0,4,0,0,0,vertical,vertical,horizontal,horizontal,vertical,vertical
1d,5,100208,1,62,62,19,F,NA,constant,homogeneous,4,present,0.816231966018677,1,vertical,vertical,1,0.658824586868286,green,4,3,713.688914296288,534.001143498857,1025.99885650114,353.688914296288,894.001143498857,846.311085703712,1206.31108570371,665.998856501143,1025.99885650114,353.688914296288,713.688914296288,534.001143498857,NaN,NaN,NaN,NaN,0,0,0,4,NaN,NaN,horizontal,vertical,vertical,vertical,none,none
1d,5,100208,1,63,63,19,F,NA,constant,homogeneous,6,absent,0.537000894546509,1,horizontal,horizontal,1,1.02353702545166,green,5,NaN,741.422338320961,468.665290897936,NaN,NaN,955.549636358493,854.96116226488,1178.57766167904,731.334709102064,1183.02802532055,476.373546837184,964.450363641507,345.03883773512,741.422338320961,468.665290897936,736.971974679454,723.626453162816,0,0,0,0,4,0,vertical,vertical,vertical,vertical,horizontal,vertical
1d,5,100208,1,64,64,19,F,NA,constant,homogeneous,3,present,0.644032955169678,1,horizontal,horizontal,1,0.988242273330688,green,3,2,803.006323791957,399.057257830286,1212.5183575291,564.510859255183,864.475318678942,836.431882914531,1212.5183575291,564.510859255183,803.006323791957,399.057257830286,NaN,NaN,NaN,NaN,NaN,NaN,0,0,4,NaN,NaN,NaN,vertical,vertical,horizontal,none,none,none
1d,5,100208,2,1,65,19,F,NA,constant,homogeneous,5,present,0.855992078781128,1,horizontal,horizontal,1,0.670589504241943,green,3,1,1146.49519391289,426.090418184063,911.343706178981,850.314931779154,911.343706178981,850.314931779154,1183.02802532055,723.626453162816,1146.49519391289,426.090418184063,852.232343256122,368.891514305654,706.900731331463,631.076682568313,NaN,NaN,0,0,4,0,0,NaN,horizontal,horizontal,horizontal,vertical,horizontal,none
1d,5,100208,2,2,66,19,F,NA,constant,homogeneous,3,absent,0.542090177536011,1,horizontal,horizontal,1,1.07059669494629,green,1,NaN,906.982518841471,849.42763818712,NaN,NaN,906.982518841471,849.42763818712,1202.51941165526,521.200666434388,770.498069503264,429.371695378491,NaN,NaN,NaN,NaN,NaN,NaN,4,0,0,NaN,NaN,NaN,horizontal,horizontal,horizontal,none,none,none
1d,5,100208,2,3,67,19,F,NA,constant,homogeneous,3,absent,0.809072017669678,1,vertical,vertical,1,0.635294752120972,green,3,NaN,792.704947607421,407.549057043193,NaN,NaN,876.980120613425,841.107236777826,1210.31493177915,551.343706178981,792.704947607421,407.549057043193,NaN,NaN,NaN,NaN,NaN,NaN,0,0,4,NaN,NaN,NaN,horizontal,vertical,vertical,none,none,none
1d,5,100208,2,4,68,19,F,NA,constant,homogeneous,5,present,0.950793027877808,1,vertical,vertical,1,0.682354421615601,green,5,4,708.13947314824,560.109211414741,920.109211414741,348.13947314824,844.232422566416,827.206663668034,1140.31222920257,780.31222920257,1187.20666366803,484.232422566416,920.109211414741,348.13947314824,708.13947314824,560.109211414741,NaN,NaN,0,0,0,0,4,NaN,vertical,horizontal,horizontal,horizontal,vertical,none
1d,5,100208,2,5,69,19,F,NA,constant,homogeneous,5,present,0.67454981803894,1,vertical,vertical,1,0.847063264846802,green,5,2,782.862115532956,783.431649086356,1211.12597701811,555.719714694933,1079.7152485104,825.151636179026,1211.12597701811,555.719714694933,995.489140744817,347.4816424709,730.807518193712,488.215357568785,782.862115532956,783.431649086356,NaN,NaN,0,0,0,0,4,NaN,horizontal,horizontal,vertical,vertical,vertical,none
1d,5,100208,2,6,70,19,F,NA,constant,homogeneous,4,absent,0.550212860107422,1,horizontal,horizontal,1,1.05883177757263,green,1,NaN,786.090418184063,786.495193912888,NaN,NaN,786.090418184063,786.495193912888,1146.49519391289,773.909581815937,1133.90958181594,413.504806087112,773.504806087112,426.090418184063,NaN,NaN,NaN,NaN,4,0,0,0,NaN,NaN,horizontal,horizontal,horizontal,horizontal,none,none
1d,5,100208,2,7,71,19,F,NA,constant,homogeneous,5,absent,0.59448504447937,1,vertical,vertical,1,0.847063264846802,green,1,NaN,860.363562235235,834.728737630372,NaN,NaN,860.363562235235,834.728737630372,1152.45094295681,767.295052392579,1178.57766167904,468.665290897936,902.637481142314,351.535633479765,705.970351986605,577.775285599347,NaN,NaN,4,0,0,0,0,NaN,vertical,horizontal,vertical,vertical,horizontal,none
1d,5,100208,2,8,72,19,F,NA,constant,homogeneous,4,present,0.794529914855957,1,vertical,vertical,1,0.847063264846802,green,1,2,906.982518841471,849.42763818712,1209.42763818712,653.017481158529,906.982518841471,849.42763818712,1209.42763818712,653.017481158529,1013.01748115853,350.57236181288,710.57236181288,546.982518841471,NaN,NaN,NaN,NaN,4,0,0,0,NaN,NaN,vertical,vertical,horizontal,horizontal,none,none
1d,5,100208,2,9,73,19,F,NA,constant,homogeneous,6,present,0.776576042175293,1,vertical,vertical,1,1.05883177757263,green,5,4,803.006323791957,399.057257830286,1055.52468132106,363.568117085469,864.475318678942,836.431882914531,1116.99367620804,800.942742169714,1212.5183575291,564.510859255183,1055.52468132106,363.568117085469,803.006323791957,399.057257830286,707.481642470899,635.489140744817,0,0,0,0,4,0,horizontal,horizontal,horizontal,horizontal,vertical,vertical
1d,5,100208,2,10,74,19,F,NA,constant,homogeneous,4,absent,0.780531883239746,0,vertical,horizontal,1,1.04706686019897,green,1,NaN,1021.69008337792,847.425410200379,NaN,NaN,1021.69008337792,847.425410200379,1207.42541020038,538.309916622085,898.309916622085,352.574589799621,712.574589799621,661.690083377915,NaN,NaN,NaN,NaN,4,0,0,0,NaN,NaN,vertical,vertical,vertical,vertical,none,none
1d,5,100208,2,11,75,19,F,NA,constant,homogeneous,4,present,0.726231098175049,0,vertical,horizontal,1,0.658824586868286,green,2,3,1214.65053136242,613.345668841951,973.345668841951,345.349468637584,946.654331158049,854.650531362416,1214.65053136242,613.345668841951,973.345668841951,345.349468637584,705.349468637584,586.654331158049,NaN,NaN,NaN,NaN,0,4,0,0,NaN,NaN,horizontal,vertical,vertical,horizontal,none,none
1d,5,100208,2,12,76,19,F,NA,constant,homogeneous,6,present,0.882611989974976,1,horizontal,horizontal,1,0.717649173736572,green,1,6,955.549636358493,854.96116226488,736.971974679454,723.626453162816,955.549636358493,854.96116226488,1178.57766167904,731.334709102064,1183.02802532055,476.373546837184,964.450363641507,345.03883773512,741.422338320961,468.665290897936,736.971974679454,723.626453162816,4,0,0,0,0,0,horizontal,horizontal,horizontal,horizontal,vertical,horizontal
1d,5,100208,2,13,77,19,F,NA,constant,homogeneous,3,absent,0.708548069000244,1,vertical,vertical,1,0.752943925857544,green,3,NaN,708.874022981887,555.719714694933,NaN,NaN,1047.21513654805,839.621618300407,1123.91084047007,404.658667004661,708.874022981887,555.719714694933,NaN,NaN,NaN,NaN,NaN,NaN,0,0,4,NaN,NaN,NaN,vertical,vertical,vertical,none,none,none
1d,5,100208,2,14,78,19,F,NA,constant,homogeneous,5,absent,0.609315156936646,1,vertical,vertical,1,0.917652769088745,green,1,NaN,1017.36251885769,848.464366520235,NaN,NaN,1017.36251885769,848.464366520235,1214.0296480134,622.224714400653,1059.63643776476,365.271262369628,767.549057043193,432.704947607421,741.422338320961,731.334709102064,NaN,NaN,4,0,0,0,0,NaN,vertical,horizontal,horizontal,vertical,horizontal,none
1d,5,100208,2,15,79,19,F,NA,constant,homogeneous,5,absent,1.06118202209473,1,horizontal,horizontal,1,0.764708843231201,green,5,NaN,711.535633479765,542.637481142314,NaN,NaN,828.665290897936,818.577661679039,1127.29505239258,792.450942956807,1194.72873763037,500.363562235235,937.775285599347,345.970351986605,711.535633479765,542.637481142314,NaN,NaN,0,0,0,0,4,NaN,vertical,horizontal,vertical,vertical,horizontal,none
1d,5,100208,2,16,80,19,F,NA,constant,homogeneous,6,present,1.38306903839111,1,vertical,vertical,1,0.847063264846802,green,5,1,707.481642470899,564.510859255183,1055.52468132106,836.431882914531,1055.52468132106,836.431882914531,1212.5183575291,635.489140744817,1116.99367620804,399.057257830286,864.475318678942,363.568117085469,707.481642470899,564.510859255183,803.006323791957,800.942742169714,0,0,0,0,4,0,horizontal,vertical,horizontal,vertical,vertical,vertical
1d,5,100208,2,17,81,19,F,NA,constant,homogeneous,4,present,0.835371017456055,1,horizontal,horizontal,1,1.00000719070435,green,3,4,977.787900804752,345.621167183745,705.621167183745,582.212099195248,942.212099195248,854.378832816255,1214.37883281626,617.787900804752,977.787900804752,345.621167183745,705.621167183745,582.212099195248,NaN,NaN,NaN,NaN,0,0,4,0,NaN,NaN,horizontal,vertical,horizontal,vertical,none,none
1d,5,100208,2,18,82,19,F,NA,constant,homogeneous,6,present,1.00945711135864,1,horizontal,horizontal,1,0.658824586868286,green,2,4,1155.34133299534,763.910840470068,1004.28028530507,348.874022981887,915.719714694933,851.125977018113,1155.34133299534,763.910840470068,1199.62161830041,512.784863451954,1004.28028530507,348.874022981887,764.658667004661,436.089159529932,720.378381699593,687.215136548046,0,4,0,0,0,0,vertical,horizontal,vertical,vertical,vertical,vertical
1d,5,100208,2,19,83,19,F,NA,constant,homogeneous,6,present,0.947310924530029,1,horizontal,horizontal,1,1.07059669494629,green,3,4,1214.0296480134,577.775285599347,1067.76765674388,368.891514305654,852.232343256122,831.108485694346,1106.26199126952,808.883771293693,1214.0296480134,577.775285599347,1067.76765674388,368.891514305654,813.738008730483,391.116228706307,705.970351986605,622.224714400653,0,0,4,0,0,0,vertical,horizontal,horizontal,horizontal,vertical,horizontal
1d,5,100208,2,20,84,19,F,NA,constant,homogeneous,4,absent,0.585331916809082,1,vertical,vertical,1,0.752943925857544,green,3,NaN,1116.99367620804,399.057257830286,NaN,NaN,803.006323791957,800.942742169714,1160.94274216971,756.993676208043,1116.99367620804,399.057257830286,759.057257830286,443.006323791957,NaN,NaN,NaN,NaN,0,0,4,0,NaN,NaN,vertical,horizontal,vertical,horizontal,none,none
1d,5,100208,2,21,85,19,F,NA,constant,homogeneous,6,absent,0.745378971099854,1,vertical,vertical,1,0.823533430099487,green,3,NaN,1095.12941237947,383.747735480111,NaN,NaN,1079.7152485104,825.151636179026,1214.84466088987,608.899371659138,1095.12941237947,383.747735480111,840.284751489598,374.848363820974,705.155339110131,591.100628340862,824.870587620533,816.252264519889,0,0,4,0,0,0,horizontal,vertical,vertical,horizontal,vertical,vertical
1d,5,100208,2,22,86,19,F,NA,constant,homogeneous,6,absent,0.772804975509644,1,horizontal,horizontal,1,0.835298347473145,green,1,NaN,964.450363641507,854.96116226488,NaN,NaN,964.450363641507,854.96116226488,1183.02802532055,723.626453162816,1178.57766167904,468.665290897936,955.549636358493,345.03883773512,736.971974679454,476.373546837184,741.422338320961,731.334709102064,4,0,0,0,0,0,horizontal,horizontal,horizontal,horizontal,horizontal,vertical
1d,5,100208,2,23,87,19,F,NA,constant,homogeneous,3,absent,0.722940921783447,1,vertical,vertical,1,0.717649173736572,green,2,NaN,1206.31108570371,534.001143498857,NaN,NaN,894.001143498857,846.311085703712,1206.31108570371,534.001143498857,779.68777079743,419.68777079743,NaN,NaN,NaN,NaN,NaN,NaN,0,4,0,NaN,NaN,NaN,vertical,vertical,vertical,none,none,none
1d,5,100208,2,24,88,19,F,NA,constant,homogeneous,5,present,0.574347019195557,1,horizontal,horizontal,1,0.988242273330688,green,3,2,1055.52468132106,363.568117085469,1214.37883281626,617.787900804752,1021.69008337792,847.425410200379,1214.37883281626,617.787900804752,1055.52468132106,363.568117085469,764.658667004661,436.089159529932,743.747735480111,735.129412379467,NaN,NaN,0,0,4,0,0,NaN,vertical,vertical,horizontal,vertical,vertical,none
1d,5,100208,2,25,89,19,F,NA,constant,homogeneous,4,present,0.970869064331055,1,vertical,vertical,1,0.647059669494629,green,3,1,817.405809614959,388.595418998464,1102.59419038504,811.404581001536,1102.59419038504,811.404581001536,1171.40458100154,457.40580961496,817.405809614959,388.595418998464,748.595418998464,742.594190385041,NaN,NaN,NaN,NaN,0,0,4,0,NaN,NaN,horizontal,horizontal,vertical,vertical,none,none
1d,5,100208,2,26,90,19,F,NA,constant,homogeneous,4,absent,0.604966163635254,1,horizontal,horizontal,1,0.717649173736572,green,1,NaN,1034.5547847043,843.857712770574,NaN,NaN,1034.5547847043,843.857712770574,1203.85771277057,525.445215295702,885.445215295702,356.142287229426,716.142287229426,674.554784704298,NaN,NaN,NaN,NaN,4,0,0,0,NaN,NaN,horizontal,horizontal,vertical,horizontal,none,none
1d,5,100208,2,27,91,19,F,NA,constant,homogeneous,6,present,0.555129051208496,1,vertical,vertical,1,0.894122934341431,green,4,3,1051.38382713405,361.936991243214,1211.86052685176,560.109211414741,868.616172865948,838.063008756786,1120.47669971771,798.172220171528,1211.86052685176,560.109211414741,1051.38382713405,361.936991243214,799.523300282292,401.827779828472,708.13947314824,639.890788585259,0,0,0,4,0,0,horizontal,vertical,horizontal,vertical,horizontal,horizontal
1d,5,100208,2,28,92,19,F,NA,constant,homogeneous,6,present,0.819192886352539,1,vertical,vertical,1,0.882358016967773,green,5,1,761.827779828472,439.523300282291,920.109211414741,851.86052685176,920.109211414741,851.86052685176,1158.17222017153,760.476699717708,1198.06300875679,508.616172865948,999.890788585259,348.13947314824,761.827779828472,439.523300282291,721.936991243214,691.383827134052,0,0,0,0,4,0,horizontal,vertical,vertical,horizontal,vertical,vertical
1d,5,100208,2,29,93,19,F,NA,constant,homogeneous,3,present,0.562768936157227,1,horizontal,horizontal,1,0.894122934341431,green,2,1,1173.86099482608,461.117046071168,973.345668841951,854.650531362416,973.345668841951,854.650531362416,1173.86099482608,461.117046071168,732.793336331966,484.232422566416,NaN,NaN,NaN,NaN,NaN,NaN,0,4,0,NaN,NaN,NaN,vertical,horizontal,horizontal,none,none,none
1d,5,100208,2,30,94,19,F,NA,constant,homogeneous,5,absent,0.648716926574707,1,vertical,vertical,1,0.729414091110229,green,2,NaN,1214.37883281626,582.212099195248,NaN,NaN,1055.52468132106,836.431882914531,1214.37883281626,582.212099195248,1021.69008337792,352.574589799621,743.747735480111,464.870587620533,764.658667004661,763.910840470068,NaN,NaN,0,4,0,0,0,NaN,horizontal,vertical,horizontal,vertical,horizontal,none
1d,5,100208,2,31,95,19,F,NA,constant,homogeneous,6,present,0.507188081741333,1,horizontal,horizontal,1,0.858828182220459,green,6,1,773.504806087112,773.909581815937,1017.36251885769,848.464366520235,1017.36251885769,848.464366520235,1203.85771277057,674.554784704298,1146.49519391289,426.090418184063,902.637481142314,351.535633479765,716.142287229426,525.445215295702,773.504806087112,773.909581815937,0,0,0,0,0,4,horizontal,vertical,horizontal,vertical,horizontal,horizontal
1d,5,100208,2,32,96,19,F,NA,constant,homogeneous,4,present,0.705502986907959,1,vertical,vertical,1,0.611764917373657,green,4,2,739.163522034968,727.5,1180.83647796503,472.5,1087.5,820.836477965032,1180.83647796503,472.5,832.5,379.163522034968,739.163522034968,727.5,NaN,NaN,NaN,NaN,0,0,0,4,NaN,NaN,vertical,horizontal,horizontal,vertical,none,none
1d,5,100208,2,33,97,19,F,NA,constant,homogeneous,4,present,0.9635009765625,1,horizontal,horizontal,1,1.02353702545166,green,1,2,1106.26199126952,808.883771293693,1168.88377129369,453.738008730483,1106.26199126952,808.883771293693,1168.88377129369,453.738008730483,813.738008730483,391.116228706307,751.116228706307,746.261991269517,NaN,NaN,NaN,NaN,4,0,0,0,NaN,NaN,horizontal,vertical,horizontal,vertical,none,none
1d,5,100208,2,34,98,19,F,NA,constant,homogeneous,5,present,0.651566028594971,1,vertical,vertical,1,0.776473760604858,green,1,2,824.870587620533,816.252264519889,1123.91084047007,795.341332995339,824.870587620533,816.252264519889,1123.91084047007,795.341332995339,1196.43188291453,504.475318678942,942.212099195248,345.621167183745,712.574589799621,538.309916622085,NaN,NaN,4,0,0,0,0,NaN,vertical,horizontal,vertical,horizontal,horizontal,none
1d,5,100208,2,35,99,19,F,NA,constant,homogeneous,4,absent,0.708425998687744,1,vertical,vertical,1,0.788238677978516,green,2,NaN,1205.12173246427,529.712474266665,NaN,NaN,1030.28752573333,845.121732464271,1205.12173246427,529.712474266665,889.712474266665,354.878267535729,714.878267535729,670.287525733335,NaN,NaN,NaN,NaN,0,4,0,0,NaN,NaN,vertical,vertical,horizontal,vertical,none,none
1d,5,100208,2,36,100,19,F,NA,constant,homogeneous,3,present,0.573284864425659,1,vertical,vertical,1,0.952947521209717,green,2,1,1210.31493177915,648.656293821019,792.704947607421,792.450942956807,792.704947607421,792.450942956807,1210.31493177915,648.656293821019,876.980120613425,358.892763222174,NaN,NaN,NaN,NaN,NaN,NaN,0,4,0,NaN,NaN,NaN,vertical,vertical,horizontal,none,none,none
1d,5,100208,2,37,101,19,F,NA,constant,homogeneous,4,present,0.478289127349854,1,horizontal,horizontal,1,0.835298347473145,green,1,4,1127.29505239258,792.450942956807,767.549057043193,767.295052392579,1127.29505239258,792.450942956807,1152.45094295681,432.704947607421,792.704947607421,407.549057043193,767.549057043193,767.295052392579,NaN,NaN,NaN,NaN,4,0,0,0,NaN,NaN,horizontal,vertical,vertical,horizontal,none,none
1d,5,100208,2,38,102,19,F,NA,constant,homogeneous,6,absent,1.62137889862061,1,horizontal,horizontal,1,1.08236161231995,green,3,NaN,1163.65205506206,446.537169096228,NaN,NaN,991.076682568313,853.099268668537,1194.72873763037,699.636437764765,1163.65205506206,446.537169096228,928.923317431687,346.900731331463,725.271262369628,500.363562235235,756.34794493794,753.462830903772,0,0,4,0,0,0,horizontal,vertical,horizontal,horizontal,horizontal,vertical
1d,5,100208,2,39,103,19,F,NA,constant,homogeneous,3,present,0.805544137954712,1,horizontal,horizontal,1,0.717649173736572,green,2,1,1183.02802532055,476.373546837184,955.549636358493,854.96116226488,955.549636358493,854.96116226488,1183.02802532055,476.373546837184,741.422338320961,468.665290897936,NaN,NaN,NaN,NaN,NaN,NaN,0,4,0,NaN,NaN,NaN,horizontal,horizontal,horizontal,none,none,none
1d,5,100208,2,40,104,19,F,NA,constant,homogeneous,5,present,0.707221984863281,1,horizontal,horizontal,1,0.694119338989258,green,3,2,1004.28028530507,348.874022981887,1212.5183575291,564.510859255183,1071.78464243121,829.192481806288,1212.5183575291,564.510859255183,1004.28028530507,348.874022981887,734.848363820974,480.284751489598,776.568350913644,777.137884467044,NaN,NaN,0,0,4,0,0,NaN,vertical,horizontal,horizontal,vertical,vertical,none
1d,5,100208,2,41,105,19,F,NA,constant,homogeneous,3,absent,0.635206937789917,0,vertical,horizontal,1,0.682354421615601,green,2,NaN,1213.09926866854,631.076682568313,NaN,NaN,806.537169096228,803.65205506206,1213.09926866854,631.076682568313,860.363562235235,365.271262369628,NaN,NaN,NaN,NaN,NaN,NaN,0,4,0,NaN,NaN,NaN,horizontal,vertical,horizontal,none,none,none
1d,5,100208,2,42,106,19,F,NA,constant,homogeneous,4,absent,0.7794189453125,1,horizontal,horizontal,1,0.952947521209717,green,4,NaN,705.349468637584,586.654331158049,NaN,NaN,946.654331158049,854.650531362416,1214.65053136242,613.345668841951,973.345668841951,345.349468637584,705.349468637584,586.654331158049,NaN,NaN,NaN,NaN,0,0,0,4,NaN,NaN,vertical,vertical,horizontal,horizontal,none,none
1d,5,100208,2,43,107,19,F,NA,constant,homogeneous,3,present,0.450877904891968,1,vertical,vertical,1,0.788238677978516,green,2,3,1203.85771277057,674.554784704298,902.637481142314,351.535633479765,773.504806087112,773.909581815937,1203.85771277057,674.554784704298,902.637481142314,351.535633479765,NaN,NaN,NaN,NaN,NaN,NaN,0,4,0,NaN,NaN,NaN,horizontal,vertical,horizontal,none,none,none
1d,5,100208,2,44,108,19,F,NA,constant,homogeneous,3,present,0.641826868057251,1,horizontal,horizontal,1,0.694119338989258,green,2,1,1116.99367620804,399.057257830286,1055.52468132106,836.431882914531,1055.52468132106,836.431882914531,1116.99367620804,399.057257830286,707.481642470899,564.510859255183,NaN,NaN,NaN,NaN,NaN,NaN,0,4,0,NaN,NaN,NaN,vertical,horizontal,vertical,none,none,none
1d,5,100208,2,45,109,19,F,NA,constant,homogeneous,6,absent,0.650682210922241,1,vertical,vertical,1,0.800003595352173,green,2,NaN,1214.65053136242,613.345668841951,NaN,NaN,1075.76757743358,827.206663668034,1214.65053136242,613.345668841951,1098.88295392883,386.139005173917,844.232422566416,372.793336331966,705.349468637584,586.654331158049,821.117046071168,813.860994826083,0,4,0,0,0,0,vertical,vertical,horizontal,vertical,horizontal,horizontal
1d,5,100208,2,46,110,19,F,NA,constant,homogeneous,5,absent,0.615473985671997,1,horizontal,horizontal,1,1.02353702545166,green,1,NaN,868.616172865948,838.063008756786,NaN,NaN,868.616172865948,838.063008756786,1158.17222017153,760.476699717708,1173.86099482608,461.117046071168,894.001143498857,353.688914296288,705.349468637584,586.654331158049,NaN,NaN,4,0,0,0,0,NaN,horizontal,horizontal,horizontal,horizontal,horizontal,none
1d,5,100208,2,47,111,19,F,NA,constant,homogeneous,6,absent,0.717552185058594,1,horizontal,horizontal,1,0.81176851272583,green,2,NaN,1196.43188291453,695.524681321058,NaN,NaN,995.489140744817,852.518357529101,1196.43188291453,695.524681321058,1160.94274216971,443.006323791957,924.510859255183,347.4816424709,723.568117085469,504.475318678942,759.057257830286,756.993676208043,0,4,0,0,0,0,vertical,horizontal,horizontal,vertical,vertical,vertical
1d,5,100208,2,48,112,19,F,NA,constant,homogeneous,6,absent,0.805379152297974,1,horizontal,horizontal,1,0.717649173736572,green,4,NaN,1067.76765674388,368.891514305654,NaN,NaN,852.232343256122,831.108485694346,1106.26199126952,808.883771293693,1214.0296480134,577.775285599347,1067.76765674388,368.891514305654,813.738008730483,391.116228706307,705.970351986605,622.224714400653,0,0,0,4,0,0,vertical,vertical,horizontal,horizontal,horizontal,vertical
1d,5,100208,2,49,113,19,F,NA,constant,homogeneous,3,absent,0.61165714263916,1,horizontal,horizontal,1,1.0941265296936,green,1,NaN,1113.46283090377,803.65205506206,NaN,NaN,1113.46283090377,803.65205506206,1059.63643776476,365.271262369628,706.900731331463,631.076682568313,NaN,NaN,NaN,NaN,NaN,NaN,4,0,0,NaN,NaN,NaN,horizontal,horizontal,horizontal,none,none,none
1d,5,100208,2,50,114,19,F,NA,constant,homogeneous,3,present,0.614773035049438,1,vertical,vertical,1,0.894122934341431,green,3,1,741.422338320961,468.665290897936,955.549636358493,854.96116226488,955.549636358493,854.96116226488,1183.02802532055,476.373546837184,741.422338320961,468.665290897936,NaN,NaN,NaN,NaN,NaN,NaN,0,0,4,NaN,NaN,NaN,vertical,horizontal,vertical,none,none,none
1d,5,100208,2,51,115,19,F,NA,constant,homogeneous,6,absent,0.906529903411865,1,vertical,vertical,1,0.764708843231201,green,3,NaN,1171.40458100154,457.40580961496,NaN,NaN,977.787900804752,854.378832816255,1189.19248180629,711.784642431215,1171.40458100154,457.40580961496,942.212099195248,345.621167183745,730.807518193712,488.215357568785,748.595418998464,742.594190385041,0,0,4,0,0,0,horizontal,horizontal,vertical,horizontal,vertical,horizontal
1d,5,100208,2,52,116,19,F,NA,constant,homogeneous,4,present,0.494116067886353,1,horizontal,horizontal,1,0.647059669494629,green,4,1,776.568350913644,422.862115532956,782.862115532956,783.431649086356,782.862115532956,783.431649086356,1143.43164908636,777.137884467044,1137.13788446704,416.568350913644,776.568350913644,422.862115532956,NaN,NaN,NaN,NaN,0,0,0,4,NaN,NaN,vertical,vertical,vertical,horizontal,none,none
1d,5,100208,2,53,117,19,F,NA,constant,homogeneous,5,absent,0.939590930938721,1,horizontal,horizontal,1,0.823533430099487,green,3,NaN,1102.59419038504,388.595418998464,NaN,NaN,968.899371659138,854.844660889869,1205.12173246427,670.287525733335,1102.59419038504,388.595418998464,803.006323791957,399.057257830286,720.378381699593,687.215136548046,NaN,NaN,0,0,4,0,0,NaN,vertical,vertical,horizontal,horizontal,vertical,none
1d,5,100208,2,54,118,19,F,NA,constant,homogeneous,3,absent,0.770981788635254,1,horizontal,horizontal,1,0.976477355957031,green,1,NaN,1146.49519391289,773.909581815937,NaN,NaN,1146.49519391289,773.909581815937,1017.36251885769,351.535633479765,716.142287229426,674.554784704298,NaN,NaN,NaN,NaN,NaN,NaN,4,0,0,NaN,NaN,NaN,horizontal,vertical,horizontal,none,none,none
1d,5,100208,2,55,119,19,F,NA,constant,homogeneous,4,absent,0.515658855438232,1,vertical,vertical,1,1.0941265296936,green,3,NaN,1021.69008337792,352.574589799621,NaN,NaN,898.309916622085,847.425410200379,1207.42541020038,661.690083377915,1021.69008337792,352.574589799621,712.574589799621,538.309916622085,NaN,NaN,NaN,NaN,0,0,4,0,NaN,NaN,horizontal,horizontal,vertical,vertical,none,none
1d,5,100208,2,56,120,19,F,NA,constant,homogeneous,3,present,0.579448938369751,0,vertical,horizontal,1,0.623529834747314,green,3,1,710.57236181288,653.017481158529,1130.62830462151,789.501930496736,1130.62830462151,789.501930496736,1038.79933356561,357.480588344736,710.57236181288,653.017481158529,NaN,NaN,NaN,NaN,NaN,NaN,0,0,4,NaN,NaN,NaN,vertical,vertical,vertical,none,none,none
1d,5,100208,2,57,121,19,F,NA,constant,homogeneous,5,present,0.728041887283325,1,vertical,vertical,1,0.623529834747314,green,1,3,960,855,1109.88523933458,393.700666434388,960,855,1202.51941165526,678.799333565612,1109.88523933458,393.700666434388,810.114760665419,393.700666434388,717.480588344736,678.799333565612,NaN,NaN,4,0,0,0,0,NaN,vertical,vertical,vertical,vertical,horizontal,none
1d,5,100208,2,58,122,19,F,NA,constant,homogeneous,4,absent,0.993298053741455,1,horizontal,horizontal,1,0.929417686462402,green,3,NaN,982.224714400653,345.970351986605,NaN,NaN,937.775285599347,854.029648013395,1214.0296480134,622.224714400653,982.224714400653,345.970351986605,705.970351986605,577.775285599347,NaN,NaN,NaN,NaN,0,0,4,0,NaN,NaN,horizontal,vertical,horizontal,horizontal,none,none
1d,5,100208,2,59,123,19,F,NA,constant,homogeneous,5,present,0.548198938369751,1,horizontal,horizontal,1,0.741179008483887,green,3,4,1116.99367620804,399.057257830286,817.405809614959,388.595418998464,951.100628340862,854.844660889869,1199.62161830041,687.215136548046,1116.99367620804,399.057257830286,817.405809614959,388.595418998464,714.878267535729,670.287525733335,NaN,NaN,0,0,4,0,0,NaN,vertical,horizontal,horizontal,vertical,horizontal,none
1d,5,100208,2,60,124,19,F,NA,constant,homogeneous,3,present,0.640748023986816,1,horizontal,horizontal,1,1.08236161231995,green,2,3,1166.29933356561,450.114760665419,727.045908301137,496.282156015671,986.654758133252,853.60308331891,1166.29933356561,450.114760665419,727.045908301137,496.282156015671,NaN,NaN,NaN,NaN,NaN,NaN,0,4,0,NaN,NaN,NaN,vertical,horizontal,vertical,none,none,none
1d,5,100208,2,61,125,19,F,NA,constant,homogeneous,3,absent,0.639482975006104,1,horizontal,horizontal,1,0.682354421615601,green,2,NaN,982.224714400653,345.970351986605,NaN,NaN,1168.88377129369,746.261991269517,982.224714400653,345.970351986605,728.891514305654,707.767656743878,NaN,NaN,NaN,NaN,NaN,NaN,0,4,0,NaN,NaN,NaN,vertical,horizontal,horizontal,none,none,none
1d,5,100208,2,62,126,19,F,NA,constant,homogeneous,5,absent,0.90612006187439,1,vertical,vertical,1,0.670589504241943,green,4,NaN,718.892763222174,516.980120613425,NaN,NaN,1106.26199126952,808.883771293693,1203.85771277057,525.445215295702,964.450363641507,345.03883773512,718.892763222174,516.980120613425,806.537169096228,803.65205506206,NaN,NaN,0,0,0,4,0,NaN,vertical,horizontal,vertical,vertical,vertical,none
1d,5,100208,2,63,127,19,F,NA,constant,homogeneous,6,absent,1.10164284706116,1,vertical,vertical,1,0.647059669494629,green,3,NaN,1202.51941165526,521.200666434388,NaN,NaN,906.982518841471,849.42763818712,1149.50193049674,770.628304621509,1202.51941165526,521.200666434388,1013.01748115853,350.57236181288,770.498069503264,429.371695378491,717.480588344736,678.799333565612,0,0,4,0,0,0,horizontal,vertical,vertical,vertical,vertical,horizontal
1d,5,100208,2,64,128,19,F,NA,constant,homogeneous,5,absent,0.599817991256714,1,horizontal,horizontal,1,1.011772108078,green,2,NaN,1210.31493177915,551.343706178981,NaN,NaN,1083.62645316282,823.028025320546,1210.31493177915,551.343706178981,991.076682568313,346.900731331463,728.891514305654,492.232343256122,786.090418184063,786.495193912888,NaN,NaN,0,4,0,0,0,NaN,vertical,horizontal,vertical,horizontal,horizontal,none
1d,5,100208,3,1,129,19,F,NA,constant,homogeneous,3,present,0.709115028381348,1,horizontal,horizontal,1,0.964712438583374,green,2,3,1038.79933356561,357.480588344736,710.57236181288,653.017481158529,1130.62830462151,789.501930496736,1038.79933356561,357.480588344736,710.57236181288,653.017481158529,NaN,NaN,NaN,NaN,NaN,NaN,0,4,0,NaN,NaN,NaN,horizontal,horizontal,horizontal,none,none,none
1d,5,100208,3,2,130,19,F,NA,constant,homogeneous,6,absent,0.678447008132935,1,vertical,vertical,1,0.800003595352173,green,1,NaN,1059.63643776476,834.728737630372,NaN,NaN,1059.63643776476,834.728737630372,1213.09926866854,631.076682568313,1113.46283090377,396.34794493794,860.363562235235,365.271262369628,706.900731331463,568.923317431687,806.537169096228,803.65205506206,4,0,0,0,0,0,vertical,vertical,vertical,horizontal,vertical,horizontal
1d,5,100208,3,3,131,19,F,NA,constant,homogeneous,4,present,0.600942134857178,1,vertical,vertical,1,0.776473760604858,green,2,1,1178.57766167904,731.334709102064,828.665290897936,818.577661679039,828.665290897936,818.577661679039,1178.57766167904,731.334709102064,1091.33470910206,381.422338320961,741.422338320961,468.665290897936,NaN,NaN,NaN,NaN,0,4,0,0,NaN,NaN,vertical,vertical,horizontal,horizontal,none,none
1d,5,100208,3,4,132,19,F,NA,constant,homogeneous,5,present,0.847204923629761,1,horizontal,horizontal,1,0.694119338989258,green,2,3,1214.0296480134,577.775285599347,1017.36251885769,351.535633479765,1059.63643776476,834.728737630372,1214.0296480134,577.775285599347,1017.36251885769,351.535633479765,741.422338320961,468.665290897936,767.549057043193,767.295052392579,NaN,NaN,0,4,0,0,0,NaN,vertical,horizontal,horizontal,vertical,horizontal,none
1d,5,100208,3,5,133,19,F,NA,constant,homogeneous,3,present,0.600967168807983,1,horizontal,horizontal,1,0.635294752120972,green,2,1,1206.31108570371,665.998856501143,779.68777079743,780.31222920257,779.68777079743,780.31222920257,1206.31108570371,665.998856501143,894.001143498857,353.688914296288,NaN,NaN,NaN,NaN,NaN,NaN,0,4,0,NaN,NaN,NaN,vertical,horizontal,horizontal,none,none,none
1d,5,100208,3,6,134,19,F,NA,constant,homogeneous,3,present,0.571835994720459,1,vertical,vertical,1,0.729414091110229,green,3,1,711.535633479765,542.637481142314,1034.5547847043,843.857712770574,1034.5547847043,843.857712770574,1133.90958181594,413.504806087112,711.535633479765,542.637481142314,NaN,NaN,NaN,NaN,NaN,NaN,0,0,4,NaN,NaN,NaN,horizontal,vertical,vertical,none,none,none
1d,5,100208,3,7,135,19,F,NA,constant,homogeneous,5,absent,0.634888172149658,1,vertical,vertical,1,1.02353702545166,green,3,NaN,1140.31222920257,419.68777079743,NaN,NaN,920.109211414741,851.86052685176,1187.20666366803,715.767577433584,1140.31222920257,419.68777079743,844.232422566416,372.793336331966,708.13947314824,639.890788585259,NaN,NaN,0,0,4,0,0,NaN,vertical,vertical,vertical,vertical,horizontal,none
1d,5,100208,3,8,136,19,F,NA,constant,homogeneous,6,present,0.612797021865845,1,horizontal,horizontal,1,0.800003595352173,green,6,2,728.891514305654,707.767656743878,1168.88377129369,746.261991269517,937.775285599347,854.029648013395,1168.88377129369,746.261991269517,1191.10848569435,492.232343256122,982.224714400653,345.970351986605,751.116228706307,453.738008730483,728.891514305654,707.767656743878,0,0,0,0,0,4,vertical,horizontal,horizontal,horizontal,horizontal,horizontal
1d,5,100208,3,9,137,19,F,NA,constant,homogeneous,4,absent,0.730546951293945,0,horizontal,vertical,1,0.858828182220459,green,3,NaN,1038.79933356561,357.480588344736,NaN,NaN,881.200666434388,842.519411655264,1202.51941165526,678.799333565612,1038.79933356561,357.480588344736,717.480588344736,521.200666434388,NaN,NaN,NaN,NaN,0,0,4,0,NaN,NaN,horizontal,vertical,horizontal,vertical,none,none
1d,5,100208,3,10,138,19,F,NA,constant,homogeneous,4,absent,0.596870183944702,1,horizontal,horizontal,1,0.800003595352173,green,2,NaN,1206.31108570371,534.001143498857,NaN,NaN,1025.99885650114,846.311085703712,1206.31108570371,534.001143498857,894.001143498857,353.688914296288,713.688914296288,665.998856501143,NaN,NaN,NaN,NaN,0,4,0,0,NaN,NaN,horizontal,horizontal,vertical,horizontal,none,none
1d,5,100208,3,11,139,19,F,NA,constant,homogeneous,5,absent,1.02690410614014,0,horizontal,vertical,1,1.07059669494629,green,4,NaN,885.445215295702,356.142287229426,NaN,NaN,876.980120613425,841.107236777826,1163.65205506206,753.462830903772,1168.88377129369,453.738008730483,885.445215295702,356.142287229426,705.03883773512,595.549636358493,NaN,NaN,0,0,0,4,0,NaN,horizontal,horizontal,vertical,horizontal,vertical,none
1d,5,100208,3,12,140,19,F,NA,constant,homogeneous,4,present,0.644718170166016,1,vertical,vertical,1,1.05883177757263,green,4,1,761.827779828472,439.523300282291,799.523300282292,798.172220171528,799.523300282292,798.172220171528,1158.17222017153,760.476699717708,1120.47669971771,401.827779828472,761.827779828472,439.523300282291,NaN,NaN,NaN,NaN,0,0,0,4,NaN,NaN,vertical,vertical,vertical,vertical,none,none
1d,5,100208,3,13,141,19,F,NA,constant,homogeneous,5,present,1.4130961894989,1,vertical,vertical,1,0.764708843231201,green,4,1,852.232343256122,368.891514305654,911.343706178981,850.314931779154,911.343706178981,850.314931779154,1183.02802532055,723.626453162816,1146.49519391289,426.090418184063,852.232343256122,368.891514305654,706.900731331463,631.076682568313,NaN,NaN,0,0,0,4,0,NaN,horizontal,vertical,vertical,vertical,vertical,none
1d,5,100208,3,14,142,19,F,NA,constant,homogeneous,4,present,0.550713062286377,1,horizontal,horizontal,1,0.847063264846802,green,2,3,1207.42541020038,661.690083377915,1021.69008337792,352.574589799621,898.309916622085,847.425410200379,1207.42541020038,661.690083377915,1021.69008337792,352.574589799621,712.574589799621,538.309916622085,NaN,NaN,NaN,NaN,0,4,0,0,NaN,NaN,vertical,horizontal,horizontal,horizontal,none,none
1d,5,100208,3,15,143,19,F,NA,constant,homogeneous,5,absent,0.54020094871521,1,horizontal,horizontal,1,0.917652769088745,green,5,NaN,708.874022981887,555.719714694933,NaN,NaN,840.284751489598,825.151636179026,1137.13788446704,783.431649086356,1189.19248180629,488.215357568785,924.510859255183,347.4816424709,708.874022981887,555.719714694933,NaN,NaN,0,0,0,0,4,NaN,horizontal,horizontal,vertical,horizontal,horizontal,none
1d,5,100208,3,16,144,19,F,NA,constant,homogeneous,6,present,0.547970056533813,1,horizontal,horizontal,1,0.623529834747314,green,6,4,712.574589799621,661.690083377915,1030.28752573333,354.878267535729,889.712474266665,845.121732464271,1137.13788446704,783.431649086356,1207.42541020038,538.309916622085,1030.28752573333,354.878267535729,782.862115532956,416.568350913644,712.574589799621,661.690083377915,0,0,0,0,0,4,vertical,vertical,vertical,horizontal,horizontal,horizontal
1d,5,100208,3,17,145,19,F,NA,constant,homogeneous,6,present,0.922769069671631,1,vertical,vertical,1,0.623529834747314,green,4,2,836.373546837184,376.971974679454,1214.96116226488,604.450363641507,1083.62645316282,823.028025320546,1214.96116226488,604.450363641507,1091.33470910206,381.422338320961,836.373546837184,376.971974679454,705.03883773512,595.549636358493,828.665290897936,818.577661679039,0,0,0,4,0,0,vertical,vertical,horizontal,vertical,horizontal,horizontal
1d,5,100208,3,18,146,19,F,NA,constant,homogeneous,3,present,0.635914087295532,1,horizontal,horizontal,1,0.894122934341431,green,3,1,705.970351986605,577.775285599347,1067.76765674388,831.108485694346,1067.76765674388,831.108485694346,1106.26199126952,391.116228706307,705.970351986605,577.775285599347,NaN,NaN,NaN,NaN,NaN,NaN,0,0,4,NaN,NaN,NaN,vertical,horizontal,horizontal,none,none,none
1d,5,100208,3,19,147,19,F,NA,constant,homogeneous,6,absent,0.897385835647583,0,horizontal,vertical,1,0.611764917373657,green,3,NaN,1176.25226451989,464.870587620533,NaN,NaN,968.899371659138,854.844660889869,1185.15163617903,719.715248510402,1176.25226451989,464.870587620533,951.100628340862,345.155339110131,734.848363820974,480.284751489598,743.747735480111,735.129412379467,0,0,4,0,0,0,vertical,horizontal,horizontal,vertical,vertical,horizontal
1d,5,100208,3,20,148,19,F,NA,constant,homogeneous,6,present,0.880311012268066,1,horizontal,horizontal,1,0.647059669494629,green,5,2,789.371695378491,410.498069503264,1130.62830462151,789.501930496736,881.200666434388,842.519411655264,1130.62830462151,789.501930496736,1209.42763818712,546.982518841471,1038.79933356561,357.480588344736,789.371695378491,410.498069503264,710.57236181288,653.017481158529,0,0,0,0,4,0,horizontal,vertical,vertical,horizontal,horizontal,vertical
1d,5,100208,3,21,149,19,F,NA,constant,homogeneous,3,present,0.556717157363892,1,horizontal,horizontal,1,0.917652769088745,green,2,3,1158.17222017153,439.523300282291,721.936991243214,508.616172865948,999.890788585259,851.86052685176,1158.17222017153,439.523300282291,721.936991243214,508.616172865948,NaN,NaN,NaN,NaN,NaN,NaN,0,4,0,NaN,NaN,NaN,horizontal,horizontal,horizontal,none,none,none
1d,5,100208,3,22,150,19,F,NA,constant,homogeneous,5,present,0.619264125823975,1,vertical,vertical,1,0.764708843231201,green,3,4,1059.63643776476,365.271262369628,767.549057043193,432.704947607421,1017.36251885769,848.464366520235,1214.0296480134,622.224714400653,1059.63643776476,365.271262369628,767.549057043193,432.704947607421,741.422338320961,731.334709102064,NaN,NaN,0,0,4,0,0,NaN,vertical,horizontal,vertical,vertical,horizontal,none
1d,5,100208,3,23,151,19,F,NA,constant,homogeneous,6,absent,0.94019889831543,1,vertical,vertical,1,0.623529834747314,green,6,NaN,714.878267535729,670.287525733335,NaN,NaN,898.309916622085,847.425410200379,1143.43164908636,777.137884467044,1205.12173246427,529.712474266665,1021.69008337792,352.574589799621,776.568350913644,422.862115532956,714.878267535729,670.287525733335,0,0,0,0,0,4,horizontal,vertical,horizontal,horizontal,horizontal,vertical
1d,5,100208,3,24,152,19,F,NA,constant,homogeneous,4,absent,0.7486891746521,1,vertical,vertical,1,0.870593099594116,green,4,NaN,705.03883773512,604.450363641507,NaN,NaN,964.450363641507,854.96116226488,1214.96116226488,595.549636358493,955.549636358493,345.03883773512,705.03883773512,604.450363641507,NaN,NaN,NaN,NaN,0,0,0,4,NaN,NaN,horizontal,horizontal,horizontal,vertical,none,none
1d,5,100208,3,25,153,19,F,NA,constant,homogeneous,6,present,0.738574981689453,1,vertical,vertical,1,1.00000719070435,green,1,5,872.784863451954,839.621618300407,796.089159529932,404.658667004661,872.784863451954,839.621618300407,1123.91084047007,795.341332995339,1211.12597701811,555.719714694933,1047.21513654805,360.378381699593,796.089159529932,404.658667004661,708.874022981887,644.280285305067,4,0,0,0,0,0,vertical,vertical,horizontal,horizontal,vertical,vertical
1d,5,100208,3,26,154,19,F,NA,constant,homogeneous,3,absent,0.621274948120117,1,vertical,vertical,1,0.917652769088745,green,3,NaN,872.784863451954,360.378381699593,NaN,NaN,796.089159529932,795.341332995339,1211.12597701811,644.280285305067,872.784863451954,360.378381699593,NaN,NaN,NaN,NaN,NaN,NaN,0,0,4,NaN,NaN,NaN,horizontal,horizontal,vertical,none,none,none
1d,5,100208,3,27,155,19,F,NA,constant,homogeneous,4,absent,0.77715802192688,1,vertical,vertical,1,0.776473760604858,green,1,NaN,852.232343256122,831.108485694346,NaN,NaN,852.232343256122,831.108485694346,1191.10848569435,707.767656743878,1067.76765674388,368.891514305654,728.891514305654,492.232343256122,NaN,NaN,NaN,NaN,4,0,0,0,NaN,NaN,vertical,vertical,vertical,horizontal,none,none
1d,5,100208,3,28,156,19,F,NA,constant,homogeneous,4,absent,0.668818950653076,1,vertical,vertical,1,0.776473760604858,green,2,NaN,1192.95409169886,496.282156015671,NaN,NaN,1063.71784398433,832.954091698863,1192.95409169886,496.282156015671,856.282156015671,367.045908301137,727.045908301137,703.717843984329,NaN,NaN,NaN,NaN,0,4,0,0,NaN,NaN,horizontal,vertical,vertical,vertical,none,none
1d,5,100208,3,29,157,19,F,NA,constant,homogeneous,4,absent,0.539130926132202,1,vertical,vertical,1,0.870593099594116,green,2,NaN,1213.09926866854,568.923317431687,NaN,NaN,991.076682568313,853.099268668537,1213.09926866854,568.923317431687,928.923317431687,346.900731331463,706.900731331463,631.076682568313,NaN,NaN,NaN,NaN,0,4,0,0,NaN,NaN,horizontal,vertical,horizontal,vertical,none,none
1d,5,100208,3,30,158,19,F,NA,constant,homogeneous,4,absent,0.623550891876221,1,horizontal,horizontal,1,0.835298347473145,green,1,NaN,1079.7152485104,825.151636179026,NaN,NaN,1079.7152485104,825.151636179026,1185.15163617903,480.284751489598,840.284751489598,374.848363820974,734.848363820974,719.715248510402,NaN,NaN,NaN,NaN,4,0,0,0,NaN,NaN,horizontal,horizontal,vertical,horizontal,none,none
1d,5,100208,3,31,159,19,F,NA,constant,homogeneous,3,present,0.546958923339844,0,vertical,horizontal,1,0.929417686462402,green,1,3,1091.33470910206,818.577661679039,705.03883773512,604.450363641507,1091.33470910206,818.577661679039,1083.62645316282,376.971974679454,705.03883773512,604.450363641507,NaN,NaN,NaN,NaN,NaN,NaN,4,0,0,NaN,NaN,NaN,vertical,vertical,horizontal,none,none,none
1d,5,100208,3,32,160,19,F,NA,constant,homogeneous,6,present,0.921168804168701,1,vertical,vertical,1,0.800003595352173,green,1,3,864.475318678942,836.431882914531,1212.5183575291,564.510859255183,864.475318678942,836.431882914531,1116.99367620804,800.942742169714,1212.5183575291,564.510859255183,1055.52468132106,363.568117085469,803.006323791957,399.057257830286,707.481642470899,635.489140744817,4,0,0,0,0,0,vertical,horizontal,horizontal,horizontal,vertical,vertical
1d,5,100208,3,33,161,19,F,NA,constant,homogeneous,6,absent,0.797203063964844,1,horizontal,horizontal,1,1.03530194282532,green,4,NaN,920.109211414741,348.13947314824,NaN,NaN,999.890788585259,851.86052685176,1198.06300875679,691.383827134052,1158.17222017153,439.523300282291,920.109211414741,348.13947314824,721.936991243214,508.616172865948,761.827779828472,760.476699717708,0,0,0,4,0,0,vertical,vertical,vertical,horizontal,horizontal,vertical
1d,5,100208,3,34,162,19,F,NA,constant,homogeneous,6,present,1.1881160736084,1,horizontal,horizontal,1,0.94118260383606,green,2,3,1205.12173246427,670.287525733335,1143.43164908636,422.862115532956,1021.69008337792,847.425410200379,1205.12173246427,670.287525733335,1143.43164908636,422.862115532956,898.309916622085,352.574589799621,714.878267535729,529.712474266665,776.568350913644,777.137884467044,0,4,0,0,0,0,vertical,horizontal,vertical,horizontal,horizontal,vertical
1d,5,100208,3,35,163,19,F,NA,constant,homogeneous,5,absent,0.948976039886475,1,horizontal,horizontal,1,0.623529834747314,green,5,NaN,751.116228706307,746.261991269517,NaN,NaN,1034.5547847043,843.857712770574,1214.96116226488,604.450363641507,1043.01987938657,358.892763222174,756.34794493794,446.537169096228,751.116228706307,746.261991269517,NaN,NaN,0,0,0,0,4,NaN,horizontal,vertical,vertical,horizontal,horizontal,none
1d,5,100208,3,36,164,19,F,NA,constant,homogeneous,6,absent,0.569730043411255,1,vertical,vertical,1,0.870593099594116,green,1,NaN,848.215357568785,829.192481806288,NaN,NaN,848.215357568785,829.192481806288,1102.59419038504,811.404581001536,1214.37883281626,582.212099195248,1071.78464243121,370.807518193712,817.405809614959,388.595418998464,705.621167183745,617.787900804752,4,0,0,0,0,0,vertical,horizontal,horizontal,vertical,vertical,vertical
1d,5,100208,3,37,165,19,F,NA,constant,homogeneous,3,absent,0.681282997131348,1,horizontal,horizontal,1,0.847063264846802,green,3,NaN,713.688914296288,534.001143498857,NaN,NaN,1025.99885650114,846.311085703712,1140.31222920257,419.68777079743,713.688914296288,534.001143498857,NaN,NaN,NaN,NaN,NaN,NaN,0,0,4,NaN,NaN,NaN,horizontal,horizontal,horizontal,none,none,none
1d,5,100208,3,38,166,19,F,NA,constant,homogeneous,3,absent,0.623408079147339,1,horizontal,horizontal,1,0.964712438583374,green,3,NaN,844.232422566416,372.793336331966,NaN,NaN,821.117046071168,813.860994826083,1214.65053136242,613.345668841951,844.232422566416,372.793336331966,NaN,NaN,NaN,NaN,NaN,NaN,0,0,4,NaN,NaN,NaN,vertical,vertical,horizontal,none,none,none
1d,5,100208,3,39,167,19,F,NA,constant,homogeneous,4,present,0.609188079833984,1,vertical,vertical,1,0.658824586868286,green,2,3,1199.62161830041,687.215136548046,1047.21513654805,360.378381699593,872.784863451954,839.621618300407,1199.62161830041,687.215136548046,1047.21513654805,360.378381699593,720.378381699593,512.784863451954,NaN,NaN,NaN,NaN,0,4,0,0,NaN,NaN,horizontal,vertical,horizontal,vertical,none,none
1d,5,100208,3,40,168,19,F,NA,constant,homogeneous,3,absent,0.521478176116943,0,vertical,horizontal,1,0.823533430099487,green,3,NaN,705.03883773512,595.549636358493,NaN,NaN,1083.62645316282,823.028025320546,1091.33470910206,381.422338320961,705.03883773512,595.549636358493,NaN,NaN,NaN,NaN,NaN,NaN,0,0,4,NaN,NaN,NaN,horizontal,vertical,vertical,none,none,none
1d,5,100208,3,41,169,19,F,NA,constant,homogeneous,3,absent,0.904919862747192,1,horizontal,horizontal,1,0.800003595352173,green,2,NaN,1198.06300875679,508.616172865948,NaN,NaN,920.109211414741,851.86052685176,1198.06300875679,508.616172865948,761.827779828472,439.523300282291,NaN,NaN,NaN,NaN,NaN,NaN,0,4,0,NaN,NaN,NaN,vertical,horizontal,horizontal,none,none,none
1d,5,100208,3,42,170,19,F,NA,constant,homogeneous,3,absent,0.562797069549561,1,vertical,vertical,1,0.976477355957031,green,3,NaN,708.13947314824,639.890788585259,NaN,NaN,1120.47669971771,798.172220171528,1051.38382713405,361.936991243214,708.13947314824,639.890788585259,NaN,NaN,NaN,NaN,NaN,NaN,0,0,4,NaN,NaN,NaN,horizontal,horizontal,vertical,none,none,none
1d,5,100208,3,43,171,19,F,NA,constant,homogeneous,4,present,1.00266695022583,1,horizontal,horizontal,1,0.823533430099487,green,3,1,986.654758133252,346.39691668109,933.345241866748,853.60308331891,933.345241866748,853.60308331891,1213.60308331891,626.654758133252,986.654758133252,346.39691668109,706.39691668109,573.345241866748,NaN,NaN,NaN,NaN,0,0,4,0,NaN,NaN,vertical,vertical,horizontal,horizontal,none,none
1d,5,100208,3,44,172,19,F,NA,constant,homogeneous,3,present,0.599919080734253,1,vertical,vertical,1,0.670589504241943,green,2,1,1043.01987938657,358.892763222174,1127.29505239258,792.450942956807,1127.29505239258,792.450942956807,1043.01987938657,358.892763222174,709.685068220846,648.656293821019,NaN,NaN,NaN,NaN,NaN,NaN,0,4,0,NaN,NaN,NaN,horizontal,vertical,vertical,none,none,none
1d,5,100208,3,45,173,19,F,NA,constant,homogeneous,5,present,0.569001913070679,1,vertical,vertical,1,0.81176851272583,green,4,1,852.232343256122,368.891514305654,911.343706178981,850.314931779154,911.343706178981,850.314931779154,1183.02802532055,723.626453162816,1146.49519391289,426.090418184063,852.232343256122,368.891514305654,706.900731331463,631.076682568313,NaN,NaN,0,0,0,4,0,NaN,vertical,horizontal,vertical,vertical,vertical,none
1d,5,100208,3,46,174,19,F,NA,constant,homogeneous,6,absent,0.757731199264526,1,horizontal,horizontal,1,0.658824586868286,green,6,NaN,817.405809614959,811.404581001536,NaN,NaN,1071.78464243121,829.192481806288,1214.37883281626,617.787900804752,1102.59419038504,388.595418998464,848.215357568785,370.807518193712,705.621167183745,582.212099195248,817.405809614959,811.404581001536,0,0,0,0,0,4,horizontal,vertical,vertical,vertical,vertical,horizontal
1d,5,100208,3,47,175,19,F,NA,constant,homogeneous,6,present,0.646701097488403,1,vertical,vertical,1,0.882358016967773,green,2,3,1206.31108570371,665.998856501143,1140.31222920257,419.68777079743,1025.99885650114,846.311085703712,1206.31108570371,665.998856501143,1140.31222920257,419.68777079743,894.001143498857,353.688914296288,713.688914296288,534.001143498857,779.68777079743,780.31222920257,0,4,0,0,0,0,vertical,vertical,vertical,horizontal,horizontal,vertical
1d,5,100208,3,48,176,19,F,NA,constant,homogeneous,5,present,0.7238929271698,1,horizontal,horizontal,1,0.800003595352173,green,4,1,821.117046071168,386.139005173917,946.654331158049,854.650531362416,946.654331158049,854.650531362416,1198.06300875679,691.383827134052,1120.47669971771,401.827779828472,821.117046071168,386.139005173917,713.688914296288,665.998856501143,NaN,NaN,0,0,0,4,0,NaN,vertical,horizontal,horizontal,horizontal,horizontal,none
1d,5,100208,3,49,177,19,F,NA,constant,homogeneous,3,present,0.587841033935547,1,vertical,vertical,1,0.670589504241943,green,2,3,1091.33470910206,381.422338320961,705.03883773512,595.549636358493,1083.62645316282,823.028025320546,1091.33470910206,381.422338320961,705.03883773512,595.549636358493,NaN,NaN,NaN,NaN,NaN,NaN,0,4,0,NaN,NaN,NaN,horizontal,vertical,vertical,none,none,none
1d,5,100208,3,50,178,19,F,NA,constant,homogeneous,5,present,0.625113964080811,1,horizontal,horizontal,1,0.658824586868286,green,5,4,705.970351986605,622.224714400653,860.363562235235,365.271262369628,902.637481142314,848.464366520235,1178.57766167904,731.334709102064,1152.45094295681,432.704947607421,860.363562235235,365.271262369628,705.970351986605,622.224714400653,NaN,NaN,0,0,0,0,4,NaN,horizontal,horizontal,horizontal,vertical,horizontal,none
1d,5,100208,3,51,179,19,F,NA,constant,homogeneous,5,absent,0.791246175765991,1,vertical,vertical,1,1.07059669494629,green,4,NaN,803.006323791957,399.057257830286,NaN,NaN,968.899371659138,854.844660889869,1205.12173246427,670.287525733335,1102.59419038504,388.595418998464,803.006323791957,399.057257830286,720.378381699593,687.215136548046,NaN,NaN,0,0,0,4,0,NaN,horizontal,vertical,horizontal,vertical,horizontal,none
1d,5,100208,3,52,180,19,F,NA,constant,homogeneous,3,absent,0.785179853439331,1,vertical,vertical,1,0.694119338989258,green,3,NaN,732.793336331966,484.232422566416,NaN,NaN,973.345668841951,854.650531362416,1173.86099482608,461.117046071168,732.793336331966,484.232422566416,NaN,NaN,NaN,NaN,NaN,NaN,0,0,4,NaN,NaN,NaN,vertical,vertical,vertical,none,none,none
1d,5,100208,3,53,181,19,F,NA,constant,homogeneous,5,present,0.633493185043335,1,horizontal,horizontal,1,0.823533430099487,green,5,4,711.535633479765,542.637481142314,937.775285599347,345.970351986605,828.665290897936,818.577661679039,1127.29505239258,792.450942956807,1194.72873763037,500.363562235235,937.775285599347,345.970351986605,711.535633479765,542.637481142314,NaN,NaN,0,0,0,0,4,NaN,vertical,horizontal,vertical,vertical,horizontal,none
1d,5,100208,3,54,182,19,F,NA,constant,homogeneous,4,present,0.601696014404297,1,horizontal,horizontal,1,1.00000719070435,green,2,4,1160.94274216971,756.993676208043,759.057257830286,443.006323791957,803.006323791957,800.942742169714,1160.94274216971,756.993676208043,1116.99367620804,399.057257830286,759.057257830286,443.006323791957,NaN,NaN,NaN,NaN,0,4,0,0,NaN,NaN,horizontal,horizontal,vertical,vertical,none,none
1d,5,100208,3,55,183,19,F,NA,constant,homogeneous,6,absent,0.701673984527588,1,vertical,vertical,1,0.776473760604858,green,6,NaN,806.537169096228,803.65205506206,NaN,NaN,1059.63643776476,834.728737630372,1213.09926866854,631.076682568313,1113.46283090377,396.34794493794,860.363562235235,365.271262369628,706.900731331463,568.923317431687,806.537169096228,803.65205506206,0,0,0,0,0,4,horizontal,horizontal,horizontal,vertical,vertical,vertical
1d,5,100208,3,56,184,19,F,NA,constant,homogeneous,5,absent,0.598912000656128,1,vertical,vertical,1,0.905887851715088,green,5,NaN,748.595418998464,742.594190385041,NaN,NaN,1030.28752573333,845.121732464271,1214.84466088987,608.899371659138,1047.21513654805,360.378381699593,759.057257830286,443.006323791957,748.595418998464,742.594190385041,NaN,NaN,0,0,0,0,4,NaN,vertical,horizontal,vertical,horizontal,vertical,none
1d,5,100208,3,57,185,19,F,NA,constant,homogeneous,4,present,0.555959939956665,1,horizontal,horizontal,1,1.04706686019897,green,1,3,836.373546837184,823.028025320546,1083.62645316282,376.971974679454,836.373546837184,823.028025320546,1183.02802532055,723.626453162816,1083.62645316282,376.971974679454,736.971974679454,476.373546837184,NaN,NaN,NaN,NaN,4,0,0,0,NaN,NaN,horizontal,horizontal,horizontal,vertical,none,none
1d,5,100208,3,58,186,19,F,NA,constant,homogeneous,6,absent,0.987692832946777,1,horizontal,horizontal,1,0.858828182220459,green,5,NaN,753.700666434388,450.114760665419,NaN,NaN,933.345241866748,853.60308331891,1166.29933356561,749.885239334581,1192.95409169886,496.282156015671,986.654758133252,346.39691668109,753.700666434388,450.114760665419,727.045908301137,703.717843984329,0,0,0,0,4,0,horizontal,vertical,vertical,vertical,horizontal,horizontal
1d,5,100208,3,59,187,19,F,NA,constant,homogeneous,4,present,0.613569974899292,1,vertical,vertical,1,0.847063264846802,green,4,2,711.535633479765,657.362518857686,1208.46436652023,542.637481142314,1017.36251885769,848.464366520235,1208.46436652023,542.637481142314,902.637481142314,351.535633479765,711.535633479765,657.362518857686,NaN,NaN,NaN,NaN,0,0,0,4,NaN,NaN,horizontal,horizontal,vertical,vertical,none,none
1d,5,100208,3,60,188,19,F,NA,constant,homogeneous,5,absent,1.09664297103882,1,horizontal,horizontal,1,0.94118260383606,green,3,NaN,1198.06300875679,508.616172865948,NaN,NaN,821.117046071168,813.860994826083,1120.47669971771,798.172220171528,1198.06300875679,508.616172865948,946.654331158049,345.349468637584,713.688914296288,534.001143498857,NaN,NaN,0,0,4,0,0,NaN,horizontal,horizontal,horizontal,horizontal,vertical,none
1d,5,100208,3,61,189,19,F,NA,constant,homogeneous,3,absent,1.67621803283691,1,horizontal,horizontal,1,0.858828182220459,green,1,NaN,767.549057043193,767.295052392579,NaN,NaN,767.549057043193,767.295052392579,1201.10723677783,683.019879386575,911.343706178981,349.685068220846,NaN,NaN,NaN,NaN,NaN,NaN,4,0,0,NaN,NaN,NaN,horizontal,vertical,vertical,none,none,none
1d,5,100208,3,62,190,19,F,NA,constant,homogeneous,4,absent,1.30110883712769,0,horizontal,vertical,1,1.011772108078,green,2,NaN,1203.85771277057,525.445215295702,NaN,NaN,1034.5547847043,843.857712770574,1203.85771277057,525.445215295702,885.445215295702,356.142287229426,716.142287229426,674.554784704298,NaN,NaN,NaN,NaN,0,4,0,0,NaN,NaN,vertical,horizontal,horizontal,vertical,none,none
1d,5,100208,3,63,191,19,F,NA,constant,homogeneous,5,present,1.15593695640564,1,vertical,vertical,1,0.81176851272583,green,4,1,911.343706178981,349.685068220846,852.232343256122,831.108485694346,852.232343256122,831.108485694346,1146.49519391289,773.909581815937,1183.02802532055,476.373546837184,911.343706178981,349.685068220846,706.900731331463,568.923317431687,NaN,NaN,0,0,0,4,0,NaN,horizontal,vertical,horizontal,vertical,horizontal,none
1d,5,100208,3,64,192,19,F,NA,constant,homogeneous,5,absent,0.784204006195068,0,vertical,horizontal,1,1.00000719070435,green,5,NaN,705.970351986605,622.224714400653,NaN,NaN,902.637481142314,848.464366520235,1178.57766167904,731.334709102064,1152.45094295681,432.704947607421,860.363562235235,365.271262369628,705.970351986605,622.224714400653,NaN,NaN,0,0,0,0,4,NaN,horizontal,vertical,vertical,vertical,vertical,none
1d,5,100208,4,1,193,19,F,NA,constant,homogeneous,4,absent,0.598732948303223,1,horizontal,horizontal,1,0.741179008483887,green,1,NaN,792.704947607421,792.450942956807,NaN,NaN,792.704947607421,792.450942956807,1152.45094295681,767.295052392579,1127.29505239258,407.549057043193,767.549057043193,432.704947607421,NaN,NaN,NaN,NaN,4,0,0,0,NaN,NaN,horizontal,vertical,horizontal,horizontal,none,none
1d,5,100208,4,2,194,19,F,NA,constant,homogeneous,6,absent,0.568339824676514,1,vertical,vertical,1,1.08236161231995,green,4,NaN,1017.36251885769,351.535633479765,NaN,NaN,902.637481142314,848.464366520235,1146.49519391289,773.909581815937,1203.85771277057,525.445215295702,1017.36251885769,351.535633479765,773.504806087112,426.090418184063,716.142287229426,674.554784704298,0,0,0,4,0,0,vertical,horizontal,horizontal,vertical,vertical,vertical
1d,5,100208,4,3,195,19,F,NA,constant,homogeneous,4,present,0.933778047561646,0,horizontal,vertical,1,0.882358016967773,green,2,3,1176.25226451989,464.870587620533,824.870587620533,383.747735480111,1095.12941237947,816.252264519889,1176.25226451989,464.870587620533,824.870587620533,383.747735480111,743.747735480111,735.129412379467,NaN,NaN,NaN,NaN,0,4,0,0,NaN,NaN,vertical,horizontal,vertical,vertical,none,none
1d,5,100208,4,4,196,19,F,NA,constant,homogeneous,6,present,0.914582014083862,1,vertical,vertical,1,0.964712438583374,green,4,5,999.890788585259,348.13947314824,761.827779828472,439.523300282291,920.109211414741,851.86052685176,1158.17222017153,760.476699717708,1198.06300875679,508.616172865948,999.890788585259,348.13947314824,761.827779828472,439.523300282291,721.936991243214,691.383827134052,0,0,0,4,0,0,horizontal,vertical,horizontal,vertical,horizontal,vertical
1d,5,100208,4,5,197,19,F,NA,constant,homogeneous,6,present,0.642152070999146,1,horizontal,horizontal,1,0.847063264846802,green,4,2,1059.63643776476,365.271262369628,1113.46283090377,803.65205506206,860.363562235235,834.728737630372,1113.46283090377,803.65205506206,1213.09926866854,568.923317431687,1059.63643776476,365.271262369628,806.537169096228,396.34794493794,706.900731331463,631.076682568313,0,0,0,4,0,0,horizontal,horizontal,vertical,horizontal,horizontal,horizontal
1d,5,100208,4,6,198,19,F,NA,constant,homogeneous,5,present,0.732211112976074,1,horizontal,horizontal,1,0.847063264846802,green,5,2,741.422338320961,731.334709102064,1214.0296480134,622.224714400653,1017.36251885769,848.464366520235,1214.0296480134,622.224714400653,1059.63643776476,365.271262369628,767.549057043193,432.704947607421,741.422338320961,731.334709102064,NaN,NaN,0,0,0,0,4,NaN,vertical,vertical,vertical,vertical,horizontal,none
1d,5,100208,4,7,199,19,F,NA,constant,homogeneous,5,absent,1.03860187530518,1,vertical,vertical,1,0.823533430099487,green,5,NaN,708.874022981887,644.280285305067,NaN,NaN,924.510859255183,852.518357529101,1189.19248180629,711.784642431215,1137.13788446704,416.568350913644,840.284751489598,374.848363820974,708.874022981887,644.280285305067,NaN,NaN,0,0,0,0,4,NaN,horizontal,horizontal,vertical,vertical,vertical,none
1d,5,100208,4,8,200,19,F,NA,constant,homogeneous,3,absent,0.680769920349121,1,vertical,vertical,1,0.623529834747314,green,1,NaN,1055.52468132106,836.431882914531,NaN,NaN,1055.52468132106,836.431882914531,1116.99367620804,399.057257830286,707.481642470899,564.510859255183,NaN,NaN,NaN,NaN,NaN,NaN,4,0,0,NaN,NaN,NaN,vertical,vertical,vertical,none,none,none
1d,5,100208,4,9,201,19,F,NA,constant,homogeneous,4,absent,0.79985785484314,1,vertical,vertical,1,1.05883177757263,green,2,NaN,1160.94274216971,443.006323791957,NaN,NaN,1116.99367620804,800.942742169714,1160.94274216971,443.006323791957,803.006323791957,399.057257830286,759.057257830286,756.993676208043,NaN,NaN,NaN,NaN,0,4,0,0,NaN,NaN,vertical,vertical,horizontal,horizontal,none,none
1d,5,100208,4,10,202,19,F,NA,constant,homogeneous,4,present,0.700884819030762,1,horizontal,horizontal,1,0.823533430099487,green,2,3,1183.02802532055,723.626453162816,1083.62645316282,376.971974679454,836.373546837184,823.028025320546,1183.02802532055,723.626453162816,1083.62645316282,376.971974679454,736.971974679454,476.373546837184,NaN,NaN,NaN,NaN,0,4,0,0,NaN,NaN,horizontal,horizontal,horizontal,horizontal,none,none
1d,5,100208,4,11,203,19,F,NA,constant,homogeneous,6,absent,0.851132154464722,1,vertical,vertical,1,0.823533430099487,green,4,NaN,1087.5,379.163522034968,NaN,NaN,832.5,820.836477965032,1087.5,820.836477965032,1215,600,1087.5,379.163522034968,832.5,379.163522034968,705,600,0,0,0,4,0,0,vertical,horizontal,horizontal,vertical,horizontal,vertical
1d,5,100208,4,12,204,19,F,NA,constant,homogeneous,5,absent,0.758626937866211,1,vertical,vertical,1,0.705884256362915,green,4,NaN,928.923317431687,346.900731331463,NaN,NaN,836.373546837184,823.028025320546,1133.90958181594,786.495193912888,1191.10848569435,492.232343256122,928.923317431687,346.900731331463,709.685068220846,551.343706178981,NaN,NaN,0,0,0,4,0,NaN,horizontal,horizontal,vertical,vertical,vertical,none
1d,5,100208,4,13,205,19,F,NA,constant,homogeneous,5,absent,0.587383985519409,1,horizontal,horizontal,1,0.894122934341431,green,3,NaN,1202.51941165526,521.200666434388,NaN,NaN,810.114760665419,806.299333565612,1109.88523933458,806.299333565612,1202.51941165526,521.200666434388,960,345,717.480588344736,521.200666434388,NaN,NaN,0,0,4,0,0,NaN,horizontal,vertical,horizontal,vertical,vertical,none
1d,5,100208,4,14,206,19,F,NA,constant,homogeneous,3,absent,0.726139783859253,1,vertical,vertical,1,0.717649173736572,green,1,NaN,1038.79933356561,842.519411655264,NaN,NaN,1038.79933356561,842.519411655264,1130.62830462151,410.498069503264,710.57236181288,546.982518841471,NaN,NaN,NaN,NaN,NaN,NaN,4,0,0,NaN,NaN,NaN,vertical,vertical,horizontal,none,none,none
1d,5,100208,4,15,207,19,F,NA,constant,homogeneous,6,absent,0.773084878921509,1,horizontal,horizontal,1,0.81176851272583,green,5,NaN,706.900731331463,568.923317431687,NaN,NaN,1059.63643776476,834.728737630372,1213.09926866854,631.076682568313,1113.46283090377,396.34794493794,860.363562235235,365.271262369628,706.900731331463,568.923317431687,806.537169096228,803.65205506206,0,0,0,0,4,0,horizontal,horizontal,horizontal,horizontal,horizontal,horizontal
1d,5,100208,4,16,208,19,F,NA,constant,homogeneous,4,present,0.644338130950928,1,horizontal,horizontal,1,0.764708843231201,green,3,1,813.738008730483,391.116228706307,1106.26199126952,808.883771293693,1106.26199126952,808.883771293693,1168.88377129369,453.738008730483,813.738008730483,391.116228706307,751.116228706307,746.261991269517,NaN,NaN,NaN,NaN,0,0,4,0,NaN,NaN,vertical,vertical,horizontal,vertical,none,none
1d,5,100208,4,17,209,19,F,NA,constant,homogeneous,5,present,0.519979953765869,1,vertical,vertical,1,0.729414091110229,green,1,2,824.870587620533,816.252264519889,1123.91084047007,795.341332995339,824.870587620533,816.252264519889,1123.91084047007,795.341332995339,1196.43188291453,504.475318678942,942.212099195248,345.621167183745,712.574589799621,538.309916622085,NaN,NaN,4,0,0,0,0,NaN,vertical,vertical,vertical,vertical,vertical,none
1d,5,100208,4,18,210,19,F,NA,constant,homogeneous,4,present,0.481780052185059,1,horizontal,horizontal,1,1.011772108078,green,4,2,711.535633479765,657.362518857686,1208.46436652023,542.637481142314,1017.36251885769,848.464366520235,1208.46436652023,542.637481142314,902.637481142314,351.535633479765,711.535633479765,657.362518857686,NaN,NaN,NaN,NaN,0,0,0,4,NaN,NaN,horizontal,vertical,vertical,horizontal,none,none
1d,5,100208,4,19,211,19,F,NA,constant,homogeneous,4,absent,0.576303958892822,1,vertical,vertical,1,0.964712438583374,green,3,NaN,986.654758133252,346.39691668109,NaN,NaN,933.345241866748,853.60308331891,1213.60308331891,626.654758133252,986.654758133252,346.39691668109,706.39691668109,573.345241866748,NaN,NaN,NaN,NaN,0,0,4,0,NaN,NaN,horizontal,horizontal,vertical,horizontal,none,none
1d,5,100208,4,20,212,19,F,NA,constant,homogeneous,3,absent,0.88859486579895,1,vertical,vertical,1,0.635294752120972,green,2,NaN,1173.86099482608,461.117046071168,NaN,NaN,973.345668841951,854.650531362416,1173.86099482608,461.117046071168,732.793336331966,484.232422566416,NaN,NaN,NaN,NaN,NaN,NaN,0,4,0,NaN,NaN,NaN,vertical,vertical,horizontal,none,none,none
1d,5,100208,4,21,213,19,F,NA,constant,homogeneous,3,present,0.435189008712769,1,horizontal,horizontal,1,1.04706686019897,green,1,3,1017.36251885769,848.464366520235,716.142287229426,525.445215295702,1017.36251885769,848.464366520235,1146.49519391289,426.090418184063,716.142287229426,525.445215295702,NaN,NaN,NaN,NaN,NaN,NaN,4,0,0,NaN,NaN,NaN,horizontal,horizontal,vertical,none,none,none
1d,5,100208,4,22,214,19,F,NA,constant,homogeneous,6,absent,0.730998992919922,1,vertical,vertical,1,0.729414091110229,green,5,NaN,711.535633479765,542.637481142314,NaN,NaN,1034.5547847043,843.857712770574,1208.46436652023,657.362518857686,1133.90958181594,413.504806087112,885.445215295702,356.142287229426,711.535633479765,542.637481142314,786.090418184063,786.495193912888,0,0,0,0,4,0,vertical,horizontal,vertical,horizontal,vertical,horizontal
1d,5,100208,4,23,215,19,F,NA,constant,homogeneous,5,present,1.37731194496155,1,vertical,vertical,1,0.964712438583374,green,2,4,1206.31108570371,665.998856501143,799.523300282292,401.827779828472,973.345668841951,854.650531362416,1206.31108570371,665.998856501143,1098.88295392883,386.139005173917,799.523300282292,401.827779828472,721.936991243214,691.383827134052,NaN,NaN,0,4,0,0,0,NaN,vertical,vertical,vertical,vertical,vertical,none
1d,5,100208,4,24,216,19,F,NA,constant,homogeneous,4,present,0.886868000030518,1,vertical,vertical,1,0.94118260383606,green,3,4,856.282156015671,367.045908301137,727.045908301137,703.717843984329,1063.71784398433,832.954091698863,1192.95409169886,496.282156015671,856.282156015671,367.045908301137,727.045908301137,703.717843984329,NaN,NaN,NaN,NaN,0,0,4,0,NaN,NaN,vertical,vertical,vertical,horizontal,none,none
1d,5,100208,4,25,217,19,F,NA,constant,homogeneous,5,present,1.07940316200256,1,horizontal,horizontal,1,0.882358016967773,green,3,4,1120.47669971771,401.827779828472,821.117046071168,386.139005173917,946.654331158049,854.650531362416,1198.06300875679,691.383827134052,1120.47669971771,401.827779828472,821.117046071168,386.139005173917,713.688914296288,665.998856501143,NaN,NaN,0,0,4,0,0,NaN,vertical,horizontal,horizontal,vertical,vertical,none
1d,5,100208,4,26,218,19,F,NA,constant,homogeneous,3,absent,0.780672073364258,0,horizontal,vertical,1,1.011772108078,green,2,NaN,1211.86052685176,639.890788585259,NaN,NaN,799.523300282292,798.172220171528,1211.86052685176,639.890788585259,868.616172865948,361.936991243214,NaN,NaN,NaN,NaN,NaN,NaN,0,4,0,NaN,NaN,NaN,horizontal,horizontal,vertical,none,none,none
1d,5,100208,4,27,219,19,F,NA,constant,homogeneous,6,present,1.21829080581665,1,vertical,vertical,1,0.647059669494629,green,2,6,1202.51941165526,678.799333565612,770.498069503264,770.628304621509,1013.01748115853,849.42763818712,1202.51941165526,678.799333565612,1149.50193049674,429.371695378491,906.982518841471,350.57236181288,717.480588344736,521.200666434388,770.498069503264,770.628304621509,0,4,0,0,0,0,vertical,vertical,horizontal,vertical,vertical,horizontal
1d,5,100208,4,28,220,19,F,NA,constant,homogeneous,6,present,1.36111688613892,1,vertical,vertical,1,0.952947521209717,green,4,1,982.224714400653,345.970351986605,937.775285599347,854.029648013395,937.775285599347,854.029648013395,1168.88377129369,746.261991269517,1191.10848569435,492.232343256122,982.224714400653,345.970351986605,751.116228706307,453.738008730483,728.891514305654,707.767656743878,0,0,0,4,0,0,horizontal,horizontal,horizontal,vertical,vertical,horizontal
1d,5,100208,4,29,221,19,F,NA,constant,homogeneous,5,absent,0.709141969680786,1,vertical,vertical,1,0.635294752120972,green,5,NaN,803.006323791957,800.942742169714,NaN,NaN,1102.59419038504,811.404581001536,1205.12173246427,529.712474266665,968.899371659138,345.155339110131,720.378381699593,512.784863451954,803.006323791957,800.942742169714,NaN,NaN,0,0,0,0,4,NaN,vertical,horizontal,horizontal,vertical,vertical,none
1d,5,100208,4,30,222,19,F,NA,constant,homogeneous,5,present,1.08088397979736,1,vertical,vertical,1,0.623529834747314,green,5,2,714.878267535729,670.287525733335,1199.62161830041,687.215136548046,951.100628340862,854.844660889869,1199.62161830041,687.215136548046,1116.99367620804,399.057257830286,817.405809614959,388.595418998464,714.878267535729,670.287525733335,NaN,NaN,0,0,0,0,4,NaN,horizontal,vertical,horizontal,vertical,vertical,none
1d,5,100208,4,31,223,19,F,NA,constant,homogeneous,6,absent,0.612641096115112,1,horizontal,horizontal,1,0.894122934341431,green,3,NaN,1194.72873763037,500.363562235235,NaN,NaN,928.923317431687,853.099268668537,1163.65205506206,753.462830903772,1194.72873763037,500.363562235235,991.076682568313,346.900731331463,756.34794493794,446.537169096228,725.271262369628,699.636437764765,0,0,4,0,0,0,vertical,vertical,horizontal,vertical,horizontal,horizontal
1d,5,100208,4,32,224,19,F,NA,constant,homogeneous,5,absent,0.761138916015625,1,horizontal,horizontal,1,1.03530194282532,green,1,NaN,836.373546837184,823.028025320546,NaN,NaN,836.373546837184,823.028025320546,1133.90958181594,786.495193912888,1191.10848569435,492.232343256122,928.923317431687,346.900731331463,709.685068220846,551.343706178981,NaN,NaN,4,0,0,0,0,NaN,horizontal,vertical,vertical,horizontal,horizontal,none
1d,5,100208,4,33,225,19,F,NA,constant,homogeneous,3,present,0.661293029785156,1,vertical,vertical,1,0.635294752120972,green,1,2,977.787900804752,854.378832816255,1171.40458100154,457.40580961496,977.787900804752,854.378832816255,1171.40458100154,457.40580961496,730.807518193712,488.215357568785,NaN,NaN,NaN,NaN,NaN,NaN,4,0,0,NaN,NaN,NaN,vertical,vertical,horizontal,none,none,none
1d,5,100208,4,34,226,19,F,NA,constant,homogeneous,4,absent,0.564814805984497,1,horizontal,horizontal,1,1.05883177757263,green,2,NaN,1209.42763818712,653.017481158529,NaN,NaN,906.982518841471,849.42763818712,1209.42763818712,653.017481158529,1013.01748115853,350.57236181288,710.57236181288,546.982518841471,NaN,NaN,NaN,NaN,0,4,0,0,NaN,NaN,horizontal,horizontal,horizontal,vertical,none,none
1d,5,100208,4,35,227,19,F,NA,constant,homogeneous,6,present,1.64758682250977,1,horizontal,horizontal,1,1.011772108078,green,4,1,928.923317431687,346.900731331463,991.076682568313,853.099268668537,991.076682568313,853.099268668537,1194.72873763037,699.636437764765,1163.65205506206,446.537169096228,928.923317431687,346.900731331463,725.271262369628,500.363562235235,756.34794493794,753.462830903772,0,0,0,4,0,0,vertical,horizontal,horizontal,horizontal,horizontal,horizontal
1d,5,100208,4,36,228,19,F,NA,constant,homogeneous,3,absent,0.907458066940308,1,horizontal,horizontal,1,0.905887851715088,green,3,NaN,933.345241866748,346.39691668109,NaN,NaN,753.700666434388,749.885239334581,1192.95409169886,703.717843984329,933.345241866748,346.39691668109,NaN,NaN,NaN,NaN,NaN,NaN,0,0,4,NaN,NaN,NaN,horizontal,horizontal,horizontal,none,none,none
1d,5,100208,4,37,229,19,F,NA,constant,homogeneous,3,present,0.533921003341675,1,vertical,vertical,1,0.976477355957031,green,2,1,1083.62645316282,376.971974679454,1091.33470910206,818.577661679039,1091.33470910206,818.577661679039,1083.62645316282,376.971974679454,705.03883773512,604.450363641507,NaN,NaN,NaN,NaN,NaN,NaN,0,4,0,NaN,NaN,NaN,horizontal,vertical,vertical,none,none,none
1d,5,100208,4,38,230,19,F,NA,constant,homogeneous,4,absent,0.649286985397339,1,horizontal,horizontal,1,1.07059669494629,green,1,NaN,789.371695378491,789.501930496736,NaN,NaN,789.371695378491,789.501930496736,1149.50193049674,770.628304621509,1130.62830462151,410.498069503264,770.498069503264,429.371695378491,NaN,NaN,NaN,NaN,4,0,0,0,NaN,NaN,horizontal,vertical,vertical,vertical,none,none
1d,5,100208,4,39,231,19,F,NA,constant,homogeneous,6,absent,0.621415138244629,1,vertical,vertical,1,0.905887851715088,green,3,NaN,1192.95409169886,496.282156015671,NaN,NaN,933.345241866748,853.60308331891,1166.29933356561,749.885239334581,1192.95409169886,496.282156015671,986.654758133252,346.39691668109,753.700666434388,450.114760665419,727.045908301137,703.717843984329,0,0,4,0,0,0,horizontal,horizontal,vertical,vertical,vertical,vertical
1d,5,100208,4,40,232,19,F,NA,constant,homogeneous,5,absent,0.618937969207764,1,horizontal,horizontal,1,1.04706686019897,green,3,NaN,1083.62645316282,376.971974679454,NaN,NaN,991.076682568313,853.099268668537,1210.31493177915,648.656293821019,1083.62645316282,376.971974679454,786.090418184063,413.504806087112,728.891514305654,707.767656743878,NaN,NaN,0,0,4,0,0,NaN,vertical,vertical,horizontal,vertical,horizontal,none
1d,5,100208,4,41,233,19,F,NA,constant,homogeneous,3,absent,0.545238018035889,1,vertical,vertical,1,0.682354421615601,green,2,NaN,1209.42763818712,653.017481158529,NaN,NaN,789.371695378491,789.501930496736,1209.42763818712,653.017481158529,881.200666434388,357.480588344736,NaN,NaN,NaN,NaN,NaN,NaN,0,4,0,NaN,NaN,NaN,horizontal,vertical,vertical,none,none,none
1d,5,100208,4,42,234,19,F,NA,constant,homogeneous,3,present,0.698909997940063,1,horizontal,horizontal,1,0.94118260383606,green,3,2,727.045908301137,703.717843984329,986.654758133252,346.39691668109,1166.29933356561,749.885239334581,986.654758133252,346.39691668109,727.045908301137,703.717843984329,NaN,NaN,NaN,NaN,NaN,NaN,0,0,4,NaN,NaN,NaN,vertical,vertical,horizontal,none,none,none
1d,5,100208,4,43,235,19,F,NA,constant,homogeneous,6,present,0.922769069671631,1,horizontal,horizontal,1,0.670589504241943,green,1,3,1047.21513654805,839.621618300407,1123.91084047007,404.658667004661,1047.21513654805,839.621618300407,1211.12597701811,644.280285305067,1123.91084047007,404.658667004661,872.784863451954,360.378381699593,708.874022981887,555.719714694933,796.089159529932,795.341332995339,4,0,0,0,0,0,horizontal,vertical,vertical,vertical,vertical,horizontal
1d,5,100208,4,44,236,19,F,NA,constant,homogeneous,5,present,0.707634925842285,1,horizontal,horizontal,1,0.741179008483887,green,4,5,881.200666434388,357.480588344736,705,600,881.200666434388,842.519411655264,1166.29933356561,749.885239334581,1166.29933356561,450.114760665419,881.200666434388,357.480588344736,705,600,NaN,NaN,0,0,0,4,0,NaN,vertical,vertical,vertical,horizontal,vertical,none
1d,5,100208,4,45,237,19,F,NA,constant,homogeneous,4,present,0.551851987838745,1,vertical,vertical,1,0.670589504241943,green,3,2,937.775285599347,345.970351986605,1214.0296480134,577.775285599347,982.224714400653,854.029648013395,1214.0296480134,577.775285599347,937.775285599347,345.970351986605,705.970351986605,622.224714400653,NaN,NaN,NaN,NaN,0,0,4,0,NaN,NaN,vertical,horizontal,vertical,vertical,none,none
1d,5,100208,4,46,238,19,F,NA,constant,homogeneous,3,absent,0.345545053482056,1,horizontal,horizontal,1,0.952947521209717,green,2,NaN,1021.69008337792,352.574589799621,NaN,NaN,1143.43164908636,777.137884467044,1021.69008337792,352.574589799621,714.878267535729,670.287525733335,NaN,NaN,NaN,NaN,NaN,NaN,0,4,0,NaN,NaN,NaN,vertical,horizontal,vertical,none,none,none
1d,5,100208,4,47,239,19,F,NA,constant,homogeneous,4,absent,0.520907878875732,1,vertical,vertical,1,0.976477355957031,green,3,NaN,786.090418184063,413.504806087112,NaN,NaN,1133.90958181594,786.495193912888,1146.49519391289,426.090418184063,786.090418184063,413.504806087112,773.504806087112,773.909581815937,NaN,NaN,NaN,NaN,0,0,4,0,NaN,NaN,horizontal,horizontal,vertical,vertical,none,none
1d,5,100208,4,48,240,19,F,NA,constant,homogeneous,6,absent,0.495719909667969,1,horizontal,horizontal,1,1.04706686019897,green,1,NaN,1030.28752573333,845.121732464271,NaN,NaN,1030.28752573333,845.121732464271,1207.42541020038,661.690083377915,1137.13788446704,416.568350913644,889.712474266665,354.878267535729,712.574589799621,538.309916622085,782.862115532956,783.431649086356,4,0,0,0,0,0,horizontal,horizontal,horizontal,horizontal,horizontal,vertical
