experiment,subject,uniqueID,block,trial,trial_cumulative,age,gender,color_cond_blocking,color_history,shape_type,set_size,distractor,rt,acc,target_orient,response_key,response_made,iti,target_color,target_item,distractor_item,target_X,target_Y,distractor_X,distractor_Y,item1_X,item1_Y,item2_X,item2_Y,item3_X,item3_Y,item4_X,item4_Y,item5_X,item5_Y,item6_X,item6_Y,item1_shape,item2_shape,item3_shape,item4_shape,item5_shape,item6_shape,item1_line,item2_line,item3_line,item4_line,item5_line,item6_line
1d,6,100220,1,1,1,20,F,NA,constant,homogeneous,4,absent,0.915679931640625,1,vertical,vertical,1,1.03528571128845,red,4,NaN,548.13947314824,639.890788585259,NaN,NaN,839.890788585259,851.86052685176,1051.86052685176,560.109211414741,760.109211414741,348.13947314824,548.13947314824,639.890788585259,NaN,NaN,NaN,NaN,0,0,0,4,NaN,NaN,vertical,horizontal,vertical,vertical,none,none
1d,6,100220,1,2,2,20,F,NA,constant,homogeneous,3,present,0.991235017776489,0,vertical,horizontal,1,0.658822393417358,red,3,1,572.793336331966,484.232422566416,813.345668841951,854.650531362416,813.345668841951,854.650531362416,1013.86099482608,461.117046071168,572.793336331966,484.232422566416,NaN,NaN,NaN,NaN,NaN,NaN,0,0,4,NaN,NaN,NaN,horizontal,vertical,vertical,none,none,none
1d,6,100220,1,3,3,20,F,NA,constant,homogeneous,6,absent,0.702723026275635,1,horizontal,horizontal,1,0.776467180252075,red,5,NaN,560.378381699593,512.784863451954,NaN,NaN,844.280285305067,851.125977018113,1039.62161830041,687.215136548046,995.341332995339,436.089159529932,755.719714694933,348.874022981887,560.378381699593,512.784863451954,604.658667004661,763.910840470068,0,0,0,0,4,0,vertical,vertical,vertical,horizontal,horizontal,horizontal
1d,6,100220,1,4,4,20,F,NA,constant,homogeneous,6,present,0.849056005477905,0,vertical,horizontal,1,0.81176061630249,red,4,2,768.923317431687,346.900731331463,1034.72873763037,699.636437764765,831.076682568313,853.099268668537,1034.72873763037,699.636437764765,1003.65205506206,446.537169096228,768.923317431687,346.900731331463,565.271262369628,500.363562235235,596.34794493794,753.462830903772,0,0,0,4,0,0,vertical,vertical,horizontal,vertical,vertical,horizontal
1d,6,100220,1,5,5,20,F,NA,constant,homogeneous,3,present,0.749006986618042,0,horizontal,vertical,1,0.729409265518189,red,2,1,1039.62161830041,687.215136548046,604.658667004661,763.910840470068,604.658667004661,763.910840470068,1039.62161830041,687.215136548046,755.719714694933,348.874022981887,NaN,NaN,NaN,NaN,NaN,NaN,0,4,0,NaN,NaN,NaN,vertical,horizontal,vertical,none,none,none
1d,6,100220,1,6,6,20,F,NA,constant,homogeneous,4,present,0.889691114425659,0,horizontal,vertical,1,0.88234748840332,red,1,4,782.212099195248,854.378832816255,545.621167183745,582.212099195248,782.212099195248,854.378832816255,1054.37883281626,617.787900804752,817.787900804752,345.621167183745,545.621167183745,582.212099195248,NaN,NaN,NaN,NaN,4,0,0,0,NaN,NaN,horizontal,horizontal,vertical,vertical,none,none
1d,6,100220,1,7,7,20,F,NA,constant,homogeneous,3,present,0.744284152984619,1,vertical,vertical,1,0.835289573669434,red,2,1,970.628304621509,410.498069503264,878.799333565612,842.519411655264,878.799333565612,842.519411655264,970.628304621509,410.498069503264,550.57236181288,546.982518841471,NaN,NaN,NaN,NaN,NaN,NaN,0,4,0,NaN,NaN,NaN,horizontal,vertical,vertical,none,none,none
1d,6,100220,1,8,8,20,F,NA,constant,homogeneous,5,present,0.574826002120972,1,vertical,vertical,1,0.776467180252075,red,4,2,599.057257830286,443.006323791957,1054.84466088987,608.899371659138,870.287525733335,845.121732464271,1054.84466088987,608.899371659138,887.215136548046,360.378381699593,599.057257830286,443.006323791957,588.595418998464,742.594190385041,NaN,NaN,0,0,0,4,0,NaN,horizontal,vertical,vertical,vertical,horizontal,none
1d,6,100220,1,9,9,20,F,NA,constant,homogeneous,3,present,0.549578905105591,1,horizontal,horizontal,1,0.95293436050415,red,2,3,1052.5183575291,564.510859255183,643.006323791957,399.057257830286,704.475318678942,836.431882914531,1052.5183575291,564.510859255183,643.006323791957,399.057257830286,NaN,NaN,NaN,NaN,NaN,NaN,0,4,0,NaN,NaN,NaN,horizontal,horizontal,horizontal,none,none,none
1d,6,100220,1,10,10,20,F,NA,constant,homogeneous,3,absent,0.565577030181885,0,vertical,horizontal,1,1.04705018997192,red,3,NaN,546.39691668109,573.345241866748,NaN,NaN,903.717843984329,832.954091698863,949.885239334581,393.700666434388,546.39691668109,573.345241866748,NaN,NaN,NaN,NaN,NaN,NaN,0,0,4,NaN,NaN,NaN,horizontal,vertical,vertical,none,none,none
1d,6,100220,1,11,11,20,F,NA,constant,homogeneous,3,present,0.697745800018311,1,horizontal,horizontal,1,0.635293436050415,red,1,3,967.295052392579,792.450942956807,549.685068220846,648.656293821019,967.295052392579,792.450942956807,883.019879386575,358.892763222174,549.685068220846,648.656293821019,NaN,NaN,NaN,NaN,NaN,NaN,4,0,0,NaN,NaN,NaN,horizontal,horizontal,vertical,none,none,none
1d,6,100220,1,12,12,20,F,NA,constant,homogeneous,4,present,0.684880018234253,1,horizontal,horizontal,1,0.635293436050415,red,1,3,826.654758133252,853.60308331891,773.345241866748,346.39691668109,826.654758133252,853.60308331891,1053.60308331891,573.345241866748,773.345241866748,346.39691668109,546.39691668109,626.654758133252,NaN,NaN,NaN,NaN,4,0,0,0,NaN,NaN,horizontal,vertical,horizontal,horizontal,none,none
1d,6,100220,1,13,13,20,F,NA,constant,homogeneous,4,absent,0.610522985458374,1,horizontal,horizontal,1,1.01175675392151,red,1,NaN,668.665290897936,818.577661679039,NaN,NaN,668.665290897936,818.577661679039,1018.57766167904,731.334709102064,931.334709102064,381.422338320961,581.422338320961,468.665290897936,NaN,NaN,NaN,NaN,4,0,0,0,NaN,NaN,horizontal,vertical,horizontal,horizontal,none,none
1d,6,100220,1,14,14,20,F,NA,constant,homogeneous,5,absent,0.715900182723999,1,vertical,vertical,1,0.823525094985962,red,3,NaN,1038.06300875679,508.616172865948,NaN,NaN,661.117046071168,813.860994826083,960.476699717708,798.172220171528,1038.06300875679,508.616172865948,786.654331158049,345.349468637584,553.688914296288,534.001143498857,NaN,NaN,0,0,4,0,0,NaN,horizontal,vertical,vertical,horizontal,horizontal,none
1d,6,100220,1,15,15,20,F,NA,constant,homogeneous,3,absent,0.598120927810669,1,horizontal,horizontal,1,0.999992275238037,red,3,NaN,746.982518841471,350.57236181288,NaN,NaN,610.498069503264,770.628304621509,1042.51941165526,678.799333565612,746.982518841471,350.57236181288,NaN,NaN,NaN,NaN,NaN,NaN,0,0,4,NaN,NaN,NaN,horizontal,vertical,horizontal,none,none,none
1d,6,100220,1,16,16,20,F,NA,constant,homogeneous,5,absent,0.590716123580933,0,vertical,horizontal,1,1.02352123260498,red,5,NaN,576.971974679454,723.626453162816,NaN,NaN,848.656293821019,850.314931779154,1053.09926866854,631.076682568313,907.767656743878,368.891514305654,613.504806087112,426.090418184063,576.971974679454,723.626453162816,NaN,NaN,0,0,0,0,4,NaN,vertical,vertical,horizontal,horizontal,vertical,none
1d,6,100220,1,17,17,20,F,NA,constant,homogeneous,3,present,0.839389085769653,1,vertical,vertical,1,0.623528957366943,red,1,2,588.595418998464,742.594190385041,1029.19248180629,711.784642431215,588.595418998464,742.594190385041,1029.19248180629,711.784642431215,782.212099195248,345.621167183745,NaN,NaN,NaN,NaN,NaN,NaN,4,0,0,NaN,NaN,NaN,vertical,horizontal,vertical,none,none,none
1d,6,100220,1,18,18,20,F,NA,constant,homogeneous,6,absent,0.586498975753784,1,horizontal,horizontal,1,0.717644786834717,red,5,NaN,629.371695378491,410.498069503264,NaN,NaN,721.200666434388,842.519411655264,970.628304621509,789.501930496736,1049.42763818712,546.982518841471,878.799333565612,357.480588344736,629.371695378491,410.498069503264,550.57236181288,653.017481158529,0,0,0,0,4,0,horizontal,vertical,horizontal,horizontal,horizontal,horizontal
1d,6,100220,1,19,19,20,F,NA,constant,homogeneous,6,present,0.66040301322937,1,vertical,vertical,1,0.905876445770264,red,3,6,1042.51941165526,521.200666434388,557.480588344736,678.799333565612,746.982518841471,849.42763818712,989.501930496736,770.628304621509,1042.51941165526,521.200666434388,853.017481158529,350.57236181288,610.498069503264,429.371695378491,557.480588344736,678.799333565612,0,0,4,0,0,0,horizontal,horizontal,vertical,vertical,horizontal,horizontal
1d,6,100220,1,20,20,20,F,NA,constant,homogeneous,4,absent,0.716652870178223,1,vertical,vertical,1,0.729409265518189,red,1,NaN,725.445215295702,843.857712770574,NaN,NaN,725.445215295702,843.857712770574,1043.85771277057,674.554784704298,874.554784704298,356.142287229426,556.142287229426,525.445215295702,NaN,NaN,NaN,NaN,4,0,0,0,NaN,NaN,vertical,horizontal,vertical,horizontal,none,none
1d,6,100220,1,21,21,20,F,NA,constant,homogeneous,4,absent,0.615220069885254,1,vertical,vertical,1,0.81176061630249,red,4,NaN,596.34794493794,753.462830903772,NaN,NaN,953.462830903772,803.65205506206,1003.65205506206,446.537169096228,646.537169096228,396.34794493794,596.34794493794,753.462830903772,NaN,NaN,NaN,NaN,0,0,0,4,NaN,NaN,vertical,horizontal,horizontal,vertical,none,none
1d,6,100220,1,22,22,20,F,NA,constant,homogeneous,5,absent,0.552324056625366,1,horizontal,horizontal,1,1.02352123260498,red,5,NaN,545.970351986605,577.775285599347,NaN,NaN,700.363562235235,834.728737630372,992.450942956807,767.295052392579,1018.57766167904,468.665290897936,742.637481142314,351.535633479765,545.970351986605,577.775285599347,NaN,NaN,0,0,0,0,4,NaN,vertical,horizontal,vertical,vertical,horizontal,none
1d,6,100220,1,23,23,20,F,NA,constant,homogeneous,4,absent,0.80510401725769,1,horizontal,horizontal,1,0.67058687210083,red,1,NaN,960.476699717708,798.172220171528,NaN,NaN,960.476699717708,798.172220171528,998.172220171528,439.523300282291,639.523300282292,401.827779828472,601.827779828472,760.476699717708,NaN,NaN,NaN,NaN,4,0,0,0,NaN,NaN,horizontal,horizontal,vertical,horizontal,none,none
1d,6,100220,1,24,24,20,F,NA,constant,homogeneous,3,absent,0.589158058166504,1,vertical,vertical,1,0.988227796554565,red,1,NaN,887.215136548046,839.621618300407,NaN,NaN,887.215136548046,839.621618300407,963.910840470068,404.658667004661,548.874022981887,555.719714694933,NaN,NaN,NaN,NaN,NaN,NaN,4,0,0,NaN,NaN,NaN,vertical,horizontal,horizontal,none,none,none
1d,6,100220,1,25,25,20,F,NA,constant,homogeneous,6,absent,0.706834077835083,0,vertical,horizontal,1,0.88234748840332,red,6,NaN,583.747735480111,735.129412379467,NaN,NaN,808.899371659138,854.844660889869,1025.15163617903,719.715248510402,1016.25226451989,464.870587620533,791.100628340862,345.155339110131,574.848363820974,480.284751489598,583.747735480111,735.129412379467,0,0,0,0,0,4,vertical,horizontal,horizontal,vertical,horizontal,vertical
1d,6,100220,1,26,26,20,F,NA,constant,homogeneous,4,present,0.634810924530029,0,horizontal,vertical,1,1.08234362602234,red,4,3,567.045908301137,496.282156015671,903.717843984329,367.045908301137,696.282156015671,832.954091698863,1032.95409169886,703.717843984329,903.717843984329,367.045908301137,567.045908301137,496.282156015671,NaN,NaN,NaN,NaN,0,0,0,4,NaN,NaN,vertical,horizontal,vertical,horizontal,none,none
1d,6,100220,1,27,27,20,F,NA,constant,homogeneous,5,present,1.03743195533752,1,horizontal,horizontal,1,0.870583009719849,red,4,3,672.5,379.163522034968,970.628304621509,410.498069503264,773.345241866748,853.60308331891,1032.95409169886,703.717843984329,970.628304621509,410.498069503264,672.5,379.163522034968,550.57236181288,653.017481158529,NaN,NaN,0,0,0,4,0,NaN,vertical,vertical,horizontal,horizontal,horizontal,none
1d,6,100220,1,28,28,20,F,NA,constant,homogeneous,3,present,0.641216039657593,1,horizontal,horizontal,1,0.74117374420166,red,2,1,949.885239334581,393.700666434388,903.717843984329,832.954091698863,903.717843984329,832.954091698863,949.885239334581,393.700666434388,546.39691668109,573.345241866748,NaN,NaN,NaN,NaN,NaN,NaN,0,4,0,NaN,NaN,NaN,horizontal,horizontal,horizontal,none,none,none
1d,6,100220,1,29,29,20,F,NA,constant,homogeneous,6,absent,1.1973090171814,1,vertical,vertical,1,0.764702701568604,red,3,NaN,1054.37883281626,582.212099195248,NaN,NaN,688.215357568785,829.192481806288,942.594190385041,811.404581001536,1054.37883281626,582.212099195248,911.784642431215,370.807518193712,657.405809614959,388.595418998464,545.621167183745,617.787900804752,0,0,4,0,0,0,vertical,vertical,vertical,vertical,vertical,horizontal
1d,6,100220,1,30,30,20,F,NA,constant,homogeneous,5,absent,0.842388868331909,1,horizontal,horizontal,1,1.0588146686554,red,3,NaN,861.690083377915,352.574589799621,NaN,NaN,895.524681321058,836.431882914531,1054.37883281626,582.212099195248,861.690083377915,352.574589799621,583.747735480111,464.870587620533,604.658667004661,763.910840470068,NaN,NaN,0,0,4,0,0,NaN,vertical,horizontal,horizontal,horizontal,vertical,none
1d,6,100220,1,31,31,20,F,NA,constant,homogeneous,4,absent,0.617646932601929,1,horizontal,horizontal,1,0.705880308151245,red,2,NaN,1039.62161830041,687.215136548046,NaN,NaN,712.784863451954,839.621618300407,1039.62161830041,687.215136548046,887.215136548046,360.378381699593,560.378381699593,512.784863451954,NaN,NaN,NaN,NaN,0,4,0,0,NaN,NaN,vertical,horizontal,horizontal,horizontal,none,none
1d,6,100220,1,32,32,20,F,NA,constant,homogeneous,6,absent,0.821560859680176,1,horizontal,horizontal,1,0.964698839187622,red,6,NaN,553.688914296288,665.998856501143,NaN,NaN,734.001143498857,846.311085703712,980.31222920257,780.31222920257,1046.31108570371,534.001143498857,865.998856501143,353.688914296288,619.68777079743,419.68777079743,553.688914296288,665.998856501143,0,0,0,0,0,4,horizontal,vertical,vertical,horizontal,vertical,horizontal
1d,6,100220,1,33,33,20,F,NA,constant,homogeneous,3,absent,0.614934921264648,1,horizontal,horizontal,1,0.647057914733887,red,2,NaN,977.137884467044,416.568350913644,NaN,NaN,870.287525733335,845.121732464271,977.137884467044,416.568350913644,552.574589799621,538.309916622085,NaN,NaN,NaN,NaN,NaN,NaN,0,4,0,NaN,NaN,NaN,horizontal,horizontal,horizontal,none,none,none
1d,6,100220,1,34,34,20,F,NA,constant,homogeneous,5,present,0.69281792640686,1,horizontal,horizontal,1,0.658822393417358,red,5,2,643.006323791957,800.942742169714,1045.12173246427,529.712474266665,942.594190385041,811.404581001536,1045.12173246427,529.712474266665,808.899371659138,345.155339110131,560.378381699593,512.784863451954,643.006323791957,800.942742169714,NaN,NaN,0,0,0,0,4,NaN,vertical,vertical,vertical,vertical,horizontal,none
1d,6,100220,1,35,35,20,F,NA,constant,homogeneous,5,absent,0.38060998916626,1,horizontal,horizontal,1,1.09410810470581,red,5,NaN,546.900731331463,631.076682568313,NaN,NaN,751.343706178981,850.314931779154,1023.02802532055,723.626453162816,986.495193912888,426.090418184063,692.232343256122,368.891514305654,546.900731331463,631.076682568313,NaN,NaN,0,0,0,0,4,NaN,horizontal,vertical,vertical,horizontal,horizontal,none
1d,6,100220,1,36,36,20,F,NA,constant,homogeneous,3,absent,0.528892040252686,1,horizontal,horizontal,1,0.823525094985962,red,1,NaN,588.595418998464,742.594190385041,NaN,NaN,588.595418998464,742.594190385041,1029.19248180629,711.784642431215,782.212099195248,345.621167183745,NaN,NaN,NaN,NaN,NaN,NaN,4,0,0,NaN,NaN,NaN,horizontal,horizontal,vertical,none,none,none
1d,6,100220,1,37,37,20,F,NA,constant,homogeneous,4,present,0.620948076248169,1,vertical,vertical,1,1.04705018997192,red,2,4,1045.12173246427,670.287525733335,554.878267535729,529.712474266665,729.712474266665,845.121732464271,1045.12173246427,670.287525733335,870.287525733335,354.878267535729,554.878267535729,529.712474266665,NaN,NaN,NaN,NaN,0,4,0,0,NaN,NaN,vertical,vertical,vertical,vertical,none,none
1d,6,100220,1,38,38,20,F,NA,constant,homogeneous,5,absent,0.53367018699646,1,vertical,vertical,1,0.823525094985962,red,2,NaN,1053.60308331891,573.345241866748,NaN,NaN,903.717843984329,832.954091698863,1053.60308331891,573.345241866748,853.017481158529,350.57236181288,579.163522034968,472.5,610.498069503264,770.628304621509,NaN,NaN,0,4,0,0,0,NaN,horizontal,vertical,vertical,horizontal,vertical,none
1d,6,100220,1,39,39,20,F,NA,constant,homogeneous,5,present,1.03906083106995,1,vertical,vertical,1,0.729409265518189,red,3,1,804.450363641507,345.03883773512,946.261991269517,808.883771293693,946.261991269517,808.883771293693,1043.85771277057,525.445215295702,804.450363641507,345.03883773512,558.892763222174,516.980120613425,646.537169096228,803.65205506206,NaN,NaN,0,0,4,0,0,NaN,horizontal,horizontal,vertical,horizontal,horizontal,none
1d,6,100220,1,40,40,20,F,NA,constant,homogeneous,6,present,0.513921022415161,1,vertical,vertical,1,0.694115829467773,red,6,5,560.378381699593,687.215136548046,604.658667004661,436.089159529932,755.719714694933,851.125977018113,995.341332995339,763.910840470068,1039.62161830041,512.784863451954,844.280285305067,348.874022981887,604.658667004661,436.089159529932,560.378381699593,687.215136548046,0,0,0,0,0,4,vertical,horizontal,horizontal,vertical,vertical,vertical
1d,6,100220,1,41,41,20,F,NA,constant,homogeneous,6,absent,0.525486946105957,1,vertical,vertical,1,0.67058687210083,red,5,NaN,586.139005173917,461.117046071168,NaN,NaN,786.654331158049,854.650531362416,1013.86099482608,738.882953928832,1027.20666366803,484.232422566416,813.345668841951,345.349468637584,586.139005173917,461.117046071168,572.793336331966,715.767577433584,0,0,0,0,4,0,horizontal,horizontal,horizontal,vertical,vertical,horizontal
1d,6,100220,1,42,42,20,F,NA,constant,homogeneous,4,present,0.524409770965576,1,vertical,vertical,1,0.799996137619019,red,1,2,782.212099195248,854.378832816255,1054.37883281626,617.787900804752,782.212099195248,854.378832816255,1054.37883281626,617.787900804752,817.787900804752,345.621167183745,545.621167183745,582.212099195248,NaN,NaN,NaN,NaN,4,0,0,0,NaN,NaN,vertical,horizontal,horizontal,vertical,none,none
1d,6,100220,1,43,43,20,F,NA,constant,homogeneous,5,present,0.603491067886353,1,vertical,vertical,1,0.623528957366943,red,3,2,822.224714400653,345.970351986605,1048.46436652023,542.637481142314,931.334709102064,818.577661679039,1048.46436652023,542.637481142314,822.224714400653,345.970351986605,565.271262369628,500.363562235235,632.704947607421,792.450942956807,NaN,NaN,0,0,4,0,0,NaN,horizontal,horizontal,vertical,vertical,horizontal,none
1d,6,100220,1,44,44,20,F,NA,constant,homogeneous,3,absent,0.467067003250122,1,vertical,vertical,1,0.964698839187622,red,3,NaN,742.637481142314,351.535633479765,NaN,NaN,613.504806087112,773.909581815937,1043.85771277057,674.554784704298,742.637481142314,351.535633479765,NaN,NaN,NaN,NaN,NaN,NaN,0,0,4,NaN,NaN,NaN,vertical,horizontal,vertical,none,none,none
1d,6,100220,1,45,45,20,F,NA,constant,homogeneous,4,absent,0.750342130661011,1,horizontal,horizontal,1,0.894111967086792,red,1,NaN,973.909581815937,786.495193912888,NaN,NaN,973.909581815937,786.495193912888,986.495193912888,426.090418184063,626.090418184063,413.504806087112,613.504806087112,773.909581815937,NaN,NaN,NaN,NaN,4,0,0,0,NaN,NaN,horizontal,horizontal,horizontal,horizontal,none,none
1d,6,100220,1,46,46,20,F,NA,constant,homogeneous,6,absent,0.659067869186401,1,vertical,vertical,1,1.08234362602234,red,6,NaN,565.271262369628,699.636437764765,NaN,NaN,768.923317431687,853.099268668537,1003.65205506206,753.462830903772,1034.72873763037,500.363562235235,831.076682568313,346.900731331463,596.34794493794,446.537169096228,565.271262369628,699.636437764765,0,0,0,0,0,4,horizontal,vertical,horizontal,vertical,horizontal,vertical
1d,6,100220,1,47,47,20,F,NA,constant,homogeneous,5,present,0.848191976547241,1,horizontal,horizontal,1,0.788231658935547,red,4,2,650.114760665419,393.700666434388,1042.51941165526,678.799333565612,800,855,1042.51941165526,678.799333565612,949.885239334581,393.700666434388,650.114760665419,393.700666434388,557.480588344736,678.799333565612,NaN,NaN,0,0,0,4,0,NaN,vertical,vertical,horizontal,horizontal,vertical,none
1d,6,100220,1,48,48,20,F,NA,constant,homogeneous,3,absent,0.777822971343994,1,vertical,vertical,1,0.81176061630249,red,1,NaN,839.890788585259,851.86052685176,NaN,NaN,839.890788585259,851.86052685176,998.172220171528,439.523300282291,561.936991243214,508.616172865948,NaN,NaN,NaN,NaN,NaN,NaN,4,0,0,NaN,NaN,NaN,vertical,vertical,vertical,none,none,none
1d,6,100220,1,49,49,20,F,NA,constant,homogeneous,6,present,0.825793981552124,1,vertical,vertical,1,0.81176061630249,red,1,3,696.282156015671,832.954091698863,1053.60308331891,573.345241866748,696.282156015671,832.954091698863,949.885239334581,806.299333565612,1053.60308331891,573.345241866748,903.717843984329,367.045908301137,650.114760665419,393.700666434388,546.39691668109,626.654758133252,4,0,0,0,0,0,vertical,horizontal,horizontal,horizontal,horizontal,vertical
1d,6,100220,1,50,50,20,F,NA,constant,homogeneous,6,absent,0.687783002853394,1,horizontal,horizontal,1,0.870583009719849,red,4,NaN,729.712474266665,354.878267535729,NaN,NaN,870.287525733335,845.121732464271,1047.42541020038,661.690083377915,977.137884467044,416.568350913644,729.712474266665,354.878267535729,552.574589799621,538.309916622085,622.862115532956,783.431649086356,0,0,0,4,0,0,horizontal,vertical,horizontal,horizontal,vertical,vertical
1d,6,100220,1,51,51,20,F,NA,constant,homogeneous,5,absent,0.670881032943726,1,horizontal,horizontal,1,1.03528571128845,red,2,NaN,1054.0296480134,622.224714400653,NaN,NaN,857.362518857686,848.464366520235,1054.0296480134,622.224714400653,899.636437764765,365.271262369628,607.549057043193,432.704947607421,581.422338320961,731.334709102064,NaN,NaN,0,4,0,0,0,NaN,horizontal,horizontal,horizontal,horizontal,horizontal,none
1d,6,100220,1,52,52,20,F,NA,constant,homogeneous,6,present,0.801002979278564,1,horizontal,horizontal,1,0.835289573669434,red,4,6,887.215136548046,360.378381699593,548.874022981887,644.280285305067,712.784863451954,839.621618300407,963.910840470068,795.341332995339,1051.12597701811,555.719714694933,887.215136548046,360.378381699593,636.089159529932,404.658667004661,548.874022981887,644.280285305067,0,0,0,4,0,0,horizontal,vertical,vertical,horizontal,vertical,horizontal
1d,6,100220,1,53,53,20,F,NA,constant,homogeneous,6,present,0.918699026107788,1,horizontal,horizontal,1,0.67058687210083,red,3,1,1050.31493177915,551.343706178981,716.980120613425,841.107236777826,716.980120613425,841.107236777826,967.295052392579,792.450942956807,1050.31493177915,551.343706178981,883.019879386575,358.892763222174,632.704947607421,407.549057043193,549.685068220846,648.656293821019,0,0,4,0,0,0,horizontal,horizontal,horizontal,horizontal,vertical,horizontal
1d,6,100220,1,54,54,20,F,NA,constant,homogeneous,4,present,0.514472007751465,1,horizontal,horizontal,1,1.0588146686554,red,1,2,907.767656743878,831.108485694346,1031.10848569435,492.232343256122,907.767656743878,831.108485694346,1031.10848569435,492.232343256122,692.232343256122,368.891514305654,568.891514305654,707.767656743878,NaN,NaN,NaN,NaN,4,0,0,0,NaN,NaN,horizontal,vertical,vertical,horizontal,none,none
1d,6,100220,1,55,55,20,F,NA,constant,homogeneous,4,present,0.661684989929199,1,vertical,vertical,1,1.04705018997192,red,1,2,716.980120613425,841.107236777826,1041.10723677783,683.019879386575,716.980120613425,841.107236777826,1041.10723677783,683.019879386575,883.019879386575,358.892763222174,558.892763222174,516.980120613425,NaN,NaN,NaN,NaN,4,0,0,0,NaN,NaN,vertical,horizontal,vertical,horizontal,none,none
1d,6,100220,1,56,56,20,F,NA,constant,homogeneous,5,present,0.766796112060547,1,horizontal,horizontal,1,0.776467180252075,red,1,3,899.636437764765,834.728737630372,857.362518857686,351.535633479765,899.636437764765,834.728737630372,1054.0296480134,577.775285599347,857.362518857686,351.535633479765,581.422338320961,468.665290897936,607.549057043193,767.295052392579,NaN,NaN,4,0,0,0,0,NaN,horizontal,horizontal,horizontal,vertical,horizontal,none
1d,6,100220,1,57,57,20,F,NA,constant,homogeneous,3,absent,0.608247041702271,1,horizontal,horizontal,1,0.694115829467773,red,3,NaN,795.549636358493,345.03883773512,NaN,NaN,581.422338320961,731.334709102064,1023.02802532055,723.626453162816,795.549636358493,345.03883773512,NaN,NaN,NaN,NaN,NaN,NaN,0,0,4,NaN,NaN,NaN,horizontal,horizontal,horizontal,none,none,none
1d,6,100220,1,58,58,20,F,NA,constant,homogeneous,6,present,0.560347080230713,1,horizontal,horizontal,1,0.988227796554565,red,1,2,738.309916622085,847.425410200379,983.431649086356,777.137884467044,738.309916622085,847.425410200379,983.431649086356,777.137884467044,1045.12173246427,529.712474266665,861.690083377915,352.574589799621,616.568350913644,422.862115532956,554.878267535729,670.287525733335,4,0,0,0,0,0,horizontal,vertical,vertical,horizontal,horizontal,horizontal
1d,6,100220,1,59,59,20,F,NA,constant,homogeneous,5,absent,0.76111102104187,1,vertical,vertical,1,0.88234748840332,red,5,NaN,561.936991243214,691.383827134052,NaN,NaN,813.345668841951,854.650531362416,1046.31108570371,665.998856501143,938.882953928832,386.139005173917,639.523300282292,401.827779828472,561.936991243214,691.383827134052,NaN,NaN,0,0,0,0,4,NaN,horizontal,horizontal,vertical,vertical,vertical,none
1d,6,100220,1,60,60,20,F,NA,constant,homogeneous,4,absent,0.685837030410767,1,vertical,vertical,1,1.07057914733887,red,2,NaN,1029.19248180629,488.215357568785,NaN,NaN,911.784642431215,829.192481806288,1029.19248180629,488.215357568785,688.215357568785,370.807518193712,570.807518193712,711.784642431215,NaN,NaN,NaN,NaN,0,4,0,0,NaN,NaN,horizontal,vertical,horizontal,horizontal,none,none
1d,6,100220,1,61,61,20,F,NA,constant,homogeneous,4,present,0.713448047637939,1,vertical,vertical,1,0.67058687210083,red,3,2,746.982518841471,350.57236181288,1049.42763818712,546.982518841471,853.017481158529,849.42763818712,1049.42763818712,546.982518841471,746.982518841471,350.57236181288,550.57236181288,653.017481158529,NaN,NaN,NaN,NaN,0,0,4,0,NaN,NaN,vertical,vertical,vertical,vertical,none,none
1d,6,100220,1,62,62,20,F,NA,constant,homogeneous,6,present,0.705991983413696,0,horizontal,vertical,1,0.905876445770264,red,3,1,1053.60308331891,573.345241866748,696.282156015671,832.954091698863,696.282156015671,832.954091698863,949.885239334581,806.299333565612,1053.60308331891,573.345241866748,903.717843984329,367.045908301137,650.114760665419,393.700666434388,546.39691668109,626.654758133252,0,0,4,0,0,0,horizontal,horizontal,horizontal,horizontal,vertical,horizontal
1d,6,100220,1,63,63,20,F,NA,constant,homogeneous,5,present,0.615555047988892,1,vertical,vertical,1,0.764702701568604,red,5,2,565.271262369628,699.636437764765,1048.46436652023,657.362518857686,822.224714400653,854.029648013395,1048.46436652023,657.362518857686,931.334709102064,381.422338320961,632.704947607421,407.549057043193,565.271262369628,699.636437764765,NaN,NaN,0,0,0,0,4,NaN,horizontal,vertical,vertical,vertical,vertical,none
1d,6,100220,1,64,64,20,F,NA,constant,homogeneous,3,present,0.60566782951355,1,vertical,vertical,1,0.682351350784302,red,1,2,591.116228706307,746.261991269517,1031.10848569435,707.767656743878,591.116228706307,746.261991269517,1031.10848569435,707.767656743878,777.775285599347,345.970351986605,NaN,NaN,NaN,NaN,NaN,NaN,4,0,0,NaN,NaN,NaN,vertical,vertical,horizontal,none,none,none
1d,6,100220,2,1,65,20,F,NA,constant,homogeneous,5,present,0.753761053085327,1,vertical,vertical,1,0.776467180252075,red,5,4,545.155339110131,591.100628340862,729.712474266665,354.878267535729,712.784863451954,839.621618300407,1000.94274216971,756.993676208043,1011.40458100154,457.40580961496,729.712474266665,354.878267535729,545.155339110131,591.100628340862,NaN,NaN,0,0,0,0,4,NaN,horizontal,horizontal,horizontal,horizontal,vertical,none
1d,6,100220,2,2,66,20,F,NA,constant,homogeneous,4,present,0.60194206237793,1,vertical,vertical,1,0.635293436050415,red,2,1,1051.86052685176,639.890788585259,760.109211414741,851.86052685176,760.109211414741,851.86052685176,1051.86052685176,639.890788585259,839.890788585259,348.13947314824,548.13947314824,560.109211414741,NaN,NaN,NaN,NaN,0,4,0,0,NaN,NaN,horizontal,vertical,horizontal,vertical,none,none
1d,6,100220,2,3,67,20,F,NA,constant,homogeneous,3,absent,0.486523151397705,1,horizontal,horizontal,1,1.02352123260498,red,1,NaN,716.980120613425,841.107236777826,NaN,NaN,716.980120613425,841.107236777826,1050.31493177915,551.343706178981,632.704947607421,407.549057043193,NaN,NaN,NaN,NaN,NaN,NaN,4,0,0,NaN,NaN,NaN,horizontal,horizontal,vertical,none,none,none
1d,6,100220,2,4,68,20,F,NA,constant,homogeneous,5,absent,0.584815979003906,1,vertical,vertical,1,0.623528957366943,red,3,NaN,973.909581815937,413.504806087112,NaN,NaN,768.923317431687,853.099268668537,1031.10848569435,707.767656743878,973.909581815937,413.504806087112,676.373546837184,376.971974679454,549.685068220846,648.656293821019,NaN,NaN,0,0,4,0,0,NaN,vertical,horizontal,vertical,horizontal,horizontal,none
1d,6,100220,2,5,69,20,F,NA,constant,homogeneous,5,absent,0.726642847061157,1,horizontal,horizontal,1,1.09410810470581,red,3,NaN,953.462830903772,396.34794493794,NaN,NaN,795.549636358493,854.96116226488,1041.10723677783,683.019879386575,953.462830903772,396.34794493794,653.738008730483,391.116228706307,556.142287229426,674.554784704298,NaN,NaN,0,0,4,0,0,NaN,vertical,horizontal,horizontal,horizontal,horizontal,none
1d,6,100220,2,6,70,20,F,NA,constant,homogeneous,5,absent,0.734477996826172,1,horizontal,horizontal,1,1.07057914733887,red,4,NaN,576.971974679454,476.373546837184,NaN,NaN,907.767656743878,831.108485694346,1053.09926866854,568.923317431687,848.656293821019,349.685068220846,576.971974679454,476.373546837184,613.504806087112,773.909581815937,NaN,NaN,0,0,0,4,0,NaN,vertical,vertical,horizontal,horizontal,vertical,none
1d,6,100220,2,7,71,20,F,NA,constant,homogeneous,4,absent,0.598198890686035,1,horizontal,horizontal,1,0.835289573669434,red,4,NaN,576.971974679454,476.373546837184,NaN,NaN,676.373546837184,823.028025320546,1023.02802532055,723.626453162816,923.626453162816,376.971974679454,576.971974679454,476.373546837184,NaN,NaN,NaN,NaN,0,0,0,4,NaN,NaN,vertical,horizontal,vertical,horizontal,none,none
1d,6,100220,2,8,72,20,F,NA,constant,homogeneous,4,present,0.563033103942871,1,vertical,vertical,1,0.635293436050415,red,3,4,760.109211414741,348.13947314824,548.13947314824,639.890788585259,839.890788585259,851.86052685176,1051.86052685176,560.109211414741,760.109211414741,348.13947314824,548.13947314824,639.890788585259,NaN,NaN,NaN,NaN,0,0,4,0,NaN,NaN,vertical,vertical,vertical,vertical,none,none
1d,6,100220,2,9,73,20,F,NA,constant,homogeneous,5,present,0.499382972717285,1,vertical,vertical,1,0.858818531036377,red,4,3,591.116228706307,453.738008730483,874.554784704298,356.142287229426,883.019879386575,841.107236777826,1054.96116226488,595.549636358493,874.554784704298,356.142287229426,591.116228706307,453.738008730483,596.34794493794,753.462830903772,NaN,NaN,0,0,0,4,0,NaN,vertical,vertical,horizontal,vertical,horizontal,none
1d,6,100220,2,10,74,20,F,NA,constant,homogeneous,5,present,0.448122024536133,1,horizontal,horizontal,1,0.729409265518189,red,4,3,712.784863451954,360.378381699593,1000.94274216971,443.006323791957,729.712474266665,845.121732464271,1011.40458100154,742.594190385041,1000.94274216971,443.006323791957,712.784863451954,360.378381699593,545.155339110131,608.899371659138,NaN,NaN,0,0,0,4,0,NaN,horizontal,vertical,horizontal,horizontal,vertical,none
1d,6,100220,2,11,75,20,F,NA,constant,homogeneous,4,absent,0.444791793823242,0,vertical,horizontal,1,0.776467180252075,red,3,NaN,883.019879386575,358.892763222174,NaN,NaN,716.980120613425,841.107236777826,1041.10723677783,683.019879386575,883.019879386575,358.892763222174,558.892763222174,516.980120613425,NaN,NaN,NaN,NaN,0,0,4,0,NaN,NaN,vertical,horizontal,vertical,vertical,none,none
1d,6,100220,2,12,76,20,F,NA,constant,homogeneous,3,absent,0.819523096084595,1,vertical,vertical,1,0.682351350784302,red,3,NaN,546.39691668109,573.345241866748,NaN,NaN,903.717843984329,832.954091698863,949.885239334581,393.700666434388,546.39691668109,573.345241866748,NaN,NaN,NaN,NaN,NaN,NaN,0,0,4,NaN,NaN,NaN,horizontal,vertical,vertical,none,none,none
1d,6,100220,2,13,77,20,F,NA,constant,homogeneous,4,absent,0.993670225143433,1,horizontal,horizontal,1,1.08234362602234,red,3,NaN,619.68777079743,419.68777079743,NaN,NaN,980.31222920257,780.31222920257,980.31222920257,419.68777079743,619.68777079743,419.68777079743,619.68777079743,780.31222920257,NaN,NaN,NaN,NaN,0,0,4,0,NaN,NaN,horizontal,vertical,horizontal,vertical,none,none
1d,6,100220,2,14,78,20,F,NA,constant,homogeneous,3,present,0.739425897598267,1,vertical,vertical,1,1.09410810470581,red,1,3,989.501930496736,770.628304621509,557.480588344736,678.799333565612,989.501930496736,770.628304621509,853.017481158529,350.57236181288,557.480588344736,678.799333565612,NaN,NaN,NaN,NaN,NaN,NaN,4,0,0,NaN,NaN,NaN,vertical,vertical,vertical,none,none,none
1d,6,100220,2,15,79,20,F,NA,constant,homogeneous,5,present,0.658167839050293,1,vertical,vertical,1,0.988227796554565,red,1,5,891.383827134052,838.063008756786,601.827779828472,760.476699717708,891.383827134052,838.063008756786,1054.65053136242,586.654331158049,865.998856501143,353.688914296288,586.139005173917,461.117046071168,601.827779828472,760.476699717708,NaN,NaN,4,0,0,0,0,NaN,vertical,vertical,vertical,vertical,vertical,none
1d,6,100220,2,16,80,20,F,NA,constant,homogeneous,6,present,0.525129079818726,1,vertical,vertical,1,0.870583009719849,red,2,4,927.5,820.836477965032,927.5,379.163522034968,672.5,820.836477965032,927.5,820.836477965032,1055,600,927.5,379.163522034968,672.5,379.163522034968,545,600,0,4,0,0,0,0,horizontal,vertical,vertical,horizontal,vertical,vertical
1d,6,100220,2,17,81,20,F,NA,constant,homogeneous,3,absent,0.626725912094116,1,vertical,vertical,1,0.95293436050415,red,2,NaN,1051.86052685176,560.109211414741,NaN,NaN,708.616172865948,838.063008756786,1051.86052685176,560.109211414741,639.523300282292,401.827779828472,NaN,NaN,NaN,NaN,NaN,NaN,0,4,0,NaN,NaN,NaN,horizontal,vertical,horizontal,none,none,none
1d,6,100220,2,18,82,20,F,NA,constant,homogeneous,6,absent,0.651213884353638,1,horizontal,horizontal,1,0.988227796554565,red,3,NaN,927.5,379.163522034968,NaN,NaN,927.5,820.836477965032,1055,600,927.5,379.163522034968,672.5,379.163522034968,545,600,672.5,820.836477965032,0,0,4,0,0,0,vertical,horizontal,horizontal,horizontal,horizontal,horizontal
1d,6,100220,2,19,83,20,F,NA,constant,homogeneous,3,absent,0.963789939880371,0,vertical,horizontal,1,0.964698839187622,red,1,NaN,738.309916622085,847.425410200379,NaN,NaN,738.309916622085,847.425410200379,1045.12173246427,529.712474266665,616.568350913644,422.862115532956,NaN,NaN,NaN,NaN,NaN,NaN,4,0,0,NaN,NaN,NaN,vertical,horizontal,horizontal,none,none,none
1d,6,100220,2,20,84,20,F,NA,constant,homogeneous,6,present,0.7308349609375,1,vertical,vertical,1,0.776467180252075,red,2,4,1025.15163617903,719.715248510402,791.100628340862,345.155339110131,808.899371659138,854.844660889869,1025.15163617903,719.715248510402,1016.25226451989,464.870587620533,791.100628340862,345.155339110131,574.848363820974,480.284751489598,583.747735480111,735.129412379467,0,4,0,0,0,0,horizontal,vertical,horizontal,vertical,vertical,horizontal
1d,6,100220,2,21,85,20,F,NA,constant,homogeneous,4,present,0.784114837646484,1,vertical,vertical,1,0.917640924453735,red,1,3,664.870587620533,816.252264519889,935.129412379467,383.747735480111,664.870587620533,816.252264519889,1016.25226451989,735.129412379467,935.129412379467,383.747735480111,583.747735480111,464.870587620533,NaN,NaN,NaN,NaN,4,0,0,0,NaN,NaN,vertical,vertical,vertical,vertical,none,none
1d,6,100220,2,22,86,20,F,NA,constant,homogeneous,6,present,0.559221982955933,1,vertical,vertical,1,0.764702701568604,red,4,3,861.690083377915,352.574589799621,1045.12173246427,529.712474266665,738.309916622085,847.425410200379,983.431649086356,777.137884467044,1045.12173246427,529.712474266665,861.690083377915,352.574589799621,616.568350913644,422.862115532956,554.878267535729,670.287525733335,0,0,0,4,0,0,vertical,horizontal,horizontal,vertical,horizontal,vertical
1d,6,100220,2,23,87,20,F,NA,constant,homogeneous,3,present,0.631791114807129,1,vertical,vertical,1,1.0588146686554,red,3,2,725.445215295702,356.142287229426,1048.46436652023,657.362518857686,626.090418184063,786.495193912888,1048.46436652023,657.362518857686,725.445215295702,356.142287229426,NaN,NaN,NaN,NaN,NaN,NaN,0,0,4,NaN,NaN,NaN,vertical,horizontal,vertical,none,none,none
1d,6,100220,2,24,88,20,F,NA,constant,homogeneous,3,present,0.422453880310059,1,vertical,vertical,1,1.09410810470581,red,2,1,938.882953928832,386.139005173917,915.767577433584,827.206663668034,915.767577433584,827.206663668034,938.882953928832,386.139005173917,545.349468637584,586.654331158049,NaN,NaN,NaN,NaN,NaN,NaN,0,4,0,NaN,NaN,NaN,vertical,vertical,horizontal,none,none,none
1d,6,100220,2,25,89,20,F,NA,constant,homogeneous,6,present,0.897356033325195,1,horizontal,horizontal,1,0.705880308151245,red,2,5,1016.25226451989,735.129412379467,583.747735480111,464.870587620533,791.100628340862,854.844660889869,1016.25226451989,735.129412379467,1025.15163617903,480.284751489598,808.899371659138,345.155339110131,583.747735480111,464.870587620533,574.848363820974,719.715248510402,0,4,0,0,0,0,horizontal,horizontal,vertical,vertical,vertical,vertical
1d,6,100220,2,26,90,20,F,NA,constant,homogeneous,6,absent,0.799317836761475,1,vertical,vertical,1,0.999992275238037,red,1,NaN,680.284751489598,825.151636179026,NaN,NaN,680.284751489598,825.151636179026,935.129412379467,816.252264519889,1054.84466088987,591.100628340862,919.715248510402,374.848363820974,664.870587620533,383.747735480111,545.155339110131,608.899371659138,4,0,0,0,0,0,vertical,vertical,vertical,horizontal,horizontal,horizontal
1d,6,100220,2,27,91,20,F,NA,constant,homogeneous,6,absent,1.02894711494446,1,horizontal,horizontal,1,0.67058687210083,red,3,NaN,1013.86099482608,461.117046071168,NaN,NaN,813.345668841951,854.650531362416,1027.20666366803,715.767577433584,1013.86099482608,461.117046071168,786.654331158049,345.349468637584,572.793336331966,484.232422566416,586.139005173917,738.882953928832,0,0,4,0,0,0,horizontal,vertical,horizontal,vertical,vertical,horizontal
1d,6,100220,2,28,92,20,F,NA,constant,homogeneous,6,absent,0.616051912307739,1,vertical,vertical,1,0.705880308151245,red,3,NaN,1053.60308331891,573.345241866748,NaN,NaN,696.282156015671,832.954091698863,949.885239334581,806.299333565612,1053.60308331891,573.345241866748,903.717843984329,367.045908301137,650.114760665419,393.700666434388,546.39691668109,626.654758133252,0,0,4,0,0,0,vertical,horizontal,vertical,vertical,horizontal,vertical
1d,6,100220,2,29,93,20,F,NA,constant,homogeneous,6,absent,0.818702936172485,1,horizontal,horizontal,1,0.917640924453735,red,6,NaN,586.139005173917,738.882953928832,NaN,NaN,813.345668841951,854.650531362416,1027.20666366803,715.767577433584,1013.86099482608,461.117046071168,786.654331158049,345.349468637584,572.793336331966,484.232422566416,586.139005173917,738.882953928832,0,0,0,0,0,4,vertical,horizontal,vertical,vertical,vertical,horizontal
1d,6,100220,2,30,94,20,F,NA,constant,homogeneous,3,absent,0.645156860351562,1,vertical,vertical,1,1.09410810470581,red,1,NaN,907.767656743878,831.108485694346,NaN,NaN,907.767656743878,831.108485694346,946.261991269517,391.116228706307,545.970351986605,577.775285599347,NaN,NaN,NaN,NaN,NaN,NaN,4,0,0,NaN,NaN,NaN,vertical,vertical,horizontal,none,none,none
1d,6,100220,2,31,95,20,F,NA,constant,homogeneous,5,absent,0.758152961730957,1,vertical,vertical,1,0.999992275238037,red,2,NaN,1051.12597701811,644.280285305067,NaN,NaN,835.489140744817,852.518357529101,1051.12597701811,644.280285305067,919.715248510402,374.848363820974,622.862115532956,416.568350913644,570.807518193712,711.784642431215,NaN,NaN,0,4,0,0,0,NaN,horizontal,vertical,vertical,vertical,vertical,none
1d,6,100220,2,32,96,20,F,NA,constant,homogeneous,4,absent,0.815505981445312,1,horizontal,horizontal,1,0.905876445770264,red,1,NaN,721.200666434388,842.519411655264,NaN,NaN,721.200666434388,842.519411655264,1042.51941165526,678.799333565612,878.799333565612,357.480588344736,557.480588344736,521.200666434388,NaN,NaN,NaN,NaN,4,0,0,0,NaN,NaN,horizontal,vertical,vertical,vertical,none,none
1d,6,100220,2,33,97,20,F,NA,constant,homogeneous,4,present,0.594610929489136,1,horizontal,horizontal,1,0.917640924453735,red,4,2,545,600,1055,600,800,855,1055,600,800,345,545,600,NaN,NaN,NaN,NaN,0,0,0,4,NaN,NaN,horizontal,vertical,vertical,horizontal,none,none
1d,6,100220,2,34,98,20,F,NA,constant,homogeneous,6,absent,0.582676887512207,1,vertical,vertical,1,1.01175675392151,red,2,NaN,1041.10723677783,683.019879386575,NaN,NaN,848.656293821019,850.314931779154,1041.10723677783,683.019879386575,992.450942956807,432.704947607421,751.343706178981,349.685068220846,558.892763222174,516.980120613425,607.549057043193,767.295052392579,0,4,0,0,0,0,vertical,vertical,vertical,vertical,vertical,vertical
1d,6,100220,2,35,99,20,F,NA,constant,homogeneous,3,absent,0.608197927474976,1,horizontal,horizontal,1,0.682351350784302,red,3,NaN,768.923317431687,346.900731331463,NaN,NaN,596.34794493794,753.462830903772,1034.72873763037,699.636437764765,768.923317431687,346.900731331463,NaN,NaN,NaN,NaN,NaN,NaN,0,0,4,NaN,NaN,NaN,horizontal,vertical,horizontal,none,none,none
1d,6,100220,2,36,100,20,F,NA,constant,homogeneous,4,present,0.740850925445557,1,horizontal,horizontal,1,0.823525094985962,red,1,3,773.345241866748,853.60308331891,826.654758133252,346.39691668109,773.345241866748,853.60308331891,1053.60308331891,626.654758133252,826.654758133252,346.39691668109,546.39691668109,573.345241866748,NaN,NaN,NaN,NaN,4,0,0,0,NaN,NaN,horizontal,horizontal,horizontal,horizontal,none,none
1d,6,100220,2,37,101,20,F,NA,constant,homogeneous,5,absent,0.648486137390137,1,horizontal,horizontal,1,1.03528571128845,red,4,NaN,579.163522034968,472.5,NaN,NaN,903.717843984329,832.954091698863,1053.60308331891,573.345241866748,853.017481158529,350.57236181288,579.163522034968,472.5,610.498069503264,770.628304621509,NaN,NaN,0,0,0,4,0,NaN,vertical,vertical,horizontal,horizontal,vertical,none
1d,6,100220,2,38,102,20,F,NA,constant,homogeneous,5,present,0.781507968902588,1,horizontal,horizontal,1,0.776467180252075,red,3,2,1041.10723677783,516.980120613425,953.462830903772,803.65205506206,653.738008730483,808.883771293693,953.462830903772,803.65205506206,1041.10723677783,516.980120613425,795.549636358493,345.03883773512,556.142287229426,525.445215295702,NaN,NaN,0,0,4,0,0,NaN,horizontal,horizontal,horizontal,vertical,vertical,none
1d,6,100220,2,39,103,20,F,NA,constant,homogeneous,5,absent,0.608821153640747,1,vertical,vertical,1,0.776467180252075,red,5,NaN,549.685068220846,648.656293821019,NaN,NaN,768.923317431687,853.099268668537,1031.10848569435,707.767656743878,973.909581815937,413.504806087112,676.373546837184,376.971974679454,549.685068220846,648.656293821019,NaN,NaN,0,0,0,0,4,NaN,horizontal,horizontal,horizontal,vertical,vertical,none
1d,6,100220,2,40,104,20,F,NA,constant,homogeneous,5,present,0.996117115020752,1,horizontal,horizontal,1,0.95293436050415,red,3,1,935.129412379467,383.747735480111,817.787900804752,854.378832816255,817.787900804752,854.378832816255,1047.42541020038,661.690083377915,935.129412379467,383.747735480111,636.089159529932,404.658667004661,563.568117085469,695.524681321058,NaN,NaN,0,0,4,0,0,NaN,horizontal,vertical,horizontal,vertical,vertical,none
1d,6,100220,2,41,105,20,F,NA,constant,homogeneous,4,absent,0.582942962646484,1,vertical,vertical,1,0.74117374420166,red,2,NaN,1046.31108570371,534.001143498857,NaN,NaN,865.998856501143,846.311085703712,1046.31108570371,534.001143498857,734.001143498857,353.688914296288,553.688914296288,665.998856501143,NaN,NaN,NaN,NaN,0,4,0,0,NaN,NaN,horizontal,vertical,vertical,horizontal,none,none
1d,6,100220,2,42,106,20,F,NA,constant,homogeneous,5,absent,0.681644916534424,1,horizontal,horizontal,1,0.929405403137207,red,2,NaN,1047.42541020038,661.690083377915,NaN,NaN,817.787900804752,854.378832816255,1047.42541020038,661.690083377915,935.129412379467,383.747735480111,636.089159529932,404.658667004661,563.568117085469,695.524681321058,NaN,NaN,0,4,0,0,0,NaN,horizontal,horizontal,vertical,horizontal,horizontal,none
1d,6,100220,2,43,107,20,F,NA,constant,homogeneous,6,present,0.724556922912598,0,horizontal,vertical,1,1.07057914733887,red,1,2,835.489140744817,852.518357529101,1036.43188291453,695.524681321058,835.489140744817,852.518357529101,1036.43188291453,695.524681321058,1000.94274216971,443.006323791957,764.510859255183,347.4816424709,563.568117085469,504.475318678942,599.057257830286,756.993676208043,4,0,0,0,0,0,horizontal,vertical,horizontal,vertical,vertical,vertical
1d,6,100220,2,44,108,20,F,NA,constant,homogeneous,5,absent,0.887583017349243,1,vertical,vertical,1,1.01175675392151,red,2,NaN,1039.62161830041,687.215136548046,NaN,NaN,791.100628340862,854.844660889869,1039.62161830041,687.215136548046,956.993676208043,399.057257830286,657.405809614959,388.595418998464,554.878267535729,670.287525733335,NaN,NaN,0,4,0,0,0,NaN,vertical,vertical,horizontal,horizontal,horizontal,none
1d,6,100220,2,45,109,20,F,NA,constant,homogeneous,6,present,0.602906942367554,1,vertical,vertical,1,0.67058687210083,red,2,1,938.882953928832,813.860994826083,684.232422566416,827.206663668034,684.232422566416,827.206663668034,938.882953928832,813.860994826083,1054.65053136242,586.654331158049,915.767577433584,372.793336331966,661.117046071168,386.139005173917,545.349468637584,613.345668841951,0,4,0,0,0,0,vertical,vertical,vertical,horizontal,vertical,horizontal
1d,6,100220,2,46,110,20,F,NA,constant,homogeneous,4,absent,0.503211975097656,1,vertical,vertical,1,0.799996137619019,red,1,NaN,848.656293821019,850.314931779154,NaN,NaN,848.656293821019,850.314931779154,1050.31493177915,551.343706178981,751.343706178981,349.685068220846,549.685068220846,648.656293821019,NaN,NaN,NaN,NaN,4,0,0,0,NaN,NaN,vertical,horizontal,vertical,horizontal,none,none
1d,6,100220,2,47,111,20,F,NA,constant,homogeneous,6,absent,0.446284055709839,1,vertical,vertical,1,0.847054052352905,red,2,NaN,956.993676208043,800.942742169714,NaN,NaN,704.475318678942,836.431882914531,956.993676208043,800.942742169714,1052.5183575291,564.510859255183,895.524681321058,363.568117085469,643.006323791957,399.057257830286,547.481642470899,635.489140744817,0,4,0,0,0,0,horizontal,vertical,vertical,vertical,horizontal,vertical
1d,6,100220,2,48,112,20,F,NA,constant,homogeneous,6,absent,0.601157903671265,1,horizontal,horizontal,1,1.08234362602234,red,5,NaN,576.971974679454,476.373546837184,NaN,NaN,804.450363641507,854.96116226488,1023.02802532055,723.626453162816,1018.57766167904,468.665290897936,795.549636358493,345.03883773512,576.971974679454,476.373546837184,581.422338320961,731.334709102064,0,0,0,0,4,0,horizontal,vertical,horizontal,vertical,horizontal,horizontal
1d,6,100220,2,49,113,20,F,NA,constant,homogeneous,4,absent,0.952313899993896,1,vertical,vertical,1,0.941169881820679,red,1,NaN,831.076682568313,853.099268668537,NaN,NaN,831.076682568313,853.099268668537,1053.09926866854,568.923317431687,768.923317431687,346.900731331463,546.900731331463,631.076682568313,NaN,NaN,NaN,NaN,4,0,0,0,NaN,NaN,vertical,vertical,vertical,vertical,none,none
1d,6,100220,2,50,114,20,F,NA,constant,homogeneous,6,present,0.791558027267456,1,horizontal,horizontal,1,0.988227796554565,red,5,2,632.704947607421,407.549057043193,967.295052392579,792.450942956807,716.980120613425,841.107236777826,967.295052392579,792.450942956807,1050.31493177915,551.343706178981,883.019879386575,358.892763222174,632.704947607421,407.549057043193,549.685068220846,648.656293821019,0,0,0,0,4,0,horizontal,horizontal,horizontal,vertical,horizontal,horizontal
1d,6,100220,2,51,115,20,F,NA,constant,homogeneous,4,present,0.696667909622192,1,vertical,vertical,1,1.07057914733887,red,2,3,1043.85771277057,674.554784704298,874.554784704298,356.142287229426,725.445215295702,843.857712770574,1043.85771277057,674.554784704298,874.554784704298,356.142287229426,556.142287229426,525.445215295702,NaN,NaN,NaN,NaN,0,4,0,0,NaN,NaN,horizontal,vertical,vertical,horizontal,none,none
1d,6,100220,2,52,116,20,F,NA,constant,homogeneous,3,present,0.66978907585144,1,horizontal,horizontal,1,0.95293436050415,red,2,1,1025.15163617903,719.715248510402,583.747735480111,735.129412379467,583.747735480111,735.129412379467,1025.15163617903,719.715248510402,791.100628340862,345.155339110131,NaN,NaN,NaN,NaN,NaN,NaN,0,4,0,NaN,NaN,NaN,horizontal,horizontal,horizontal,none,none,none
1d,6,100220,2,53,117,20,F,NA,constant,homogeneous,3,present,0.644056081771851,1,vertical,vertical,1,1.02352123260498,red,1,3,887.215136548046,839.621618300407,548.874022981887,555.719714694933,887.215136548046,839.621618300407,963.910840470068,404.658667004661,548.874022981887,555.719714694933,NaN,NaN,NaN,NaN,NaN,NaN,4,0,0,NaN,NaN,NaN,vertical,vertical,horizontal,none,none,none
1d,6,100220,2,54,118,20,F,NA,constant,homogeneous,4,present,0.65398097038269,1,horizontal,horizontal,1,0.847054052352905,red,3,1,657.405809614959,388.595418998464,942.594190385041,811.404581001536,942.594190385041,811.404581001536,1011.40458100154,457.40580961496,657.405809614959,388.595418998464,588.595418998464,742.594190385041,NaN,NaN,NaN,NaN,0,0,4,0,NaN,NaN,horizontal,horizontal,horizontal,vertical,none,none
1d,6,100220,2,55,119,20,F,NA,constant,homogeneous,5,present,1.17552614212036,1,horizontal,horizontal,1,1.01175675392151,red,5,4,547.481642470899,635.489140744817,688.215357568785,370.807518193712,755.719714694933,851.125977018113,1025.15163617903,719.715248510402,983.431649086356,422.862115532956,688.215357568785,370.807518193712,547.481642470899,635.489140744817,NaN,NaN,0,0,0,0,4,NaN,vertical,horizontal,horizontal,vertical,horizontal,none
1d,6,100220,2,56,120,20,F,NA,constant,homogeneous,6,present,0.811776161193848,1,horizontal,horizontal,1,0.823525094985962,red,5,2,664.870587620533,383.747735480111,935.129412379467,816.252264519889,680.284751489598,825.151636179026,935.129412379467,816.252264519889,1054.84466088987,591.100628340862,919.715248510402,374.848363820974,664.870587620533,383.747735480111,545.155339110131,608.899371659138,0,0,0,0,4,0,vertical,vertical,horizontal,horizontal,horizontal,horizontal
1d,6,100220,2,57,121,20,F,NA,constant,homogeneous,3,absent,0.538649082183838,1,horizontal,horizontal,1,0.905876445770264,red,3,NaN,607.549057043193,432.704947607421,NaN,NaN,751.343706178981,850.314931779154,1041.10723677783,516.980120613425,607.549057043193,432.704947607421,NaN,NaN,NaN,NaN,NaN,NaN,0,0,4,NaN,NaN,NaN,vertical,horizontal,horizontal,none,none,none
1d,6,100220,2,58,122,20,F,NA,constant,homogeneous,3,present,0.793075084686279,1,horizontal,horizontal,1,0.788231658935547,red,1,3,583.747735480111,735.129412379467,791.100628340862,345.155339110131,583.747735480111,735.129412379467,1025.15163617903,719.715248510402,791.100628340862,345.155339110131,NaN,NaN,NaN,NaN,NaN,NaN,4,0,0,NaN,NaN,NaN,horizontal,horizontal,vertical,none,none,none
1d,6,100220,2,59,123,20,F,NA,constant,homogeneous,4,present,0.589818000793457,1,horizontal,horizontal,1,0.635293436050415,red,1,2,653.738008730483,808.883771293693,1008.88377129369,746.261991269517,653.738008730483,808.883771293693,1008.88377129369,746.261991269517,946.261991269517,391.116228706307,591.116228706307,453.738008730483,NaN,NaN,NaN,NaN,4,0,0,0,NaN,NaN,horizontal,vertical,vertical,horizontal,none,none
1d,6,100220,2,60,124,20,F,NA,constant,homogeneous,3,absent,0.4788658618927,1,horizontal,horizontal,1,0.647057914733887,red,1,NaN,953.462830903772,803.65205506206,NaN,NaN,953.462830903772,803.65205506206,899.636437764765,365.271262369628,546.900731331463,631.076682568313,NaN,NaN,NaN,NaN,NaN,NaN,4,0,0,NaN,NaN,NaN,horizontal,horizontal,vertical,none,none,none
1d,6,100220,2,61,125,20,F,NA,constant,homogeneous,4,absent,1.14132714271545,1,horizontal,horizontal,1,0.647057914733887,red,3,NaN,919.715248510402,374.848363820974,NaN,NaN,680.284751489598,825.151636179026,1025.15163617903,719.715248510402,919.715248510402,374.848363820974,574.848363820974,480.284751489598,NaN,NaN,NaN,NaN,0,0,4,0,NaN,NaN,vertical,horizontal,horizontal,horizontal,none,none
1d,6,100220,2,62,126,20,F,NA,constant,homogeneous,5,present,0.622382164001465,0,vertical,horizontal,1,1.09410810470581,red,1,2,853.017481158529,849.42763818712,1053.60308331891,626.654758133252,853.017481158529,849.42763818712,1053.60308331891,626.654758133252,903.717843984329,367.045908301137,610.498069503264,429.371695378491,579.163522034968,727.5,NaN,NaN,4,0,0,0,0,NaN,vertical,vertical,vertical,vertical,vertical,none
1d,6,100220,2,63,127,20,F,NA,constant,homogeneous,3,present,0.590451002120972,1,horizontal,horizontal,1,0.964698839187622,red,2,1,998.172220171528,439.523300282291,839.890788585259,851.86052685176,839.890788585259,851.86052685176,998.172220171528,439.523300282291,561.936991243214,508.616172865948,NaN,NaN,NaN,NaN,NaN,NaN,0,4,0,NaN,NaN,NaN,horizontal,horizontal,vertical,none,none,none
1d,6,100220,2,64,128,20,F,NA,constant,homogeneous,3,present,0.461556196212769,1,horizontal,horizontal,1,0.95293436050415,red,1,3,657.405809614959,811.404581001536,688.215357568785,370.807518193712,657.405809614959,811.404581001536,1054.37883281626,617.787900804752,688.215357568785,370.807518193712,NaN,NaN,NaN,NaN,NaN,NaN,4,0,0,NaN,NaN,NaN,horizontal,vertical,vertical,none,none,none
1d,6,100220,3,1,129,20,F,NA,constant,homogeneous,3,absent,0.698091983795166,1,vertical,vertical,1,1.07057914733887,red,1,NaN,591.116228706307,746.261991269517,NaN,NaN,591.116228706307,746.261991269517,1031.10848569435,707.767656743878,777.775285599347,345.970351986605,NaN,NaN,NaN,NaN,NaN,NaN,4,0,0,NaN,NaN,NaN,vertical,vertical,horizontal,none,none,none
1d,6,100220,3,2,130,20,F,NA,constant,homogeneous,3,present,0.453569889068604,1,horizontal,horizontal,1,1.0588146686554,red,1,2,586.139005173917,738.882953928832,1027.20666366803,715.767577433584,586.139005173917,738.882953928832,1027.20666366803,715.767577433584,786.654331158049,345.349468637584,NaN,NaN,NaN,NaN,NaN,NaN,4,0,0,NaN,NaN,NaN,horizontal,vertical,vertical,none,none,none
1d,6,100220,3,3,131,20,F,NA,constant,homogeneous,5,present,0.604497909545898,1,horizontal,horizontal,1,0.894111967086792,red,3,5,942.594190385041,388.595418998464,560.378381699593,687.215136548046,808.899371659138,854.844660889869,1045.12173246427,670.287525733335,942.594190385041,388.595418998464,643.006323791957,399.057257830286,560.378381699593,687.215136548046,NaN,NaN,0,0,4,0,0,NaN,horizontal,horizontal,horizontal,vertical,horizontal,none
1d,6,100220,3,4,132,20,F,NA,constant,homogeneous,5,present,0.582881927490234,1,vertical,vertical,1,0.705880308151245,red,5,3,616.568350913644,777.137884467044,844.280285305067,348.874022981887,911.784642431215,829.192481806288,1052.5183575291,564.510859255183,844.280285305067,348.874022981887,574.848363820974,480.284751489598,616.568350913644,777.137884467044,NaN,NaN,0,0,0,0,4,NaN,vertical,horizontal,vertical,vertical,vertical,none
1d,6,100220,3,5,133,20,F,NA,constant,homogeneous,5,absent,0.55932092666626,1,vertical,vertical,1,0.635293436050415,red,5,NaN,629.371695378491,789.501930496736,NaN,NaN,927.5,820.836477965032,1049.42763818712,546.982518841471,826.654758133252,346.39691668109,567.045908301137,496.282156015671,629.371695378491,789.501930496736,NaN,NaN,0,0,0,0,4,NaN,horizontal,horizontal,horizontal,horizontal,vertical,none
1d,6,100220,3,6,134,20,F,NA,constant,homogeneous,4,absent,0.588072061538696,1,vertical,vertical,1,0.67058687210083,red,1,NaN,938.882953928832,813.860994826083,NaN,NaN,938.882953928832,813.860994826083,1013.86099482608,461.117046071168,661.117046071168,386.139005173917,586.139005173917,738.882953928832,NaN,NaN,NaN,NaN,4,0,0,0,NaN,NaN,vertical,horizontal,vertical,horizontal,none,none
1d,6,100220,3,7,135,20,F,NA,constant,homogeneous,3,present,0.475648164749146,1,vertical,vertical,1,0.776467180252075,red,2,3,857.362518857686,351.535633479765,556.142287229426,674.554784704298,986.495193912888,773.909581815937,857.362518857686,351.535633479765,556.142287229426,674.554784704298,NaN,NaN,NaN,NaN,NaN,NaN,0,4,0,NaN,NaN,NaN,vertical,vertical,vertical,none,none,none
1d,6,100220,3,8,136,20,F,NA,constant,homogeneous,4,absent,0.578322172164917,1,horizontal,horizontal,1,0.647057914733887,red,3,NaN,639.523300282292,401.827779828472,NaN,NaN,960.476699717708,798.172220171528,998.172220171528,439.523300282291,639.523300282292,401.827779828472,601.827779828472,760.476699717708,NaN,NaN,NaN,NaN,0,0,4,0,NaN,NaN,horizontal,vertical,horizontal,horizontal,none,none
1d,6,100220,3,9,137,20,F,NA,constant,homogeneous,6,absent,0.642238855361938,1,vertical,vertical,1,0.611764478683472,red,5,NaN,545.621167183745,582.212099195248,NaN,NaN,911.784642431215,829.192481806288,1054.37883281626,617.787900804752,942.594190385041,388.595418998464,688.215357568785,370.807518193712,545.621167183745,582.212099195248,657.405809614959,811.404581001536,0,0,0,0,4,0,vertical,horizontal,horizontal,horizontal,vertical,vertical
1d,6,100220,3,10,138,20,F,NA,constant,homogeneous,3,absent,0.507277965545654,1,horizontal,horizontal,1,0.799996137619019,red,1,NaN,773.345241866748,853.60308331891,NaN,NaN,773.345241866748,853.60308331891,1032.95409169886,496.282156015671,593.700666434388,450.114760665419,NaN,NaN,NaN,NaN,NaN,NaN,4,0,0,NaN,NaN,NaN,horizontal,vertical,horizontal,none,none,none
1d,6,100220,3,11,139,20,F,NA,constant,homogeneous,6,present,0.66871190071106,1,vertical,vertical,1,0.95293436050415,red,5,6,557.480588344736,521.200666434388,610.498069503264,770.628304621509,853.017481158529,849.42763818712,1042.51941165526,678.799333565612,989.501930496736,429.371695378491,746.982518841471,350.57236181288,557.480588344736,521.200666434388,610.498069503264,770.628304621509,0,0,0,0,4,0,vertical,horizontal,vertical,vertical,vertical,vertical
1d,6,100220,3,12,140,20,F,NA,constant,homogeneous,3,present,0.667278051376343,1,vertical,vertical,1,0.658822393417358,red,2,1,1031.10848569435,492.232343256122,777.775285599347,854.029648013395,777.775285599347,854.029648013395,1031.10848569435,492.232343256122,591.116228706307,453.738008730483,NaN,NaN,NaN,NaN,NaN,NaN,0,4,0,NaN,NaN,NaN,horizontal,vertical,vertical,none,none,none
1d,6,100220,3,13,141,20,F,NA,constant,homogeneous,6,absent,0.662673950195312,1,vertical,vertical,1,0.694115829467773,red,6,NaN,581.422338320961,731.334709102064,NaN,NaN,804.450363641507,854.96116226488,1023.02802532055,723.626453162816,1018.57766167904,468.665290897936,795.549636358493,345.03883773512,576.971974679454,476.373546837184,581.422338320961,731.334709102064,0,0,0,0,0,4,horizontal,horizontal,vertical,vertical,vertical,vertical
1d,6,100220,3,14,142,20,F,NA,constant,homogeneous,4,present,0.612861156463623,1,vertical,vertical,1,0.835289573669434,red,1,4,923.626453162816,823.028025320546,576.971974679454,723.626453162816,923.626453162816,823.028025320546,1023.02802532055,476.373546837184,676.373546837184,376.971974679454,576.971974679454,723.626453162816,NaN,NaN,NaN,NaN,4,0,0,0,NaN,NaN,vertical,horizontal,horizontal,horizontal,none,none
1d,6,100220,3,15,143,20,F,NA,constant,homogeneous,5,absent,0.660593032836914,1,horizontal,horizontal,1,0.976463317871094,red,1,NaN,738.309916622085,847.425410200379,NaN,NaN,738.309916622085,847.425410200379,1016.25226451989,735.129412379467,995.341332995339,436.089159529932,704.475318678942,363.568117085469,545.621167183745,617.787900804752,NaN,NaN,4,0,0,0,0,NaN,horizontal,vertical,vertical,horizontal,horizontal,none
1d,6,100220,3,16,144,20,F,NA,constant,homogeneous,4,absent,0.56377911567688,1,vertical,vertical,1,0.658822393417358,red,1,NaN,865.998856501143,846.311085703712,NaN,NaN,865.998856501143,846.311085703712,1046.31108570371,534.001143498857,734.001143498857,353.688914296288,553.688914296288,665.998856501143,NaN,NaN,NaN,NaN,4,0,0,0,NaN,NaN,vertical,horizontal,horizontal,vertical,none,none
1d,6,100220,3,17,145,20,F,NA,constant,homogeneous,5,present,0.457163095474243,1,vertical,vertical,1,0.905876445770264,red,1,4,878.799333565612,842.519411655264,593.700666434388,450.114760665419,878.799333565612,842.519411655264,1055,600,878.799333565612,357.480588344736,593.700666434388,450.114760665419,593.700666434388,749.885239334581,NaN,NaN,4,0,0,0,0,NaN,vertical,vertical,horizontal,vertical,vertical,none
1d,6,100220,3,18,146,20,F,NA,constant,homogeneous,5,present,0.604574203491211,1,horizontal,horizontal,1,0.705880308151245,red,5,4,546.900731331463,568.923317431687,751.343706178981,349.685068220846,692.232343256122,831.108485694346,986.495193912888,773.909581815937,1023.02802532055,476.373546837184,751.343706178981,349.685068220846,546.900731331463,568.923317431687,NaN,NaN,0,0,0,0,4,NaN,horizontal,vertical,horizontal,horizontal,horizontal,none
1d,6,100220,3,19,147,20,F,NA,constant,homogeneous,4,present,0.585572004318237,1,horizontal,horizontal,1,0.847054052352905,red,1,2,661.117046071168,813.860994826083,1013.86099482608,738.882953928832,661.117046071168,813.860994826083,1013.86099482608,738.882953928832,938.882953928832,386.139005173917,586.139005173917,461.117046071168,NaN,NaN,NaN,NaN,4,0,0,0,NaN,NaN,horizontal,horizontal,horizontal,horizontal,none,none
1d,6,100220,3,20,148,20,F,NA,constant,homogeneous,4,present,0.556149005889893,1,vertical,vertical,1,0.929405403137207,red,3,4,684.232422566416,372.793336331966,572.793336331966,715.767577433584,915.767577433584,827.206663668034,1027.20666366803,484.232422566416,684.232422566416,372.793336331966,572.793336331966,715.767577433584,NaN,NaN,NaN,NaN,0,0,4,0,NaN,NaN,vertical,horizontal,vertical,vertical,none,none
1d,6,100220,3,21,149,20,F,NA,constant,homogeneous,4,present,0.635236978530884,1,vertical,vertical,1,0.988227796554565,red,2,3,1008.88377129369,453.738008730483,653.738008730483,391.116228706307,946.261991269517,808.883771293693,1008.88377129369,453.738008730483,653.738008730483,391.116228706307,591.116228706307,746.261991269517,NaN,NaN,NaN,NaN,0,4,0,0,NaN,NaN,vertical,vertical,horizontal,horizontal,none,none
1d,6,100220,3,22,150,20,F,NA,constant,homogeneous,6,absent,0.568854808807373,1,vertical,vertical,1,1.03528571128845,red,4,NaN,839.890788585259,348.13947314824,NaN,NaN,760.109211414741,851.86052685176,998.172220171528,760.476699717708,1038.06300875679,508.616172865948,839.890788585259,348.13947314824,601.827779828472,439.523300282291,561.936991243214,691.383827134052,0,0,0,4,0,0,vertical,horizontal,horizontal,vertical,horizontal,vertical
1d,6,100220,3,23,151,20,F,NA,constant,homogeneous,4,present,0.577887058258057,1,horizontal,horizontal,1,0.870583009719849,red,2,4,1020.83647796503,472.5,579.163522034968,727.5,927.5,820.836477965032,1020.83647796503,472.5,672.5,379.163522034968,579.163522034968,727.5,NaN,NaN,NaN,NaN,0,4,0,0,NaN,NaN,horizontal,horizontal,horizontal,vertical,none,none
1d,6,100220,3,24,152,20,F,NA,constant,homogeneous,4,absent,1.16633701324463,1,horizontal,horizontal,1,0.823525094985962,red,3,NaN,831.076682568313,346.900731331463,NaN,NaN,768.923317431687,853.099268668537,1053.09926866854,631.076682568313,831.076682568313,346.900731331463,546.900731331463,568.923317431687,NaN,NaN,NaN,NaN,0,0,4,0,NaN,NaN,vertical,horizontal,horizontal,vertical,none,none
1d,6,100220,3,25,153,20,F,NA,constant,homogeneous,3,absent,0.607980012893677,1,vertical,vertical,1,0.917640924453735,red,3,NaN,742.637481142314,351.535633479765,NaN,NaN,613.504806087112,773.909581815937,1043.85771277057,674.554784704298,742.637481142314,351.535633479765,NaN,NaN,NaN,NaN,NaN,NaN,0,0,4,NaN,NaN,NaN,horizontal,horizontal,vertical,none,none,none
1d,6,100220,3,26,154,20,F,NA,constant,homogeneous,6,absent,0.554475069046021,1,horizontal,horizontal,1,0.705880308151245,red,4,NaN,734.001143498857,353.688914296288,NaN,NaN,865.998856501143,846.311085703712,1046.31108570371,665.998856501143,980.31222920257,419.68777079743,734.001143498857,353.688914296288,553.688914296288,534.001143498857,619.68777079743,780.31222920257,0,0,0,4,0,0,vertical,vertical,vertical,horizontal,vertical,vertical
1d,6,100220,3,27,155,20,F,NA,constant,homogeneous,4,absent,0.653723955154419,1,horizontal,horizontal,1,0.999992275238037,red,2,NaN,986.495193912888,426.090418184063,NaN,NaN,973.909581815937,786.495193912888,986.495193912888,426.090418184063,626.090418184063,413.504806087112,613.504806087112,773.909581815937,NaN,NaN,NaN,NaN,0,4,0,0,NaN,NaN,vertical,horizontal,horizontal,horizontal,none,none
1d,6,100220,3,28,156,20,F,NA,constant,homogeneous,3,present,0.794571876525879,1,horizontal,horizontal,1,0.976463317871094,red,2,3,1051.12597701811,555.719714694933,636.089159529932,404.658667004661,712.784863451954,839.621618300407,1051.12597701811,555.719714694933,636.089159529932,404.658667004661,NaN,NaN,NaN,NaN,NaN,NaN,0,4,0,NaN,NaN,NaN,vertical,horizontal,vertical,none,none,none
1d,6,100220,3,29,157,20,F,NA,constant,homogeneous,5,present,0.755898952484131,1,horizontal,horizontal,1,0.870583009719849,red,4,2,708.616172865948,361.936991243214,1013.86099482608,738.882953928832,734.001143498857,846.311085703712,1013.86099482608,738.882953928832,998.172220171528,439.523300282291,708.616172865948,361.936991243214,545.349468637584,613.345668841951,NaN,NaN,0,0,0,4,0,NaN,vertical,horizontal,vertical,horizontal,horizontal,none
1d,6,100220,3,30,158,20,F,NA,constant,homogeneous,5,absent,0.785238981246948,1,vertical,vertical,1,0.694115829467773,red,5,NaN,551.535633479765,657.362518857686,NaN,NaN,777.775285599347,854.029648013395,1034.72873763037,699.636437764765,967.295052392579,407.549057043193,668.665290897936,381.422338320961,551.535633479765,657.362518857686,NaN,NaN,0,0,0,0,4,NaN,vertical,vertical,horizontal,horizontal,vertical,none
1d,6,100220,3,31,159,20,F,NA,constant,homogeneous,3,present,0.709897041320801,1,horizontal,horizontal,1,0.647057914733887,red,3,1,546.900731331463,568.923317431687,899.636437764765,834.728737630372,899.636437764765,834.728737630372,953.462830903772,396.34794493794,546.900731331463,568.923317431687,NaN,NaN,NaN,NaN,NaN,NaN,0,0,4,NaN,NaN,NaN,horizontal,vertical,horizontal,none,none,none
1d,6,100220,3,32,160,20,F,NA,constant,homogeneous,6,present,0.650240898132324,1,vertical,vertical,1,0.894111967086792,red,2,3,1003.65205506206,753.462830903772,1034.72873763037,500.363562235235,768.923317431687,853.099268668537,1003.65205506206,753.462830903772,1034.72873763037,500.363562235235,831.076682568313,346.900731331463,596.34794493794,446.537169096228,565.271262369628,699.636437764765,0,4,0,0,0,0,vertical,vertical,horizontal,horizontal,horizontal,horizontal
1d,6,100220,3,33,161,20,F,NA,constant,homogeneous,5,present,0.712839126586914,1,vertical,vertical,1,0.67058687210083,red,5,2,557.480588344736,678.799333565612,1042.51941165526,678.799333565612,800,855,1042.51941165526,678.799333565612,949.885239334581,393.700666434388,650.114760665419,393.700666434388,557.480588344736,678.799333565612,NaN,NaN,0,0,0,0,4,NaN,horizontal,vertical,vertical,vertical,vertical,none
1d,6,100220,3,34,162,20,F,NA,constant,homogeneous,3,present,0.580106973648071,1,vertical,vertical,1,1.04705018997192,red,1,2,782.212099195248,854.378832816255,1029.19248180629,488.215357568785,782.212099195248,854.378832816255,1029.19248180629,488.215357568785,588.595418998464,457.40580961496,NaN,NaN,NaN,NaN,NaN,NaN,4,0,0,NaN,NaN,NaN,vertical,vertical,vertical,none,none,none
1d,6,100220,3,35,163,20,F,NA,constant,homogeneous,5,absent,0.477579116821289,1,horizontal,horizontal,1,1.08234362602234,red,5,NaN,557.480588344736,521.200666434388,NaN,NaN,650.114760665419,806.299333565612,949.885239334581,806.299333565612,1042.51941165526,521.200666434388,800,345,557.480588344736,521.200666434388,NaN,NaN,0,0,0,0,4,NaN,horizontal,vertical,vertical,horizontal,horizontal,none
1d,6,100220,3,36,164,20,F,NA,constant,homogeneous,6,absent,0.469193935394287,0,vertical,horizontal,1,1.09410810470581,red,5,NaN,601.827779828472,439.523300282291,NaN,NaN,760.109211414741,851.86052685176,998.172220171528,760.476699717708,1038.06300875679,508.616172865948,839.890788585259,348.13947314824,601.827779828472,439.523300282291,561.936991243214,691.383827134052,0,0,0,0,4,0,vertical,horizontal,horizontal,horizontal,vertical,vertical
1d,6,100220,3,37,165,20,F,NA,constant,homogeneous,6,present,0.816436052322388,1,horizontal,horizontal,1,0.894111967086792,red,6,1,622.862115532956,783.431649086356,870.287525733335,845.121732464271,870.287525733335,845.121732464271,1047.42541020038,661.690083377915,977.137884467044,416.568350913644,729.712474266665,354.878267535729,552.574589799621,538.309916622085,622.862115532956,783.431649086356,0,0,0,0,0,4,horizontal,vertical,horizontal,horizontal,horizontal,horizontal
1d,6,100220,3,38,166,20,F,NA,constant,homogeneous,5,absent,0.557705879211426,1,vertical,vertical,1,0.635293436050415,red,2,NaN,1054.96116226488,604.450363641507,NaN,NaN,874.554784704298,843.857712770574,1054.96116226488,604.450363641507,883.019879386575,358.892763222174,596.34794493794,446.537169096228,591.116228706307,746.261991269517,NaN,NaN,0,4,0,0,0,NaN,horizontal,vertical,horizontal,vertical,horizontal,none
1d,6,100220,3,39,167,20,F,NA,constant,homogeneous,3,present,0.488487958908081,1,vertical,vertical,1,0.976463317871094,red,2,3,883.019879386575,358.892763222174,549.685068220846,648.656293821019,967.295052392579,792.450942956807,883.019879386575,358.892763222174,549.685068220846,648.656293821019,NaN,NaN,NaN,NaN,NaN,NaN,0,4,0,NaN,NaN,NaN,vertical,vertical,vertical,none,none,none
1d,6,100220,3,40,168,20,F,NA,constant,homogeneous,6,present,0.57497501373291,0,vertical,horizontal,1,0.81176061630249,red,5,1,646.537169096228,396.34794493794,700.363562235235,834.728737630372,700.363562235235,834.728737630372,953.462830903772,803.65205506206,1053.09926866854,568.923317431687,899.636437764765,365.271262369628,646.537169096228,396.34794493794,546.900731331463,631.076682568313,0,0,0,0,4,0,horizontal,vertical,horizontal,horizontal,vertical,horizontal
1d,6,100220,3,41,169,20,F,NA,constant,homogeneous,6,present,0.563056945800781,1,vertical,vertical,1,1.03528571128845,red,3,6,1047.42541020038,538.309916622085,552.574589799621,661.690083377915,729.712474266665,845.121732464271,977.137884467044,783.431649086356,1047.42541020038,538.309916622085,870.287525733335,354.878267535729,622.862115532956,416.568350913644,552.574589799621,661.690083377915,0,0,4,0,0,0,vertical,horizontal,vertical,horizontal,vertical,vertical
1d,6,100220,3,42,170,20,F,NA,constant,homogeneous,5,present,0.622298002243042,1,horizontal,horizontal,1,0.799996137619019,red,4,1,607.549057043193,432.704947607421,857.362518857686,848.464366520235,857.362518857686,848.464366520235,1054.0296480134,622.224714400653,899.636437764765,365.271262369628,607.549057043193,432.704947607421,581.422338320961,731.334709102064,NaN,NaN,0,0,0,4,0,NaN,vertical,vertical,horizontal,horizontal,horizontal,none
1d,6,100220,3,43,171,20,F,NA,constant,homogeneous,3,absent,0.688760995864868,1,vertical,vertical,1,0.894111967086792,red,2,NaN,1054.0296480134,622.224714400653,NaN,NaN,653.738008730483,808.883771293693,1054.0296480134,622.224714400653,692.232343256122,368.891514305654,NaN,NaN,NaN,NaN,NaN,NaN,0,4,0,NaN,NaN,NaN,horizontal,vertical,vertical,none,none,none
1d,6,100220,3,44,172,20,F,NA,constant,homogeneous,4,absent,1.02102994918823,0,vertical,horizontal,1,0.717644786834717,red,1,NaN,960.476699717708,798.172220171528,NaN,NaN,960.476699717708,798.172220171528,998.172220171528,439.523300282291,639.523300282292,401.827779828472,601.827779828472,760.476699717708,NaN,NaN,NaN,NaN,4,0,0,0,NaN,NaN,vertical,horizontal,vertical,horizontal,none,none
1d,6,100220,3,45,173,20,F,NA,constant,homogeneous,6,present,0.833338022232056,0,horizontal,vertical,1,0.988227796554565,red,5,2,563.568117085469,504.475318678942,1036.43188291453,695.524681321058,835.489140744817,852.518357529101,1036.43188291453,695.524681321058,1000.94274216971,443.006323791957,764.510859255183,347.4816424709,563.568117085469,504.475318678942,599.057257830286,756.993676208043,0,0,0,0,4,0,vertical,vertical,vertical,horizontal,horizontal,horizontal
1d,6,100220,3,46,174,20,F,NA,constant,homogeneous,3,absent,0.951961994171143,1,horizontal,horizontal,1,1.09410810470581,red,1,NaN,786.654331158049,854.650531362416,NaN,NaN,786.654331158049,854.650531362416,1027.20666366803,484.232422566416,586.139005173917,461.117046071168,NaN,NaN,NaN,NaN,NaN,NaN,4,0,0,NaN,NaN,NaN,horizontal,horizontal,vertical,none,none,none
1d,6,100220,3,47,175,20,F,NA,constant,homogeneous,3,absent,0.616343975067139,1,horizontal,horizontal,1,0.858818531036377,red,3,NaN,545.03883773512,595.549636358493,NaN,NaN,923.626453162816,823.028025320546,931.334709102064,381.422338320961,545.03883773512,595.549636358493,NaN,NaN,NaN,NaN,NaN,NaN,0,0,4,NaN,NaN,NaN,horizontal,vertical,horizontal,none,none,none
1d,6,100220,3,48,176,20,F,NA,constant,homogeneous,4,present,0.675374984741211,1,vertical,vertical,1,0.917640924453735,red,4,3,546.900731331463,568.923317431687,831.076682568313,346.900731331463,768.923317431687,853.099268668537,1053.09926866854,631.076682568313,831.076682568313,346.900731331463,546.900731331463,568.923317431687,NaN,NaN,NaN,NaN,0,0,0,4,NaN,NaN,horizontal,vertical,horizontal,vertical,none,none
1d,6,100220,3,49,177,20,F,NA,constant,homogeneous,6,present,0.95032000541687,1,horizontal,horizontal,1,0.658822393417358,red,1,4,822.224714400653,854.029648013395,777.775285599347,345.970351986605,822.224714400653,854.029648013395,1031.10848569435,707.767656743878,1008.88377129369,453.738008730483,777.775285599347,345.970351986605,568.891514305654,492.232343256122,591.116228706307,746.261991269517,4,0,0,0,0,0,horizontal,horizontal,horizontal,horizontal,vertical,vertical
1d,6,100220,3,50,178,20,F,NA,constant,homogeneous,3,absent,0.668195009231567,1,vertical,vertical,1,0.752938222885132,red,2,NaN,956.993676208043,399.057257830286,NaN,NaN,895.524681321058,836.431882914531,956.993676208043,399.057257830286,547.481642470899,564.510859255183,NaN,NaN,NaN,NaN,NaN,NaN,0,4,0,NaN,NaN,NaN,horizontal,vertical,vertical,none,none,none
1d,6,100220,3,51,179,20,F,NA,constant,homogeneous,5,absent,0.685302972793579,1,vertical,vertical,1,0.976463317871094,red,5,NaN,560.378381699593,687.215136548046,NaN,NaN,808.899371659138,854.844660889869,1045.12173246427,670.287525733335,942.594190385041,388.595418998464,643.006323791957,399.057257830286,560.378381699593,687.215136548046,NaN,NaN,0,0,0,0,4,NaN,vertical,vertical,vertical,horizontal,vertical,none
1d,6,100220,3,52,180,20,F,NA,constant,homogeneous,3,present,0.523672819137573,1,horizontal,horizontal,1,1.03528571128845,red,1,2,579.163522034968,727.5,1020.83647796503,727.5,579.163522034968,727.5,1020.83647796503,727.5,800,345,NaN,NaN,NaN,NaN,NaN,NaN,4,0,0,NaN,NaN,NaN,horizontal,vertical,vertical,none,none,none
1d,6,100220,3,53,181,20,F,NA,constant,homogeneous,6,absent,0.761080980300903,1,horizontal,horizontal,1,0.929405403137207,red,4,NaN,907.767656743878,368.891514305654,NaN,NaN,692.232343256122,831.108485694346,946.261991269517,808.883771293693,1054.0296480134,577.775285599347,907.767656743878,368.891514305654,653.738008730483,391.116228706307,545.970351986605,622.224714400653,0,0,0,4,0,0,horizontal,horizontal,horizontal,horizontal,horizontal,vertical
1d,6,100220,3,54,182,20,F,NA,constant,homogeneous,6,absent,0.620015859603882,1,horizontal,horizontal,1,0.976463317871094,red,1,NaN,692.232343256122,831.108485694346,NaN,NaN,692.232343256122,831.108485694346,946.261991269517,808.883771293693,1054.0296480134,577.775285599347,907.767656743878,368.891514305654,653.738008730483,391.116228706307,545.970351986605,622.224714400653,4,0,0,0,0,0,horizontal,horizontal,vertical,vertical,vertical,horizontal
1d,6,100220,3,55,183,20,F,NA,constant,homogeneous,5,present,0.732893943786621,1,vertical,vertical,1,0.623528957366943,red,1,3,800,855,949.885239334581,393.700666434388,800,855,1042.51941165526,678.799333565612,949.885239334581,393.700666434388,650.114760665419,393.700666434388,557.480588344736,678.799333565612,NaN,NaN,4,0,0,0,0,NaN,vertical,horizontal,vertical,horizontal,horizontal,none
1d,6,100220,3,56,184,20,F,NA,constant,homogeneous,6,absent,0.689728021621704,1,horizontal,horizontal,1,1.09410810470581,red,3,NaN,992.450942956807,432.704947607421,NaN,NaN,848.656293821019,850.314931779154,1041.10723677783,683.019879386575,992.450942956807,432.704947607421,751.343706178981,349.685068220846,558.892763222174,516.980120613425,607.549057043193,767.295052392579,0,0,4,0,0,0,vertical,horizontal,horizontal,horizontal,horizontal,horizontal
1d,6,100220,3,57,185,20,F,NA,constant,homogeneous,4,present,0.613713979721069,1,horizontal,horizontal,1,1.09410810470581,red,4,2,561.936991243214,691.383827134052,1038.06300875679,508.616172865948,891.383827134052,838.063008756786,1038.06300875679,508.616172865948,708.616172865948,361.936991243214,561.936991243214,691.383827134052,NaN,NaN,NaN,NaN,0,0,0,4,NaN,NaN,vertical,horizontal,vertical,horizontal,none,none
1d,6,100220,3,58,186,20,F,NA,constant,homogeneous,4,absent,1.24883794784546,1,horizontal,horizontal,1,0.74117374420166,red,3,NaN,650.114760665419,393.700666434388,NaN,NaN,949.885239334581,806.299333565612,1006.29933356561,450.114760665419,650.114760665419,393.700666434388,593.700666434388,749.885239334581,NaN,NaN,NaN,NaN,0,0,4,0,NaN,NaN,horizontal,vertical,horizontal,horizontal,none,none
1d,6,100220,3,59,187,20,F,NA,constant,homogeneous,3,absent,0.701585054397583,1,horizontal,horizontal,1,0.776467180252075,red,2,NaN,1047.42541020038,538.309916622085,NaN,NaN,729.712474266665,845.121732464271,1047.42541020038,538.309916622085,622.862115532956,416.568350913644,NaN,NaN,NaN,NaN,NaN,NaN,0,4,0,NaN,NaN,NaN,horizontal,horizontal,vertical,none,none,none
1d,6,100220,3,60,188,20,F,NA,constant,homogeneous,4,absent,0.684690952301025,0,vertical,horizontal,1,0.847054052352905,red,1,NaN,844.280285305067,851.125977018113,NaN,NaN,844.280285305067,851.125977018113,1051.12597701811,555.719714694933,755.719714694933,348.874022981887,548.874022981887,644.280285305067,NaN,NaN,NaN,NaN,4,0,0,0,NaN,NaN,vertical,horizontal,horizontal,horizontal,none,none
1d,6,100220,3,61,189,20,F,NA,constant,homogeneous,5,absent,0.725719928741455,1,horizontal,horizontal,1,0.752938222885132,red,4,NaN,601.827779828472,439.523300282291,NaN,NaN,865.998856501143,846.311085703712,1054.65053136242,613.345668841951,891.383827134052,361.936991243214,601.827779828472,439.523300282291,586.139005173917,738.882953928832,NaN,NaN,0,0,0,4,0,NaN,horizontal,horizontal,vertical,horizontal,horizontal,none
1d,6,100220,3,62,190,20,F,NA,constant,homogeneous,5,absent,0.541318893432617,1,horizontal,horizontal,1,0.847054052352905,red,5,NaN,552.574589799621,538.309916622085,NaN,NaN,664.870587620533,816.252264519889,963.910840470068,795.341332995339,1036.43188291453,504.475318678942,782.212099195248,345.621167183745,552.574589799621,538.309916622085,NaN,NaN,0,0,0,0,4,NaN,vertical,horizontal,vertical,vertical,horizontal,none
1d,6,100220,3,63,191,20,F,NA,constant,homogeneous,4,present,0.51388692855835,1,horizontal,horizontal,1,0.88234748840332,red,4,1,583.747735480111,464.870587620533,664.870587620533,816.252264519889,664.870587620533,816.252264519889,1016.25226451989,735.129412379467,935.129412379467,383.747735480111,583.747735480111,464.870587620533,NaN,NaN,NaN,NaN,0,0,0,4,NaN,NaN,horizontal,horizontal,vertical,horizontal,none,none
1d,6,100220,3,64,192,20,F,NA,constant,homogeneous,6,present,0.798657894134521,1,horizontal,horizontal,1,0.717644786834717,red,4,2,725.445215295702,356.142287229426,1048.46436652023,657.362518857686,874.554784704298,843.857712770574,1048.46436652023,657.362518857686,973.909581815937,413.504806087112,725.445215295702,356.142287229426,551.535633479765,542.637481142314,626.090418184063,786.495193912888,0,0,0,4,0,0,horizontal,vertical,vertical,horizontal,vertical,vertical
1d,6,100220,4,1,193,20,F,NA,constant,homogeneous,3,present,1.83283090591431,1,horizontal,horizontal,1,0.847054052352905,red,2,3,1034.72873763037,500.363562235235,596.34794493794,446.537169096228,768.923317431687,853.099268668537,1034.72873763037,500.363562235235,596.34794493794,446.537169096228,NaN,NaN,NaN,NaN,NaN,NaN,0,4,0,NaN,NaN,NaN,horizontal,horizontal,vertical,none,none,none
1d,6,100220,4,2,194,20,F,NA,constant,homogeneous,3,present,0.597268104553223,1,vertical,vertical,1,0.776467180252075,red,3,2,547.481642470899,564.510859255183,956.993676208043,399.057257830286,895.524681321058,836.431882914531,956.993676208043,399.057257830286,547.481642470899,564.510859255183,NaN,NaN,NaN,NaN,NaN,NaN,0,0,4,NaN,NaN,NaN,vertical,vertical,vertical,none,none,none
1d,6,100220,4,3,195,20,F,NA,constant,homogeneous,3,present,0.648919105529785,1,horizontal,horizontal,1,0.788231658935547,red,1,2,579.163522034968,727.5,1020.83647796503,727.5,579.163522034968,727.5,1020.83647796503,727.5,800,345,NaN,NaN,NaN,NaN,NaN,NaN,4,0,0,NaN,NaN,NaN,horizontal,horizontal,vertical,none,none,none
1d,6,100220,4,4,196,20,F,NA,constant,homogeneous,4,present,0.657096862792969,1,vertical,vertical,1,0.74117374420166,red,3,4,878.799333565612,357.480588344736,557.480588344736,521.200666434388,721.200666434388,842.519411655264,1042.51941165526,678.799333565612,878.799333565612,357.480588344736,557.480588344736,521.200666434388,NaN,NaN,NaN,NaN,0,0,4,0,NaN,NaN,vertical,vertical,vertical,vertical,none,none
1d,6,100220,4,5,197,20,F,NA,constant,homogeneous,3,absent,0.563486099243164,0,vertical,horizontal,1,0.858818531036377,red,3,NaN,570.807518193712,711.784642431215,NaN,NaN,1011.40458100154,742.594190385041,817.787900804752,345.621167183745,570.807518193712,711.784642431215,NaN,NaN,NaN,NaN,NaN,NaN,0,0,4,NaN,NaN,NaN,horizontal,horizontal,vertical,none,none,none
1d,6,100220,4,6,198,20,F,NA,constant,homogeneous,3,absent,0.496185064315796,0,vertical,horizontal,1,0.67058687210083,red,3,NaN,579.163522034968,472.5,NaN,NaN,800,855,1020.83647796503,472.5,579.163522034968,472.5,NaN,NaN,NaN,NaN,NaN,NaN,0,0,4,NaN,NaN,NaN,vertical,horizontal,vertical,none,none,none
1d,6,100220,4,7,199,20,F,NA,constant,homogeneous,6,present,0.705132007598877,1,vertical,vertical,1,0.74117374420166,red,2,3,1050.31493177915,648.656293821019,967.295052392579,407.549057043193,883.019879386575,841.107236777826,1050.31493177915,648.656293821019,967.295052392579,407.549057043193,716.980120613425,358.892763222174,549.685068220846,551.343706178981,632.704947607421,792.450942956807,0,4,0,0,0,0,vertical,vertical,horizontal,horizontal,horizontal,vertical
1d,6,100220,4,8,200,20,F,NA,constant,homogeneous,4,absent,0.715897083282471,1,horizontal,horizontal,1,0.823525094985962,red,2,NaN,980.31222920257,419.68777079743,NaN,NaN,980.31222920257,780.31222920257,980.31222920257,419.68777079743,619.68777079743,419.68777079743,619.68777079743,780.31222920257,NaN,NaN,NaN,NaN,0,4,0,0,NaN,NaN,vertical,horizontal,vertical,horizontal,none,none
1d,6,100220,4,9,201,20,F,NA,constant,homogeneous,3,absent,0.555821895599365,1,vertical,vertical,1,0.658822393417358,red,2,NaN,953.462830903772,396.34794493794,NaN,NaN,899.636437764765,834.728737630372,953.462830903772,396.34794493794,546.900731331463,568.923317431687,NaN,NaN,NaN,NaN,NaN,NaN,0,4,0,NaN,NaN,NaN,horizontal,vertical,horizontal,none,none,none
1d,6,100220,4,10,202,20,F,NA,constant,homogeneous,4,absent,0.743531942367554,1,vertical,vertical,1,1.02352123260498,red,2,NaN,1054.0296480134,577.775285599347,NaN,NaN,822.224714400653,854.029648013395,1054.0296480134,577.775285599347,777.775285599347,345.970351986605,545.970351986605,622.224714400653,NaN,NaN,NaN,NaN,0,4,0,0,NaN,NaN,vertical,vertical,vertical,horizontal,none,none
1d,6,100220,4,11,203,20,F,NA,constant,homogeneous,5,present,0.588366031646729,1,horizontal,horizontal,1,0.682351350784302,red,3,4,870.287525733335,354.878267535729,588.595418998464,457.40580961496,887.215136548046,839.621618300407,1054.84466088987,591.100628340862,870.287525733335,354.878267535729,588.595418998464,457.40580961496,599.057257830286,756.993676208043,NaN,NaN,0,0,4,0,0,NaN,horizontal,vertical,horizontal,horizontal,vertical,none
1d,6,100220,4,12,204,20,F,NA,constant,homogeneous,3,absent,0.868632078170776,0,horizontal,vertical,1,1.02352123260498,red,2,NaN,1054.0296480134,622.224714400653,NaN,NaN,653.738008730483,808.883771293693,1054.0296480134,622.224714400653,692.232343256122,368.891514305654,NaN,NaN,NaN,NaN,NaN,NaN,0,4,0,NaN,NaN,NaN,vertical,horizontal,horizontal,none,none,none
1d,6,100220,4,13,205,20,F,NA,constant,homogeneous,6,present,0.695034027099609,1,horizontal,horizontal,1,1.04705018997192,red,3,6,967.295052392579,407.549057043193,632.704947607421,792.450942956807,883.019879386575,841.107236777826,1050.31493177915,648.656293821019,967.295052392579,407.549057043193,716.980120613425,358.892763222174,549.685068220846,551.343706178981,632.704947607421,792.450942956807,0,0,4,0,0,0,horizontal,horizontal,horizontal,horizontal,vertical,vertical
1d,6,100220,4,14,206,20,F,NA,constant,homogeneous,4,present,0.679377794265747,1,horizontal,horizontal,1,0.894111967086792,red,2,1,1053.60308331891,573.345241866748,826.654758133252,853.60308331891,826.654758133252,853.60308331891,1053.60308331891,573.345241866748,773.345241866748,346.39691668109,546.39691668109,626.654758133252,NaN,NaN,NaN,NaN,0,4,0,0,NaN,NaN,horizontal,horizontal,horizontal,vertical,none,none
1d,6,100220,4,15,207,20,F,NA,constant,homogeneous,6,absent,0.523372888565063,1,horizontal,horizontal,1,0.929405403137207,red,3,NaN,1053.60308331891,573.345241866748,NaN,NaN,696.282156015671,832.954091698863,949.885239334581,806.299333565612,1053.60308331891,573.345241866748,903.717843984329,367.045908301137,650.114760665419,393.700666434388,546.39691668109,626.654758133252,0,0,4,0,0,0,vertical,horizontal,horizontal,horizontal,vertical,vertical
1d,6,100220,4,16,208,20,F,NA,constant,homogeneous,5,present,0.932031154632568,1,horizontal,horizontal,1,1.09410810470581,red,3,4,960.476699717708,401.827779828472,661.117046071168,386.139005173917,786.654331158049,854.650531362416,1038.06300875679,691.383827134052,960.476699717708,401.827779828472,661.117046071168,386.139005173917,553.688914296288,665.998856501143,NaN,NaN,0,0,4,0,0,NaN,horizontal,horizontal,horizontal,horizontal,vertical,none
1d,6,100220,4,17,209,20,F,NA,constant,homogeneous,6,present,0.784976959228516,1,horizontal,horizontal,1,0.917640924453735,red,2,4,1038.06300875679,691.383827134052,760.109211414741,348.13947314824,839.890788585259,851.86052685176,1038.06300875679,691.383827134052,998.172220171528,439.523300282291,760.109211414741,348.13947314824,561.936991243214,508.616172865948,601.827779828472,760.476699717708,0,4,0,0,0,0,horizontal,horizontal,horizontal,vertical,horizontal,vertical
1d,6,100220,4,18,210,20,F,NA,constant,homogeneous,6,absent,0.543292999267578,0,vertical,horizontal,1,0.717644786834717,red,2,NaN,977.137884467044,783.431649086356,NaN,NaN,729.712474266665,845.121732464271,977.137884467044,783.431649086356,1047.42541020038,538.309916622085,870.287525733335,354.878267535729,622.862115532956,416.568350913644,552.574589799621,661.690083377915,0,4,0,0,0,0,vertical,vertical,vertical,vertical,horizontal,vertical
1d,6,100220,4,19,211,20,F,NA,constant,homogeneous,3,absent,0.588449001312256,1,horizontal,horizontal,1,0.905876445770264,red,3,NaN,643.006323791957,399.057257830286,NaN,NaN,704.475318678942,836.431882914531,1052.5183575291,564.510859255183,643.006323791957,399.057257830286,NaN,NaN,NaN,NaN,NaN,NaN,0,0,4,NaN,NaN,NaN,vertical,horizontal,horizontal,none,none,none
1d,6,100220,4,20,212,20,F,NA,constant,homogeneous,6,absent,0.730119943618774,1,vertical,vertical,1,0.682351350784302,red,5,NaN,547.481642470899,564.510859255183,NaN,NaN,895.524681321058,836.431882914531,1052.5183575291,635.489140744817,956.993676208043,399.057257830286,704.475318678942,363.568117085469,547.481642470899,564.510859255183,643.006323791957,800.942742169714,0,0,0,0,4,0,vertical,vertical,vertical,horizontal,vertical,horizontal
1d,6,100220,4,21,213,20,F,NA,constant,homogeneous,3,absent,0.55609393119812,1,vertical,vertical,1,0.95293436050415,red,1,NaN,581.422338320961,731.334709102064,NaN,NaN,581.422338320961,731.334709102064,1023.02802532055,723.626453162816,795.549636358493,345.03883773512,NaN,NaN,NaN,NaN,NaN,NaN,4,0,0,NaN,NaN,NaN,vertical,horizontal,vertical,none,none,none
1d,6,100220,4,22,214,20,F,NA,constant,homogeneous,6,absent,0.644062995910645,1,vertical,vertical,1,0.835289573669434,red,3,NaN,1053.60308331891,573.345241866748,NaN,NaN,696.282156015671,832.954091698863,949.885239334581,806.299333565612,1053.60308331891,573.345241866748,903.717843984329,367.045908301137,650.114760665419,393.700666434388,546.39691668109,626.654758133252,0,0,4,0,0,0,horizontal,horizontal,vertical,vertical,vertical,horizontal
1d,6,100220,4,23,215,20,F,NA,constant,homogeneous,5,present,0.663244962692261,1,vertical,vertical,1,0.917640924453735,red,2,4,1036.43188291453,695.524681321058,664.870587620533,383.747735480111,782.212099195248,854.378832816255,1036.43188291453,695.524681321058,963.910840470068,404.658667004661,664.870587620533,383.747735480111,552.574589799621,661.690083377915,NaN,NaN,0,4,0,0,0,NaN,vertical,vertical,horizontal,horizontal,vertical,none
1d,6,100220,4,24,216,20,F,NA,constant,homogeneous,6,present,0.733541011810303,1,horizontal,horizontal,1,1.03528571128845,red,6,2,579.163522034968,727.5,1020.83647796503,727.5,800,855,1020.83647796503,727.5,1020.83647796503,472.5,800,345,579.163522034968,472.5,579.163522034968,727.5,0,0,0,0,0,4,vertical,vertical,horizontal,horizontal,horizontal,horizontal
1d,6,100220,4,25,217,20,F,NA,constant,homogeneous,6,present,0.543943881988525,1,horizontal,horizontal,1,0.776467180252075,red,2,3,935.129412379467,816.252264519889,1054.84466088987,591.100628340862,680.284751489598,825.151636179026,935.129412379467,816.252264519889,1054.84466088987,591.100628340862,919.715248510402,374.848363820974,664.870587620533,383.747735480111,545.155339110131,608.899371659138,0,4,0,0,0,0,horizontal,horizontal,vertical,horizontal,horizontal,horizontal
1d,6,100220,4,26,218,20,F,NA,constant,homogeneous,5,absent,0.630595922470093,1,horizontal,horizontal,1,0.976463317871094,red,2,NaN,1038.06300875679,691.383827134052,NaN,NaN,786.654331158049,854.650531362416,1038.06300875679,691.383827134052,960.476699717708,401.827779828472,661.117046071168,386.139005173917,553.688914296288,665.998856501143,NaN,NaN,0,4,0,0,0,NaN,vertical,horizontal,horizontal,vertical,vertical,none
1d,6,100220,4,27,219,20,F,NA,constant,homogeneous,4,present,0.466867923736572,1,horizontal,horizontal,1,0.776467180252075,red,2,3,1047.42541020038,661.690083377915,861.690083377915,352.574589799621,738.309916622085,847.425410200379,1047.42541020038,661.690083377915,861.690083377915,352.574589799621,552.574589799621,538.309916622085,NaN,NaN,NaN,NaN,0,4,0,0,NaN,NaN,vertical,horizontal,horizontal,horizontal,none,none
1d,6,100220,4,28,220,20,F,NA,constant,homogeneous,4,absent,0.601501226425171,1,vertical,vertical,1,1.0588146686554,red,3,NaN,632.704947607421,407.549057043193,NaN,NaN,967.295052392579,792.450942956807,992.450942956807,432.704947607421,632.704947607421,407.549057043193,607.549057043193,767.295052392579,NaN,NaN,NaN,NaN,0,0,4,0,NaN,NaN,horizontal,vertical,vertical,horizontal,none,none
1d,6,100220,4,29,221,20,F,NA,constant,homogeneous,4,absent,0.711159944534302,1,horizontal,horizontal,1,0.67058687210083,red,2,NaN,980.31222920257,780.31222920257,NaN,NaN,619.68777079743,780.31222920257,980.31222920257,780.31222920257,980.31222920257,419.68777079743,619.68777079743,419.68777079743,NaN,NaN,NaN,NaN,0,4,0,0,NaN,NaN,horizontal,horizontal,horizontal,vertical,none,none
1d,6,100220,4,30,222,20,F,NA,constant,homogeneous,3,present,0.650893211364746,1,vertical,vertical,1,0.67058687210083,red,3,2,558.892763222174,516.980120613425,992.450942956807,432.704947607421,848.656293821019,850.314931779154,992.450942956807,432.704947607421,558.892763222174,516.980120613425,NaN,NaN,NaN,NaN,NaN,NaN,0,0,4,NaN,NaN,NaN,vertical,vertical,vertical,none,none,none
1d,6,100220,4,31,223,20,F,NA,constant,homogeneous,4,absent,0.629369020462036,1,vertical,vertical,1,0.658822393417358,red,1,NaN,661.117046071168,813.860994826083,NaN,NaN,661.117046071168,813.860994826083,1013.86099482608,738.882953928832,938.882953928832,386.139005173917,586.139005173917,461.117046071168,NaN,NaN,NaN,NaN,4,0,0,0,NaN,NaN,vertical,vertical,horizontal,horizontal,none,none
1d,6,100220,4,32,224,20,F,NA,constant,homogeneous,5,absent,0.495054960250854,1,horizontal,horizontal,1,0.858818531036377,red,1,NaN,822.224714400653,854.029648013395,NaN,NaN,822.224714400653,854.029648013395,1048.46436652023,657.362518857686,931.334709102064,381.422338320961,632.704947607421,407.549057043193,565.271262369628,699.636437764765,NaN,NaN,4,0,0,0,0,NaN,horizontal,vertical,vertical,vertical,horizontal,none
1d,6,100220,4,33,225,20,F,NA,constant,homogeneous,3,present,0.56582498550415,1,vertical,vertical,1,0.623528957366943,red,1,2,839.890788585259,851.86052685176,998.172220171528,439.523300282291,839.890788585259,851.86052685176,998.172220171528,439.523300282291,561.936991243214,508.616172865948,NaN,NaN,NaN,NaN,NaN,NaN,4,0,0,NaN,NaN,NaN,vertical,vertical,vertical,none,none,none
1d,6,100220,4,34,226,20,F,NA,constant,homogeneous,4,absent,0.446120023727417,0,vertical,horizontal,1,0.823525094985962,red,1,NaN,629.371695378491,789.501930496736,NaN,NaN,629.371695378491,789.501930496736,989.501930496736,770.628304621509,970.628304621509,410.498069503264,610.498069503264,429.371695378491,NaN,NaN,NaN,NaN,4,0,0,0,NaN,NaN,vertical,horizontal,horizontal,horizontal,none,none
1d,6,100220,4,35,227,20,F,NA,constant,homogeneous,5,absent,0.61342191696167,0,vertical,horizontal,1,0.717644786834717,red,4,NaN,570.807518193712,488.215357568785,NaN,NaN,919.715248510402,825.151636179026,1051.12597701811,555.719714694933,835.489140744817,347.4816424709,570.807518193712,488.215357568785,622.862115532956,783.431649086356,NaN,NaN,0,0,0,4,0,NaN,vertical,horizontal,vertical,vertical,vertical,none
1d,6,100220,4,36,228,20,F,NA,constant,homogeneous,6,absent,0.562114953994751,1,vertical,vertical,1,1.01175675392151,red,4,NaN,895.524681321058,363.568117085469,NaN,NaN,704.475318678942,836.431882914531,956.993676208043,800.942742169714,1052.5183575291,564.510859255183,895.524681321058,363.568117085469,643.006323791957,399.057257830286,547.481642470899,635.489140744817,0,0,0,4,0,0,vertical,horizontal,horizontal,vertical,horizontal,vertical
1d,6,100220,4,37,229,20,F,NA,constant,homogeneous,3,present,0.642265796661377,1,horizontal,horizontal,1,1.03528571128845,red,1,3,581.422338320961,731.334709102064,795.549636358493,345.03883773512,581.422338320961,731.334709102064,1023.02802532055,723.626453162816,795.549636358493,345.03883773512,NaN,NaN,NaN,NaN,NaN,NaN,4,0,0,NaN,NaN,NaN,horizontal,horizontal,vertical,none,none,none
1d,6,100220,4,38,230,20,F,NA,constant,homogeneous,3,absent,0.614023923873901,1,horizontal,horizontal,1,0.74117374420166,red,1,NaN,684.232422566416,827.206663668034,NaN,NaN,684.232422566416,827.206663668034,1054.65053136242,586.654331158049,661.117046071168,386.139005173917,NaN,NaN,NaN,NaN,NaN,NaN,4,0,0,NaN,NaN,NaN,horizontal,vertical,vertical,none,none,none
1d,6,100220,4,39,231,20,F,NA,constant,homogeneous,5,absent,0.636234045028687,1,vertical,vertical,1,1.08234362602234,red,2,NaN,1013.86099482608,738.882953928832,NaN,NaN,734.001143498857,846.311085703712,1013.86099482608,738.882953928832,998.172220171528,439.523300282291,708.616172865948,361.936991243214,545.349468637584,613.345668841951,NaN,NaN,0,4,0,0,0,NaN,vertical,vertical,horizontal,vertical,horizontal,none
1d,6,100220,4,40,232,20,F,NA,constant,homogeneous,3,present,0.573702812194824,1,vertical,vertical,1,0.823525094985962,red,1,2,751.343706178981,850.314931779154,1041.10723677783,516.980120613425,751.343706178981,850.314931779154,1041.10723677783,516.980120613425,607.549057043193,432.704947607421,NaN,NaN,NaN,NaN,NaN,NaN,4,0,0,NaN,NaN,NaN,vertical,vertical,horizontal,none,none,none
1d,6,100220,4,41,233,20,F,NA,constant,homogeneous,4,present,0.837270975112915,1,vertical,vertical,1,0.999992275238037,red,1,4,626.090418184063,786.495193912888,613.504806087112,426.090418184063,626.090418184063,786.495193912888,986.495193912888,773.909581815937,973.909581815937,413.504806087112,613.504806087112,426.090418184063,NaN,NaN,NaN,NaN,4,0,0,0,NaN,NaN,vertical,horizontal,horizontal,vertical,none,none
1d,6,100220,4,42,234,20,F,NA,constant,homogeneous,4,present,0.660515069961548,1,vertical,vertical,1,0.705880308151245,red,2,1,1003.65205506206,446.537169096228,953.462830903772,803.65205506206,953.462830903772,803.65205506206,1003.65205506206,446.537169096228,646.537169096228,396.34794493794,596.34794493794,753.462830903772,NaN,NaN,NaN,NaN,0,4,0,0,NaN,NaN,vertical,vertical,horizontal,vertical,none,none
1d,6,100220,4,43,235,20,F,NA,constant,homogeneous,4,present,1.34599590301514,1,horizontal,horizontal,1,1.01175675392151,red,2,1,1048.46436652023,657.362518857686,742.637481142314,848.464366520235,742.637481142314,848.464366520235,1048.46436652023,657.362518857686,857.362518857686,351.535633479765,551.535633479765,542.637481142314,NaN,NaN,NaN,NaN,0,4,0,0,NaN,NaN,vertical,horizontal,vertical,vertical,none,none
1d,6,100220,4,44,236,20,F,NA,constant,homogeneous,5,present,1.09571003913879,1,vertical,vertical,1,0.929405403137207,red,1,2,822.224714400653,854.029648013395,1048.46436652023,657.362518857686,822.224714400653,854.029648013395,1048.46436652023,657.362518857686,931.334709102064,381.422338320961,632.704947607421,407.549057043193,565.271262369628,699.636437764765,NaN,NaN,4,0,0,0,0,NaN,vertical,vertical,vertical,horizontal,horizontal,none
1d,6,100220,4,45,237,20,F,NA,constant,homogeneous,6,absent,0.803203821182251,1,horizontal,horizontal,1,1.0588146686554,red,4,NaN,813.345668841951,345.349468637584,NaN,NaN,786.654331158049,854.650531362416,1013.86099482608,738.882953928832,1027.20666366803,484.232422566416,813.345668841951,345.349468637584,586.139005173917,461.117046071168,572.793336331966,715.767577433584,0,0,0,4,0,0,horizontal,vertical,horizontal,horizontal,horizontal,horizontal
1d,6,100220,4,46,238,20,F,NA,constant,homogeneous,6,absent,0.819628953933716,1,horizontal,horizontal,1,1.01175675392151,red,3,NaN,1048.46436652023,542.637481142314,NaN,NaN,725.445215295702,843.857712770574,973.909581815937,786.495193912888,1048.46436652023,542.637481142314,874.554784704298,356.142287229426,626.090418184063,413.504806087112,551.535633479765,657.362518857686,0,0,4,0,0,0,horizontal,horizontal,horizontal,vertical,vertical,vertical
1d,6,100220,4,47,239,20,F,NA,constant,homogeneous,4,absent,0.804429054260254,1,horizontal,horizontal,1,0.823525094985962,red,3,NaN,629.371695378491,410.498069503264,NaN,NaN,970.628304621509,789.501930496736,989.501930496736,429.371695378491,629.371695378491,410.498069503264,610.498069503264,770.628304621509,NaN,NaN,NaN,NaN,0,0,4,0,NaN,NaN,vertical,horizontal,horizontal,horizontal,none,none
1d,6,100220,4,48,240,20,F,NA,constant,homogeneous,4,absent,0.888275861740112,1,horizontal,horizontal,1,0.976463317871094,red,1,NaN,980.31222920257,780.31222920257,NaN,NaN,980.31222920257,780.31222920257,980.31222920257,419.68777079743,619.68777079743,419.68777079743,619.68777079743,780.31222920257,NaN,NaN,NaN,NaN,4,0,0,0,NaN,NaN,horizontal,vertical,horizontal,horizontal,none,none
1d,6,100220,4,49,241,20,F,NA,constant,homogeneous,3,present,0.623873949050903,1,horizontal,horizontal,1,1.08234362602234,red,1,2,716.980120613425,841.107236777826,1050.31493177915,551.343706178981,716.980120613425,841.107236777826,1050.31493177915,551.343706178981,632.704947607421,407.549057043193,NaN,NaN,NaN,NaN,NaN,NaN,4,0,0,NaN,NaN,NaN,horizontal,vertical,horizontal,none,none,none
1d,6,100220,4,50,242,20,F,NA,constant,homogeneous,5,present,0.699138879776001,1,vertical,vertical,1,0.729409265518189,red,2,3,1054.37883281626,582.212099195248,861.690083377915,352.574589799621,895.524681321058,836.431882914531,1054.37883281626,582.212099195248,861.690083377915,352.574589799621,583.747735480111,464.870587620533,604.658667004661,763.910840470068,NaN,NaN,0,4,0,0,0,NaN,horizontal,vertical,horizontal,horizontal,vertical,none
1d,6,100220,4,51,243,20,F,NA,constant,homogeneous,3,absent,0.938878059387207,1,horizontal,horizontal,1,1.07057914733887,red,3,NaN,721.200666434388,357.480588344736,NaN,NaN,629.371695378491,789.501930496736,1049.42763818712,653.017481158529,721.200666434388,357.480588344736,NaN,NaN,NaN,NaN,NaN,NaN,0,0,4,NaN,NaN,NaN,vertical,horizontal,horizontal,none,none,none
