experiment,subject,uniqueID,block,trial,trial_cumulative,age,gender,color_cond_blocking,color_history,shape_type,set_size,distractor,rt,acc,target_orient,response_key,response_made,iti,target_color,target_item,distractor_item,target_X,target_Y,distractor_X,distractor_Y,item1_X,item1_Y,item2_X,item2_Y,item3_X,item3_Y,item4_X,item4_Y,item5_X,item5_Y,item6_X,item6_Y,item1_shape,item2_shape,item3_shape,item4_shape,item5_shape,item6_shape,item1_line,item2_line,item3_line,item4_line,item5_line,item6_line
1d,7,100221,1,1,1,26,M,NA,constant,homogeneous,5,absent,0.855724096298218,1,horizontal,horizontal,1,0.788232421875,green,5,NaN,626.090418184063,786.495193912888,NaN,NaN,923.626453162816,823.028025320546,1050.31493177915,551.343706178981,831.076682568313,346.900731331463,568.891514305654,492.232343256122,626.090418184063,786.495193912888,NaN,NaN,0,0,0,0,4,NaN,vertical,vertical,vertical,horizontal,horizontal,none
1d,7,100221,1,2,2,26,M,NA,constant,homogeneous,5,present,0.94964599609375,1,horizontal,horizontal,1,0.858819580078125,green,1,2,684.232422566416,827.206663668034,980.31222920257,780.31222920257,684.232422566416,827.206663668034,980.31222920257,780.31222920257,1027.20666366803,484.232422566416,760.109211414741,348.13947314824,548.13947314824,560.109211414741,NaN,NaN,4,0,0,0,0,NaN,horizontal,vertical,horizontal,horizontal,horizontal,none
1d,7,100221,1,3,3,26,M,NA,constant,homogeneous,6,present,0.827179908752441,1,vertical,vertical,1,0.8823486328125,green,3,1,980.31222920257,419.68777079743,865.998856501143,846.311085703712,865.998856501143,846.311085703712,1046.31108570371,665.998856501143,980.31222920257,419.68777079743,734.001143498857,353.688914296288,553.688914296288,534.001143498857,619.68777079743,780.31222920257,0,0,4,0,0,0,horizontal,vertical,vertical,vertical,vertical,horizontal
1d,7,100221,1,4,4,26,M,NA,constant,homogeneous,3,absent,0.835225105285645,1,horizontal,horizontal,1,0.788232421875,green,3,NaN,768.923317431687,346.900731331463,NaN,NaN,596.34794493794,753.462830903772,1034.72873763037,699.636437764765,768.923317431687,346.900731331463,NaN,NaN,NaN,NaN,NaN,NaN,0,0,4,NaN,NaN,NaN,vertical,horizontal,horizontal,none,none,none
1d,7,100221,1,5,5,26,M,NA,constant,homogeneous,4,absent,0.743484973907471,0,horizontal,vertical,1,0.764703369140625,green,3,NaN,927.5,379.163522034968,NaN,NaN,672.5,820.836477965032,1020.83647796503,727.5,927.5,379.163522034968,579.163522034968,472.5,NaN,NaN,NaN,NaN,0,0,4,0,NaN,NaN,horizontal,horizontal,horizontal,horizontal,none,none
1d,7,100221,1,6,6,26,M,NA,constant,homogeneous,5,absent,0.736438989639282,1,horizontal,horizontal,1,1.09411010742188,green,4,NaN,581.422338320961,468.665290897936,NaN,NaN,899.636437764765,834.728737630372,1054.0296480134,577.775285599347,857.362518857686,351.535633479765,581.422338320961,468.665290897936,607.549057043193,767.295052392579,NaN,NaN,0,0,0,4,0,NaN,horizontal,vertical,horizontal,horizontal,horizontal,none
1d,7,100221,1,7,7,26,M,NA,constant,homogeneous,3,present,0.83662486076355,1,vertical,vertical,1,0.870584106445312,green,1,2,949.885239334581,806.299333565612,903.717843984329,367.045908301137,949.885239334581,806.299333565612,903.717843984329,367.045908301137,546.39691668109,626.654758133252,NaN,NaN,NaN,NaN,NaN,NaN,4,0,0,NaN,NaN,NaN,vertical,vertical,horizontal,none,none,none
1d,7,100221,1,8,8,26,M,NA,constant,homogeneous,5,absent,0.990066051483154,1,horizontal,horizontal,1,0.823526000976562,green,2,NaN,1013.86099482608,738.882953928832,NaN,NaN,734.001143498857,846.311085703712,1013.86099482608,738.882953928832,998.172220171528,439.523300282291,708.616172865948,361.936991243214,545.349468637584,613.345668841951,NaN,NaN,0,4,0,0,0,NaN,vertical,horizontal,horizontal,vertical,vertical,none
1d,7,100221,1,9,9,26,M,NA,constant,homogeneous,5,present,1.12884402275085,1,horizontal,horizontal,1,0.941171264648437,green,5,1,567.045908301137,703.717843984329,826.654758133252,853.60308331891,826.654758133252,853.60308331891,1049.42763818712,653.017481158529,927.5,379.163522034968,629.371695378491,410.498069503264,567.045908301137,703.717843984329,NaN,NaN,0,0,0,0,4,NaN,vertical,vertical,horizontal,vertical,horizontal,none
1d,7,100221,1,10,10,26,M,NA,constant,homogeneous,6,absent,1.11091613769531,1,vertical,vertical,1,0.941171264648437,green,6,NaN,563.568117085469,695.524681321058,NaN,NaN,764.510859255183,852.518357529101,1000.94274216971,756.993676208043,1036.43188291453,504.475318678942,835.489140744817,347.4816424709,599.057257830286,443.006323791957,563.568117085469,695.524681321058,0,0,0,0,0,4,vertical,vertical,vertical,vertical,horizontal,vertical
1d,7,100221,1,11,11,26,M,NA,constant,homogeneous,3,present,1.5219190120697,1,horizontal,horizontal,1,1.04705200195313,green,2,1,1016.25226451989,464.870587620533,808.899371659138,854.844660889869,808.899371659138,854.844660889869,1016.25226451989,464.870587620533,574.848363820974,480.284751489598,NaN,NaN,NaN,NaN,NaN,NaN,0,4,0,NaN,NaN,NaN,vertical,horizontal,horizontal,none,none,none
1d,7,100221,1,12,12,26,M,NA,constant,homogeneous,3,present,1.26037406921387,1,vertical,vertical,1,0.988229370117187,green,1,2,782.212099195248,854.378832816255,1029.19248180629,488.215357568785,782.212099195248,854.378832816255,1029.19248180629,488.215357568785,588.595418998464,457.40580961496,NaN,NaN,NaN,NaN,NaN,NaN,4,0,0,NaN,NaN,NaN,vertical,vertical,horizontal,none,none,none
1d,7,100221,1,13,13,26,M,NA,constant,homogeneous,6,absent,1.51545906066895,0,horizontal,vertical,1,0.682351684570312,green,3,NaN,980.31222920257,419.68777079743,NaN,NaN,865.998856501143,846.311085703712,1046.31108570371,665.998856501143,980.31222920257,419.68777079743,734.001143498857,353.688914296288,553.688914296288,534.001143498857,619.68777079743,780.31222920257,0,0,4,0,0,0,horizontal,vertical,horizontal,vertical,horizontal,horizontal
1d,7,100221,1,14,14,26,M,NA,constant,homogeneous,3,absent,1.85111689567566,0,vertical,horizontal,1,0.658822631835937,green,3,NaN,768.923317431687,346.900731331463,NaN,NaN,596.34794493794,753.462830903772,1034.72873763037,699.636437764765,768.923317431687,346.900731331463,NaN,NaN,NaN,NaN,NaN,NaN,0,0,4,NaN,NaN,NaN,vertical,vertical,vertical,none,none,none
1d,7,100221,1,15,15,26,M,NA,constant,homogeneous,5,absent,1.13261318206787,1,horizontal,horizontal,1,0.811761474609375,green,1,NaN,708.616172865948,838.063008756786,NaN,NaN,708.616172865948,838.063008756786,998.172220171528,760.476699717708,1013.86099482608,461.117046071168,734.001143498857,353.688914296288,545.349468637584,586.654331158049,NaN,NaN,4,0,0,0,0,NaN,horizontal,vertical,horizontal,horizontal,vertical,none
1d,7,100221,1,16,16,26,M,NA,constant,homogeneous,5,absent,1.03986096382141,1,vertical,vertical,1,0.823526000976562,green,1,NaN,853.017481158529,849.42763818712,NaN,NaN,853.017481158529,849.42763818712,1053.60308331891,626.654758133252,903.717843984329,367.045908301137,610.498069503264,429.371695378491,579.163522034968,727.5,NaN,NaN,4,0,0,0,0,NaN,vertical,vertical,horizontal,vertical,vertical,none
1d,7,100221,1,17,17,26,M,NA,constant,homogeneous,5,absent,1.29974889755249,1,vertical,vertical,1,0.74117431640625,green,5,NaN,546.39691668109,573.345241866748,NaN,NaN,696.282156015671,832.954091698863,989.501930496736,770.628304621509,1020.83647796503,472.5,746.982518841471,350.57236181288,546.39691668109,573.345241866748,NaN,NaN,0,0,0,0,4,NaN,vertical,horizontal,vertical,vertical,vertical,none
1d,7,100221,1,18,18,26,M,NA,constant,homogeneous,4,absent,0.98045802116394,1,horizontal,horizontal,1,0.74117431640625,green,4,NaN,546.900731331463,568.923317431687,NaN,NaN,768.923317431687,853.099268668537,1053.09926866854,631.076682568313,831.076682568313,346.900731331463,546.900731331463,568.923317431687,NaN,NaN,NaN,NaN,0,0,0,4,NaN,NaN,vertical,horizontal,vertical,horizontal,none,none
1d,7,100221,1,19,19,26,M,NA,constant,homogeneous,3,present,1.03193092346191,1,vertical,vertical,1,0.97646484375,green,3,2,550.57236181288,546.982518841471,970.628304621509,410.498069503264,878.799333565612,842.519411655264,970.628304621509,410.498069503264,550.57236181288,546.982518841471,NaN,NaN,NaN,NaN,NaN,NaN,0,0,4,NaN,NaN,NaN,horizontal,vertical,vertical,none,none,none
1d,7,100221,1,20,20,26,M,NA,constant,homogeneous,4,absent,1.39192700386047,0,vertical,horizontal,1,0.764703369140625,green,1,NaN,931.334709102064,818.577661679039,NaN,NaN,931.334709102064,818.577661679039,1018.57766167904,468.665290897936,668.665290897936,381.422338320961,581.422338320961,731.334709102064,NaN,NaN,NaN,NaN,4,0,0,0,NaN,NaN,vertical,horizontal,vertical,horizontal,none,none
1d,7,100221,1,21,21,26,M,NA,constant,homogeneous,3,present,1.3858950138092,1,horizontal,horizontal,1,0.894113159179687,green,2,3,844.280285305067,348.874022981887,560.378381699593,687.215136548046,995.341332995339,763.910840470068,844.280285305067,348.874022981887,560.378381699593,687.215136548046,NaN,NaN,NaN,NaN,NaN,NaN,0,4,0,NaN,NaN,NaN,horizontal,horizontal,vertical,none,none,none
1d,7,100221,1,22,22,26,M,NA,constant,homogeneous,4,present,0.934584856033325,1,vertical,vertical,1,0.64705810546875,green,3,1,973.909581815937,413.504806087112,626.090418184063,786.495193912888,626.090418184063,786.495193912888,986.495193912888,773.909581815937,973.909581815937,413.504806087112,613.504806087112,426.090418184063,NaN,NaN,NaN,NaN,0,0,4,0,NaN,NaN,horizontal,vertical,vertical,vertical,none,none
1d,7,100221,1,23,23,26,M,NA,constant,homogeneous,5,present,1.08592391014099,1,vertical,vertical,1,0.811761474609375,green,1,4,938.882953928832,813.860994826083,561.936991243214,508.616172865948,938.882953928832,813.860994826083,1046.31108570371,534.001143498857,813.345668841951,345.349468637584,561.936991243214,508.616172865948,639.523300282292,798.172220171528,NaN,NaN,4,0,0,0,0,NaN,vertical,vertical,vertical,horizontal,horizontal,none
1d,7,100221,1,24,24,26,M,NA,constant,homogeneous,6,absent,0.893675088882446,1,horizontal,horizontal,1,0.905877685546875,green,1,NaN,874.554784704298,843.857712770574,NaN,NaN,874.554784704298,843.857712770574,1048.46436652023,657.362518857686,973.909581815937,413.504806087112,725.445215295702,356.142287229426,551.535633479765,542.637481142314,626.090418184063,786.495193912888,4,0,0,0,0,0,horizontal,vertical,vertical,horizontal,horizontal,vertical
1d,7,100221,1,25,25,26,M,NA,constant,homogeneous,4,present,0.861362934112549,1,vertical,vertical,1,0.870584106445312,green,1,2,636.089159529932,795.341332995339,995.341332995339,763.910840470068,636.089159529932,795.341332995339,995.341332995339,763.910840470068,963.910840470068,404.658667004661,604.658667004661,436.089159529932,NaN,NaN,NaN,NaN,4,0,0,0,NaN,NaN,vertical,horizontal,vertical,horizontal,none,none
1d,7,100221,1,26,26,26,M,NA,constant,homogeneous,4,present,0.906069993972778,1,horizontal,horizontal,1,0.764703369140625,green,3,2,795.549636358493,345.03883773512,1054.96116226488,595.549636358493,804.450363641507,854.96116226488,1054.96116226488,595.549636358493,795.549636358493,345.03883773512,545.03883773512,604.450363641507,NaN,NaN,NaN,NaN,0,0,4,0,NaN,NaN,vertical,vertical,horizontal,horizontal,none,none
1d,7,100221,1,27,27,26,M,NA,constant,homogeneous,4,present,1.0401599407196,1,vertical,vertical,1,0.788232421875,green,1,4,831.076682568313,853.099268668537,546.900731331463,631.076682568313,831.076682568313,853.099268668537,1053.09926866854,568.923317431687,768.923317431687,346.900731331463,546.900731331463,631.076682568313,NaN,NaN,NaN,NaN,4,0,0,0,NaN,NaN,vertical,horizontal,horizontal,vertical,none,none
1d,7,100221,1,28,28,26,M,NA,constant,homogeneous,3,absent,0.809607982635498,1,horizontal,horizontal,1,1.02352294921875,green,3,NaN,545.03883773512,595.549636358493,NaN,NaN,923.626453162816,823.028025320546,931.334709102064,381.422338320961,545.03883773512,595.549636358493,NaN,NaN,NaN,NaN,NaN,NaN,0,0,4,NaN,NaN,NaN,horizontal,horizontal,horizontal,none,none,none
1d,7,100221,1,29,29,26,M,NA,constant,homogeneous,4,present,0.862374067306519,1,vertical,vertical,1,0.623529052734375,green,4,2,548.874022981887,644.280285305067,1051.12597701811,555.719714694933,844.280285305067,851.125977018113,1051.12597701811,555.719714694933,755.719714694933,348.874022981887,548.874022981887,644.280285305067,NaN,NaN,NaN,NaN,0,0,0,4,NaN,NaN,horizontal,horizontal,vertical,vertical,none,none
1d,7,100221,1,30,30,26,M,NA,constant,homogeneous,3,present,0.893549919128418,1,vertical,vertical,1,0.682351684570312,green,2,1,1003.65205506206,446.537169096228,831.076682568313,853.099268668537,831.076682568313,853.099268668537,1003.65205506206,446.537169096228,565.271262369628,500.363562235235,NaN,NaN,NaN,NaN,NaN,NaN,0,4,0,NaN,NaN,NaN,vertical,vertical,vertical,none,none,none
1d,7,100221,1,31,31,26,M,NA,constant,homogeneous,5,present,0.7414710521698,1,horizontal,horizontal,1,0.894113159179687,green,2,3,956.993676208043,800.942742169714,1039.62161830041,512.784863451954,657.405809614959,811.404581001536,956.993676208043,800.942742169714,1039.62161830041,512.784863451954,791.100628340862,345.155339110131,554.878267535729,529.712474266665,NaN,NaN,0,4,0,0,0,NaN,horizontal,horizontal,horizontal,horizontal,horizontal,none
1d,7,100221,1,32,32,26,M,NA,constant,homogeneous,6,present,1.00649690628052,0,vertical,horizontal,1,0.6941162109375,green,5,2,604.658667004661,436.089159529932,995.341332995339,763.910840470068,755.719714694933,851.125977018113,995.341332995339,763.910840470068,1039.62161830041,512.784863451954,844.280285305067,348.874022981887,604.658667004661,436.089159529932,560.378381699593,687.215136548046,0,0,0,0,4,0,horizontal,horizontal,horizontal,vertical,vertical,vertical
1d,7,100221,1,33,33,26,M,NA,constant,homogeneous,6,absent,0.933961153030396,1,horizontal,horizontal,1,0.964700317382812,green,2,NaN,973.909581815937,786.495193912888,NaN,NaN,725.445215295702,843.857712770574,973.909581815937,786.495193912888,1048.46436652023,542.637481142314,874.554784704298,356.142287229426,626.090418184063,413.504806087112,551.535633479765,657.362518857686,0,4,0,0,0,0,vertical,horizontal,horizontal,horizontal,horizontal,horizontal
1d,7,100221,1,34,34,26,M,NA,constant,homogeneous,3,absent,0.705657005310059,1,vertical,vertical,1,1.04705200195313,green,3,NaN,552.574589799621,538.309916622085,NaN,NaN,870.287525733335,845.121732464271,977.137884467044,416.568350913644,552.574589799621,538.309916622085,NaN,NaN,NaN,NaN,NaN,NaN,0,0,4,NaN,NaN,NaN,horizontal,horizontal,vertical,none,none,none
1d,7,100221,1,35,35,26,M,NA,constant,homogeneous,5,absent,0.948632955551147,1,vertical,vertical,1,1.02352294921875,green,5,NaN,568.891514305654,707.767656743878,NaN,NaN,831.076682568313,853.099268668537,1050.31493177915,648.656293821019,923.626453162816,376.971974679454,626.090418184063,413.504806087112,568.891514305654,707.767656743878,NaN,NaN,0,0,0,0,4,NaN,vertical,vertical,horizontal,horizontal,vertical,none
1d,7,100221,1,36,36,26,M,NA,constant,homogeneous,6,present,0.697335958480835,1,vertical,vertical,1,0.8823486328125,green,6,1,601.827779828472,760.476699717708,839.890788585259,851.86052685176,839.890788585259,851.86052685176,1038.06300875679,691.383827134052,998.172220171528,439.523300282291,760.109211414741,348.13947314824,561.936991243214,508.616172865948,601.827779828472,760.476699717708,0,0,0,0,0,4,horizontal,horizontal,horizontal,vertical,horizontal,vertical
1d,7,100221,1,37,37,26,M,NA,constant,homogeneous,6,present,1.06354403495789,1,horizontal,horizontal,1,0.799996948242187,green,5,6,632.704947607421,407.549057043193,549.685068220846,648.656293821019,716.980120613425,841.107236777826,967.295052392579,792.450942956807,1050.31493177915,551.343706178981,883.019879386575,358.892763222174,632.704947607421,407.549057043193,549.685068220846,648.656293821019,0,0,0,0,4,0,horizontal,horizontal,vertical,horizontal,horizontal,horizontal
1d,7,100221,1,38,38,26,M,NA,constant,homogeneous,3,absent,1.20368003845215,1,vertical,vertical,1,0.74117431640625,green,2,NaN,983.431649086356,422.862115532956,NaN,NaN,861.690083377915,847.425410200379,983.431649086356,422.862115532956,554.878267535729,529.712474266665,NaN,NaN,NaN,NaN,NaN,NaN,0,4,0,NaN,NaN,NaN,vertical,vertical,horizontal,none,none,none
1d,7,100221,1,39,39,26,M,NA,constant,homogeneous,3,present,0.677162170410156,1,horizontal,horizontal,1,0.658822631835937,green,1,2,700.363562235235,834.728737630372,1053.09926866854,568.923317431687,700.363562235235,834.728737630372,1053.09926866854,568.923317431687,646.537169096228,396.34794493794,NaN,NaN,NaN,NaN,NaN,NaN,4,0,0,NaN,NaN,NaN,horizontal,vertical,vertical,none,none,none
1d,7,100221,1,40,40,26,M,NA,constant,homogeneous,4,absent,0.938384056091309,1,vertical,vertical,1,0.97646484375,green,1,NaN,839.890788585259,851.86052685176,NaN,NaN,839.890788585259,851.86052685176,1051.86052685176,560.109211414741,760.109211414741,348.13947314824,548.13947314824,639.890788585259,NaN,NaN,NaN,NaN,4,0,0,0,NaN,NaN,vertical,horizontal,horizontal,horizontal,none,none
1d,7,100221,1,41,41,26,M,NA,constant,homogeneous,6,present,1.2438268661499,1,horizontal,horizontal,1,0.92940673828125,green,3,6,1054.37883281626,582.212099195248,545.621167183745,617.787900804752,688.215357568785,829.192481806288,942.594190385041,811.404581001536,1054.37883281626,582.212099195248,911.784642431215,370.807518193712,657.405809614959,388.595418998464,545.621167183745,617.787900804752,0,0,4,0,0,0,horizontal,horizontal,horizontal,vertical,horizontal,horizontal
1d,7,100221,1,42,42,26,M,NA,constant,homogeneous,4,absent,1.2156069278717,1,vertical,vertical,1,0.941171264648437,green,2,NaN,1023.02802532055,723.626453162816,NaN,NaN,676.373546837184,823.028025320546,1023.02802532055,723.626453162816,923.626453162816,376.971974679454,576.971974679454,476.373546837184,NaN,NaN,NaN,NaN,0,4,0,0,NaN,NaN,vertical,vertical,vertical,horizontal,none,none
1d,7,100221,1,43,43,26,M,NA,constant,homogeneous,6,present,NaN,0,horizontal,none,0,0.623529052734375,green,3,4,1041.10723677783,516.980120613425,848.656293821019,349.685068220846,751.343706178981,850.314931779154,992.450942956807,767.295052392579,1041.10723677783,516.980120613425,848.656293821019,349.685068220846,607.549057043193,432.704947607421,558.892763222174,683.019879386575,0,0,4,0,0,0,vertical,vertical,horizontal,vertical,horizontal,vertical
1d,7,100221,1,44,44,26,M,NA,constant,homogeneous,6,present,1.58197808265686,1,horizontal,horizontal,1,0.847055053710937,green,2,5,1011.40458100154,742.594190385041,588.595418998464,457.40580961496,782.212099195248,854.378832816255,1011.40458100154,742.594190385041,1029.19248180629,488.215357568785,817.787900804752,345.621167183745,588.595418998464,457.40580961496,570.807518193712,711.784642431215,0,4,0,0,0,0,vertical,horizontal,vertical,vertical,horizontal,vertical
1d,7,100221,1,45,45,26,M,NA,constant,homogeneous,6,present,0.847366094589233,1,vertical,vertical,1,1.08234558105469,green,5,2,545.970351986605,577.775285599347,1054.0296480134,622.224714400653,907.767656743878,831.108485694346,1054.0296480134,622.224714400653,946.261991269517,391.116228706307,692.232343256122,368.891514305654,545.970351986605,577.775285599347,653.738008730483,808.883771293693,0,0,0,0,4,0,vertical,horizontal,vertical,horizontal,vertical,vertical
1d,7,100221,1,46,46,26,M,NA,constant,homogeneous,4,absent,0.772090196609497,1,vertical,vertical,1,0.97646484375,green,1,NaN,874.554784704298,843.857712770574,NaN,NaN,874.554784704298,843.857712770574,1043.85771277057,525.445215295702,725.445215295702,356.142287229426,556.142287229426,674.554784704298,NaN,NaN,NaN,NaN,4,0,0,0,NaN,NaN,vertical,horizontal,horizontal,vertical,none,none
1d,7,100221,1,47,47,26,M,NA,constant,homogeneous,5,present,0.876596212387085,1,vertical,vertical,1,0.847055053710937,green,4,5,586.139005173917,461.117046071168,601.827779828472,760.476699717708,891.383827134052,838.063008756786,1054.65053136242,586.654331158049,865.998856501143,353.688914296288,586.139005173917,461.117046071168,601.827779828472,760.476699717708,NaN,NaN,0,0,0,4,0,NaN,vertical,vertical,horizontal,vertical,horizontal,none
1d,7,100221,1,48,48,26,M,NA,constant,homogeneous,4,present,0.711844921112061,1,horizontal,horizontal,1,0.8823486328125,green,4,1,607.549057043193,432.704947607421,632.704947607421,792.450942956807,632.704947607421,792.450942956807,992.450942956807,767.295052392579,967.295052392579,407.549057043193,607.549057043193,432.704947607421,NaN,NaN,NaN,NaN,0,0,0,4,NaN,NaN,vertical,vertical,vertical,horizontal,none,none
1d,7,100221,1,49,49,26,M,NA,constant,homogeneous,5,present,1.01830410957336,1,vertical,vertical,1,0.799996948242187,green,5,1,546.900731331463,568.923317431687,692.232343256122,831.108485694346,692.232343256122,831.108485694346,986.495193912888,773.909581815937,1023.02802532055,476.373546837184,751.343706178981,349.685068220846,546.900731331463,568.923317431687,NaN,NaN,0,0,0,0,4,NaN,horizontal,vertical,horizontal,horizontal,vertical,none
1d,7,100221,1,50,50,26,M,NA,constant,homogeneous,3,absent,0.77408504486084,1,horizontal,horizontal,1,0.964700317382812,green,3,NaN,636.089159529932,404.658667004661,NaN,NaN,712.784863451954,839.621618300407,1051.12597701811,555.719714694933,636.089159529932,404.658667004661,NaN,NaN,NaN,NaN,NaN,NaN,0,0,4,NaN,NaN,NaN,vertical,horizontal,horizontal,none,none,none
1d,7,100221,1,51,51,26,M,NA,constant,homogeneous,6,absent,0.879989147186279,1,vertical,vertical,1,0.717645263671875,green,3,NaN,1052.5183575291,564.510859255183,NaN,NaN,704.475318678942,836.431882914531,956.993676208043,800.942742169714,1052.5183575291,564.510859255183,895.524681321058,363.568117085469,643.006323791957,399.057257830286,547.481642470899,635.489140744817,0,0,4,0,0,0,vertical,vertical,vertical,vertical,vertical,vertical
1d,7,100221,1,52,52,26,M,NA,constant,homogeneous,4,absent,0.714711904525757,1,horizontal,horizontal,1,1.05881652832031,green,4,NaN,581.422338320961,731.334709102064,NaN,NaN,931.334709102064,818.577661679039,1018.57766167904,468.665290897936,668.665290897936,381.422338320961,581.422338320961,731.334709102064,NaN,NaN,NaN,NaN,0,0,0,4,NaN,NaN,vertical,horizontal,vertical,horizontal,none,none
1d,7,100221,1,53,53,26,M,NA,constant,homogeneous,5,absent,1.22373580932617,1,vertical,vertical,1,0.917642211914062,green,3,NaN,923.626453162816,376.971974679454,NaN,NaN,831.076682568313,853.099268668537,1050.31493177915,648.656293821019,923.626453162816,376.971974679454,626.090418184063,413.504806087112,568.891514305654,707.767656743878,NaN,NaN,0,0,4,0,0,NaN,vertical,vertical,vertical,vertical,vertical,none
1d,7,100221,1,54,54,26,M,NA,constant,homogeneous,5,present,0.861727952957153,1,vertical,vertical,1,0.870584106445312,green,2,4,960.476699717708,798.172220171528,786.654331158049,345.349468637584,661.117046071168,813.860994826083,960.476699717708,798.172220171528,1038.06300875679,508.616172865948,786.654331158049,345.349468637584,553.688914296288,534.001143498857,NaN,NaN,0,4,0,0,0,NaN,vertical,vertical,horizontal,vertical,vertical,none
1d,7,100221,1,55,55,26,M,NA,constant,homogeneous,5,present,0.814554929733276,1,horizontal,horizontal,1,0.776467895507812,green,2,1,1039.62161830041,687.215136548046,791.100628340862,854.844660889869,791.100628340862,854.844660889869,1039.62161830041,687.215136548046,956.993676208043,399.057257830286,657.405809614959,388.595418998464,554.878267535729,670.287525733335,NaN,NaN,0,4,0,0,0,NaN,horizontal,horizontal,vertical,horizontal,horizontal,none
1d,7,100221,1,56,56,26,M,NA,constant,homogeneous,6,absent,0.935245990753174,1,vertical,vertical,1,0.799996948242187,green,5,NaN,554.878267535729,529.712474266665,NaN,NaN,861.690083377915,847.425410200379,1045.12173246427,670.287525733335,983.431649086356,422.862115532956,738.309916622085,352.574589799621,554.878267535729,529.712474266665,616.568350913644,777.137884467044,0,0,0,0,4,0,horizontal,vertical,horizontal,vertical,vertical,vertical
1d,7,100221,1,57,57,26,M,NA,constant,homogeneous,4,absent,0.65562891960144,1,horizontal,horizontal,1,1.08234558105469,green,4,NaN,548.874022981887,555.719714694933,NaN,NaN,755.719714694933,851.125977018113,1051.12597701811,644.280285305067,844.280285305067,348.874022981887,548.874022981887,555.719714694933,NaN,NaN,NaN,NaN,0,0,0,4,NaN,NaN,horizontal,vertical,horizontal,horizontal,none,none
1d,7,100221,1,58,58,26,M,NA,constant,homogeneous,4,present,0.970041036605835,1,horizontal,horizontal,1,1.05881652832031,green,3,4,967.295052392579,407.549057043193,607.549057043193,432.704947607421,632.704947607421,792.450942956807,992.450942956807,767.295052392579,967.295052392579,407.549057043193,607.549057043193,432.704947607421,NaN,NaN,NaN,NaN,0,0,4,0,NaN,NaN,horizontal,horizontal,horizontal,vertical,none,none
1d,7,100221,1,59,59,26,M,NA,constant,homogeneous,4,present,0.87616491317749,1,horizontal,horizontal,1,0.941171264648437,green,3,4,626.090418184063,413.504806087112,613.504806087112,773.909581815937,973.909581815937,786.495193912888,986.495193912888,426.090418184063,626.090418184063,413.504806087112,613.504806087112,773.909581815937,NaN,NaN,NaN,NaN,0,0,4,0,NaN,NaN,horizontal,vertical,horizontal,horizontal,none,none
1d,7,100221,1,60,60,26,M,NA,constant,homogeneous,3,absent,0.698119878768921,1,vertical,vertical,1,0.799996948242187,green,2,NaN,953.462830903772,396.34794493794,NaN,NaN,899.636437764765,834.728737630372,953.462830903772,396.34794493794,546.900731331463,568.923317431687,NaN,NaN,NaN,NaN,NaN,NaN,0,4,0,NaN,NaN,NaN,vertical,vertical,vertical,none,none,none
1d,7,100221,1,61,61,26,M,NA,constant,homogeneous,6,absent,0.765846967697144,1,vertical,vertical,1,1.08234558105469,green,1,NaN,826.654758133252,853.60308331891,NaN,NaN,826.654758133252,853.60308331891,1032.95409169886,703.717843984329,1006.29933356561,450.114760665419,773.345241866748,346.39691668109,567.045908301137,496.282156015671,593.700666434388,749.885239334581,4,0,0,0,0,0,vertical,horizontal,horizontal,vertical,vertical,horizontal
1d,7,100221,1,62,62,26,M,NA,constant,homogeneous,3,present,1.01200485229492,1,horizontal,horizontal,1,0.92940673828125,green,2,1,1038.06300875679,508.616172865948,760.109211414741,851.86052685176,760.109211414741,851.86052685176,1038.06300875679,508.616172865948,601.827779828472,439.523300282291,NaN,NaN,NaN,NaN,NaN,NaN,0,4,0,NaN,NaN,NaN,vertical,horizontal,horizontal,none,none,none
1d,7,100221,1,63,63,26,M,NA,constant,homogeneous,6,absent,0.915081024169922,1,horizontal,horizontal,1,0.92940673828125,green,3,NaN,1025.15163617903,480.284751489598,NaN,NaN,791.100628340862,854.844660889869,1016.25226451989,735.129412379467,1025.15163617903,480.284751489598,808.899371659138,345.155339110131,583.747735480111,464.870587620533,574.848363820974,719.715248510402,0,0,4,0,0,0,vertical,horizontal,horizontal,vertical,horizontal,vertical
1d,7,100221,1,64,64,26,M,NA,constant,homogeneous,3,absent,0.733115911483765,1,horizontal,horizontal,1,0.97646484375,green,2,NaN,1047.42541020038,538.309916622085,NaN,NaN,729.712474266665,845.121732464271,1047.42541020038,538.309916622085,622.862115532956,416.568350913644,NaN,NaN,NaN,NaN,NaN,NaN,0,4,0,NaN,NaN,NaN,horizontal,horizontal,horizontal,none,none,none
1d,7,100221,2,1,65,26,M,NA,constant,homogeneous,4,absent,0.731843948364258,1,vertical,vertical,1,0.6941162109375,green,2,NaN,1013.86099482608,461.117046071168,NaN,NaN,938.882953928832,813.860994826083,1013.86099482608,461.117046071168,661.117046071168,386.139005173917,586.139005173917,738.882953928832,NaN,NaN,NaN,NaN,0,4,0,0,NaN,NaN,vertical,vertical,horizontal,vertical,none,none
1d,7,100221,2,2,66,26,M,NA,constant,homogeneous,4,present,0.702574968338013,1,vertical,vertical,1,0.6,green,3,1,874.554784704298,356.142287229426,725.445215295702,843.857712770574,725.445215295702,843.857712770574,1043.85771277057,674.554784704298,874.554784704298,356.142287229426,556.142287229426,525.445215295702,NaN,NaN,NaN,NaN,0,0,4,0,NaN,NaN,horizontal,horizontal,vertical,vertical,none,none
1d,7,100221,2,3,67,26,M,NA,constant,homogeneous,3,present,0.588659048080444,1,vertical,vertical,1,0.799996948242187,green,3,2,604.658667004661,436.089159529932,1039.62161830041,512.784863451954,755.719714694933,851.125977018113,1039.62161830041,512.784863451954,604.658667004661,436.089159529932,NaN,NaN,NaN,NaN,NaN,NaN,0,0,4,NaN,NaN,NaN,horizontal,vertical,vertical,none,none,none
1d,7,100221,2,4,68,26,M,NA,constant,homogeneous,6,absent,0.717584133148193,1,vertical,vertical,1,0.64705810546875,green,6,NaN,591.116228706307,746.261991269517,NaN,NaN,822.224714400653,854.029648013395,1031.10848569435,707.767656743878,1008.88377129369,453.738008730483,777.775285599347,345.970351986605,568.891514305654,492.232343256122,591.116228706307,746.261991269517,0,0,0,0,0,4,horizontal,horizontal,vertical,vertical,horizontal,vertical
1d,7,100221,2,5,69,26,M,NA,constant,homogeneous,5,present,0.754796028137207,1,vertical,vertical,1,0.92940673828125,green,4,2,704.475318678942,363.568117085469,1016.25226451989,735.129412379467,738.309916622085,847.425410200379,1016.25226451989,735.129412379467,995.341332995339,436.089159529932,704.475318678942,363.568117085469,545.621167183745,617.787900804752,NaN,NaN,0,0,0,4,0,NaN,horizontal,vertical,horizontal,vertical,horizontal,none
1d,7,100221,2,6,70,26,M,NA,constant,homogeneous,6,present,0.748010873794556,1,vertical,vertical,1,0.682351684570312,green,3,2,942.594190385041,388.595418998464,1054.37883281626,617.787900804752,911.784642431215,829.192481806288,1054.37883281626,617.787900804752,942.594190385041,388.595418998464,688.215357568785,370.807518193712,545.621167183745,582.212099195248,657.405809614959,811.404581001536,0,0,4,0,0,0,vertical,vertical,vertical,vertical,vertical,horizontal
1d,7,100221,2,7,71,26,M,NA,constant,homogeneous,6,present,0.729903936386108,1,vertical,vertical,1,0.752938842773437,green,3,5,1043.85771277057,525.445215295702,613.504806087112,426.090418184063,742.637481142314,848.464366520235,986.495193912888,773.909581815937,1043.85771277057,525.445215295702,857.362518857686,351.535633479765,613.504806087112,426.090418184063,556.142287229426,674.554784704298,0,0,4,0,0,0,vertical,vertical,vertical,horizontal,horizontal,horizontal
1d,7,100221,2,8,72,26,M,NA,constant,homogeneous,5,absent,0.771526098251343,1,vertical,vertical,1,0.92940673828125,green,2,NaN,1054.65053136242,613.345668841951,NaN,NaN,865.998856501143,846.311085703712,1054.65053136242,613.345668841951,891.383827134052,361.936991243214,601.827779828472,439.523300282291,586.139005173917,738.882953928832,NaN,NaN,0,4,0,0,0,NaN,vertical,vertical,vertical,horizontal,vertical,none
1d,7,100221,2,9,73,26,M,NA,constant,homogeneous,6,absent,0.798712015151978,1,horizontal,horizontal,1,0.988229370117187,green,3,NaN,977.137884467044,416.568350913644,NaN,NaN,870.287525733335,845.121732464271,1047.42541020038,661.690083377915,977.137884467044,416.568350913644,729.712474266665,354.878267535729,552.574589799621,538.309916622085,622.862115532956,783.431649086356,0,0,4,0,0,0,vertical,horizontal,horizontal,vertical,horizontal,horizontal
1d,7,100221,2,10,74,26,M,NA,constant,homogeneous,4,present,0.727652072906494,1,vertical,vertical,1,0.635293579101562,green,2,3,1006.29933356561,450.114760665419,650.114760665419,393.700666434388,949.885239334581,806.299333565612,1006.29933356561,450.114760665419,650.114760665419,393.700666434388,593.700666434388,749.885239334581,NaN,NaN,NaN,NaN,0,4,0,0,NaN,NaN,horizontal,vertical,vertical,vertical,none,none
1d,7,100221,2,11,75,26,M,NA,constant,homogeneous,3,present,0.637492895126343,1,vertical,vertical,1,0.752938842773437,green,3,2,558.892763222174,516.980120613425,992.450942956807,432.704947607421,848.656293821019,850.314931779154,992.450942956807,432.704947607421,558.892763222174,516.980120613425,NaN,NaN,NaN,NaN,NaN,NaN,0,0,4,NaN,NaN,NaN,horizontal,vertical,vertical,none,none,none
1d,7,100221,2,12,76,26,M,NA,constant,homogeneous,5,present,0.595631122589111,0,vertical,horizontal,1,1.05881652832031,green,1,2,661.117046071168,813.860994826083,960.476699717708,798.172220171528,661.117046071168,813.860994826083,960.476699717708,798.172220171528,1038.06300875679,508.616172865948,786.654331158049,345.349468637584,553.688914296288,534.001143498857,NaN,NaN,4,0,0,0,0,NaN,vertical,horizontal,vertical,horizontal,horizontal,none
1d,7,100221,2,13,77,26,M,NA,constant,homogeneous,4,absent,0.688186168670654,1,horizontal,horizontal,1,0.635293579101562,green,2,NaN,1049.42763818712,546.982518841471,NaN,NaN,853.017481158529,849.42763818712,1049.42763818712,546.982518841471,746.982518841471,350.57236181288,550.57236181288,653.017481158529,NaN,NaN,NaN,NaN,0,4,0,0,NaN,NaN,vertical,horizontal,vertical,horizontal,none,none
1d,7,100221,2,14,78,26,M,NA,constant,homogeneous,6,present,0.809126853942871,1,horizontal,horizontal,1,0.752938842773437,green,3,1,1041.10723677783,516.980120613425,751.343706178981,850.314931779154,751.343706178981,850.314931779154,992.450942956807,767.295052392579,1041.10723677783,516.980120613425,848.656293821019,349.685068220846,607.549057043193,432.704947607421,558.892763222174,683.019879386575,0,0,4,0,0,0,horizontal,vertical,horizontal,horizontal,vertical,vertical
1d,7,100221,2,15,79,26,M,NA,constant,homogeneous,5,present,0.907680988311768,1,horizontal,horizontal,1,0.705880737304687,green,1,4,782.212099195248,854.378832816255,664.870587620533,383.747735480111,782.212099195248,854.378832816255,1036.43188291453,695.524681321058,963.910840470068,404.658667004661,664.870587620533,383.747735480111,552.574589799621,661.690083377915,NaN,NaN,4,0,0,0,0,NaN,horizontal,vertical,vertical,vertical,horizontal,none
1d,7,100221,2,16,80,26,M,NA,constant,homogeneous,5,absent,0.708539962768555,1,vertical,vertical,1,0.92940673828125,green,4,NaN,560.378381699593,512.784863451954,NaN,NaN,942.594190385041,811.404581001536,1045.12173246427,529.712474266665,808.899371659138,345.155339110131,560.378381699593,512.784863451954,643.006323791957,800.942742169714,NaN,NaN,0,0,0,4,0,NaN,horizontal,horizontal,vertical,vertical,vertical,none
1d,7,100221,2,17,81,26,M,NA,constant,homogeneous,3,absent,0.64348316192627,1,vertical,vertical,1,0.83529052734375,green,1,NaN,808.899371659138,854.844660889869,NaN,NaN,808.899371659138,854.844660889869,1016.25226451989,464.870587620533,574.848363820974,480.284751489598,NaN,NaN,NaN,NaN,NaN,NaN,4,0,0,NaN,NaN,NaN,vertical,vertical,vertical,none,none,none
1d,7,100221,2,18,82,26,M,NA,constant,homogeneous,3,absent,0.818907022476196,1,vertical,vertical,1,0.905877685546875,green,2,NaN,960.476699717708,401.827779828472,NaN,NaN,891.383827134052,838.063008756786,960.476699717708,401.827779828472,548.13947314824,560.109211414741,NaN,NaN,NaN,NaN,NaN,NaN,0,4,0,NaN,NaN,NaN,vertical,vertical,vertical,none,none,none
1d,7,100221,2,19,83,26,M,NA,constant,homogeneous,6,present,0.77551794052124,1,horizontal,horizontal,1,0.611764526367187,green,3,2,1029.19248180629,488.215357568785,1011.40458100154,742.594190385041,782.212099195248,854.378832816255,1011.40458100154,742.594190385041,1029.19248180629,488.215357568785,817.787900804752,345.621167183745,588.595418998464,457.40580961496,570.807518193712,711.784642431215,0,0,4,0,0,0,vertical,horizontal,horizontal,horizontal,horizontal,horizontal
1d,7,100221,2,20,84,26,M,NA,constant,homogeneous,3,present,0.757548093795776,1,horizontal,horizontal,1,0.717645263671875,green,1,2,746.982518841471,849.42763818712,1042.51941165526,521.200666434388,746.982518841471,849.42763818712,1042.51941165526,521.200666434388,610.498069503264,429.371695378491,NaN,NaN,NaN,NaN,NaN,NaN,4,0,0,NaN,NaN,NaN,horizontal,vertical,vertical,none,none,none
1d,7,100221,2,21,85,26,M,NA,constant,homogeneous,4,absent,0.754757881164551,1,horizontal,horizontal,1,0.6941162109375,green,2,NaN,1036.43188291453,504.475318678942,NaN,NaN,895.524681321058,836.431882914531,1036.43188291453,504.475318678942,704.475318678942,363.568117085469,563.568117085469,695.524681321058,NaN,NaN,NaN,NaN,0,4,0,0,NaN,NaN,horizontal,horizontal,vertical,vertical,none,none
1d,7,100221,2,22,86,26,M,NA,constant,homogeneous,4,present,0.933212995529175,1,horizontal,horizontal,1,0.752938842773437,green,3,1,813.345668841951,345.349468637584,786.654331158049,854.650531362416,786.654331158049,854.650531362416,1054.65053136242,613.345668841951,813.345668841951,345.349468637584,545.349468637584,586.654331158049,NaN,NaN,NaN,NaN,0,0,4,0,NaN,NaN,horizontal,vertical,horizontal,vertical,none,none
1d,7,100221,2,23,87,26,M,NA,constant,homogeneous,6,absent,1.34738397598267,1,vertical,vertical,1,0.964700317382812,green,5,NaN,593.700666434388,450.114760665419,NaN,NaN,773.345241866748,853.60308331891,1006.29933356561,749.885239334581,1032.95409169886,496.282156015671,826.654758133252,346.39691668109,593.700666434388,450.114760665419,567.045908301137,703.717843984329,0,0,0,0,4,0,vertical,vertical,vertical,horizontal,vertical,vertical
1d,7,100221,2,24,88,26,M,NA,constant,homogeneous,4,present,0.691218137741089,1,horizontal,horizontal,1,1.04705200195313,green,3,4,696.282156015671,367.045908301137,567.045908301137,703.717843984329,903.717843984329,832.954091698863,1032.95409169886,496.282156015671,696.282156015671,367.045908301137,567.045908301137,703.717843984329,NaN,NaN,NaN,NaN,0,0,4,0,NaN,NaN,horizontal,vertical,horizontal,horizontal,none,none
1d,7,100221,2,25,89,26,M,NA,constant,homogeneous,5,absent,0.718661069869995,1,horizontal,horizontal,1,0.670587158203125,green,5,NaN,548.13947314824,639.890788585259,NaN,NaN,760.109211414741,851.86052685176,1027.20666366803,715.767577433584,980.31222920257,419.68777079743,684.232422566416,372.793336331966,548.13947314824,639.890788585259,NaN,NaN,0,0,0,0,4,NaN,horizontal,horizontal,horizontal,horizontal,horizontal,none
1d,7,100221,2,26,90,26,M,NA,constant,homogeneous,3,present,0.62568211555481,1,horizontal,horizontal,1,0.611764526367187,green,2,1,1053.60308331891,573.345241866748,696.282156015671,832.954091698863,696.282156015671,832.954091698863,1053.60308331891,573.345241866748,650.114760665419,393.700666434388,NaN,NaN,NaN,NaN,NaN,NaN,0,4,0,NaN,NaN,NaN,horizontal,horizontal,horizontal,none,none,none
1d,7,100221,2,27,91,26,M,NA,constant,homogeneous,4,present,0.952600955963135,1,vertical,vertical,1,0.717645263671875,green,1,2,835.489140744817,852.518357529101,1052.5183575291,564.510859255183,835.489140744817,852.518357529101,1052.5183575291,564.510859255183,764.510859255183,347.4816424709,547.481642470899,635.489140744817,NaN,NaN,NaN,NaN,4,0,0,0,NaN,NaN,vertical,vertical,vertical,horizontal,none,none
1d,7,100221,2,28,92,26,M,NA,constant,homogeneous,4,absent,0.779659986495972,1,horizontal,horizontal,1,0.776467895507812,green,2,NaN,1046.31108570371,665.998856501143,NaN,NaN,734.001143498857,846.311085703712,1046.31108570371,665.998856501143,865.998856501143,353.688914296288,553.688914296288,534.001143498857,NaN,NaN,NaN,NaN,0,4,0,0,NaN,NaN,vertical,horizontal,horizontal,horizontal,none,none
1d,7,100221,2,29,93,26,M,NA,constant,homogeneous,5,absent,0.626548051834106,1,horizontal,horizontal,1,0.964700317382812,green,2,NaN,1054.96116226488,595.549636358493,NaN,NaN,883.019879386575,841.107236777826,1054.96116226488,595.549636358493,874.554784704298,356.142287229426,591.116228706307,453.738008730483,596.34794493794,753.462830903772,NaN,NaN,0,4,0,0,0,NaN,horizontal,horizontal,horizontal,vertical,vertical,none
1d,7,100221,2,30,94,26,M,NA,constant,homogeneous,3,absent,0.627891063690186,1,vertical,vertical,1,0.83529052734375,green,2,NaN,1046.31108570371,665.998856501143,NaN,NaN,619.68777079743,780.31222920257,1046.31108570371,665.998856501143,734.001143498857,353.688914296288,NaN,NaN,NaN,NaN,NaN,NaN,0,4,0,NaN,NaN,NaN,horizontal,vertical,horizontal,none,none,none
1d,7,100221,2,31,95,26,M,NA,constant,homogeneous,6,present,1.20207095146179,1,horizontal,horizontal,1,0.870584106445312,green,4,1,831.076682568313,346.900731331463,768.923317431687,853.099268668537,768.923317431687,853.099268668537,1003.65205506206,753.462830903772,1034.72873763037,500.363562235235,831.076682568313,346.900731331463,596.34794493794,446.537169096228,565.271262369628,699.636437764765,0,0,0,4,0,0,horizontal,horizontal,vertical,horizontal,vertical,horizontal
1d,7,100221,2,32,96,26,M,NA,constant,homogeneous,4,absent,1.07143092155457,1,vertical,vertical,1,0.64705810546875,green,3,NaN,619.68777079743,419.68777079743,NaN,NaN,980.31222920257,780.31222920257,980.31222920257,419.68777079743,619.68777079743,419.68777079743,619.68777079743,780.31222920257,NaN,NaN,NaN,NaN,0,0,4,0,NaN,NaN,horizontal,vertical,vertical,horizontal,none,none
1d,7,100221,2,33,97,26,M,NA,constant,homogeneous,3,present,0.764564037322998,0,vertical,horizontal,1,0.776467895507812,green,1,3,712.784863451954,839.621618300407,636.089159529932,404.658667004661,712.784863451954,839.621618300407,1051.12597701811,555.719714694933,636.089159529932,404.658667004661,NaN,NaN,NaN,NaN,NaN,NaN,4,0,0,NaN,NaN,NaN,vertical,horizontal,horizontal,none,none,none
1d,7,100221,2,34,98,26,M,NA,constant,homogeneous,3,present,1.27156186103821,1,vertical,vertical,1,0.764703369140625,green,3,1,636.089159529932,404.658667004661,712.784863451954,839.621618300407,712.784863451954,839.621618300407,1051.12597701811,555.719714694933,636.089159529932,404.658667004661,NaN,NaN,NaN,NaN,NaN,NaN,0,0,4,NaN,NaN,NaN,horizontal,vertical,vertical,none,none,none
1d,7,100221,2,35,99,26,M,NA,constant,homogeneous,6,present,0.835185050964355,1,vertical,vertical,1,0.705880737304687,green,3,5,963.910840470068,404.658667004661,548.874022981887,555.719714694933,887.215136548046,839.621618300407,1051.12597701811,644.280285305067,963.910840470068,404.658667004661,712.784863451954,360.378381699593,548.874022981887,555.719714694933,636.089159529932,795.341332995339,0,0,4,0,0,0,horizontal,vertical,vertical,horizontal,horizontal,horizontal
1d,7,100221,2,36,100,26,M,NA,constant,homogeneous,6,absent,0.697611093521118,1,horizontal,horizontal,1,0.682351684570312,green,5,NaN,545.03883773512,595.549636358493,NaN,NaN,923.626453162816,823.028025320546,1054.96116226488,604.450363641507,931.334709102064,381.422338320961,676.373546837184,376.971974679454,545.03883773512,595.549636358493,668.665290897936,818.577661679039,0,0,0,0,4,0,horizontal,vertical,horizontal,vertical,horizontal,vertical
1d,7,100221,2,37,101,26,M,NA,constant,homogeneous,5,absent,1.04177308082581,1,horizontal,horizontal,1,0.6941162109375,green,4,NaN,657.405809614959,388.595418998464,NaN,NaN,791.100628340862,854.844660889869,1039.62161830041,687.215136548046,956.993676208043,399.057257830286,657.405809614959,388.595418998464,554.878267535729,670.287525733335,NaN,NaN,0,0,0,4,0,NaN,horizontal,vertical,vertical,horizontal,horizontal,none
1d,7,100221,2,38,102,26,M,NA,constant,homogeneous,6,absent,0.881396055221558,1,vertical,vertical,1,0.729409790039062,green,6,NaN,639.523300282292,798.172220171528,NaN,NaN,891.383827134052,838.063008756786,1051.86052685176,639.890788585259,960.476699717708,401.827779828472,708.616172865948,361.936991243214,548.13947314824,560.109211414741,639.523300282292,798.172220171528,0,0,0,0,0,4,horizontal,vertical,horizontal,vertical,vertical,vertical
1d,7,100221,2,39,103,26,M,NA,constant,homogeneous,5,absent,0.986169099807739,1,vertical,vertical,1,0.952935791015625,green,3,NaN,973.909581815937,413.504806087112,NaN,NaN,768.923317431687,853.099268668537,1031.10848569435,707.767656743878,973.909581815937,413.504806087112,676.373546837184,376.971974679454,549.685068220846,648.656293821019,NaN,NaN,0,0,4,0,0,NaN,horizontal,horizontal,vertical,vertical,horizontal,none
1d,7,100221,2,40,104,26,M,NA,constant,homogeneous,4,present,0.765599966049194,1,horizontal,horizontal,1,0.97646484375,green,1,2,664.870587620533,816.252264519889,1016.25226451989,735.129412379467,664.870587620533,816.252264519889,1016.25226451989,735.129412379467,935.129412379467,383.747735480111,583.747735480111,464.870587620533,NaN,NaN,NaN,NaN,4,0,0,0,NaN,NaN,horizontal,horizontal,vertical,horizontal,none,none
1d,7,100221,2,41,105,26,M,NA,constant,homogeneous,5,absent,1.06597805023193,1,horizontal,horizontal,1,1.03528747558594,green,2,NaN,977.137884467044,783.431649086356,NaN,NaN,680.284751489598,825.151636179026,977.137884467044,783.431649086356,1029.19248180629,488.215357568785,764.510859255183,347.4816424709,548.874022981887,555.719714694933,NaN,NaN,0,4,0,0,0,NaN,horizontal,horizontal,vertical,vertical,horizontal,none
1d,7,100221,2,42,106,26,M,NA,constant,homogeneous,5,absent,0.845728874206543,1,vertical,vertical,1,0.717645263671875,green,2,NaN,1048.46436652023,542.637481142314,NaN,NaN,931.334709102064,818.577661679039,1048.46436652023,542.637481142314,822.224714400653,345.970351986605,565.271262369628,500.363562235235,632.704947607421,792.450942956807,NaN,NaN,0,4,0,0,0,NaN,horizontal,vertical,horizontal,horizontal,horizontal,none
1d,7,100221,2,43,107,26,M,NA,constant,homogeneous,6,present,1.17565608024597,1,vertical,vertical,1,1.03528747558594,green,2,4,946.261991269517,808.883771293693,907.767656743878,368.891514305654,692.232343256122,831.108485694346,946.261991269517,808.883771293693,1054.0296480134,577.775285599347,907.767656743878,368.891514305654,653.738008730483,391.116228706307,545.970351986605,622.224714400653,0,4,0,0,0,0,vertical,vertical,vertical,vertical,horizontal,vertical
1d,7,100221,2,44,108,26,M,NA,constant,homogeneous,6,absent,0.680988073348999,1,horizontal,horizontal,1,0.682351684570312,green,1,NaN,891.383827134052,838.063008756786,NaN,NaN,891.383827134052,838.063008756786,1051.86052685176,639.890788585259,960.476699717708,401.827779828472,708.616172865948,361.936991243214,548.13947314824,560.109211414741,639.523300282292,798.172220171528,4,0,0,0,0,0,horizontal,horizontal,vertical,horizontal,horizontal,vertical
1d,7,100221,2,45,109,26,M,NA,constant,homogeneous,3,absent,0.711272001266479,1,horizontal,horizontal,1,0.811761474609375,green,3,NaN,716.980120613425,358.892763222174,NaN,NaN,632.704947607421,792.450942956807,1050.31493177915,648.656293821019,716.980120613425,358.892763222174,NaN,NaN,NaN,NaN,NaN,NaN,0,0,4,NaN,NaN,NaN,vertical,horizontal,horizontal,none,none,none
1d,7,100221,2,46,110,26,M,NA,constant,homogeneous,6,absent,0.726828098297119,1,vertical,vertical,1,1.05881652832031,green,5,NaN,636.089159529932,404.658667004661,NaN,NaN,712.784863451954,839.621618300407,963.910840470068,795.341332995339,1051.12597701811,555.719714694933,887.215136548046,360.378381699593,636.089159529932,404.658667004661,548.874022981887,644.280285305067,0,0,0,0,4,0,vertical,vertical,horizontal,horizontal,vertical,vertical
1d,7,100221,2,47,111,26,M,NA,constant,homogeneous,5,present,0.701860904693604,1,vertical,vertical,1,1.02352294921875,green,2,4,1043.85771277057,674.554784704298,646.537169096228,396.34794493794,804.450363641507,854.96116226488,1043.85771277057,674.554784704298,946.261991269517,391.116228706307,646.537169096228,396.34794493794,558.892763222174,683.019879386575,NaN,NaN,0,4,0,0,0,NaN,horizontal,vertical,horizontal,vertical,horizontal,none
1d,7,100221,2,48,112,26,M,NA,constant,homogeneous,3,absent,0.591765880584717,1,horizontal,horizontal,1,0.988229370117187,green,2,NaN,1020.83647796503,727.5,NaN,NaN,579.163522034968,727.5,1020.83647796503,727.5,800,345,NaN,NaN,NaN,NaN,NaN,NaN,0,4,0,NaN,NaN,NaN,horizontal,horizontal,vertical,none,none,none
1d,7,100221,2,49,113,26,M,NA,constant,homogeneous,4,absent,0.744790077209473,1,vertical,vertical,1,0.847055053710937,green,4,NaN,558.892763222174,683.019879386575,NaN,NaN,883.019879386575,841.107236777826,1041.10723677783,516.980120613425,716.980120613425,358.892763222174,558.892763222174,683.019879386575,NaN,NaN,NaN,NaN,0,0,0,4,NaN,NaN,vertical,horizontal,vertical,vertical,none,none
1d,7,100221,2,50,114,26,M,NA,constant,homogeneous,5,present,1.04217195510864,1,horizontal,horizontal,1,0.917642211914062,green,4,3,768.923317431687,346.900731331463,1031.10848569435,492.232343256122,676.373546837184,823.028025320546,973.909581815937,786.495193912888,1031.10848569435,492.232343256122,768.923317431687,346.900731331463,549.685068220846,551.343706178981,NaN,NaN,0,0,0,4,0,NaN,vertical,horizontal,horizontal,horizontal,horizontal,none
1d,7,100221,2,51,115,26,M,NA,constant,homogeneous,4,absent,0.603632211685181,1,vertical,vertical,1,1.02352294921875,green,3,NaN,619.68777079743,419.68777079743,NaN,NaN,980.31222920257,780.31222920257,980.31222920257,419.68777079743,619.68777079743,419.68777079743,619.68777079743,780.31222920257,NaN,NaN,NaN,NaN,0,0,4,0,NaN,NaN,vertical,horizontal,vertical,vertical,none,none
1d,7,100221,2,52,116,26,M,NA,constant,homogeneous,5,present,0.751991987228394,1,horizontal,horizontal,1,0.999993896484375,green,3,2,822.224714400653,345.970351986605,1048.46436652023,542.637481142314,931.334709102064,818.577661679039,1048.46436652023,542.637481142314,822.224714400653,345.970351986605,565.271262369628,500.363562235235,632.704947607421,792.450942956807,NaN,NaN,0,0,4,0,0,NaN,vertical,vertical,horizontal,horizontal,vertical,none
1d,7,100221,2,53,117,26,M,NA,constant,homogeneous,5,present,0.914718866348267,1,horizontal,horizontal,1,0.97646484375,green,4,5,712.784863451954,360.378381699593,545.155339110131,608.899371659138,729.712474266665,845.121732464271,1011.40458100154,742.594190385041,1000.94274216971,443.006323791957,712.784863451954,360.378381699593,545.155339110131,608.899371659138,NaN,NaN,0,0,0,4,0,NaN,horizontal,horizontal,horizontal,horizontal,horizontal,none
1d,7,100221,2,54,118,26,M,NA,constant,homogeneous,6,present,0.619385004043579,1,horizontal,horizontal,1,0.705880737304687,green,3,1,938.882953928832,386.139005173917,915.767577433584,827.206663668034,915.767577433584,827.206663668034,1054.65053136242,613.345668841951,938.882953928832,386.139005173917,684.232422566416,372.793336331966,545.349468637584,586.654331158049,661.117046071168,813.860994826083,0,0,4,0,0,0,horizontal,horizontal,horizontal,vertical,horizontal,vertical
1d,7,100221,2,55,119,26,M,NA,constant,homogeneous,4,absent,0.752053022384644,0,horizontal,vertical,1,0.811761474609375,green,2,NaN,1003.65205506206,446.537169096228,NaN,NaN,953.462830903772,803.65205506206,1003.65205506206,446.537169096228,646.537169096228,396.34794493794,596.34794493794,753.462830903772,NaN,NaN,NaN,NaN,0,4,0,0,NaN,NaN,vertical,horizontal,horizontal,vertical,none,none
1d,7,100221,2,56,120,26,M,NA,constant,homogeneous,3,absent,0.752493143081665,1,vertical,vertical,1,0.658822631835937,green,2,NaN,1054.0296480134,622.224714400653,NaN,NaN,653.738008730483,808.883771293693,1054.0296480134,622.224714400653,692.232343256122,368.891514305654,NaN,NaN,NaN,NaN,NaN,NaN,0,4,0,NaN,NaN,NaN,vertical,vertical,horizontal,none,none,none
1d,7,100221,2,57,121,26,M,NA,constant,homogeneous,4,present,0.744423151016235,1,horizontal,horizontal,1,0.635293579101562,green,4,1,601.827779828472,760.476699717708,960.476699717708,798.172220171528,960.476699717708,798.172220171528,998.172220171528,439.523300282291,639.523300282292,401.827779828472,601.827779828472,760.476699717708,NaN,NaN,NaN,NaN,0,0,0,4,NaN,NaN,horizontal,vertical,horizontal,horizontal,none,none
1d,7,100221,2,58,122,26,M,NA,constant,homogeneous,5,present,0.882759094238281,1,vertical,vertical,1,0.964700317382812,green,5,2,613.504806087112,773.909581815937,1053.09926866854,568.923317431687,907.767656743878,831.108485694346,1053.09926866854,568.923317431687,848.656293821019,349.685068220846,576.971974679454,476.373546837184,613.504806087112,773.909581815937,NaN,NaN,0,0,0,0,4,NaN,vertical,vertical,vertical,vertical,vertical,none
1d,7,100221,2,59,123,26,M,NA,constant,homogeneous,3,present,0.757865905761719,1,horizontal,horizontal,1,0.847055053710937,green,3,2,646.537169096228,396.34794493794,1053.09926866854,568.923317431687,700.363562235235,834.728737630372,1053.09926866854,568.923317431687,646.537169096228,396.34794493794,NaN,NaN,NaN,NaN,NaN,NaN,0,0,4,NaN,NaN,NaN,vertical,vertical,horizontal,none,none,none
1d,7,100221,2,60,124,26,M,NA,constant,homogeneous,3,absent,0.564784049987793,1,horizontal,horizontal,1,0.788232421875,green,3,NaN,549.685068220846,551.343706178981,NaN,NaN,883.019879386575,841.107236777826,967.295052392579,407.549057043193,549.685068220846,551.343706178981,NaN,NaN,NaN,NaN,NaN,NaN,0,0,4,NaN,NaN,NaN,horizontal,vertical,horizontal,none,none,none
1d,7,100221,2,61,125,26,M,NA,constant,homogeneous,4,present,0.733267068862915,1,vertical,vertical,1,0.64705810546875,green,4,3,545.155339110131,591.100628340862,808.899371659138,345.155339110131,791.100628340862,854.844660889869,1054.84466088987,608.899371659138,808.899371659138,345.155339110131,545.155339110131,591.100628340862,NaN,NaN,NaN,NaN,0,0,0,4,NaN,NaN,vertical,vertical,vertical,vertical,none,none
1d,7,100221,2,62,126,26,M,NA,constant,homogeneous,6,absent,0.852057933807373,1,horizontal,horizontal,1,1.01175842285156,green,3,NaN,1006.29933356561,450.114760665419,NaN,NaN,826.654758133252,853.60308331891,1032.95409169886,703.717843984329,1006.29933356561,450.114760665419,773.345241866748,346.39691668109,567.045908301137,496.282156015671,593.700666434388,749.885239334581,0,0,4,0,0,0,vertical,vertical,horizontal,vertical,vertical,vertical
1d,7,100221,2,63,127,26,M,NA,constant,homogeneous,3,absent,0.526267051696777,1,horizontal,horizontal,1,0.635293579101562,green,3,NaN,599.057257830286,443.006323791957,NaN,NaN,764.510859255183,852.518357529101,1036.43188291453,504.475318678942,599.057257830286,443.006323791957,NaN,NaN,NaN,NaN,NaN,NaN,0,0,4,NaN,NaN,NaN,vertical,horizontal,horizontal,none,none,none
1d,7,100221,2,64,128,26,M,NA,constant,homogeneous,3,present,0.59495210647583,1,horizontal,horizontal,1,0.905877685546875,green,2,1,1006.29933356561,450.114760665419,826.654758133252,853.60308331891,826.654758133252,853.60308331891,1006.29933356561,450.114760665419,567.045908301137,496.282156015671,NaN,NaN,NaN,NaN,NaN,NaN,0,4,0,NaN,NaN,NaN,horizontal,horizontal,horizontal,none,none,none
1d,7,100221,3,1,129,26,M,NA,constant,homogeneous,3,absent,0.854862928390503,1,horizontal,horizontal,1,1.02352294921875,green,2,NaN,839.890788585259,348.13947314824,NaN,NaN,998.172220171528,760.476699717708,839.890788585259,348.13947314824,561.936991243214,691.383827134052,NaN,NaN,NaN,NaN,NaN,NaN,0,4,0,NaN,NaN,NaN,horizontal,horizontal,horizontal,none,none,none
1d,7,100221,3,2,130,26,M,NA,constant,homogeneous,6,present,0.708633899688721,1,horizontal,horizontal,1,0.823526000976562,green,6,2,548.13947314824,639.890788585259,960.476699717708,798.172220171528,708.616172865948,838.063008756786,960.476699717708,798.172220171528,1051.86052685176,560.109211414741,891.383827134052,361.936991243214,639.523300282292,401.827779828472,548.13947314824,639.890788585259,0,0,0,0,0,4,horizontal,vertical,vertical,vertical,vertical,horizontal
1d,7,100221,3,3,131,26,M,NA,constant,homogeneous,5,absent,0.664713859558105,1,vertical,vertical,1,0.894113159179687,green,4,NaN,664.870587620533,383.747735480111,NaN,NaN,782.212099195248,854.378832816255,1036.43188291453,695.524681321058,963.910840470068,404.658667004661,664.870587620533,383.747735480111,552.574589799621,661.690083377915,NaN,NaN,0,0,0,4,0,NaN,vertical,vertical,vertical,vertical,horizontal,none
1d,7,100221,3,4,132,26,M,NA,constant,homogeneous,5,present,0.553755044937134,1,horizontal,horizontal,1,0.97646484375,green,1,2,661.117046071168,813.860994826083,960.476699717708,798.172220171528,661.117046071168,813.860994826083,960.476699717708,798.172220171528,1038.06300875679,508.616172865948,786.654331158049,345.349468637584,553.688914296288,534.001143498857,NaN,NaN,4,0,0,0,0,NaN,horizontal,vertical,vertical,horizontal,vertical,none
1d,7,100221,3,5,133,26,M,NA,constant,homogeneous,5,absent,0.793805122375488,1,vertical,vertical,1,0.635293579101562,green,4,NaN,572.793336331966,484.232422566416,NaN,NaN,915.767577433584,827.206663668034,1051.86052685176,560.109211414741,839.890788585259,348.13947314824,572.793336331966,484.232422566416,619.68777079743,780.31222920257,NaN,NaN,0,0,0,4,0,NaN,vertical,vertical,horizontal,vertical,horizontal,none
1d,7,100221,3,6,134,26,M,NA,constant,homogeneous,5,absent,0.837584972381592,1,vertical,vertical,1,1.01175842285156,green,2,NaN,1054.37883281626,617.787900804752,NaN,NaN,861.690083377915,847.425410200379,1054.37883281626,617.787900804752,895.524681321058,363.568117085469,604.658667004661,436.089159529932,583.747735480111,735.129412379467,NaN,NaN,0,4,0,0,0,NaN,horizontal,vertical,vertical,vertical,vertical,none
1d,7,100221,3,7,135,26,M,NA,constant,homogeneous,4,absent,0.557168006896973,1,vertical,vertical,1,0.905877685546875,green,3,NaN,777.775285599347,345.970351986605,NaN,NaN,822.224714400653,854.029648013395,1054.0296480134,577.775285599347,777.775285599347,345.970351986605,545.970351986605,622.224714400653,NaN,NaN,NaN,NaN,0,0,4,0,NaN,NaN,horizontal,horizontal,vertical,horizontal,none,none
1d,7,100221,3,8,136,26,M,NA,constant,homogeneous,4,absent,0.78214693069458,1,horizontal,horizontal,1,0.682351684570312,green,4,NaN,552.574589799621,538.309916622085,NaN,NaN,738.309916622085,847.425410200379,1047.42541020038,661.690083377915,861.690083377915,352.574589799621,552.574589799621,538.309916622085,NaN,NaN,NaN,NaN,0,0,0,4,NaN,NaN,horizontal,horizontal,horizontal,horizontal,none,none
1d,7,100221,3,9,137,26,M,NA,constant,homogeneous,3,present,0.714319944381714,1,horizontal,horizontal,1,0.623529052734375,green,2,1,907.767656743878,368.891514305654,946.261991269517,808.883771293693,946.261991269517,808.883771293693,907.767656743878,368.891514305654,545.970351986605,622.224714400653,NaN,NaN,NaN,NaN,NaN,NaN,0,4,0,NaN,NaN,NaN,vertical,horizontal,vertical,none,none,none
1d,7,100221,3,10,138,26,M,NA,constant,homogeneous,6,present,0.998621940612793,0,vertical,horizontal,1,1.09411010742188,green,1,3,817.787900804752,854.378832816255,1011.40458100154,457.40580961496,817.787900804752,854.378832816255,1029.19248180629,711.784642431215,1011.40458100154,457.40580961496,782.212099195248,345.621167183745,570.807518193712,488.215357568785,588.595418998464,742.594190385041,4,0,0,0,0,0,vertical,horizontal,horizontal,horizontal,horizontal,vertical
1d,7,100221,3,11,139,26,M,NA,constant,homogeneous,4,absent,0.921947002410889,1,horizontal,horizontal,1,0.952935791015625,green,3,NaN,970.628304621509,410.498069503264,NaN,NaN,629.371695378491,789.501930496736,989.501930496736,770.628304621509,970.628304621509,410.498069503264,610.498069503264,429.371695378491,NaN,NaN,NaN,NaN,0,0,4,0,NaN,NaN,horizontal,horizontal,horizontal,horizontal,none,none
1d,7,100221,3,12,140,26,M,NA,constant,homogeneous,6,present,0.96248197555542,1,horizontal,horizontal,1,0.6941162109375,green,1,5,887.215136548046,839.621618300407,548.874022981887,555.719714694933,887.215136548046,839.621618300407,1051.12597701811,644.280285305067,963.910840470068,404.658667004661,712.784863451954,360.378381699593,548.874022981887,555.719714694933,636.089159529932,795.341332995339,4,0,0,0,0,0,horizontal,vertical,horizontal,vertical,horizontal,vertical
1d,7,100221,3,13,141,26,M,NA,constant,homogeneous,3,absent,0.716320991516113,1,horizontal,horizontal,1,0.92940673828125,green,1,NaN,874.554784704298,843.857712770574,NaN,NaN,874.554784704298,843.857712770574,973.909581815937,413.504806087112,551.535633479765,542.637481142314,NaN,NaN,NaN,NaN,NaN,NaN,4,0,0,NaN,NaN,NaN,horizontal,horizontal,vertical,none,none,none
1d,7,100221,3,14,142,26,M,NA,constant,homogeneous,5,absent,0.818065166473389,1,vertical,vertical,1,0.752938842773437,green,3,NaN,1023.02802532055,476.373546837184,NaN,NaN,692.232343256122,831.108485694346,986.495193912888,773.909581815937,1023.02802532055,476.373546837184,751.343706178981,349.685068220846,546.900731331463,568.923317431687,NaN,NaN,0,0,4,0,0,NaN,vertical,horizontal,vertical,horizontal,horizontal,none
1d,7,100221,3,15,143,26,M,NA,constant,homogeneous,5,absent,0.74048113822937,1,horizontal,horizontal,1,0.6941162109375,green,4,NaN,557.480588344736,521.200666434388,NaN,NaN,949.885239334581,806.299333565612,1042.51941165526,521.200666434388,800,345,557.480588344736,521.200666434388,650.114760665419,806.299333565612,NaN,NaN,0,0,0,4,0,NaN,horizontal,horizontal,vertical,horizontal,horizontal,none
1d,7,100221,3,16,144,26,M,NA,constant,homogeneous,6,absent,0.816641092300415,1,vertical,vertical,1,1.05881652832031,green,2,NaN,995.341332995339,763.910840470068,NaN,NaN,755.719714694933,851.125977018113,995.341332995339,763.910840470068,1039.62161830041,512.784863451954,844.280285305067,348.874022981887,604.658667004661,436.089159529932,560.378381699593,687.215136548046,0,4,0,0,0,0,horizontal,vertical,horizontal,vertical,horizontal,horizontal
1d,7,100221,3,17,145,26,M,NA,constant,homogeneous,5,present,0.749405860900879,1,vertical,vertical,1,0.811761474609375,green,2,4,1051.86052685176,560.109211414741,572.793336331966,484.232422566416,915.767577433584,827.206663668034,1051.86052685176,560.109211414741,839.890788585259,348.13947314824,572.793336331966,484.232422566416,619.68777079743,780.31222920257,NaN,NaN,0,4,0,0,0,NaN,vertical,vertical,vertical,vertical,vertical,none
1d,7,100221,3,18,146,26,M,NA,constant,homogeneous,3,present,0.794104099273682,1,vertical,vertical,1,0.8823486328125,green,3,1,572.793336331966,715.767577433584,1013.86099482608,738.882953928832,1013.86099482608,738.882953928832,813.345668841951,345.349468637584,572.793336331966,715.767577433584,NaN,NaN,NaN,NaN,NaN,NaN,0,0,4,NaN,NaN,NaN,vertical,vertical,vertical,none,none,none
1d,7,100221,3,19,147,26,M,NA,constant,homogeneous,6,absent,0.755531072616577,1,horizontal,horizontal,1,0.870584106445312,green,3,NaN,1029.19248180629,488.215357568785,NaN,NaN,782.212099195248,854.378832816255,1011.40458100154,742.594190385041,1029.19248180629,488.215357568785,817.787900804752,345.621167183745,588.595418998464,457.40580961496,570.807518193712,711.784642431215,0,0,4,0,0,0,vertical,vertical,horizontal,vertical,horizontal,vertical
1d,7,100221,3,20,148,26,M,NA,constant,homogeneous,4,absent,0.8821120262146,0,horizontal,vertical,1,0.964700317382812,green,2,NaN,1003.65205506206,446.537169096228,NaN,NaN,953.462830903772,803.65205506206,1003.65205506206,446.537169096228,646.537169096228,396.34794493794,596.34794493794,753.462830903772,NaN,NaN,NaN,NaN,0,4,0,0,NaN,NaN,vertical,horizontal,vertical,horizontal,none,none
1d,7,100221,3,21,149,26,M,NA,constant,homogeneous,4,absent,0.619543075561523,1,vertical,vertical,1,0.776467895507812,green,2,NaN,1052.5183575291,635.489140744817,NaN,NaN,764.510859255183,852.518357529101,1052.5183575291,635.489140744817,835.489140744817,347.4816424709,547.481642470899,564.510859255183,NaN,NaN,NaN,NaN,0,4,0,0,NaN,NaN,horizontal,vertical,vertical,horizontal,none,none
1d,7,100221,3,22,150,26,M,NA,constant,homogeneous,5,absent,0.899492979049683,1,horizontal,horizontal,1,0.776467895507812,green,1,NaN,791.100628340862,854.844660889869,NaN,NaN,791.100628340862,854.844660889869,1039.62161830041,687.215136548046,956.993676208043,399.057257830286,657.405809614959,388.595418998464,554.878267535729,670.287525733335,NaN,NaN,4,0,0,0,0,NaN,horizontal,vertical,horizontal,vertical,vertical,none
1d,7,100221,3,23,151,26,M,NA,constant,homogeneous,4,absent,0.783000946044922,1,horizontal,horizontal,1,0.858819580078125,green,1,NaN,883.019879386575,841.107236777826,NaN,NaN,883.019879386575,841.107236777826,1041.10723677783,516.980120613425,716.980120613425,358.892763222174,558.892763222174,683.019879386575,NaN,NaN,NaN,NaN,4,0,0,0,NaN,NaN,horizontal,horizontal,vertical,horizontal,none,none
1d,7,100221,3,24,152,26,M,NA,constant,homogeneous,3,absent,0.889366865158081,1,horizontal,horizontal,1,0.92940673828125,green,2,NaN,861.690083377915,352.574589799621,NaN,NaN,983.431649086356,777.137884467044,861.690083377915,352.574589799621,554.878267535729,670.287525733335,NaN,NaN,NaN,NaN,NaN,NaN,0,4,0,NaN,NaN,NaN,vertical,horizontal,vertical,none,none,none
1d,7,100221,3,25,153,26,M,NA,constant,homogeneous,6,absent,1.42300701141357,1,horizontal,horizontal,1,0.988229370117187,green,3,NaN,935.129412379467,383.747735480111,NaN,NaN,919.715248510402,825.151636179026,1054.84466088987,608.899371659138,935.129412379467,383.747735480111,680.284751489598,374.848363820974,545.155339110131,591.100628340862,664.870587620533,816.252264519889,0,0,4,0,0,0,vertical,horizontal,horizontal,vertical,horizontal,horizontal
1d,7,100221,3,26,154,26,M,NA,constant,homogeneous,5,present,0.655986070632935,1,vertical,vertical,1,0.611764526367187,green,4,5,700.363562235235,365.271262369628,545.970351986605,622.224714400653,742.637481142314,848.464366520235,1018.57766167904,731.334709102064,992.450942956807,432.704947607421,700.363562235235,365.271262369628,545.970351986605,622.224714400653,NaN,NaN,0,0,0,4,0,NaN,horizontal,horizontal,vertical,vertical,vertical,none
1d,7,100221,3,27,155,26,M,NA,constant,homogeneous,6,absent,0.560081005096436,1,vertical,vertical,1,0.941171264648437,green,3,NaN,970.628304621509,410.498069503264,NaN,NaN,878.799333565612,842.519411655264,1049.42763818712,653.017481158529,970.628304621509,410.498069503264,721.200666434388,357.480588344736,550.57236181288,546.982518841471,629.371695378491,789.501930496736,0,0,4,0,0,0,vertical,vertical,vertical,vertical,vertical,horizontal
1d,7,100221,3,28,156,26,M,NA,constant,homogeneous,3,present,0.669281959533691,1,vertical,vertical,1,0.894113159179687,green,1,2,619.68777079743,780.31222920257,1046.31108570371,665.998856501143,619.68777079743,780.31222920257,1046.31108570371,665.998856501143,734.001143498857,353.688914296288,NaN,NaN,NaN,NaN,NaN,NaN,4,0,0,NaN,NaN,NaN,vertical,horizontal,horizontal,none,none,none
1d,7,100221,3,29,157,26,M,NA,constant,homogeneous,3,absent,0.503641128540039,1,vertical,vertical,1,0.635293579101562,green,2,NaN,1051.86052685176,639.890788585259,NaN,NaN,639.523300282292,798.172220171528,1051.86052685176,639.890788585259,708.616172865948,361.936991243214,NaN,NaN,NaN,NaN,NaN,NaN,0,4,0,NaN,NaN,NaN,horizontal,vertical,vertical,none,none,none
1d,7,100221,3,30,158,26,M,NA,constant,homogeneous,5,present,0.915387153625488,1,horizontal,horizontal,1,0.682351684570312,green,1,2,657.405809614959,811.404581001536,956.993676208043,800.942742169714,657.405809614959,811.404581001536,956.993676208043,800.942742169714,1039.62161830041,512.784863451954,791.100628340862,345.155339110131,554.878267535729,529.712474266665,NaN,NaN,4,0,0,0,0,NaN,horizontal,horizontal,vertical,horizontal,horizontal,none
1d,7,100221,3,31,159,26,M,NA,constant,homogeneous,6,absent,0.795403003692627,1,vertical,vertical,1,0.8823486328125,green,1,NaN,844.280285305067,851.125977018113,NaN,NaN,844.280285305067,851.125977018113,1039.62161830041,687.215136548046,995.341332995339,436.089159529932,755.719714694933,348.874022981887,560.378381699593,512.784863451954,604.658667004661,763.910840470068,4,0,0,0,0,0,vertical,vertical,horizontal,horizontal,vertical,horizontal
1d,7,100221,3,32,160,26,M,NA,constant,homogeneous,3,absent,0.65192699432373,0,vertical,horizontal,1,0.623529052734375,green,3,NaN,545.621167183745,617.787900804752,NaN,NaN,942.594190385041,811.404581001536,911.784642431215,370.807518193712,545.621167183745,617.787900804752,NaN,NaN,NaN,NaN,NaN,NaN,0,0,4,NaN,NaN,NaN,horizontal,vertical,vertical,none,none,none
1d,7,100221,3,33,161,26,M,NA,constant,homogeneous,4,present,1.39200210571289,1,horizontal,horizontal,1,0.729409790039062,green,1,4,680.284751489598,825.151636179026,574.848363820974,480.284751489598,680.284751489598,825.151636179026,1025.15163617903,719.715248510402,919.715248510402,374.848363820974,574.848363820974,480.284751489598,NaN,NaN,NaN,NaN,4,0,0,0,NaN,NaN,horizontal,horizontal,horizontal,horizontal,none,none
1d,7,100221,3,34,162,26,M,NA,constant,homogeneous,6,present,0.843340873718262,1,vertical,vertical,1,0.988229370117187,green,3,1,1055,600,672.5,820.836477965032,672.5,820.836477965032,927.5,820.836477965032,1055,600,927.5,379.163522034968,672.5,379.163522034968,545,600,0,0,4,0,0,0,horizontal,horizontal,vertical,vertical,horizontal,vertical
1d,7,100221,3,35,163,26,M,NA,constant,homogeneous,3,absent,0.923377990722656,1,vertical,vertical,1,0.752938842773437,green,3,NaN,755.719714694933,348.874022981887,NaN,NaN,604.658667004661,763.910840470068,1039.62161830041,687.215136548046,755.719714694933,348.874022981887,NaN,NaN,NaN,NaN,NaN,NaN,0,0,4,NaN,NaN,NaN,horizontal,horizontal,vertical,none,none,none
1d,7,100221,3,36,164,26,M,NA,constant,homogeneous,6,present,0.767305850982666,1,vertical,vertical,1,0.858819580078125,green,5,4,546.900731331463,568.923317431687,700.363562235235,365.271262369628,899.636437764765,834.728737630372,1053.09926866854,631.076682568313,953.462830903772,396.34794493794,700.363562235235,365.271262369628,546.900731331463,568.923317431687,646.537169096228,803.65205506206,0,0,0,0,4,0,horizontal,horizontal,horizontal,horizontal,vertical,horizontal
1d,7,100221,3,37,165,26,M,NA,constant,homogeneous,4,present,0.644013166427612,1,horizontal,horizontal,1,1.05881652832031,green,3,1,931.334709102064,381.422338320961,668.665290897936,818.577661679039,668.665290897936,818.577661679039,1018.57766167904,731.334709102064,931.334709102064,381.422338320961,581.422338320961,468.665290897936,NaN,NaN,NaN,NaN,0,0,4,0,NaN,NaN,horizontal,vertical,horizontal,vertical,none,none
1d,7,100221,3,38,166,26,M,NA,constant,homogeneous,4,present,0.646456003189087,1,vertical,vertical,1,0.870584106445312,green,4,1,545.155339110131,608.899371659138,808.899371659138,854.844660889869,808.899371659138,854.844660889869,1054.84466088987,591.100628340862,791.100628340862,345.155339110131,545.155339110131,608.899371659138,NaN,NaN,NaN,NaN,0,0,0,4,NaN,NaN,horizontal,vertical,horizontal,vertical,none,none
1d,7,100221,3,39,167,26,M,NA,constant,homogeneous,3,present,0.725500822067261,1,horizontal,horizontal,1,0.894113159179687,green,1,2,782.212099195248,854.378832816255,1029.19248180629,488.215357568785,782.212099195248,854.378832816255,1029.19248180629,488.215357568785,588.595418998464,457.40580961496,NaN,NaN,NaN,NaN,NaN,NaN,4,0,0,NaN,NaN,NaN,horizontal,horizontal,vertical,none,none,none
1d,7,100221,3,40,168,26,M,NA,constant,homogeneous,4,present,0.601132154464722,1,horizontal,horizontal,1,1.05881652832031,green,4,2,604.658667004661,763.910840470068,995.341332995339,436.089159529932,963.910840470068,795.341332995339,995.341332995339,436.089159529932,636.089159529932,404.658667004661,604.658667004661,763.910840470068,NaN,NaN,NaN,NaN,0,0,0,4,NaN,NaN,vertical,horizontal,horizontal,horizontal,none,none
1d,7,100221,3,41,169,26,M,NA,constant,homogeneous,5,present,0.680783033370972,1,vertical,vertical,1,0.764703369140625,green,2,5,983.431649086356,777.137884467044,547.481642470899,564.510859255183,688.215357568785,829.192481806288,983.431649086356,777.137884467044,1025.15163617903,480.284751489598,755.719714694933,348.874022981887,547.481642470899,564.510859255183,NaN,NaN,0,4,0,0,0,NaN,horizontal,vertical,vertical,horizontal,horizontal,none
1d,7,100221,3,42,170,26,M,NA,constant,homogeneous,5,present,0.825437068939209,1,vertical,vertical,1,0.74117431640625,green,5,2,550.57236181288,546.982518841471,970.628304621509,789.501930496736,672.5,820.836477965032,970.628304621509,789.501930496736,1032.95409169886,496.282156015671,773.345241866748,346.39691668109,550.57236181288,546.982518841471,NaN,NaN,0,0,0,0,4,NaN,vertical,horizontal,vertical,vertical,vertical,none
1d,7,100221,3,43,171,26,M,NA,constant,homogeneous,4,present,0.789654016494751,1,vertical,vertical,1,0.97646484375,green,3,2,708.616172865948,361.936991243214,1038.06300875679,508.616172865948,891.383827134052,838.063008756786,1038.06300875679,508.616172865948,708.616172865948,361.936991243214,561.936991243214,691.383827134052,NaN,NaN,NaN,NaN,0,0,4,0,NaN,NaN,horizontal,horizontal,vertical,vertical,none,none
1d,7,100221,3,44,172,26,M,NA,constant,homogeneous,5,present,0.585345983505249,1,horizontal,horizontal,1,0.988229370117187,green,5,2,548.874022981887,555.719714694933,977.137884467044,783.431649086356,680.284751489598,825.151636179026,977.137884467044,783.431649086356,1029.19248180629,488.215357568785,764.510859255183,347.4816424709,548.874022981887,555.719714694933,NaN,NaN,0,0,0,0,4,NaN,vertical,horizontal,horizontal,vertical,horizontal,none
1d,7,100221,3,45,173,26,M,NA,constant,homogeneous,3,present,0.692291975021362,1,horizontal,horizontal,1,0.952935791015625,green,3,2,560.378381699593,687.215136548046,844.280285305067,348.874022981887,995.341332995339,763.910840470068,844.280285305067,348.874022981887,560.378381699593,687.215136548046,NaN,NaN,NaN,NaN,NaN,NaN,0,0,4,NaN,NaN,NaN,vertical,horizontal,horizontal,none,none,none
1d,7,100221,3,46,174,26,M,NA,constant,homogeneous,6,absent,0.688995838165283,1,horizontal,horizontal,1,0.941171264648437,green,6,NaN,572.793336331966,715.767577433584,NaN,NaN,786.654331158049,854.650531362416,1013.86099482608,738.882953928832,1027.20666366803,484.232422566416,813.345668841951,345.349468637584,586.139005173917,461.117046071168,572.793336331966,715.767577433584,0,0,0,0,0,4,horizontal,vertical,vertical,vertical,horizontal,horizontal
1d,7,100221,3,47,175,26,M,NA,constant,homogeneous,6,absent,1.26085495948792,1,horizontal,horizontal,1,0.894113159179687,green,4,NaN,899.636437764765,365.271262369628,NaN,NaN,700.363562235235,834.728737630372,953.462830903772,803.65205506206,1053.09926866854,568.923317431687,899.636437764765,365.271262369628,646.537169096228,396.34794493794,546.900731331463,631.076682568313,0,0,0,4,0,0,vertical,vertical,vertical,horizontal,horizontal,horizontal
1d,7,100221,3,48,176,26,M,NA,constant,homogeneous,4,present,1.05565309524536,1,vertical,vertical,1,0.870584106445312,green,3,1,768.923317431687,346.900731331463,831.076682568313,853.099268668537,831.076682568313,853.099268668537,1053.09926866854,568.923317431687,768.923317431687,346.900731331463,546.900731331463,631.076682568313,NaN,NaN,NaN,NaN,0,0,4,0,NaN,NaN,vertical,horizontal,vertical,horizontal,none,none
1d,7,100221,3,49,177,26,M,NA,constant,homogeneous,6,present,0.862285137176514,1,horizontal,horizontal,1,0.670587158203125,green,3,6,1046.31108570371,534.001143498857,553.688914296288,665.998856501143,734.001143498857,846.311085703712,980.31222920257,780.31222920257,1046.31108570371,534.001143498857,865.998856501143,353.688914296288,619.68777079743,419.68777079743,553.688914296288,665.998856501143,0,0,4,0,0,0,horizontal,vertical,horizontal,vertical,horizontal,horizontal
1d,7,100221,3,50,178,26,M,NA,constant,homogeneous,3,present,0.609627962112427,1,vertical,vertical,1,0.6941162109375,green,2,1,1003.65205506206,446.537169096228,831.076682568313,853.099268668537,831.076682568313,853.099268668537,1003.65205506206,446.537169096228,565.271262369628,500.363562235235,NaN,NaN,NaN,NaN,NaN,NaN,0,4,0,NaN,NaN,NaN,vertical,vertical,vertical,none,none,none
1d,7,100221,3,51,179,26,M,NA,constant,homogeneous,6,absent,1.0956130027771,1,vertical,vertical,1,0.6941162109375,green,1,NaN,891.383827134052,838.063008756786,NaN,NaN,891.383827134052,838.063008756786,1051.86052685176,639.890788585259,960.476699717708,401.827779828472,708.616172865948,361.936991243214,548.13947314824,560.109211414741,639.523300282292,798.172220171528,4,0,0,0,0,0,vertical,vertical,horizontal,horizontal,vertical,vertical
1d,7,100221,3,52,180,26,M,NA,constant,homogeneous,3,absent,0.770048141479492,1,horizontal,horizontal,1,0.611764526367187,green,3,NaN,548.13947314824,560.109211414741,NaN,NaN,891.383827134052,838.063008756786,960.476699717708,401.827779828472,548.13947314824,560.109211414741,NaN,NaN,NaN,NaN,NaN,NaN,0,0,4,NaN,NaN,NaN,vertical,horizontal,horizontal,none,none,none
1d,7,100221,3,53,181,26,M,NA,constant,homogeneous,5,absent,0.929206132888794,1,horizontal,horizontal,1,0.776467895507812,green,1,NaN,729.712474266665,845.121732464271,NaN,NaN,729.712474266665,845.121732464271,1011.40458100154,742.594190385041,1000.94274216971,443.006323791957,712.784863451954,360.378381699593,545.155339110131,608.899371659138,NaN,NaN,4,0,0,0,0,NaN,horizontal,vertical,vertical,horizontal,vertical,none
1d,7,100221,3,54,182,26,M,NA,constant,homogeneous,4,present,0.715966939926147,1,vertical,vertical,1,0.999993896484375,green,2,4,1031.10848569435,492.232343256122,568.891514305654,707.767656743878,907.767656743878,831.108485694346,1031.10848569435,492.232343256122,692.232343256122,368.891514305654,568.891514305654,707.767656743878,NaN,NaN,NaN,NaN,0,4,0,0,NaN,NaN,vertical,vertical,horizontal,vertical,none,none
1d,7,100221,3,55,183,26,M,NA,constant,homogeneous,5,absent,1.16783690452576,1,horizontal,horizontal,1,0.670587158203125,green,1,NaN,927.5,820.836477965032,NaN,NaN,927.5,820.836477965032,1049.42763818712,546.982518841471,826.654758133252,346.39691668109,567.045908301137,496.282156015671,629.371695378491,789.501930496736,NaN,NaN,4,0,0,0,0,NaN,horizontal,horizontal,vertical,horizontal,horizontal,none
1d,7,100221,3,56,184,26,M,NA,constant,homogeneous,4,absent,0.708611965179443,1,vertical,vertical,1,1.05881652832031,green,4,NaN,545.621167183745,617.787900804752,NaN,NaN,817.787900804752,854.378832816255,1054.37883281626,582.212099195248,782.212099195248,345.621167183745,545.621167183745,617.787900804752,NaN,NaN,NaN,NaN,0,0,0,4,NaN,NaN,vertical,horizontal,horizontal,vertical,none,none
1d,7,100221,3,57,185,26,M,NA,constant,homogeneous,3,present,0.786895036697388,1,horizontal,horizontal,1,1.01175842285156,green,2,3,1047.42541020038,661.690083377915,729.712474266665,354.878267535729,622.862115532956,783.431649086356,1047.42541020038,661.690083377915,729.712474266665,354.878267535729,NaN,NaN,NaN,NaN,NaN,NaN,0,4,0,NaN,NaN,NaN,vertical,horizontal,vertical,none,none,none
1d,7,100221,3,58,186,26,M,NA,constant,homogeneous,6,present,0.670913934707642,1,vertical,vertical,1,0.788232421875,green,5,4,553.688914296288,534.001143498857,734.001143498857,353.688914296288,865.998856501143,846.311085703712,1046.31108570371,665.998856501143,980.31222920257,419.68777079743,734.001143498857,353.688914296288,553.688914296288,534.001143498857,619.68777079743,780.31222920257,0,0,0,0,4,0,vertical,horizontal,vertical,horizontal,vertical,horizontal
1d,7,100221,3,59,187,26,M,NA,constant,homogeneous,6,present,1.03761291503906,1,horizontal,horizontal,1,1.04705200195313,green,3,1,1025.15163617903,480.284751489598,791.100628340862,854.844660889869,791.100628340862,854.844660889869,1016.25226451989,735.129412379467,1025.15163617903,480.284751489598,808.899371659138,345.155339110131,583.747735480111,464.870587620533,574.848363820974,719.715248510402,0,0,4,0,0,0,vertical,horizontal,horizontal,vertical,horizontal,horizontal
1d,7,100221,3,60,188,26,M,NA,constant,homogeneous,3,absent,0.675673007965088,1,vertical,vertical,1,1.05881652832031,green,2,NaN,1034.72873763037,699.636437764765,NaN,NaN,596.34794493794,753.462830903772,1034.72873763037,699.636437764765,768.923317431687,346.900731331463,NaN,NaN,NaN,NaN,NaN,NaN,0,4,0,NaN,NaN,NaN,horizontal,vertical,vertical,none,none,none
1d,7,100221,3,61,189,26,M,NA,constant,homogeneous,3,present,0.60706901550293,1,vertical,vertical,1,1.08234558105469,green,2,3,1003.65205506206,446.537169096228,565.271262369628,500.363562235235,831.076682568313,853.099268668537,1003.65205506206,446.537169096228,565.271262369628,500.363562235235,NaN,NaN,NaN,NaN,NaN,NaN,0,4,0,NaN,NaN,NaN,vertical,vertical,vertical,none,none,none
1d,7,100221,3,62,190,26,M,NA,constant,homogeneous,4,present,0.784919023513794,1,horizontal,horizontal,1,0.682351684570312,green,3,1,817.787900804752,345.621167183745,782.212099195248,854.378832816255,782.212099195248,854.378832816255,1054.37883281626,617.787900804752,817.787900804752,345.621167183745,545.621167183745,582.212099195248,NaN,NaN,NaN,NaN,0,0,4,0,NaN,NaN,horizontal,horizontal,horizontal,horizontal,none,none
1d,7,100221,3,63,191,26,M,NA,constant,homogeneous,4,absent,0.92851185798645,1,vertical,vertical,1,0.988229370117187,green,2,NaN,1053.09926866854,631.076682568313,NaN,NaN,768.923317431687,853.099268668537,1053.09926866854,631.076682568313,831.076682568313,346.900731331463,546.900731331463,568.923317431687,NaN,NaN,NaN,NaN,0,4,0,0,NaN,NaN,vertical,vertical,horizontal,vertical,none,none
1d,7,100221,3,64,192,26,M,NA,constant,homogeneous,5,present,0.664812088012695,1,horizontal,horizontal,1,1.08234558105469,green,5,4,553.688914296288,534.001143498857,786.654331158049,345.349468637584,661.117046071168,813.860994826083,960.476699717708,798.172220171528,1038.06300875679,508.616172865948,786.654331158049,345.349468637584,553.688914296288,534.001143498857,NaN,NaN,0,0,0,0,4,NaN,horizontal,vertical,horizontal,horizontal,horizontal,none
1d,7,100221,4,1,193,26,M,NA,constant,homogeneous,5,absent,0.71918797492981,1,vertical,vertical,1,0.682351684570312,green,2,NaN,1013.86099482608,738.882953928832,NaN,NaN,734.001143498857,846.311085703712,1013.86099482608,738.882953928832,998.172220171528,439.523300282291,708.616172865948,361.936991243214,545.349468637584,613.345668841951,NaN,NaN,0,4,0,0,0,NaN,vertical,vertical,horizontal,horizontal,horizontal,none
1d,7,100221,4,2,194,26,M,NA,constant,homogeneous,4,absent,0.481127023696899,1,vertical,vertical,1,0.964700317382812,green,2,NaN,1053.09926866854,631.076682568313,NaN,NaN,768.923317431687,853.099268668537,1053.09926866854,631.076682568313,831.076682568313,346.900731331463,546.900731331463,568.923317431687,NaN,NaN,NaN,NaN,0,4,0,0,NaN,NaN,vertical,vertical,vertical,vertical,none,none
1d,7,100221,4,3,195,26,M,NA,constant,homogeneous,5,present,0.564384937286377,1,vertical,vertical,1,0.670587158203125,green,3,4,946.261991269517,391.116228706307,646.537169096228,396.34794493794,804.450363641507,854.96116226488,1043.85771277057,674.554784704298,946.261991269517,391.116228706307,646.537169096228,396.34794493794,558.892763222174,683.019879386575,NaN,NaN,0,0,4,0,0,NaN,vertical,horizontal,vertical,vertical,vertical,none
1d,7,100221,4,4,196,26,M,NA,constant,homogeneous,6,absent,0.725409030914307,1,horizontal,horizontal,1,0.670587158203125,green,6,NaN,613.504806087112,773.909581815937,NaN,NaN,857.362518857686,848.464366520235,1043.85771277057,674.554784704298,986.495193912888,426.090418184063,742.637481142314,351.535633479765,556.142287229426,525.445215295702,613.504806087112,773.909581815937,0,0,0,0,0,4,horizontal,horizontal,horizontal,horizontal,horizontal,horizontal
1d,7,100221,4,5,197,26,M,NA,constant,homogeneous,3,absent,0.77143406867981,1,horizontal,horizontal,1,0.776467895507812,green,2,NaN,956.993676208043,399.057257830286,NaN,NaN,895.524681321058,836.431882914531,956.993676208043,399.057257830286,547.481642470899,564.510859255183,NaN,NaN,NaN,NaN,NaN,NaN,0,4,0,NaN,NaN,NaN,vertical,horizontal,vertical,none,none,none
1d,7,100221,4,6,198,26,M,NA,constant,homogeneous,3,present,0.524101972579956,1,vertical,vertical,1,0.847055053710937,green,1,2,782.212099195248,854.378832816255,1029.19248180629,488.215357568785,782.212099195248,854.378832816255,1029.19248180629,488.215357568785,588.595418998464,457.40580961496,NaN,NaN,NaN,NaN,NaN,NaN,4,0,0,NaN,NaN,NaN,vertical,vertical,vertical,none,none,none
1d,7,100221,4,7,199,26,M,NA,constant,homogeneous,5,absent,0.622024059295654,1,vertical,vertical,1,0.764703369140625,green,2,NaN,973.909581815937,786.495193912888,NaN,NaN,676.373546837184,823.028025320546,973.909581815937,786.495193912888,1031.10848569435,492.232343256122,768.923317431687,346.900731331463,549.685068220846,551.343706178981,NaN,NaN,0,4,0,0,0,NaN,vertical,vertical,vertical,horizontal,horizontal,none
1d,7,100221,4,8,200,26,M,NA,constant,homogeneous,3,absent,0.606460809707642,1,horizontal,horizontal,1,0.799996948242187,green,2,NaN,1032.95409169886,703.717843984329,NaN,NaN,593.700666434388,749.885239334581,1032.95409169886,703.717843984329,773.345241866748,346.39691668109,NaN,NaN,NaN,NaN,NaN,NaN,0,4,0,NaN,NaN,NaN,horizontal,horizontal,vertical,none,none,none
1d,7,100221,4,9,201,26,M,NA,constant,homogeneous,4,absent,0.815246820449829,1,horizontal,horizontal,1,1.03528747558594,green,2,NaN,998.172220171528,439.523300282291,NaN,NaN,960.476699717708,798.172220171528,998.172220171528,439.523300282291,639.523300282292,401.827779828472,601.827779828472,760.476699717708,NaN,NaN,NaN,NaN,0,4,0,0,NaN,NaN,vertical,horizontal,vertical,horizontal,none,none
1d,7,100221,4,10,202,26,M,NA,constant,homogeneous,4,present,0.721786975860596,1,vertical,vertical,1,1.09411010742188,green,3,1,903.717843984329,367.045908301137,696.282156015671,832.954091698863,696.282156015671,832.954091698863,1032.95409169886,703.717843984329,903.717843984329,367.045908301137,567.045908301137,496.282156015671,NaN,NaN,NaN,NaN,0,0,4,0,NaN,NaN,horizontal,vertical,vertical,vertical,none,none
1d,7,100221,4,11,203,26,M,NA,constant,homogeneous,3,present,0.605523824691772,1,horizontal,horizontal,1,0.858819580078125,green,2,1,935.129412379467,383.747735480111,919.715248510402,825.151636179026,919.715248510402,825.151636179026,935.129412379467,383.747735480111,545.155339110131,591.100628340862,NaN,NaN,NaN,NaN,NaN,NaN,0,4,0,NaN,NaN,NaN,vertical,horizontal,horizontal,none,none,none
1d,7,100221,4,12,204,26,M,NA,constant,homogeneous,5,present,0.59335994720459,1,vertical,vertical,1,0.776467895507812,green,4,2,795.549636358493,345.03883773512,953.462830903772,803.65205506206,653.738008730483,808.883771293693,953.462830903772,803.65205506206,1041.10723677783,516.980120613425,795.549636358493,345.03883773512,556.142287229426,525.445215295702,NaN,NaN,0,0,0,4,0,NaN,horizontal,horizontal,vertical,vertical,horizontal,none
1d,7,100221,4,13,205,26,M,NA,constant,homogeneous,4,absent,0.796360015869141,1,vertical,vertical,1,0.941171264648437,green,4,NaN,557.480588344736,521.200666434388,NaN,NaN,721.200666434388,842.519411655264,1042.51941165526,678.799333565612,878.799333565612,357.480588344736,557.480588344736,521.200666434388,NaN,NaN,NaN,NaN,0,0,0,4,NaN,NaN,vertical,vertical,vertical,vertical,none,none
1d,7,100221,4,14,206,26,M,NA,constant,homogeneous,4,present,0.732753038406372,1,horizontal,horizontal,1,1.02352294921875,green,4,3,588.595418998464,742.594190385041,657.405809614959,388.595418998464,942.594190385041,811.404581001536,1011.40458100154,457.40580961496,657.405809614959,388.595418998464,588.595418998464,742.594190385041,NaN,NaN,NaN,NaN,0,0,0,4,NaN,NaN,horizontal,vertical,vertical,horizontal,none,none
1d,7,100221,4,15,207,26,M,NA,constant,homogeneous,6,absent,0.851907968521118,1,vertical,vertical,1,0.611764526367187,green,1,NaN,725.445215295702,843.857712770574,NaN,NaN,725.445215295702,843.857712770574,973.909581815937,786.495193912888,1048.46436652023,542.637481142314,874.554784704298,356.142287229426,626.090418184063,413.504806087112,551.535633479765,657.362518857686,4,0,0,0,0,0,vertical,horizontal,horizontal,vertical,horizontal,horizontal
1d,7,100221,4,16,208,26,M,NA,constant,homogeneous,5,absent,0.691781997680664,1,horizontal,horizontal,1,0.74117431640625,green,1,NaN,878.799333565612,842.519411655264,NaN,NaN,878.799333565612,842.519411655264,1055,600,878.799333565612,357.480588344736,593.700666434388,450.114760665419,593.700666434388,749.885239334581,NaN,NaN,4,0,0,0,0,NaN,horizontal,vertical,horizontal,horizontal,horizontal,none
1d,7,100221,4,17,209,26,M,NA,constant,homogeneous,3,absent,0.532309055328369,1,horizontal,horizontal,1,0.729409790039062,green,1,NaN,977.137884467044,783.431649086356,NaN,NaN,977.137884467044,783.431649086356,870.287525733335,354.878267535729,552.574589799621,661.690083377915,NaN,NaN,NaN,NaN,NaN,NaN,4,0,0,NaN,NaN,NaN,horizontal,horizontal,horizontal,none,none,none
1d,7,100221,4,18,210,26,M,NA,constant,homogeneous,4,present,0.590765953063965,1,horizontal,horizontal,1,0.776467895507812,green,2,1,1043.85771277057,674.554784704298,725.445215295702,843.857712770574,725.445215295702,843.857712770574,1043.85771277057,674.554784704298,874.554784704298,356.142287229426,556.142287229426,525.445215295702,NaN,NaN,NaN,NaN,0,4,0,0,NaN,NaN,horizontal,horizontal,horizontal,horizontal,none,none
1d,7,100221,4,19,211,26,M,NA,constant,homogeneous,4,present,0.779925107955933,1,horizontal,horizontal,1,0.858819580078125,green,1,3,661.117046071168,813.860994826083,938.882953928832,386.139005173917,661.117046071168,813.860994826083,1013.86099482608,738.882953928832,938.882953928832,386.139005173917,586.139005173917,461.117046071168,NaN,NaN,NaN,NaN,4,0,0,0,NaN,NaN,horizontal,horizontal,horizontal,horizontal,none,none
1d,7,100221,4,20,212,26,M,NA,constant,homogeneous,6,present,0.544543027877808,1,vertical,vertical,1,0.64705810546875,green,1,2,813.345668841951,854.650531362416,1027.20666366803,715.767577433584,813.345668841951,854.650531362416,1027.20666366803,715.767577433584,1013.86099482608,461.117046071168,786.654331158049,345.349468637584,572.793336331966,484.232422566416,586.139005173917,738.882953928832,4,0,0,0,0,0,vertical,vertical,horizontal,vertical,vertical,vertical
1d,7,100221,4,21,213,26,M,NA,constant,homogeneous,3,absent,0.676861047744751,0,horizontal,vertical,1,0.658822631835937,green,1,NaN,960.476699717708,798.172220171528,NaN,NaN,960.476699717708,798.172220171528,891.383827134052,361.936991243214,548.13947314824,639.890788585259,NaN,NaN,NaN,NaN,NaN,NaN,4,0,0,NaN,NaN,NaN,horizontal,vertical,vertical,none,none,none
1d,7,100221,4,22,214,26,M,NA,constant,homogeneous,3,absent,0.655989170074463,1,vertical,vertical,1,1.08234558105469,green,1,NaN,911.784642431215,829.192481806288,NaN,NaN,911.784642431215,829.192481806288,942.594190385041,388.595418998464,545.621167183745,582.212099195248,NaN,NaN,NaN,NaN,NaN,NaN,4,0,0,NaN,NaN,NaN,vertical,horizontal,horizontal,none,none,none
1d,7,100221,4,23,215,26,M,NA,constant,homogeneous,5,absent,0.607261180877686,1,horizontal,horizontal,1,0.894113159179687,green,1,NaN,804.450363641507,854.96116226488,NaN,NaN,804.450363641507,854.96116226488,1043.85771277057,674.554784704298,946.261991269517,391.116228706307,646.537169096228,396.34794493794,558.892763222174,683.019879386575,NaN,NaN,4,0,0,0,0,NaN,horizontal,horizontal,vertical,vertical,horizontal,none
1d,7,100221,4,24,216,26,M,NA,constant,homogeneous,4,absent,0.988796949386597,1,horizontal,horizontal,1,1.0705810546875,green,3,NaN,646.537169096228,396.34794493794,NaN,NaN,953.462830903772,803.65205506206,1003.65205506206,446.537169096228,646.537169096228,396.34794493794,596.34794493794,753.462830903772,NaN,NaN,NaN,NaN,0,0,4,0,NaN,NaN,vertical,horizontal,horizontal,vertical,none,none
1d,7,100221,4,25,217,26,M,NA,constant,homogeneous,4,absent,0.71042013168335,1,horizontal,horizontal,1,1.0705810546875,green,3,NaN,817.787900804752,345.621167183745,NaN,NaN,782.212099195248,854.378832816255,1054.37883281626,617.787900804752,817.787900804752,345.621167183745,545.621167183745,582.212099195248,NaN,NaN,NaN,NaN,0,0,4,0,NaN,NaN,vertical,horizontal,horizontal,vertical,none,none
1d,7,100221,4,26,218,26,M,NA,constant,homogeneous,6,present,0.57158088684082,1,vertical,vertical,1,0.941171264648437,green,2,3,1054.65053136242,613.345668841951,938.882953928832,386.139005173917,915.767577433584,827.206663668034,1054.65053136242,613.345668841951,938.882953928832,386.139005173917,684.232422566416,372.793336331966,545.349468637584,586.654331158049,661.117046071168,813.860994826083,0,4,0,0,0,0,horizontal,vertical,vertical,vertical,horizontal,vertical
1d,7,100221,4,27,219,26,M,NA,constant,homogeneous,3,absent,0.793272018432617,1,vertical,vertical,1,0.705880737304687,green,3,NaN,688.215357568785,370.807518193712,NaN,NaN,657.405809614959,811.404581001536,1054.37883281626,617.787900804752,688.215357568785,370.807518193712,NaN,NaN,NaN,NaN,NaN,NaN,0,0,4,NaN,NaN,NaN,vertical,horizontal,vertical,none,none,none
1d,7,100221,4,28,220,26,M,NA,constant,homogeneous,5,absent,0.728672027587891,1,horizontal,horizontal,1,0.97646484375,green,5,NaN,622.862115532956,783.431649086356,NaN,NaN,919.715248510402,825.151636179026,1051.12597701811,555.719714694933,835.489140744817,347.4816424709,570.807518193712,488.215357568785,622.862115532956,783.431649086356,NaN,NaN,0,0,0,0,4,NaN,vertical,horizontal,vertical,horizontal,horizontal,none
1d,7,100221,4,29,221,26,M,NA,constant,homogeneous,6,present,0.679852962493896,1,horizontal,horizontal,1,0.811761474609375,green,2,1,1029.19248180629,711.784642431215,817.787900804752,854.378832816255,817.787900804752,854.378832816255,1029.19248180629,711.784642431215,1011.40458100154,457.40580961496,782.212099195248,345.621167183745,570.807518193712,488.215357568785,588.595418998464,742.594190385041,0,4,0,0,0,0,horizontal,horizontal,vertical,vertical,horizontal,vertical
1d,7,100221,4,30,222,26,M,NA,constant,homogeneous,3,present,0.970547199249268,1,vertical,vertical,1,0.658822631835937,green,2,1,907.767656743878,368.891514305654,946.261991269517,808.883771293693,946.261991269517,808.883771293693,907.767656743878,368.891514305654,545.970351986605,622.224714400653,NaN,NaN,NaN,NaN,NaN,NaN,0,4,0,NaN,NaN,NaN,vertical,vertical,vertical,none,none,none
1d,7,100221,4,31,223,26,M,NA,constant,homogeneous,4,present,0.578492879867554,1,vertical,vertical,1,0.999993896484375,green,2,4,1006.29933356561,749.885239334581,593.700666434388,450.114760665419,650.114760665419,806.299333565612,1006.29933356561,749.885239334581,949.885239334581,393.700666434388,593.700666434388,450.114760665419,NaN,NaN,NaN,NaN,0,4,0,0,NaN,NaN,horizontal,vertical,vertical,vertical,none,none
1d,7,100221,4,32,224,26,M,NA,constant,homogeneous,5,present,0.827713012695312,1,horizontal,horizontal,1,1.08234558105469,green,3,4,1000.94274216971,443.006323791957,712.784863451954,360.378381699593,729.712474266665,845.121732464271,1011.40458100154,742.594190385041,1000.94274216971,443.006323791957,712.784863451954,360.378381699593,545.155339110131,608.899371659138,NaN,NaN,0,0,4,0,0,NaN,horizontal,horizontal,horizontal,horizontal,horizontal,none
1d,7,100221,4,33,225,26,M,NA,constant,homogeneous,5,present,0.724665880203247,1,vertical,vertical,1,0.611764526367187,green,1,3,653.738008730483,808.883771293693,1041.10723677783,516.980120613425,653.738008730483,808.883771293693,953.462830903772,803.65205506206,1041.10723677783,516.980120613425,795.549636358493,345.03883773512,556.142287229426,525.445215295702,NaN,NaN,4,0,0,0,0,NaN,vertical,horizontal,vertical,horizontal,vertical,none
1d,7,100221,4,34,226,26,M,NA,constant,homogeneous,6,absent,0.602406978607178,1,vertical,vertical,1,0.752938842773437,green,1,NaN,777.775285599347,854.029648013395,NaN,NaN,777.775285599347,854.029648013395,1008.88377129369,746.261991269517,1031.10848569435,492.232343256122,822.224714400653,345.970351986605,591.116228706307,453.738008730483,568.891514305654,707.767656743878,4,0,0,0,0,0,vertical,horizontal,vertical,horizontal,vertical,vertical
1d,7,100221,4,35,227,26,M,NA,constant,homogeneous,4,present,0.705338954925537,1,vertical,vertical,1,0.74117431640625,green,4,2,588.595418998464,457.40580961496,1011.40458100154,742.594190385041,657.405809614959,811.404581001536,1011.40458100154,742.594190385041,942.594190385041,388.595418998464,588.595418998464,457.40580961496,NaN,NaN,NaN,NaN,0,0,0,4,NaN,NaN,vertical,horizontal,vertical,vertical,none,none
1d,7,100221,4,36,228,26,M,NA,constant,homogeneous,5,present,0.632428169250488,1,horizontal,horizontal,1,1.03528747558594,green,3,5,835.489140744817,347.4816424709,622.862115532956,783.431649086356,919.715248510402,825.151636179026,1051.12597701811,555.719714694933,835.489140744817,347.4816424709,570.807518193712,488.215357568785,622.862115532956,783.431649086356,NaN,NaN,0,0,4,0,0,NaN,vertical,vertical,horizontal,vertical,horizontal,none
1d,7,100221,4,37,229,26,M,NA,constant,homogeneous,3,present,0.679885149002075,1,horizontal,horizontal,1,0.74117431640625,green,1,2,629.371695378491,789.501930496736,1049.42763818712,653.017481158529,629.371695378491,789.501930496736,1049.42763818712,653.017481158529,721.200666434388,357.480588344736,NaN,NaN,NaN,NaN,NaN,NaN,4,0,0,NaN,NaN,NaN,horizontal,horizontal,vertical,none,none,none
1d,7,100221,4,38,230,26,M,NA,constant,homogeneous,3,absent,0.695720911026001,1,vertical,vertical,1,1.09411010742188,green,3,NaN,556.142287229426,674.554784704298,NaN,NaN,986.495193912888,773.909581815937,857.362518857686,351.535633479765,556.142287229426,674.554784704298,NaN,NaN,NaN,NaN,NaN,NaN,0,0,4,NaN,NaN,NaN,vertical,vertical,vertical,none,none,none
1d,7,100221,4,39,231,26,M,NA,constant,homogeneous,5,present,0.621259927749634,1,horizontal,horizontal,1,0.776467895507812,green,3,4,1034.72873763037,500.363562235235,777.775285599347,345.970351986605,668.665290897936,818.577661679039,967.295052392579,792.450942956807,1034.72873763037,500.363562235235,777.775285599347,345.970351986605,551.535633479765,542.637481142314,NaN,NaN,0,0,4,0,0,NaN,horizontal,horizontal,horizontal,horizontal,horizontal,none
1d,7,100221,4,40,232,26,M,NA,constant,homogeneous,4,absent,0.852144956588745,1,vertical,vertical,1,0.905877685546875,green,2,NaN,1054.84466088987,608.899371659138,NaN,NaN,791.100628340862,854.844660889869,1054.84466088987,608.899371659138,808.899371659138,345.155339110131,545.155339110131,591.100628340862,NaN,NaN,NaN,NaN,0,4,0,0,NaN,NaN,horizontal,vertical,horizontal,horizontal,none,none
1d,7,100221,4,41,233,26,M,NA,constant,homogeneous,4,present,0.687036991119385,1,horizontal,horizontal,1,1.08234558105469,green,4,3,547.481642470899,635.489140744817,764.510859255183,347.4816424709,835.489140744817,852.518357529101,1052.5183575291,564.510859255183,764.510859255183,347.4816424709,547.481642470899,635.489140744817,NaN,NaN,NaN,NaN,0,0,0,4,NaN,NaN,vertical,horizontal,vertical,horizontal,none,none
1d,7,100221,4,42,234,26,M,NA,constant,homogeneous,6,absent,0.753114938735962,1,vertical,vertical,1,0.823526000976562,green,5,NaN,568.891514305654,492.232343256122,NaN,NaN,822.224714400653,854.029648013395,1031.10848569435,707.767656743878,1008.88377129369,453.738008730483,777.775285599347,345.970351986605,568.891514305654,492.232343256122,591.116228706307,746.261991269517,0,0,0,0,4,0,vertical,horizontal,horizontal,horizontal,vertical,vertical
1d,7,100221,4,43,235,26,M,NA,constant,homogeneous,5,absent,0.747074127197266,1,vertical,vertical,1,0.729409790039062,green,2,NaN,1054.84466088987,591.100628340862,NaN,NaN,887.215136548046,839.621618300407,1054.84466088987,591.100628340862,870.287525733335,354.878267535729,588.595418998464,457.40580961496,599.057257830286,756.993676208043,NaN,NaN,0,4,0,0,0,NaN,vertical,vertical,vertical,vertical,horizontal,none
1d,7,100221,4,44,236,26,M,NA,constant,homogeneous,4,absent,0.553231954574585,1,horizontal,horizontal,1,0.752938842773437,green,2,NaN,1045.12173246427,670.287525733335,NaN,NaN,729.712474266665,845.121732464271,1045.12173246427,670.287525733335,870.287525733335,354.878267535729,554.878267535729,529.712474266665,NaN,NaN,NaN,NaN,0,4,0,0,NaN,NaN,horizontal,horizontal,vertical,vertical,none,none
1d,7,100221,4,45,237,26,M,NA,constant,homogeneous,3,absent,1.08503890037537,1,vertical,vertical,1,0.823526000976562,green,2,NaN,927.5,379.163522034968,NaN,NaN,927.5,820.836477965032,927.5,379.163522034968,545,600,NaN,NaN,NaN,NaN,NaN,NaN,0,4,0,NaN,NaN,NaN,vertical,vertical,vertical,none,none,none
1d,7,100221,4,46,238,26,M,NA,constant,homogeneous,3,present,0.530258178710938,1,vertical,vertical,1,0.964700317382812,green,2,3,865.998856501143,353.688914296288,553.688914296288,665.998856501143,980.31222920257,780.31222920257,865.998856501143,353.688914296288,553.688914296288,665.998856501143,NaN,NaN,NaN,NaN,NaN,NaN,0,4,0,NaN,NaN,NaN,vertical,vertical,vertical,none,none,none
1d,7,100221,4,47,239,26,M,NA,constant,homogeneous,5,absent,0.636155843734741,1,horizontal,horizontal,1,0.952935791015625,green,4,NaN,777.775285599347,345.970351986605,NaN,NaN,668.665290897936,818.577661679039,967.295052392579,792.450942956807,1034.72873763037,500.363562235235,777.775285599347,345.970351986605,551.535633479765,542.637481142314,NaN,NaN,0,0,0,4,0,NaN,horizontal,vertical,horizontal,horizontal,horizontal,none
1d,7,100221,4,48,240,26,M,NA,constant,homogeneous,6,absent,0.668226003646851,1,horizontal,horizontal,1,0.952935791015625,green,2,NaN,960.476699717708,798.172220171528,NaN,NaN,708.616172865948,838.063008756786,960.476699717708,798.172220171528,1051.86052685176,560.109211414741,891.383827134052,361.936991243214,639.523300282292,401.827779828472,548.13947314824,639.890788585259,0,4,0,0,0,0,vertical,horizontal,vertical,horizontal,vertical,vertical
1d,7,100221,4,49,241,26,M,NA,constant,homogeneous,6,present,1.17696309089661,1,vertical,vertical,1,0.964700317382812,green,3,5,960.476699717708,401.827779828472,548.13947314824,560.109211414741,891.383827134052,838.063008756786,1051.86052685176,639.890788585259,960.476699717708,401.827779828472,708.616172865948,361.936991243214,548.13947314824,560.109211414741,639.523300282292,798.172220171528,0,0,4,0,0,0,vertical,vertical,vertical,horizontal,vertical,horizontal
