experiment,subject,uniqueID,block,trial,trial_cumulative,age,gender,color_cond_blocking,color_history,shape_type,set_size,distractor,rt,acc,target_orient,response_key,response_made,iti,target_color,target_item,distractor_item,target_X,target_Y,distractor_X,distractor_Y,item1_X,item1_Y,item2_X,item2_Y,item3_X,item3_Y,item4_X,item4_Y,item5_X,item5_Y,item6_X,item6_Y,item1_shape,item2_shape,item3_shape,item4_shape,item5_shape,item6_shape,item1_line,item2_line,item3_line,item4_line,item5_line,item6_line
1d,8,100222,1,1,1,20,F,NA,constant,homogeneous,5,absent,NaN,0,vertical,none,0,0.941168084144592,red,1,NaN,721.200666434388,842.519411655264,NaN,NaN,721.200666434388,842.519411655264,1006.29933356561,749.885239334581,1006.29933356561,450.114760665419,721.200666434388,357.480588344736,545,600,NaN,NaN,4,0,0,0,0,NaN,vertical,vertical,vertical,horizontal,horizontal,none
1d,8,100222,1,2,2,20,F,NA,constant,homogeneous,4,present,1.6334969997406,1,horizontal,horizontal,1,1.04704783439636,red,1,3,923.626453162816,823.028025320546,676.373546837184,376.971974679454,923.626453162816,823.028025320546,1023.02802532055,476.373546837184,676.373546837184,376.971974679454,576.971974679454,723.626453162816,NaN,NaN,NaN,NaN,4,0,0,0,NaN,NaN,horizontal,horizontal,vertical,horizontal,none,none
1d,8,100222,1,3,3,20,F,NA,constant,homogeneous,4,present,1.42962098121643,1,vertical,vertical,1,0.764701833724976,red,1,4,746.982518841471,849.42763818712,550.57236181288,546.982518841471,746.982518841471,849.42763818712,1049.42763818712,653.017481158529,853.017481158529,350.57236181288,550.57236181288,546.982518841471,NaN,NaN,NaN,NaN,4,0,0,0,NaN,NaN,vertical,vertical,vertical,vertical,none,none
1d,8,100222,1,4,4,20,F,NA,constant,homogeneous,5,absent,1.61914110183716,0,vertical,horizontal,1,1.04704783439636,red,5,NaN,570.807518193712,711.784642431215,NaN,NaN,835.489140744817,852.518357529101,1051.12597701811,644.280285305067,919.715248510402,374.848363820974,622.862115532956,416.568350913644,570.807518193712,711.784642431215,NaN,NaN,0,0,0,0,4,NaN,horizontal,vertical,vertical,horizontal,vertical,none
1d,8,100222,1,5,5,20,F,NA,constant,homogeneous,3,present,NaN,0,horizontal,none,0,1.058812251091,red,2,1,1023.02802532055,723.626453162816,581.422338320961,731.334709102064,581.422338320961,731.334709102064,1023.02802532055,723.626453162816,795.549636358493,345.03883773512,NaN,NaN,NaN,NaN,NaN,NaN,0,4,0,NaN,NaN,NaN,vertical,horizontal,horizontal,none,none,none
1d,8,100222,1,6,6,20,F,NA,constant,homogeneous,5,present,1.55549001693726,0,vertical,horizontal,1,0.729408583641052,red,5,2,545,600,1006.29933356561,749.885239334581,721.200666434388,842.519411655264,1006.29933356561,749.885239334581,1006.29933356561,450.114760665419,721.200666434388,357.480588344736,545,600,NaN,NaN,0,0,0,0,4,NaN,vertical,vertical,horizontal,vertical,vertical,none
1d,8,100222,1,7,7,20,F,NA,constant,homogeneous,6,absent,NaN,0,vertical,none,0,0.999990167617798,red,2,NaN,967.295052392579,792.450942956807,NaN,NaN,716.980120613425,841.107236777826,967.295052392579,792.450942956807,1050.31493177915,551.343706178981,883.019879386575,358.892763222174,632.704947607421,407.549057043193,549.685068220846,648.656293821019,0,4,0,0,0,0,vertical,vertical,vertical,vertical,horizontal,horizontal
1d,8,100222,1,8,8,20,F,NA,constant,homogeneous,6,present,1.28041219711304,1,horizontal,horizontal,1,0.658822083473206,red,3,5,942.594190385041,388.595418998464,545.621167183745,582.212099195248,911.784642431215,829.192481806288,1054.37883281626,617.787900804752,942.594190385041,388.595418998464,688.215357568785,370.807518193712,545.621167183745,582.212099195248,657.405809614959,811.404581001536,0,0,4,0,0,0,vertical,vertical,horizontal,horizontal,horizontal,horizontal
1d,8,100222,1,9,9,20,F,NA,constant,homogeneous,6,present,1.18729710578918,1,vertical,vertical,1,0.858817167282105,red,6,2,604.658667004661,763.910840470068,1039.62161830041,687.215136548046,844.280285305067,851.125977018113,1039.62161830041,687.215136548046,995.341332995339,436.089159529932,755.719714694933,348.874022981887,560.378381699593,512.784863451954,604.658667004661,763.910840470068,0,0,0,0,0,4,vertical,vertical,horizontal,horizontal,horizontal,vertical
1d,8,100222,1,10,10,20,F,NA,constant,homogeneous,4,absent,1.82721590995789,1,vertical,vertical,1,0.799995083808899,red,2,NaN,998.172220171528,760.476699717708,NaN,NaN,639.523300282292,798.172220171528,998.172220171528,760.476699717708,960.476699717708,401.827779828472,601.827779828472,439.523300282291,NaN,NaN,NaN,NaN,0,4,0,0,NaN,NaN,vertical,vertical,horizontal,horizontal,none,none
1d,8,100222,1,11,11,20,F,NA,constant,homogeneous,5,absent,0.969544172286987,1,horizontal,horizontal,1,0.670586500167847,red,5,NaN,558.892763222174,683.019879386575,NaN,NaN,804.450363641507,854.96116226488,1043.85771277057,674.554784704298,946.261991269517,391.116228706307,646.537169096228,396.34794493794,558.892763222174,683.019879386575,NaN,NaN,0,0,0,0,4,NaN,horizontal,horizontal,horizontal,horizontal,horizontal,none
1d,8,100222,1,12,12,20,F,NA,constant,homogeneous,6,absent,1.69240188598633,0,vertical,horizontal,1,0.764701833724976,red,1,NaN,684.232422566416,827.206663668034,NaN,NaN,684.232422566416,827.206663668034,938.882953928832,813.860994826083,1054.65053136242,586.654331158049,915.767577433584,372.793336331966,661.117046071168,386.139005173917,545.349468637584,613.345668841951,4,0,0,0,0,0,vertical,horizontal,vertical,vertical,vertical,horizontal
1d,8,100222,1,13,13,20,F,NA,constant,homogeneous,5,present,NaN,0,horizontal,none,0,1.058812251091,red,5,1,550.57236181288,653.017481158529,773.345241866748,853.60308331891,773.345241866748,853.60308331891,1032.95409169886,703.717843984329,970.628304621509,410.498069503264,672.5,379.163522034968,550.57236181288,653.017481158529,NaN,NaN,0,0,0,0,4,NaN,horizontal,horizontal,horizontal,horizontal,horizontal,none
1d,8,100222,1,14,14,20,F,NA,constant,homogeneous,6,present,1.19489192962646,1,horizontal,horizontal,1,0.741173000335693,red,1,6,692.232343256122,831.108485694346,545.970351986605,622.224714400653,692.232343256122,831.108485694346,946.261991269517,808.883771293693,1054.0296480134,577.775285599347,907.767656743878,368.891514305654,653.738008730483,391.116228706307,545.970351986605,622.224714400653,4,0,0,0,0,0,horizontal,horizontal,vertical,vertical,vertical,vertical
1d,8,100222,1,15,15,20,F,NA,constant,homogeneous,5,present,1.0402979850769,1,vertical,vertical,1,0.682350916862488,red,5,1,548.13947314824,639.890788585259,760.109211414741,851.86052685176,760.109211414741,851.86052685176,1027.20666366803,715.767577433584,980.31222920257,419.68777079743,684.232422566416,372.793336331966,548.13947314824,639.890788585259,NaN,NaN,0,0,0,0,4,NaN,vertical,vertical,vertical,horizontal,vertical,none
1d,8,100222,1,16,16,20,F,NA,constant,homogeneous,5,present,1.02219390869141,1,horizontal,horizontal,1,0.635293250083923,red,4,1,646.537169096228,396.34794493794,804.450363641507,854.96116226488,804.450363641507,854.96116226488,1043.85771277057,674.554784704298,946.261991269517,391.116228706307,646.537169096228,396.34794493794,558.892763222174,683.019879386575,NaN,NaN,0,0,0,4,0,NaN,vertical,vertical,horizontal,horizontal,horizontal,none
1d,8,100222,1,17,17,20,F,NA,constant,homogeneous,4,present,1.94684410095215,1,vertical,vertical,1,0.6,red,1,4,800,855,545,600,800,855,1055,600,800,345,545,600,NaN,NaN,NaN,NaN,4,0,0,0,NaN,NaN,vertical,horizontal,vertical,vertical,none,none
1d,8,100222,1,18,18,20,F,NA,constant,homogeneous,5,absent,0.615087985992432,1,horizontal,horizontal,1,0.658822083473206,red,4,NaN,604.658667004661,436.089159529932,NaN,NaN,861.690083377915,847.425410200379,1054.37883281626,617.787900804752,895.524681321058,363.568117085469,604.658667004661,436.089159529932,583.747735480111,735.129412379467,NaN,NaN,0,0,0,4,0,NaN,horizontal,vertical,vertical,horizontal,vertical,none
1d,8,100222,1,19,19,20,F,NA,constant,homogeneous,3,present,1.60441994667053,1,horizontal,horizontal,1,0.835288333892822,red,3,2,661.117046071168,386.139005173917,1054.65053136242,586.654331158049,684.232422566416,827.206663668034,1054.65053136242,586.654331158049,661.117046071168,386.139005173917,NaN,NaN,NaN,NaN,NaN,NaN,0,0,4,NaN,NaN,NaN,vertical,horizontal,horizontal,none,none,none
1d,8,100222,1,20,20,20,F,NA,constant,homogeneous,5,absent,1.97982287406921,1,vertical,vertical,1,0.764701833724976,red,1,NaN,946.261991269517,808.883771293693,NaN,NaN,946.261991269517,808.883771293693,1043.85771277057,525.445215295702,804.450363641507,345.03883773512,558.892763222174,516.980120613425,646.537169096228,803.65205506206,NaN,NaN,4,0,0,0,0,NaN,vertical,vertical,vertical,vertical,horizontal,none
1d,8,100222,1,21,21,20,F,NA,constant,homogeneous,3,present,0.760493040084839,1,vertical,vertical,1,0.847052750587463,red,2,1,1008.88377129369,453.738008730483,822.224714400653,854.029648013395,822.224714400653,854.029648013395,1008.88377129369,453.738008730483,568.891514305654,492.232343256122,NaN,NaN,NaN,NaN,NaN,NaN,0,4,0,NaN,NaN,NaN,vertical,vertical,horizontal,none,none,none
1d,8,100222,1,22,22,20,F,NA,constant,homogeneous,5,present,1.13991594314575,1,horizontal,horizontal,1,0.6,red,5,2,546.900731331463,631.076682568313,1023.02802532055,723.626453162816,751.343706178981,850.314931779154,1023.02802532055,723.626453162816,986.495193912888,426.090418184063,692.232343256122,368.891514305654,546.900731331463,631.076682568313,NaN,NaN,0,0,0,0,4,NaN,horizontal,vertical,horizontal,vertical,horizontal,none
1d,8,100222,1,23,23,20,F,NA,constant,homogeneous,5,absent,NaN,0,horizontal,none,0,0.635293250083923,red,1,NaN,887.215136548046,839.621618300407,NaN,NaN,887.215136548046,839.621618300407,1054.84466088987,591.100628340862,870.287525733335,354.878267535729,588.595418998464,457.40580961496,599.057257830286,756.993676208043,NaN,NaN,4,0,0,0,0,NaN,horizontal,vertical,vertical,horizontal,horizontal,none
1d,8,100222,1,24,24,20,F,NA,constant,homogeneous,6,absent,NaN,0,horizontal,none,0,1.07057666778564,red,6,NaN,557.480588344736,678.799333565612,NaN,NaN,746.982518841471,849.42763818712,989.501930496736,770.628304621509,1042.51941165526,521.200666434388,853.017481158529,350.57236181288,610.498069503264,429.371695378491,557.480588344736,678.799333565612,0,0,0,0,0,4,vertical,horizontal,horizontal,horizontal,horizontal,horizontal
1d,8,100222,1,25,25,20,F,NA,constant,homogeneous,6,present,1.53877305984497,1,horizontal,horizontal,1,0.847052750587463,red,2,4,1036.43188291453,695.524681321058,764.510859255183,347.4816424709,835.489140744817,852.518357529101,1036.43188291453,695.524681321058,1000.94274216971,443.006323791957,764.510859255183,347.4816424709,563.568117085469,504.475318678942,599.057257830286,756.993676208043,0,4,0,0,0,0,vertical,horizontal,horizontal,vertical,vertical,vertical
1d,8,100222,1,26,26,20,F,NA,constant,homogeneous,3,absent,NaN,0,horizontal,none,0,0.894110417366028,red,2,NaN,1050.31493177915,648.656293821019,NaN,NaN,632.704947607421,792.450942956807,1050.31493177915,648.656293821019,716.980120613425,358.892763222174,NaN,NaN,NaN,NaN,NaN,NaN,0,4,0,NaN,NaN,NaN,horizontal,horizontal,vertical,none,none,none
1d,8,100222,1,27,27,20,F,NA,constant,homogeneous,6,present,1.50685501098633,1,vertical,vertical,1,0.752937417030334,red,4,6,692.232343256122,368.891514305654,653.738008730483,808.883771293693,907.767656743878,831.108485694346,1054.0296480134,622.224714400653,946.261991269517,391.116228706307,692.232343256122,368.891514305654,545.970351986605,577.775285599347,653.738008730483,808.883771293693,0,0,0,4,0,0,horizontal,horizontal,vertical,vertical,horizontal,horizontal
1d,8,100222,1,28,28,20,F,NA,constant,homogeneous,6,present,1.1731870174408,1,horizontal,horizontal,1,0.799995083808899,red,6,2,551.535633479765,657.362518857686,973.909581815937,786.495193912888,725.445215295702,843.857712770574,973.909581815937,786.495193912888,1048.46436652023,542.637481142314,874.554784704298,356.142287229426,626.090418184063,413.504806087112,551.535633479765,657.362518857686,0,0,0,0,0,4,horizontal,horizontal,horizontal,vertical,horizontal,horizontal
1d,8,100222,1,29,29,20,F,NA,constant,homogeneous,6,present,1.51255393028259,1,vertical,vertical,1,0.788230667114258,red,6,1,664.870587620533,816.252264519889,919.715248510402,825.151636179026,919.715248510402,825.151636179026,1054.84466088987,608.899371659138,935.129412379467,383.747735480111,680.284751489598,374.848363820974,545.155339110131,591.100628340862,664.870587620533,816.252264519889,0,0,0,0,0,4,vertical,vertical,horizontal,vertical,vertical,vertical
1d,8,100222,1,30,30,20,F,NA,constant,homogeneous,3,absent,0.691921949386597,1,horizontal,horizontal,1,1.04704783439636,red,2,NaN,949.885239334581,393.700666434388,NaN,NaN,903.717843984329,832.954091698863,949.885239334581,393.700666434388,546.39691668109,573.345241866748,NaN,NaN,NaN,NaN,NaN,NaN,0,4,0,NaN,NaN,NaN,horizontal,horizontal,horizontal,none,none,none
1d,8,100222,1,31,31,20,F,NA,constant,homogeneous,3,present,1.51926016807556,0,horizontal,vertical,1,0.670586500167847,red,1,2,874.554784704298,843.857712770574,973.909581815937,413.504806087112,874.554784704298,843.857712770574,973.909581815937,413.504806087112,551.535633479765,542.637481142314,NaN,NaN,NaN,NaN,NaN,NaN,4,0,0,NaN,NaN,NaN,horizontal,horizontal,vertical,none,none,none
1d,8,100222,1,32,32,20,F,NA,constant,homogeneous,5,present,1.17909502983093,1,vertical,vertical,1,0.858817167282105,red,3,2,980.31222920257,419.68777079743,1027.20666366803,715.767577433584,760.109211414741,851.86052685176,1027.20666366803,715.767577433584,980.31222920257,419.68777079743,684.232422566416,372.793336331966,548.13947314824,639.890788585259,NaN,NaN,0,0,4,0,0,NaN,vertical,vertical,vertical,vertical,horizontal,none
1d,8,100222,1,33,33,20,F,NA,constant,homogeneous,5,absent,1.0045850276947,1,vertical,vertical,1,0.682350916862488,red,4,NaN,680.284751489598,374.848363820974,NaN,NaN,764.510859255183,852.518357529101,1029.19248180629,711.784642431215,977.137884467044,416.568350913644,680.284751489598,374.848363820974,548.874022981887,644.280285305067,NaN,NaN,0,0,0,4,0,NaN,vertical,vertical,horizontal,vertical,vertical,none
1d,8,100222,1,34,34,20,F,NA,constant,homogeneous,6,absent,1.26625800132751,1,horizontal,horizontal,1,0.870581583976746,red,5,NaN,547.481642470899,564.510859255183,NaN,NaN,895.524681321058,836.431882914531,1052.5183575291,635.489140744817,956.993676208043,399.057257830286,704.475318678942,363.568117085469,547.481642470899,564.510859255183,643.006323791957,800.942742169714,0,0,0,0,4,0,vertical,vertical,vertical,horizontal,horizontal,vertical
1d,8,100222,1,35,35,20,F,NA,constant,homogeneous,4,absent,0.714662075042725,1,vertical,vertical,1,0.752937417030334,red,3,NaN,883.019879386575,358.892763222174,NaN,NaN,716.980120613425,841.107236777826,1041.10723677783,683.019879386575,883.019879386575,358.892763222174,558.892763222174,516.980120613425,NaN,NaN,NaN,NaN,0,0,4,0,NaN,NaN,horizontal,horizontal,vertical,horizontal,none,none
1d,8,100222,1,36,36,20,F,NA,constant,homogeneous,3,present,1.28609108924866,1,vertical,vertical,1,1.04704783439636,red,1,3,725.445215295702,843.857712770574,626.090418184063,413.504806087112,725.445215295702,843.857712770574,1048.46436652023,542.637481142314,626.090418184063,413.504806087112,NaN,NaN,NaN,NaN,NaN,NaN,4,0,0,NaN,NaN,NaN,vertical,vertical,vertical,none,none,none
1d,8,100222,1,37,37,20,F,NA,constant,homogeneous,4,absent,1.33132696151733,1,horizontal,horizontal,1,0.964696917533874,red,2,NaN,1023.02802532055,723.626453162816,NaN,NaN,676.373546837184,823.028025320546,1023.02802532055,723.626453162816,923.626453162816,376.971974679454,576.971974679454,476.373546837184,NaN,NaN,NaN,NaN,0,4,0,0,NaN,NaN,vertical,horizontal,vertical,horizontal,none,none
1d,8,100222,1,38,38,20,F,NA,constant,homogeneous,6,absent,NaN,0,vertical,none,0,0.835288333892822,red,2,NaN,1045.12173246427,670.287525733335,NaN,NaN,861.690083377915,847.425410200379,1045.12173246427,670.287525733335,983.431649086356,422.862115532956,738.309916622085,352.574589799621,554.878267535729,529.712474266665,616.568350913644,777.137884467044,0,4,0,0,0,0,vertical,vertical,horizontal,vertical,vertical,horizontal
1d,8,100222,1,39,39,20,F,NA,constant,homogeneous,4,present,0.907862186431885,1,vertical,vertical,1,0.635293250083923,red,2,3,1043.85771277057,525.445215295702,725.445215295702,356.142287229426,874.554784704298,843.857712770574,1043.85771277057,525.445215295702,725.445215295702,356.142287229426,556.142287229426,674.554784704298,NaN,NaN,NaN,NaN,0,4,0,0,NaN,NaN,vertical,vertical,horizontal,vertical,none,none
1d,8,100222,1,40,40,20,F,NA,constant,homogeneous,4,absent,0.798727989196777,1,horizontal,horizontal,1,0.823523917198181,red,3,NaN,887.215136548046,360.378381699593,NaN,NaN,712.784863451954,839.621618300407,1039.62161830041,687.215136548046,887.215136548046,360.378381699593,560.378381699593,512.784863451954,NaN,NaN,NaN,NaN,0,0,4,0,NaN,NaN,horizontal,vertical,horizontal,vertical,none,none
1d,8,100222,1,41,41,20,F,NA,constant,homogeneous,3,present,0.625047922134399,1,vertical,vertical,1,0.70587975025177,red,2,3,1053.09926866854,631.076682568313,700.363562235235,365.271262369628,646.537169096228,803.65205506206,1053.09926866854,631.076682568313,700.363562235235,365.271262369628,NaN,NaN,NaN,NaN,NaN,NaN,0,4,0,NaN,NaN,NaN,horizontal,vertical,horizontal,none,none,none
1d,8,100222,1,42,42,20,F,NA,constant,homogeneous,4,absent,1.32814908027649,0,horizontal,vertical,1,0.91763925075531,red,1,NaN,760.109211414741,851.86052685176,NaN,NaN,760.109211414741,851.86052685176,1051.86052685176,639.890788585259,839.890788585259,348.13947314824,548.13947314824,560.109211414741,NaN,NaN,NaN,NaN,4,0,0,0,NaN,NaN,horizontal,horizontal,horizontal,vertical,none,none
1d,8,100222,1,43,43,20,F,NA,constant,homogeneous,3,absent,0.612974882125854,1,vertical,vertical,1,0.894110417366028,red,3,NaN,755.719714694933,348.874022981887,NaN,NaN,604.658667004661,763.910840470068,1039.62161830041,687.215136548046,755.719714694933,348.874022981887,NaN,NaN,NaN,NaN,NaN,NaN,0,0,4,NaN,NaN,NaN,horizontal,vertical,vertical,none,none,none
1d,8,100222,1,44,44,20,F,NA,constant,homogeneous,6,present,0.955642938613892,1,vertical,vertical,1,0.905874834060669,red,6,5,596.34794493794,753.462830903772,565.271262369628,500.363562235235,831.076682568313,853.099268668537,1034.72873763037,699.636437764765,1003.65205506206,446.537169096228,768.923317431687,346.900731331463,565.271262369628,500.363562235235,596.34794493794,753.462830903772,0,0,0,0,0,4,horizontal,horizontal,horizontal,vertical,vertical,vertical
1d,8,100222,1,45,45,20,F,NA,constant,homogeneous,3,present,0.78020191192627,1,horizontal,horizontal,1,0.858817167282105,red,2,3,1036.43188291453,695.524681321058,764.510859255183,347.4816424709,599.057257830286,756.993676208043,1036.43188291453,695.524681321058,764.510859255183,347.4816424709,NaN,NaN,NaN,NaN,NaN,NaN,0,4,0,NaN,NaN,NaN,horizontal,horizontal,vertical,none,none,none
1d,8,100222,1,46,46,20,F,NA,constant,homogeneous,6,absent,1.03576803207397,1,vertical,vertical,1,0.988225750923157,red,1,NaN,676.373546837184,823.028025320546,NaN,NaN,676.373546837184,823.028025320546,931.334709102064,818.577661679039,1054.96116226488,595.549636358493,923.626453162816,376.971974679454,668.665290897936,381.422338320961,545.03883773512,604.450363641507,4,0,0,0,0,0,vertical,horizontal,horizontal,horizontal,horizontal,vertical
1d,8,100222,1,47,47,20,F,NA,constant,homogeneous,5,present,0.99253511428833,1,vertical,vertical,1,0.788230667114258,red,3,5,1042.51941165526,521.200666434388,557.480588344736,521.200666434388,650.114760665419,806.299333565612,949.885239334581,806.299333565612,1042.51941165526,521.200666434388,800,345,557.480588344736,521.200666434388,NaN,NaN,0,0,4,0,0,NaN,horizontal,vertical,vertical,vertical,horizontal,none
1d,8,100222,1,48,48,20,F,NA,constant,homogeneous,4,present,0.551149129867554,1,horizontal,horizontal,1,0.929403667449951,red,3,4,946.261991269517,391.116228706307,591.116228706307,453.738008730483,653.738008730483,808.883771293693,1008.88377129369,746.261991269517,946.261991269517,391.116228706307,591.116228706307,453.738008730483,NaN,NaN,NaN,NaN,0,0,4,0,NaN,NaN,vertical,vertical,horizontal,vertical,none,none
1d,8,100222,1,49,49,20,F,NA,constant,homogeneous,3,absent,0.722841024398804,1,vertical,vertical,1,0.635293250083923,red,1,NaN,956.993676208043,800.942742169714,NaN,NaN,956.993676208043,800.942742169714,895.524681321058,363.568117085469,547.481642470899,635.489140744817,NaN,NaN,NaN,NaN,NaN,NaN,4,0,0,NaN,NaN,NaN,vertical,vertical,vertical,none,none,none
1d,8,100222,1,50,50,20,F,NA,constant,homogeneous,4,absent,0.563452959060669,1,vertical,vertical,1,0.694115333557129,red,3,NaN,857.362518857686,351.535633479765,NaN,NaN,742.637481142314,848.464366520235,1048.46436652023,657.362518857686,857.362518857686,351.535633479765,551.535633479765,542.637481142314,NaN,NaN,NaN,NaN,0,0,4,0,NaN,NaN,horizontal,horizontal,vertical,horizontal,none,none
1d,8,100222,1,51,51,20,F,NA,constant,homogeneous,6,absent,0.883952856063843,1,horizontal,horizontal,1,0.847052750587463,red,6,NaN,567.045908301137,703.717843984329,NaN,NaN,773.345241866748,853.60308331891,1006.29933356561,749.885239334581,1032.95409169886,496.282156015671,826.654758133252,346.39691668109,593.700666434388,450.114760665419,567.045908301137,703.717843984329,0,0,0,0,0,4,horizontal,horizontal,horizontal,vertical,horizontal,horizontal
1d,8,100222,1,52,52,20,F,NA,constant,homogeneous,4,absent,0.70576810836792,0,horizontal,vertical,1,1.01175458431244,red,2,NaN,1003.65205506206,753.462830903772,NaN,NaN,646.537169096228,803.65205506206,1003.65205506206,753.462830903772,953.462830903772,396.34794493794,596.34794493794,446.537169096228,NaN,NaN,NaN,NaN,0,4,0,0,NaN,NaN,horizontal,horizontal,vertical,vertical,none,none
1d,8,100222,1,53,53,20,F,NA,constant,homogeneous,4,absent,0.675989866256714,1,vertical,vertical,1,0.976461334228516,red,2,NaN,1018.57766167904,731.334709102064,NaN,NaN,668.665290897936,818.577661679039,1018.57766167904,731.334709102064,931.334709102064,381.422338320961,581.422338320961,468.665290897936,NaN,NaN,NaN,NaN,0,4,0,0,NaN,NaN,vertical,vertical,horizontal,vertical,none,none
1d,8,100222,1,54,54,20,F,NA,constant,homogeneous,6,absent,0.858438968658447,1,horizontal,horizontal,1,1.02351900100708,red,1,NaN,808.899371659138,854.844660889869,NaN,NaN,808.899371659138,854.844660889869,1025.15163617903,719.715248510402,1016.25226451989,464.870587620533,791.100628340862,345.155339110131,574.848363820974,480.284751489598,583.747735480111,735.129412379467,4,0,0,0,0,0,horizontal,horizontal,horizontal,horizontal,horizontal,horizontal
1d,8,100222,1,55,55,20,F,NA,constant,homogeneous,3,absent,1.64878392219543,1,horizontal,horizontal,1,1.058812251091,red,1,NaN,646.537169096228,803.65205506206,NaN,NaN,646.537169096228,803.65205506206,1053.09926866854,631.076682568313,700.363562235235,365.271262369628,NaN,NaN,NaN,NaN,NaN,NaN,4,0,0,NaN,NaN,NaN,horizontal,horizontal,vertical,none,none,none
1d,8,100222,1,56,56,20,F,NA,constant,homogeneous,4,present,0.772176027297974,1,horizontal,horizontal,1,0.70587975025177,red,1,4,813.345668841951,854.650531362416,545.349468637584,613.345668841951,813.345668841951,854.650531362416,1054.65053136242,586.654331158049,786.654331158049,345.349468637584,545.349468637584,613.345668841951,NaN,NaN,NaN,NaN,4,0,0,0,NaN,NaN,horizontal,horizontal,vertical,vertical,none,none
1d,8,100222,1,57,57,20,F,NA,constant,homogeneous,3,absent,0.614114999771118,1,horizontal,horizontal,1,0.91763925075531,red,1,NaN,696.282156015671,832.954091698863,NaN,NaN,696.282156015671,832.954091698863,1053.60308331891,573.345241866748,650.114760665419,393.700666434388,NaN,NaN,NaN,NaN,NaN,NaN,4,0,0,NaN,NaN,NaN,horizontal,vertical,vertical,none,none,none
1d,8,100222,1,58,58,20,F,NA,constant,homogeneous,3,absent,0.814613819122314,1,vertical,vertical,1,0.6,red,1,NaN,891.383827134052,838.063008756786,NaN,NaN,891.383827134052,838.063008756786,960.476699717708,401.827779828472,548.13947314824,560.109211414741,NaN,NaN,NaN,NaN,NaN,NaN,4,0,0,NaN,NaN,NaN,vertical,horizontal,horizontal,none,none,none
1d,8,100222,1,59,59,20,F,NA,constant,homogeneous,5,present,1.150141954422,1,horizontal,horizontal,1,0.952932500839233,red,5,2,636.089159529932,795.341332995339,1047.42541020038,538.309916622085,935.129412379467,816.252264519889,1047.42541020038,538.309916622085,817.787900804752,345.621167183745,563.568117085469,504.475318678942,636.089159529932,795.341332995339,NaN,NaN,0,0,0,0,4,NaN,horizontal,horizontal,vertical,horizontal,horizontal,none
1d,8,100222,1,60,60,20,F,NA,constant,homogeneous,4,present,0.870150089263916,1,vertical,vertical,1,0.647057666778564,red,1,3,734.001143498857,846.311085703712,865.998856501143,353.688914296288,734.001143498857,846.311085703712,1046.31108570371,665.998856501143,865.998856501143,353.688914296288,553.688914296288,534.001143498857,NaN,NaN,NaN,NaN,4,0,0,0,NaN,NaN,vertical,vertical,vertical,vertical,none,none
1d,8,100222,1,61,61,20,F,NA,constant,homogeneous,5,absent,1.07219696044922,1,horizontal,horizontal,1,0.611764416694641,red,4,NaN,786.654331158049,345.349468637584,NaN,NaN,661.117046071168,813.860994826083,960.476699717708,798.172220171528,1038.06300875679,508.616172865948,786.654331158049,345.349468637584,553.688914296288,534.001143498857,NaN,NaN,0,0,0,4,0,NaN,vertical,horizontal,vertical,horizontal,vertical,none
1d,8,100222,1,62,62,20,F,NA,constant,homogeneous,3,absent,0.644876003265381,1,vertical,vertical,1,0.752937417030334,red,1,NaN,613.504806087112,773.909581815937,NaN,NaN,613.504806087112,773.909581815937,1043.85771277057,674.554784704298,742.637481142314,351.535633479765,NaN,NaN,NaN,NaN,NaN,NaN,4,0,0,NaN,NaN,NaN,vertical,vertical,horizontal,none,none,none
1d,8,100222,1,63,63,20,F,NA,constant,homogeneous,3,present,0.635004997253418,1,vertical,vertical,1,0.658822083473206,red,1,3,831.076682568313,853.099268668537,565.271262369628,500.363562235235,831.076682568313,853.099268668537,1003.65205506206,446.537169096228,565.271262369628,500.363562235235,NaN,NaN,NaN,NaN,NaN,NaN,4,0,0,NaN,NaN,NaN,vertical,horizontal,horizontal,none,none,none
1d,8,100222,1,64,64,20,F,NA,constant,homogeneous,4,present,0.68486499786377,1,horizontal,horizontal,1,1.04704783439636,red,1,4,927.5,820.836477965032,579.163522034968,727.5,927.5,820.836477965032,1020.83647796503,472.5,672.5,379.163522034968,579.163522034968,727.5,NaN,NaN,NaN,NaN,4,0,0,0,NaN,NaN,horizontal,horizontal,vertical,horizontal,none,none
1d,8,100222,2,1,65,20,F,NA,constant,homogeneous,4,absent,1.52293395996094,1,vertical,vertical,1,0.70587975025177,red,1,NaN,768.923317431687,853.099268668537,NaN,NaN,768.923317431687,853.099268668537,1053.09926866854,631.076682568313,831.076682568313,346.900731331463,546.900731331463,568.923317431687,NaN,NaN,NaN,NaN,4,0,0,0,NaN,NaN,vertical,vertical,horizontal,vertical,none,none
1d,8,100222,2,2,66,20,F,NA,constant,homogeneous,4,present,0.673646926879883,1,vertical,vertical,1,0.999990167617798,red,3,4,911.784642431215,370.807518193712,570.807518193712,488.215357568785,688.215357568785,829.192481806288,1029.19248180629,711.784642431215,911.784642431215,370.807518193712,570.807518193712,488.215357568785,NaN,NaN,NaN,NaN,0,0,4,0,NaN,NaN,vertical,vertical,vertical,vertical,none,none
1d,8,100222,2,3,67,20,F,NA,constant,homogeneous,3,present,0.555127143859863,1,horizontal,horizontal,1,0.988225750923157,red,2,3,1006.29933356561,450.114760665419,567.045908301137,496.282156015671,826.654758133252,853.60308331891,1006.29933356561,450.114760665419,567.045908301137,496.282156015671,NaN,NaN,NaN,NaN,NaN,NaN,0,4,0,NaN,NaN,NaN,horizontal,horizontal,horizontal,none,none,none
1d,8,100222,2,4,68,20,F,NA,constant,homogeneous,5,present,1.33107805252075,1,vertical,vertical,1,0.835288333892822,red,1,3,700.363562235235,834.728737630372,1018.57766167904,468.665290897936,700.363562235235,834.728737630372,992.450942956807,767.295052392579,1018.57766167904,468.665290897936,742.637481142314,351.535633479765,545.970351986605,577.775285599347,NaN,NaN,4,0,0,0,0,NaN,vertical,horizontal,vertical,horizontal,vertical,none
1d,8,100222,2,5,69,20,F,NA,constant,homogeneous,4,absent,0.762759923934937,1,vertical,vertical,1,0.635293250083923,red,2,NaN,1023.02802532055,723.626453162816,NaN,NaN,676.373546837184,823.028025320546,1023.02802532055,723.626453162816,923.626453162816,376.971974679454,576.971974679454,476.373546837184,NaN,NaN,NaN,NaN,0,4,0,0,NaN,NaN,vertical,vertical,horizontal,vertical,none,none
1d,8,100222,2,6,70,20,F,NA,constant,homogeneous,6,absent,0.716976165771484,1,vertical,vertical,1,0.752937417030334,red,5,NaN,636.089159529932,404.658667004661,NaN,NaN,712.784863451954,839.621618300407,963.910840470068,795.341332995339,1051.12597701811,555.719714694933,887.215136548046,360.378381699593,636.089159529932,404.658667004661,548.874022981887,644.280285305067,0,0,0,0,4,0,vertical,vertical,horizontal,vertical,vertical,vertical
1d,8,100222,2,7,71,20,F,NA,constant,homogeneous,3,present,0.593796968460083,1,horizontal,horizontal,1,0.70587975025177,red,2,3,1043.85771277057,674.554784704298,742.637481142314,351.535633479765,613.504806087112,773.909581815937,1043.85771277057,674.554784704298,742.637481142314,351.535633479765,NaN,NaN,NaN,NaN,NaN,NaN,0,4,0,NaN,NaN,NaN,vertical,horizontal,vertical,none,none,none
1d,8,100222,2,8,72,20,F,NA,constant,homogeneous,3,present,0.681340932846069,1,vertical,vertical,1,0.976461334228516,red,2,3,800,345,579.163522034968,727.5,1020.83647796503,727.5,800,345,579.163522034968,727.5,NaN,NaN,NaN,NaN,NaN,NaN,0,4,0,NaN,NaN,NaN,vertical,vertical,vertical,none,none,none
1d,8,100222,2,9,73,20,F,NA,constant,homogeneous,6,absent,0.809688806533813,1,horizontal,horizontal,1,0.905874834060669,red,3,NaN,1016.25226451989,464.870587620533,NaN,NaN,808.899371659138,854.844660889869,1025.15163617903,719.715248510402,1016.25226451989,464.870587620533,791.100628340862,345.155339110131,574.848363820974,480.284751489598,583.747735480111,735.129412379467,0,0,4,0,0,0,vertical,vertical,horizontal,vertical,horizontal,horizontal
1d,8,100222,2,10,74,20,F,NA,constant,homogeneous,6,present,0.934146881103516,1,vertical,vertical,1,0.823523917198181,red,6,2,561.936991243214,691.383827134052,998.172220171528,760.476699717708,760.109211414741,851.86052685176,998.172220171528,760.476699717708,1038.06300875679,508.616172865948,839.890788585259,348.13947314824,601.827779828472,439.523300282291,561.936991243214,691.383827134052,0,0,0,0,0,4,horizontal,horizontal,vertical,vertical,vertical,vertical
1d,8,100222,2,11,75,20,F,NA,constant,homogeneous,3,present,0.609479188919067,1,horizontal,horizontal,1,0.823523917198181,red,3,1,607.549057043193,432.704947607421,751.343706178981,850.314931779154,751.343706178981,850.314931779154,1041.10723677783,516.980120613425,607.549057043193,432.704947607421,NaN,NaN,NaN,NaN,NaN,NaN,0,0,4,NaN,NaN,NaN,horizontal,vertical,horizontal,none,none,none
1d,8,100222,2,12,76,20,F,NA,constant,homogeneous,3,absent,0.915571928024292,0,horizontal,vertical,1,0.682350916862488,red,1,NaN,817.787900804752,854.378832816255,NaN,NaN,817.787900804752,854.378832816255,1011.40458100154,457.40580961496,570.807518193712,488.215357568785,NaN,NaN,NaN,NaN,NaN,NaN,4,0,0,NaN,NaN,NaN,horizontal,horizontal,vertical,none,none,none
1d,8,100222,2,13,77,20,F,NA,constant,homogeneous,3,present,0.59493088722229,1,vertical,vertical,1,0.858817167282105,red,3,1,586.139005173917,461.117046071168,786.654331158049,854.650531362416,786.654331158049,854.650531362416,1027.20666366803,484.232422566416,586.139005173917,461.117046071168,NaN,NaN,NaN,NaN,NaN,NaN,0,0,4,NaN,NaN,NaN,horizontal,vertical,vertical,none,none,none
1d,8,100222,2,14,78,20,F,NA,constant,homogeneous,4,absent,0.864850997924805,1,horizontal,horizontal,1,1.08234108448029,red,3,NaN,942.594190385041,388.595418998464,NaN,NaN,657.405809614959,811.404581001536,1011.40458100154,742.594190385041,942.594190385041,388.595418998464,588.595418998464,457.40580961496,NaN,NaN,NaN,NaN,0,0,4,0,NaN,NaN,horizontal,vertical,horizontal,vertical,none,none
1d,8,100222,2,15,79,20,F,NA,constant,homogeneous,6,present,0.977708101272583,1,horizontal,horizontal,1,0.776466250419617,red,2,6,1032.95409169886,703.717843984329,593.700666434388,749.885239334581,826.654758133252,853.60308331891,1032.95409169886,703.717843984329,1006.29933356561,450.114760665419,773.345241866748,346.39691668109,567.045908301137,496.282156015671,593.700666434388,749.885239334581,0,4,0,0,0,0,horizontal,horizontal,horizontal,vertical,vertical,horizontal
1d,8,100222,2,16,80,20,F,NA,constant,homogeneous,6,present,0.810371160507202,1,horizontal,horizontal,1,1.03528341770172,red,5,4,545.349468637584,586.654331158049,684.232422566416,372.793336331966,915.767577433584,827.206663668034,1054.65053136242,613.345668841951,938.882953928832,386.139005173917,684.232422566416,372.793336331966,545.349468637584,586.654331158049,661.117046071168,813.860994826083,0,0,0,0,4,0,vertical,horizontal,vertical,horizontal,horizontal,vertical
1d,8,100222,2,17,81,20,F,NA,constant,homogeneous,5,absent,0.72327709197998,0,horizontal,vertical,1,0.623528833389282,red,1,NaN,721.200666434388,842.519411655264,NaN,NaN,721.200666434388,842.519411655264,1006.29933356561,749.885239334581,1006.29933356561,450.114760665419,721.200666434388,357.480588344736,545,600,NaN,NaN,4,0,0,0,0,NaN,horizontal,vertical,horizontal,horizontal,vertical,none
1d,8,100222,2,18,82,20,F,NA,constant,homogeneous,5,present,0.683233022689819,1,vertical,vertical,1,0.670586500167847,red,3,4,895.524681321058,363.568117085469,604.658667004661,436.089159529932,861.690083377915,847.425410200379,1054.37883281626,617.787900804752,895.524681321058,363.568117085469,604.658667004661,436.089159529932,583.747735480111,735.129412379467,NaN,NaN,0,0,4,0,0,NaN,horizontal,horizontal,vertical,horizontal,horizontal,none
1d,8,100222,2,19,83,20,F,NA,constant,homogeneous,5,absent,0.869559049606323,1,vertical,vertical,1,1.02351900100708,red,2,NaN,1023.02802532055,723.626453162816,NaN,NaN,751.343706178981,850.314931779154,1023.02802532055,723.626453162816,986.495193912888,426.090418184063,692.232343256122,368.891514305654,546.900731331463,631.076682568313,NaN,NaN,0,4,0,0,0,NaN,vertical,vertical,vertical,horizontal,horizontal,none
1d,8,100222,2,20,84,20,F,NA,constant,homogeneous,5,present,0.692439079284668,1,horizontal,horizontal,1,0.847052750587463,red,4,5,760.109211414741,348.13947314824,548.13947314824,560.109211414741,684.232422566416,827.206663668034,980.31222920257,780.31222920257,1027.20666366803,484.232422566416,760.109211414741,348.13947314824,548.13947314824,560.109211414741,NaN,NaN,0,0,0,4,0,NaN,horizontal,horizontal,horizontal,horizontal,vertical,none
1d,8,100222,2,21,85,20,F,NA,constant,homogeneous,3,present,0.712092876434326,1,vertical,vertical,1,1.09410550117493,red,2,1,1006.29933356561,450.114760665419,826.654758133252,853.60308331891,826.654758133252,853.60308331891,1006.29933356561,450.114760665419,567.045908301137,496.282156015671,NaN,NaN,NaN,NaN,NaN,NaN,0,4,0,NaN,NaN,NaN,horizontal,vertical,vertical,none,none,none
1d,8,100222,2,22,86,20,F,NA,constant,homogeneous,5,absent,0.649455070495605,1,vertical,vertical,1,0.752937417030334,red,4,NaN,684.232422566416,372.793336331966,NaN,NaN,760.109211414741,851.86052685176,1027.20666366803,715.767577433584,980.31222920257,419.68777079743,684.232422566416,372.793336331966,548.13947314824,639.890788585259,NaN,NaN,0,0,0,4,0,NaN,horizontal,vertical,vertical,vertical,vertical,none
1d,8,100222,2,23,87,20,F,NA,constant,homogeneous,5,present,0.897977828979492,1,horizontal,horizontal,1,0.964696917533874,red,4,3,800,345,1042.51941165526,521.200666434388,650.114760665419,806.299333565612,949.885239334581,806.299333565612,1042.51941165526,521.200666434388,800,345,557.480588344736,521.200666434388,NaN,NaN,0,0,0,4,0,NaN,vertical,horizontal,horizontal,horizontal,vertical,none
1d,8,100222,2,24,88,20,F,NA,constant,homogeneous,4,absent,1.0167989730835,1,vertical,vertical,1,0.623528833389282,red,4,NaN,550.57236181288,653.017481158529,NaN,NaN,853.017481158529,849.42763818712,1049.42763818712,546.982518841471,746.982518841471,350.57236181288,550.57236181288,653.017481158529,NaN,NaN,NaN,NaN,0,0,0,4,NaN,NaN,horizontal,horizontal,vertical,vertical,none,none
1d,8,100222,2,25,89,20,F,NA,constant,homogeneous,4,present,0.839701890945435,1,vertical,vertical,1,0.929403667449951,red,1,2,960.476699717708,798.172220171528,998.172220171528,439.523300282291,960.476699717708,798.172220171528,998.172220171528,439.523300282291,639.523300282292,401.827779828472,601.827779828472,760.476699717708,NaN,NaN,NaN,NaN,4,0,0,0,NaN,NaN,vertical,horizontal,vertical,vertical,none,none
1d,8,100222,2,26,90,20,F,NA,constant,homogeneous,5,absent,0.783308029174805,1,horizontal,horizontal,1,0.729408583641052,red,5,NaN,567.045908301137,703.717843984329,NaN,NaN,826.654758133252,853.60308331891,1049.42763818712,653.017481158529,927.5,379.163522034968,629.371695378491,410.498069503264,567.045908301137,703.717843984329,NaN,NaN,0,0,0,0,4,NaN,horizontal,horizontal,vertical,horizontal,horizontal,none
1d,8,100222,2,27,91,20,F,NA,constant,homogeneous,4,present,0.567052125930786,1,horizontal,horizontal,1,1.01175458431244,red,4,3,548.874022981887,644.280285305067,755.719714694933,348.874022981887,844.280285305067,851.125977018113,1051.12597701811,555.719714694933,755.719714694933,348.874022981887,548.874022981887,644.280285305067,NaN,NaN,NaN,NaN,0,0,0,4,NaN,NaN,horizontal,horizontal,vertical,horizontal,none,none
1d,8,100222,2,28,92,20,F,NA,constant,homogeneous,5,absent,0.703870058059692,1,vertical,vertical,1,1.04704783439636,red,4,NaN,607.549057043193,432.704947607421,NaN,NaN,857.362518857686,848.464366520235,1054.0296480134,622.224714400653,899.636437764765,365.271262369628,607.549057043193,432.704947607421,581.422338320961,731.334709102064,NaN,NaN,0,0,0,4,0,NaN,horizontal,horizontal,vertical,vertical,vertical,none
1d,8,100222,2,29,93,20,F,NA,constant,homogeneous,6,present,0.943742990493774,1,vertical,vertical,1,0.894110417366028,red,4,2,887.215136548046,360.378381699593,963.910840470068,795.341332995339,712.784863451954,839.621618300407,963.910840470068,795.341332995339,1051.12597701811,555.719714694933,887.215136548046,360.378381699593,636.089159529932,404.658667004661,548.874022981887,644.280285305067,0,0,0,4,0,0,vertical,vertical,vertical,vertical,horizontal,vertical
1d,8,100222,2,30,94,20,F,NA,constant,homogeneous,6,present,1.04991507530212,1,horizontal,horizontal,1,0.941168084144592,red,5,6,591.116228706307,453.738008730483,568.891514305654,707.767656743878,777.775285599347,854.029648013395,1008.88377129369,746.261991269517,1031.10848569435,492.232343256122,822.224714400653,345.970351986605,591.116228706307,453.738008730483,568.891514305654,707.767656743878,0,0,0,0,4,0,horizontal,horizontal,horizontal,horizontal,horizontal,horizontal
1d,8,100222,2,31,95,20,F,NA,constant,homogeneous,3,absent,0.585872888565063,0,horizontal,vertical,1,0.941168084144592,red,2,NaN,1053.09926866854,631.076682568313,NaN,NaN,646.537169096228,803.65205506206,1053.09926866854,631.076682568313,700.363562235235,365.271262369628,NaN,NaN,NaN,NaN,NaN,NaN,0,4,0,NaN,NaN,NaN,horizontal,horizontal,horizontal,none,none,none
1d,8,100222,2,32,96,20,F,NA,constant,homogeneous,6,present,1.22021389007568,0,vertical,horizontal,1,0.729408583641052,red,1,3,692.232343256122,831.108485694346,1054.0296480134,577.775285599347,692.232343256122,831.108485694346,946.261991269517,808.883771293693,1054.0296480134,577.775285599347,907.767656743878,368.891514305654,653.738008730483,391.116228706307,545.970351986605,622.224714400653,4,0,0,0,0,0,vertical,horizontal,horizontal,vertical,horizontal,vertical
1d,8,100222,2,33,97,20,F,NA,constant,homogeneous,4,present,0.88145112991333,1,horizontal,horizontal,1,0.635293250083923,red,3,4,817.787900804752,345.621167183745,545.621167183745,582.212099195248,782.212099195248,854.378832816255,1054.37883281626,617.787900804752,817.787900804752,345.621167183745,545.621167183745,582.212099195248,NaN,NaN,NaN,NaN,0,0,4,0,NaN,NaN,horizontal,vertical,horizontal,horizontal,none,none
1d,8,100222,2,34,98,20,F,NA,constant,homogeneous,5,absent,1.11516499519348,1,horizontal,horizontal,1,0.776466250419617,red,1,NaN,911.784642431215,829.192481806288,NaN,NaN,911.784642431215,829.192481806288,1052.5183575291,564.510859255183,844.280285305067,348.874022981887,574.848363820974,480.284751489598,616.568350913644,777.137884467044,NaN,NaN,4,0,0,0,0,NaN,horizontal,vertical,horizontal,horizontal,horizontal,none
1d,8,100222,2,35,99,20,F,NA,constant,homogeneous,4,absent,0.640545129776001,1,horizontal,horizontal,1,0.764701833724976,red,2,NaN,1051.12597701811,555.719714694933,NaN,NaN,844.280285305067,851.125977018113,1051.12597701811,555.719714694933,755.719714694933,348.874022981887,548.874022981887,644.280285305067,NaN,NaN,NaN,NaN,0,4,0,0,NaN,NaN,vertical,horizontal,vertical,horizontal,none,none
1d,8,100222,2,36,100,20,F,NA,constant,homogeneous,4,absent,0.65435004234314,1,horizontal,horizontal,1,0.635293250083923,red,3,NaN,639.523300282292,401.827779828472,NaN,NaN,960.476699717708,798.172220171528,998.172220171528,439.523300282291,639.523300282292,401.827779828472,601.827779828472,760.476699717708,NaN,NaN,NaN,NaN,0,0,4,0,NaN,NaN,horizontal,vertical,horizontal,vertical,none,none
1d,8,100222,2,37,101,20,F,NA,constant,homogeneous,3,absent,0.932461977005005,1,vertical,vertical,1,1.04704783439636,red,1,NaN,712.784863451954,839.621618300407,NaN,NaN,712.784863451954,839.621618300407,1051.12597701811,555.719714694933,636.089159529932,404.658667004661,NaN,NaN,NaN,NaN,NaN,NaN,4,0,0,NaN,NaN,NaN,vertical,vertical,vertical,none,none,none
1d,8,100222,2,38,102,20,F,NA,constant,homogeneous,4,absent,0.903389930725098,1,vertical,vertical,1,0.799995083808899,red,3,NaN,668.665290897936,381.422338320961,NaN,NaN,931.334709102064,818.577661679039,1018.57766167904,468.665290897936,668.665290897936,381.422338320961,581.422338320961,731.334709102064,NaN,NaN,NaN,NaN,0,0,4,0,NaN,NaN,horizontal,vertical,vertical,vertical,none,none
1d,8,100222,2,39,103,20,F,NA,constant,homogeneous,5,present,0.88758397102356,1,vertical,vertical,1,0.91763925075531,red,5,3,570.807518193712,711.784642431215,919.715248510402,374.848363820974,835.489140744817,852.518357529101,1051.12597701811,644.280285305067,919.715248510402,374.848363820974,622.862115532956,416.568350913644,570.807518193712,711.784642431215,NaN,NaN,0,0,0,0,4,NaN,horizontal,horizontal,vertical,horizontal,vertical,none
1d,8,100222,2,40,104,20,F,NA,constant,homogeneous,6,present,0.808763027191162,1,horizontal,horizontal,1,0.752937417030334,red,6,3,622.862115532956,783.431649086356,977.137884467044,416.568350913644,870.287525733335,845.121732464271,1047.42541020038,661.690083377915,977.137884467044,416.568350913644,729.712474266665,354.878267535729,552.574589799621,538.309916622085,622.862115532956,783.431649086356,0,0,0,0,0,4,vertical,horizontal,horizontal,vertical,horizontal,horizontal
1d,8,100222,2,41,105,20,F,NA,constant,homogeneous,3,absent,1.01129388809204,1,vertical,vertical,1,0.905874834060669,red,1,NaN,700.363562235235,834.728737630372,NaN,NaN,700.363562235235,834.728737630372,1053.09926866854,568.923317431687,646.537169096228,396.34794493794,NaN,NaN,NaN,NaN,NaN,NaN,4,0,0,NaN,NaN,NaN,vertical,horizontal,horizontal,none,none,none
1d,8,100222,2,42,106,20,F,NA,constant,homogeneous,6,absent,0.854076147079468,1,vertical,vertical,1,0.717644166946411,red,5,NaN,610.498069503264,429.371695378491,NaN,NaN,746.982518841471,849.42763818712,989.501930496736,770.628304621509,1042.51941165526,521.200666434388,853.017481158529,350.57236181288,610.498069503264,429.371695378491,557.480588344736,678.799333565612,0,0,0,0,4,0,vertical,vertical,vertical,horizontal,vertical,vertical
1d,8,100222,2,43,107,20,F,NA,constant,homogeneous,5,absent,0.899291038513184,1,vertical,vertical,1,0.999990167617798,red,1,NaN,848.656293821019,850.314931779154,NaN,NaN,848.656293821019,850.314931779154,1053.09926866854,631.076682568313,907.767656743878,368.891514305654,613.504806087112,426.090418184063,576.971974679454,723.626453162816,NaN,NaN,4,0,0,0,0,NaN,vertical,horizontal,vertical,horizontal,vertical,none
1d,8,100222,2,44,108,20,F,NA,constant,homogeneous,4,present,0.583002090454102,1,horizontal,horizontal,1,0.882346000671387,red,2,4,1053.09926866854,568.923317431687,546.900731331463,631.076682568313,831.076682568313,853.099268668537,1053.09926866854,568.923317431687,768.923317431687,346.900731331463,546.900731331463,631.076682568313,NaN,NaN,NaN,NaN,0,4,0,0,NaN,NaN,horizontal,horizontal,horizontal,horizontal,none,none
1d,8,100222,2,45,109,20,F,NA,constant,homogeneous,5,present,0.92025899887085,1,horizontal,horizontal,1,0.658822083473206,red,1,2,712.784863451954,839.621618300407,1000.94274216971,756.993676208043,712.784863451954,839.621618300407,1000.94274216971,756.993676208043,1011.40458100154,457.40580961496,729.712474266665,354.878267535729,545.155339110131,591.100628340862,NaN,NaN,4,0,0,0,0,NaN,horizontal,vertical,vertical,vertical,horizontal,none
1d,8,100222,2,46,110,20,F,NA,constant,homogeneous,5,absent,0.546535015106201,1,horizontal,horizontal,1,0.788230667114258,red,5,NaN,545.03883773512,604.450363641507,NaN,NaN,725.445215295702,843.857712770574,1008.88377129369,746.261991269517,1003.65205506206,446.537169096228,716.980120613425,358.892763222174,545.03883773512,604.450363641507,NaN,NaN,0,0,0,0,4,NaN,vertical,vertical,horizontal,horizontal,horizontal,none
1d,8,100222,2,47,111,20,F,NA,constant,homogeneous,5,present,0.691017866134644,1,horizontal,horizontal,1,0.870581583976746,red,3,4,919.715248510402,374.848363820974,622.862115532956,416.568350913644,835.489140744817,852.518357529101,1051.12597701811,644.280285305067,919.715248510402,374.848363820974,622.862115532956,416.568350913644,570.807518193712,711.784642431215,NaN,NaN,0,0,4,0,0,NaN,vertical,horizontal,horizontal,vertical,horizontal,none
1d,8,100222,2,48,112,20,F,NA,constant,homogeneous,6,absent,0.767781972885132,1,horizontal,horizontal,1,0.941168084144592,red,1,NaN,919.715248510402,825.151636179026,NaN,NaN,919.715248510402,825.151636179026,1054.84466088987,608.899371659138,935.129412379467,383.747735480111,680.284751489598,374.848363820974,545.155339110131,591.100628340862,664.870587620533,816.252264519889,4,0,0,0,0,0,horizontal,vertical,vertical,horizontal,vertical,vertical
1d,8,100222,2,49,113,20,F,NA,constant,homogeneous,4,present,0.589404106140137,1,horizontal,horizontal,1,0.905874834060669,red,2,4,1029.19248180629,711.784642431215,570.807518193712,488.215357568785,688.215357568785,829.192481806288,1029.19248180629,711.784642431215,911.784642431215,370.807518193712,570.807518193712,488.215357568785,NaN,NaN,NaN,NaN,0,4,0,0,NaN,NaN,vertical,horizontal,horizontal,vertical,none,none
1d,8,100222,2,50,114,20,F,NA,constant,homogeneous,4,absent,0.463250875473022,1,horizontal,horizontal,1,0.694115333557129,red,2,NaN,1050.31493177915,648.656293821019,NaN,NaN,751.343706178981,850.314931779154,1050.31493177915,648.656293821019,848.656293821019,349.685068220846,549.685068220846,551.343706178981,NaN,NaN,NaN,NaN,0,4,0,0,NaN,NaN,horizontal,horizontal,vertical,vertical,none,none
1d,8,100222,2,51,115,20,F,NA,constant,homogeneous,6,absent,0.498586177825928,1,horizontal,horizontal,1,1.09410550117493,red,2,NaN,1041.10723677783,683.019879386575,NaN,NaN,848.656293821019,850.314931779154,1041.10723677783,683.019879386575,992.450942956807,432.704947607421,751.343706178981,349.685068220846,558.892763222174,516.980120613425,607.549057043193,767.295052392579,0,4,0,0,0,0,vertical,horizontal,vertical,vertical,vertical,vertical
1d,8,100222,2,52,116,20,F,NA,constant,homogeneous,6,absent,0.530253887176514,1,vertical,vertical,1,0.870581583976746,red,5,NaN,599.057257830286,443.006323791957,NaN,NaN,764.510859255183,852.518357529101,1000.94274216971,756.993676208043,1036.43188291453,504.475318678942,835.489140744817,347.4816424709,599.057257830286,443.006323791957,563.568117085469,695.524681321058,0,0,0,0,4,0,vertical,vertical,vertical,vertical,vertical,vertical
1d,8,100222,2,53,117,20,F,NA,constant,homogeneous,4,present,0.630445003509521,1,vertical,vertical,1,0.670586500167847,red,2,3,1034.72873763037,699.636437764765,899.636437764765,365.271262369628,700.363562235235,834.728737630372,1034.72873763037,699.636437764765,899.636437764765,365.271262369628,565.271262369628,500.363562235235,NaN,NaN,NaN,NaN,0,4,0,0,NaN,NaN,horizontal,vertical,horizontal,horizontal,none,none
1d,8,100222,2,54,118,20,F,NA,constant,homogeneous,3,present,0.600673913955688,1,horizontal,horizontal,1,0.658822083473206,red,2,3,1000.94274216971,443.006323791957,563.568117085469,504.475318678942,835.489140744817,852.518357529101,1000.94274216971,443.006323791957,563.568117085469,504.475318678942,NaN,NaN,NaN,NaN,NaN,NaN,0,4,0,NaN,NaN,NaN,vertical,horizontal,vertical,none,none,none
1d,8,100222,2,55,119,20,F,NA,constant,homogeneous,6,present,0.700238943099976,1,vertical,vertical,1,0.776466250419617,red,5,3,596.34794493794,446.537169096228,1034.72873763037,500.363562235235,768.923317431687,853.099268668537,1003.65205506206,753.462830903772,1034.72873763037,500.363562235235,831.076682568313,346.900731331463,596.34794493794,446.537169096228,565.271262369628,699.636437764765,0,0,0,0,4,0,horizontal,horizontal,horizontal,horizontal,vertical,vertical
1d,8,100222,2,56,120,20,F,NA,constant,homogeneous,3,absent,0.575300931930542,1,horizontal,horizontal,1,0.635293250083923,red,3,NaN,800,345,NaN,NaN,579.163522034968,727.5,1020.83647796503,727.5,800,345,NaN,NaN,NaN,NaN,NaN,NaN,0,0,4,NaN,NaN,NaN,vertical,vertical,horizontal,none,none,none
1d,8,100222,2,57,121,20,F,NA,constant,homogeneous,4,present,0.733394861221313,1,vertical,vertical,1,0.91763925075531,red,1,3,746.982518841471,849.42763818712,853.017481158529,350.57236181288,746.982518841471,849.42763818712,1049.42763818712,653.017481158529,853.017481158529,350.57236181288,550.57236181288,546.982518841471,NaN,NaN,NaN,NaN,4,0,0,0,NaN,NaN,vertical,vertical,horizontal,vertical,none,none
1d,8,100222,2,58,122,20,F,NA,constant,homogeneous,6,absent,0.865885972976685,1,horizontal,horizontal,1,1.09410550117493,red,3,NaN,1003.65205506206,446.537169096228,NaN,NaN,831.076682568313,853.099268668537,1034.72873763037,699.636437764765,1003.65205506206,446.537169096228,768.923317431687,346.900731331463,565.271262369628,500.363562235235,596.34794493794,753.462830903772,0,0,4,0,0,0,vertical,vertical,horizontal,vertical,vertical,vertical
1d,8,100222,2,59,123,20,F,NA,constant,homogeneous,5,present,0.583425045013428,1,vertical,vertical,1,1.01175458431244,red,4,3,643.006323791957,399.057257830286,942.594190385041,388.595418998464,808.899371659138,854.844660889869,1045.12173246427,670.287525733335,942.594190385041,388.595418998464,643.006323791957,399.057257830286,560.378381699593,687.215136548046,NaN,NaN,0,0,0,4,0,NaN,horizontal,vertical,horizontal,vertical,horizontal,none
1d,8,100222,2,60,124,20,F,NA,constant,homogeneous,3,absent,1.00157809257507,1,vertical,vertical,1,0.70587975025177,red,2,NaN,1008.88377129369,453.738008730483,NaN,NaN,822.224714400653,854.029648013395,1008.88377129369,453.738008730483,568.891514305654,492.232343256122,NaN,NaN,NaN,NaN,NaN,NaN,0,4,0,NaN,NaN,NaN,vertical,vertical,vertical,none,none,none
1d,8,100222,2,61,125,20,F,NA,constant,homogeneous,3,absent,0.554533004760742,1,horizontal,horizontal,1,1.03528341770172,red,3,NaN,668.665290897936,381.422338320961,NaN,NaN,676.373546837184,823.028025320546,1054.96116226488,595.549636358493,668.665290897936,381.422338320961,NaN,NaN,NaN,NaN,NaN,NaN,0,0,4,NaN,NaN,NaN,horizontal,horizontal,horizontal,none,none,none
1d,8,100222,2,62,126,20,F,NA,constant,homogeneous,6,absent,0.571727991104126,1,vertical,vertical,1,0.682350916862488,red,3,NaN,1023.02802532055,476.373546837184,NaN,NaN,795.549636358493,854.96116226488,1018.57766167904,731.334709102064,1023.02802532055,476.373546837184,804.450363641507,345.03883773512,581.422338320961,468.665290897936,576.971974679454,723.626453162816,0,0,4,0,0,0,vertical,vertical,vertical,horizontal,horizontal,horizontal
1d,8,100222,2,63,127,20,F,NA,constant,homogeneous,3,absent,0.774444818496704,0,vertical,horizontal,1,0.964696917533874,red,2,NaN,1051.86052685176,639.890788585259,NaN,NaN,639.523300282292,798.172220171528,1051.86052685176,639.890788585259,708.616172865948,361.936991243214,NaN,NaN,NaN,NaN,NaN,NaN,0,4,0,NaN,NaN,NaN,vertical,vertical,horizontal,none,none,none
1d,8,100222,2,64,128,20,F,NA,constant,homogeneous,3,present,1.15299201011658,1,vertical,vertical,1,0.941168084144592,red,1,2,956.993676208043,800.942742169714,895.524681321058,363.568117085469,956.993676208043,800.942742169714,895.524681321058,363.568117085469,547.481642470899,635.489140744817,NaN,NaN,NaN,NaN,NaN,NaN,4,0,0,NaN,NaN,NaN,vertical,vertical,horizontal,none,none,none
1d,8,100222,3,1,129,20,F,NA,constant,homogeneous,4,absent,0.799787998199463,1,vertical,vertical,1,0.941168084144592,red,2,NaN,1047.42541020038,538.309916622085,NaN,NaN,861.690083377915,847.425410200379,1047.42541020038,538.309916622085,738.309916622085,352.574589799621,552.574589799621,661.690083377915,NaN,NaN,NaN,NaN,0,4,0,0,NaN,NaN,horizontal,vertical,vertical,vertical,none,none
1d,8,100222,3,2,130,20,F,NA,constant,homogeneous,6,present,0.881665945053101,1,horizontal,horizontal,1,0.882346000671387,red,1,3,903.717843984329,832.954091698863,949.885239334581,393.700666434388,903.717843984329,832.954091698863,1053.60308331891,626.654758133252,949.885239334581,393.700666434388,696.282156015671,367.045908301137,546.39691668109,573.345241866748,650.114760665419,806.299333565612,4,0,0,0,0,0,horizontal,horizontal,vertical,vertical,horizontal,vertical
1d,8,100222,3,3,131,20,F,NA,constant,homogeneous,3,absent,0.806081056594849,1,vertical,vertical,1,0.717644166946411,red,3,NaN,746.982518841471,350.57236181288,NaN,NaN,610.498069503264,770.628304621509,1042.51941165526,678.799333565612,746.982518841471,350.57236181288,NaN,NaN,NaN,NaN,NaN,NaN,0,0,4,NaN,NaN,NaN,horizontal,vertical,vertical,none,none,none
1d,8,100222,3,4,132,20,F,NA,constant,homogeneous,3,present,0.795727968215942,1,horizontal,horizontal,1,0.670586500167847,red,1,3,604.658667004661,763.910840470068,755.719714694933,348.874022981887,604.658667004661,763.910840470068,1039.62161830041,687.215136548046,755.719714694933,348.874022981887,NaN,NaN,NaN,NaN,NaN,NaN,4,0,0,NaN,NaN,NaN,horizontal,vertical,vertical,none,none,none
1d,8,100222,3,5,133,20,F,NA,constant,homogeneous,4,present,0.885118007659912,1,horizontal,horizontal,1,0.870581583976746,red,1,3,636.089159529932,795.341332995339,963.910840470068,404.658667004661,636.089159529932,795.341332995339,995.341332995339,763.910840470068,963.910840470068,404.658667004661,604.658667004661,436.089159529932,NaN,NaN,NaN,NaN,4,0,0,0,NaN,NaN,horizontal,horizontal,vertical,horizontal,none,none
1d,8,100222,3,6,134,20,F,NA,constant,homogeneous,5,absent,1.43575406074524,1,horizontal,horizontal,1,0.635293250083923,red,5,NaN,557.480588344736,521.200666434388,NaN,NaN,650.114760665419,806.299333565612,949.885239334581,806.299333565612,1042.51941165526,521.200666434388,800,345,557.480588344736,521.200666434388,NaN,NaN,0,0,0,0,4,NaN,horizontal,horizontal,horizontal,horizontal,horizontal,none
1d,8,100222,3,7,135,20,F,NA,constant,homogeneous,3,present,1.12050104141235,1,horizontal,horizontal,1,0.788230667114258,red,3,1,653.738008730483,391.116228706307,692.232343256122,831.108485694346,692.232343256122,831.108485694346,1054.0296480134,577.775285599347,653.738008730483,391.116228706307,NaN,NaN,NaN,NaN,NaN,NaN,0,0,4,NaN,NaN,NaN,horizontal,horizontal,horizontal,none,none,none
1d,8,100222,3,8,136,20,F,NA,constant,homogeneous,5,absent,0.548444032669067,1,vertical,vertical,1,1.058812251091,red,4,NaN,661.117046071168,386.139005173917,NaN,NaN,786.654331158049,854.650531362416,1038.06300875679,691.383827134052,960.476699717708,401.827779828472,661.117046071168,386.139005173917,553.688914296288,665.998856501143,NaN,NaN,0,0,0,4,0,NaN,vertical,vertical,horizontal,vertical,vertical,none
1d,8,100222,3,9,137,20,F,NA,constant,homogeneous,5,present,0.560643196105957,1,vertical,vertical,1,0.858817167282105,red,3,2,826.654758133252,346.39691668109,1049.42763818712,546.982518841471,927.5,820.836477965032,1049.42763818712,546.982518841471,826.654758133252,346.39691668109,567.045908301137,496.282156015671,629.371695378491,789.501930496736,NaN,NaN,0,0,4,0,0,NaN,horizontal,horizontal,vertical,horizontal,horizontal,none
1d,8,100222,3,10,138,20,F,NA,constant,homogeneous,6,present,0.928508043289185,1,horizontal,horizontal,1,1.03528341770172,red,6,3,561.936991243214,691.383827134052,1038.06300875679,508.616172865948,760.109211414741,851.86052685176,998.172220171528,760.476699717708,1038.06300875679,508.616172865948,839.890788585259,348.13947314824,601.827779828472,439.523300282291,561.936991243214,691.383827134052,0,0,0,0,0,4,vertical,horizontal,horizontal,horizontal,vertical,horizontal
1d,8,100222,3,11,139,20,F,NA,constant,homogeneous,5,present,0.877341985702515,1,horizontal,horizontal,1,1.09410550117493,red,1,2,919.715248510402,825.151636179026,1051.12597701811,555.719714694933,919.715248510402,825.151636179026,1051.12597701811,555.719714694933,835.489140744817,347.4816424709,570.807518193712,488.215357568785,622.862115532956,783.431649086356,NaN,NaN,4,0,0,0,0,NaN,horizontal,vertical,horizontal,vertical,vertical,none
1d,8,100222,3,12,140,20,F,NA,constant,homogeneous,3,present,0.558245897293091,1,vertical,vertical,1,0.764701833724976,red,1,2,938.882953928832,813.860994826083,915.767577433584,372.793336331966,938.882953928832,813.860994826083,915.767577433584,372.793336331966,545.349468637584,613.345668841951,NaN,NaN,NaN,NaN,NaN,NaN,4,0,0,NaN,NaN,NaN,vertical,horizontal,vertical,none,none,none
1d,8,100222,3,13,141,20,F,NA,constant,homogeneous,6,present,0.559881925582886,1,vertical,vertical,1,0.905874834060669,red,2,3,949.885239334581,806.299333565612,1053.60308331891,573.345241866748,696.282156015671,832.954091698863,949.885239334581,806.299333565612,1053.60308331891,573.345241866748,903.717843984329,367.045908301137,650.114760665419,393.700666434388,546.39691668109,626.654758133252,0,4,0,0,0,0,horizontal,vertical,vertical,vertical,horizontal,vertical
1d,8,100222,3,14,142,20,F,NA,constant,homogeneous,4,absent,0.487359046936035,1,vertical,vertical,1,1.01175458431244,red,2,NaN,1020.83647796503,727.5,NaN,NaN,672.5,820.836477965032,1020.83647796503,727.5,927.5,379.163522034968,579.163522034968,472.5,NaN,NaN,NaN,NaN,0,4,0,0,NaN,NaN,vertical,vertical,vertical,horizontal,none,none
1d,8,100222,3,15,143,20,F,NA,constant,homogeneous,6,absent,0.537775993347168,1,vertical,vertical,1,1.02351900100708,red,3,NaN,1045.12173246427,529.712474266665,NaN,NaN,738.309916622085,847.425410200379,983.431649086356,777.137884467044,1045.12173246427,529.712474266665,861.690083377915,352.574589799621,616.568350913644,422.862115532956,554.878267535729,670.287525733335,0,0,4,0,0,0,horizontal,horizontal,vertical,horizontal,horizontal,horizontal
1d,8,100222,3,16,144,20,F,NA,constant,homogeneous,5,present,1.16699695587158,0,vertical,horizontal,1,0.717644166946411,red,5,2,632.704947607421,792.450942956807,1048.46436652023,542.637481142314,931.334709102064,818.577661679039,1048.46436652023,542.637481142314,822.224714400653,345.970351986605,565.271262369628,500.363562235235,632.704947607421,792.450942956807,NaN,NaN,0,0,0,0,4,NaN,vertical,vertical,horizontal,vertical,vertical,none
1d,8,100222,3,17,145,20,F,NA,constant,homogeneous,6,present,0.70245099067688,0,vertical,horizontal,1,0.999990167617798,red,5,4,563.568117085469,504.475318678942,764.510859255183,347.4816424709,835.489140744817,852.518357529101,1036.43188291453,695.524681321058,1000.94274216971,443.006323791957,764.510859255183,347.4816424709,563.568117085469,504.475318678942,599.057257830286,756.993676208043,0,0,0,0,4,0,vertical,vertical,horizontal,horizontal,vertical,vertical
1d,8,100222,3,18,146,20,F,NA,constant,homogeneous,3,absent,0.979753971099854,1,horizontal,horizontal,1,0.952932500839233,red,1,NaN,738.309916622085,847.425410200379,NaN,NaN,738.309916622085,847.425410200379,1045.12173246427,529.712474266665,616.568350913644,422.862115532956,NaN,NaN,NaN,NaN,NaN,NaN,4,0,0,NaN,NaN,NaN,horizontal,vertical,vertical,none,none,none
1d,8,100222,3,19,147,20,F,NA,constant,homogeneous,4,present,0.824985980987549,1,vertical,vertical,1,1.07057666778564,red,4,1,593.700666434388,450.114760665419,650.114760665419,806.299333565612,650.114760665419,806.299333565612,1006.29933356561,749.885239334581,949.885239334581,393.700666434388,593.700666434388,450.114760665419,NaN,NaN,NaN,NaN,0,0,0,4,NaN,NaN,horizontal,vertical,horizontal,vertical,none,none
1d,8,100222,3,20,148,20,F,NA,constant,homogeneous,5,present,0.570926189422607,1,vertical,vertical,1,0.858817167282105,red,5,4,553.688914296288,534.001143498857,786.654331158049,345.349468637584,661.117046071168,813.860994826083,960.476699717708,798.172220171528,1038.06300875679,508.616172865948,786.654331158049,345.349468637584,553.688914296288,534.001143498857,NaN,NaN,0,0,0,0,4,NaN,vertical,vertical,horizontal,horizontal,vertical,none
1d,8,100222,3,21,149,20,F,NA,constant,homogeneous,5,present,0.668377876281738,1,horizontal,horizontal,1,0.894110417366028,red,5,2,550.57236181288,546.982518841471,970.628304621509,789.501930496736,672.5,820.836477965032,970.628304621509,789.501930496736,1032.95409169886,496.282156015671,773.345241866748,346.39691668109,550.57236181288,546.982518841471,NaN,NaN,0,0,0,0,4,NaN,horizontal,vertical,vertical,horizontal,horizontal,none
1d,8,100222,3,22,150,20,F,NA,constant,homogeneous,4,absent,1.07132601737976,1,vertical,vertical,1,0.670586500167847,red,1,NaN,927.5,820.836477965032,NaN,NaN,927.5,820.836477965032,1020.83647796503,472.5,672.5,379.163522034968,579.163522034968,727.5,NaN,NaN,NaN,NaN,4,0,0,0,NaN,NaN,vertical,horizontal,horizontal,horizontal,none,none
1d,8,100222,3,23,151,20,F,NA,constant,homogeneous,4,present,1.24167394638062,0,horizontal,vertical,1,1.03528341770172,red,3,1,650.114760665419,393.700666434388,949.885239334581,806.299333565612,949.885239334581,806.299333565612,1006.29933356561,450.114760665419,650.114760665419,393.700666434388,593.700666434388,749.885239334581,NaN,NaN,NaN,NaN,0,0,4,0,NaN,NaN,vertical,horizontal,horizontal,vertical,none,none
1d,8,100222,3,24,152,20,F,NA,constant,homogeneous,3,absent,1.30096793174744,1,vertical,vertical,1,0.91763925075531,red,1,NaN,700.363562235235,834.728737630372,NaN,NaN,700.363562235235,834.728737630372,1053.09926866854,568.923317431687,646.537169096228,396.34794493794,NaN,NaN,NaN,NaN,NaN,NaN,4,0,0,NaN,NaN,NaN,vertical,vertical,vertical,none,none,none
1d,8,100222,3,25,153,20,F,NA,constant,homogeneous,4,absent,0.933695077896118,1,horizontal,horizontal,1,0.91763925075531,red,1,NaN,857.362518857686,848.464366520235,NaN,NaN,857.362518857686,848.464366520235,1048.46436652023,542.637481142314,742.637481142314,351.535633479765,551.535633479765,657.362518857686,NaN,NaN,NaN,NaN,4,0,0,0,NaN,NaN,horizontal,vertical,vertical,horizontal,none,none
1d,8,100222,3,26,154,20,F,NA,constant,homogeneous,3,absent,0.595623970031738,1,horizontal,horizontal,1,0.964696917533874,red,1,NaN,588.595418998464,742.594190385041,NaN,NaN,588.595418998464,742.594190385041,1029.19248180629,711.784642431215,782.212099195248,345.621167183745,NaN,NaN,NaN,NaN,NaN,NaN,4,0,0,NaN,NaN,NaN,horizontal,vertical,horizontal,none,none,none
1d,8,100222,3,27,155,20,F,NA,constant,homogeneous,6,absent,0.612590074539185,1,horizontal,horizontal,1,1.04704783439636,red,1,NaN,795.549636358493,854.96116226488,NaN,NaN,795.549636358493,854.96116226488,1018.57766167904,731.334709102064,1023.02802532055,476.373546837184,804.450363641507,345.03883773512,581.422338320961,468.665290897936,576.971974679454,723.626453162816,4,0,0,0,0,0,horizontal,vertical,vertical,vertical,horizontal,horizontal
1d,8,100222,3,28,156,20,F,NA,constant,homogeneous,3,absent,NaN,0,horizontal,none,0,0.717644166946411,red,3,NaN,583.747735480111,464.870587620533,NaN,NaN,791.100628340862,854.844660889869,1025.15163617903,480.284751489598,583.747735480111,464.870587620533,NaN,NaN,NaN,NaN,NaN,NaN,0,0,4,NaN,NaN,NaN,vertical,horizontal,horizontal,none,none,none
1d,8,100222,3,29,157,20,F,NA,constant,homogeneous,6,absent,0.648269891738892,1,horizontal,horizontal,1,0.611764416694641,red,4,NaN,755.719714694933,348.874022981887,NaN,NaN,844.280285305067,851.125977018113,1039.62161830041,687.215136548046,995.341332995339,436.089159529932,755.719714694933,348.874022981887,560.378381699593,512.784863451954,604.658667004661,763.910840470068,0,0,0,4,0,0,horizontal,horizontal,horizontal,horizontal,horizontal,vertical
1d,8,100222,3,30,158,20,F,NA,constant,homogeneous,6,absent,1.11299991607666,1,vertical,vertical,1,0.988225750923157,red,5,NaN,552.574589799621,538.309916622085,NaN,NaN,870.287525733335,845.121732464271,1047.42541020038,661.690083377915,977.137884467044,416.568350913644,729.712474266665,354.878267535729,552.574589799621,538.309916622085,622.862115532956,783.431649086356,0,0,0,0,4,0,vertical,horizontal,vertical,vertical,vertical,horizontal
1d,8,100222,3,31,159,20,F,NA,constant,homogeneous,4,present,0.929221868515015,1,vertical,vertical,1,0.682350916862488,red,2,3,1041.10723677783,683.019879386575,883.019879386575,358.892763222174,716.980120613425,841.107236777826,1041.10723677783,683.019879386575,883.019879386575,358.892763222174,558.892763222174,516.980120613425,NaN,NaN,NaN,NaN,0,4,0,0,NaN,NaN,vertical,vertical,horizontal,vertical,none,none
1d,8,100222,3,32,160,20,F,NA,constant,homogeneous,6,present,0.954239845275879,1,horizontal,horizontal,1,0.905874834060669,red,6,2,588.595418998464,742.594190385041,1029.19248180629,711.784642431215,817.787900804752,854.378832816255,1029.19248180629,711.784642431215,1011.40458100154,457.40580961496,782.212099195248,345.621167183745,570.807518193712,488.215357568785,588.595418998464,742.594190385041,0,0,0,0,0,4,horizontal,horizontal,vertical,vertical,horizontal,horizontal
1d,8,100222,3,33,161,20,F,NA,constant,homogeneous,3,present,0.839843034744263,1,vertical,vertical,1,0.717644166946411,red,1,2,861.690083377915,847.425410200379,983.431649086356,422.862115532956,861.690083377915,847.425410200379,983.431649086356,422.862115532956,554.878267535729,529.712474266665,NaN,NaN,NaN,NaN,NaN,NaN,4,0,0,NaN,NaN,NaN,vertical,vertical,horizontal,none,none,none
1d,8,100222,3,34,162,20,F,NA,constant,homogeneous,4,present,1.23359608650208,1,horizontal,horizontal,1,0.647057666778564,red,3,1,927.5,379.163522034968,672.5,820.836477965032,672.5,820.836477965032,1020.83647796503,727.5,927.5,379.163522034968,579.163522034968,472.5,NaN,NaN,NaN,NaN,0,0,4,0,NaN,NaN,horizontal,vertical,horizontal,vertical,none,none
1d,8,100222,3,35,163,20,F,NA,constant,homogeneous,3,absent,0.617133140563965,1,horizontal,horizontal,1,0.741173000335693,red,2,NaN,1025.15163617903,480.284751489598,NaN,NaN,791.100628340862,854.844660889869,1025.15163617903,480.284751489598,583.747735480111,464.870587620533,NaN,NaN,NaN,NaN,NaN,NaN,0,4,0,NaN,NaN,NaN,vertical,horizontal,horizontal,none,none,none
1d,8,100222,3,36,164,20,F,NA,constant,homogeneous,3,present,0.806020021438599,1,vertical,vertical,1,1.01175458431244,red,1,3,786.654331158049,854.650531362416,586.139005173917,461.117046071168,786.654331158049,854.650531362416,1027.20666366803,484.232422566416,586.139005173917,461.117046071168,NaN,NaN,NaN,NaN,NaN,NaN,4,0,0,NaN,NaN,NaN,vertical,vertical,vertical,none,none,none
1d,8,100222,3,37,165,20,F,NA,constant,homogeneous,4,absent,0.645315885543823,1,horizontal,horizontal,1,0.741173000335693,red,3,NaN,657.405809614959,388.595418998464,NaN,NaN,942.594190385041,811.404581001536,1011.40458100154,457.40580961496,657.405809614959,388.595418998464,588.595418998464,742.594190385041,NaN,NaN,NaN,NaN,0,0,4,0,NaN,NaN,vertical,horizontal,horizontal,vertical,none,none
1d,8,100222,3,38,166,20,F,NA,constant,homogeneous,5,absent,0.981444120407104,1,vertical,vertical,1,0.776466250419617,red,5,NaN,552.574589799621,661.690083377915,NaN,NaN,782.212099195248,854.378832816255,1036.43188291453,695.524681321058,963.910840470068,404.658667004661,664.870587620533,383.747735480111,552.574589799621,661.690083377915,NaN,NaN,0,0,0,0,4,NaN,vertical,horizontal,vertical,horizontal,vertical,none
1d,8,100222,3,39,167,20,F,NA,constant,homogeneous,4,absent,0.910588979721069,1,vertical,vertical,1,0.858817167282105,red,3,NaN,919.715248510402,374.848363820974,NaN,NaN,680.284751489598,825.151636179026,1025.15163617903,719.715248510402,919.715248510402,374.848363820974,574.848363820974,480.284751489598,NaN,NaN,NaN,NaN,0,0,4,0,NaN,NaN,vertical,horizontal,vertical,vertical,none,none
1d,8,100222,3,40,168,20,F,NA,constant,homogeneous,3,present,0.928347110748291,1,horizontal,horizontal,1,0.776466250419617,red,1,3,927.5,820.836477965032,545,600,927.5,820.836477965032,927.5,379.163522034968,545,600,NaN,NaN,NaN,NaN,NaN,NaN,4,0,0,NaN,NaN,NaN,horizontal,horizontal,vertical,none,none,none
1d,8,100222,3,41,169,20,F,NA,constant,homogeneous,3,present,1.37562012672424,1,horizontal,horizontal,1,0.611764416694641,red,1,3,777.775285599347,854.029648013395,591.116228706307,453.738008730483,777.775285599347,854.029648013395,1031.10848569435,492.232343256122,591.116228706307,453.738008730483,NaN,NaN,NaN,NaN,NaN,NaN,4,0,0,NaN,NaN,NaN,horizontal,vertical,horizontal,none,none,none
1d,8,100222,3,42,170,20,F,NA,constant,homogeneous,4,absent,0.568630218505859,1,horizontal,horizontal,1,0.858817167282105,red,1,NaN,938.882953928832,813.860994826083,NaN,NaN,938.882953928832,813.860994826083,1013.86099482608,461.117046071168,661.117046071168,386.139005173917,586.139005173917,738.882953928832,NaN,NaN,NaN,NaN,4,0,0,0,NaN,NaN,horizontal,horizontal,horizontal,horizontal,none,none
1d,8,100222,3,43,171,20,F,NA,constant,homogeneous,5,absent,0.785568952560425,1,vertical,vertical,1,0.870581583976746,red,3,NaN,1032.95409169886,496.282156015671,NaN,NaN,672.5,820.836477965032,970.628304621509,789.501930496736,1032.95409169886,496.282156015671,773.345241866748,346.39691668109,550.57236181288,546.982518841471,NaN,NaN,0,0,4,0,0,NaN,horizontal,vertical,vertical,horizontal,vertical,none
1d,8,100222,3,44,172,20,F,NA,constant,homogeneous,5,absent,0.622638940811157,0,horizontal,vertical,1,0.670586500167847,red,3,NaN,970.628304621509,410.498069503264,NaN,NaN,773.345241866748,853.60308331891,1032.95409169886,703.717843984329,970.628304621509,410.498069503264,672.5,379.163522034968,550.57236181288,653.017481158529,NaN,NaN,0,0,4,0,0,NaN,vertical,horizontal,horizontal,vertical,vertical,none
1d,8,100222,3,45,173,20,F,NA,constant,homogeneous,6,present,1.28222107887268,1,vertical,vertical,1,0.929403667449951,red,5,3,607.549057043193,432.704947607421,1041.10723677783,516.980120613425,751.343706178981,850.314931779154,992.450942956807,767.295052392579,1041.10723677783,516.980120613425,848.656293821019,349.685068220846,607.549057043193,432.704947607421,558.892763222174,683.019879386575,0,0,0,0,4,0,vertical,vertical,horizontal,vertical,vertical,vertical
1d,8,100222,3,46,174,20,F,NA,constant,homogeneous,6,absent,1.24464583396912,1,vertical,vertical,1,0.823523917198181,red,5,NaN,545.621167183745,582.212099195248,NaN,NaN,911.784642431215,829.192481806288,1054.37883281626,617.787900804752,942.594190385041,388.595418998464,688.215357568785,370.807518193712,545.621167183745,582.212099195248,657.405809614959,811.404581001536,0,0,0,0,4,0,horizontal,horizontal,horizontal,vertical,vertical,horizontal
1d,8,100222,3,47,175,20,F,NA,constant,homogeneous,3,absent,0.611161231994629,1,vertical,vertical,1,1.08234108448029,red,3,NaN,586.139005173917,461.117046071168,NaN,NaN,786.654331158049,854.650531362416,1027.20666366803,484.232422566416,586.139005173917,461.117046071168,NaN,NaN,NaN,NaN,NaN,NaN,0,0,4,NaN,NaN,NaN,horizontal,horizontal,vertical,none,none,none
1d,8,100222,3,48,176,20,F,NA,constant,homogeneous,5,present,0.718088865280151,1,horizontal,horizontal,1,0.91763925075531,red,3,2,800,345,1042.51941165526,521.200666434388,949.885239334581,806.299333565612,1042.51941165526,521.200666434388,800,345,557.480588344736,521.200666434388,650.114760665419,806.299333565612,NaN,NaN,0,0,4,0,0,NaN,horizontal,horizontal,horizontal,horizontal,vertical,none
1d,8,100222,3,49,177,20,F,NA,constant,homogeneous,3,present,0.985499143600464,1,vertical,vertical,1,0.635293250083923,red,1,2,738.309916622085,847.425410200379,1045.12173246427,529.712474266665,738.309916622085,847.425410200379,1045.12173246427,529.712474266665,616.568350913644,422.862115532956,NaN,NaN,NaN,NaN,NaN,NaN,4,0,0,NaN,NaN,NaN,vertical,horizontal,vertical,none,none,none
1d,8,100222,3,50,178,20,F,NA,constant,homogeneous,5,present,0.53414511680603,1,vertical,vertical,1,0.647057666778564,red,2,3,1047.42541020038,538.309916622085,817.787900804752,345.621167183745,935.129412379467,816.252264519889,1047.42541020038,538.309916622085,817.787900804752,345.621167183745,563.568117085469,504.475318678942,636.089159529932,795.341332995339,NaN,NaN,0,4,0,0,0,NaN,vertical,vertical,horizontal,vertical,horizontal,none
1d,8,100222,3,51,179,20,F,NA,constant,homogeneous,4,present,1.05371689796448,1,vertical,vertical,1,1.03528341770172,red,4,2,610.498069503264,770.628304621509,989.501930496736,429.371695378491,970.628304621509,789.501930496736,989.501930496736,429.371695378491,629.371695378491,410.498069503264,610.498069503264,770.628304621509,NaN,NaN,NaN,NaN,0,0,0,4,NaN,NaN,vertical,horizontal,vertical,vertical,none,none
1d,8,100222,3,52,180,20,F,NA,constant,homogeneous,4,present,0.589339017868042,1,vertical,vertical,1,0.941168084144592,red,2,1,1052.5183575291,564.510859255183,835.489140744817,852.518357529101,835.489140744817,852.518357529101,1052.5183575291,564.510859255183,764.510859255183,347.4816424709,547.481642470899,635.489140744817,NaN,NaN,NaN,NaN,0,4,0,0,NaN,NaN,vertical,vertical,vertical,horizontal,none,none
1d,8,100222,3,53,181,20,F,NA,constant,homogeneous,5,absent,0.672814846038818,1,horizontal,horizontal,1,0.964696917533874,red,2,NaN,1054.37883281626,617.787900804752,NaN,NaN,861.690083377915,847.425410200379,1054.37883281626,617.787900804752,895.524681321058,363.568117085469,604.658667004661,436.089159529932,583.747735480111,735.129412379467,NaN,NaN,0,4,0,0,0,NaN,vertical,horizontal,vertical,vertical,vertical,none
1d,8,100222,3,54,182,20,F,NA,constant,homogeneous,4,present,1.10547614097595,1,horizontal,horizontal,1,0.741173000335693,red,3,1,808.899371659138,345.155339110131,791.100628340862,854.844660889869,791.100628340862,854.844660889869,1054.84466088987,608.899371659138,808.899371659138,345.155339110131,545.155339110131,591.100628340862,NaN,NaN,NaN,NaN,0,0,4,0,NaN,NaN,vertical,horizontal,horizontal,horizontal,none,none
1d,8,100222,3,55,183,20,F,NA,constant,homogeneous,6,present,1.0647029876709,1,vertical,vertical,1,1.03528341770172,red,1,4,746.982518841471,849.42763818712,853.017481158529,350.57236181288,746.982518841471,849.42763818712,989.501930496736,770.628304621509,1042.51941165526,521.200666434388,853.017481158529,350.57236181288,610.498069503264,429.371695378491,557.480588344736,678.799333565612,4,0,0,0,0,0,vertical,horizontal,vertical,vertical,horizontal,horizontal
1d,8,100222,3,56,184,20,F,NA,constant,homogeneous,6,absent,1.34653902053833,1,vertical,vertical,1,0.823523917198181,red,3,NaN,1036.43188291453,504.475318678942,NaN,NaN,764.510859255183,852.518357529101,1000.94274216971,756.993676208043,1036.43188291453,504.475318678942,835.489140744817,347.4816424709,599.057257830286,443.006323791957,563.568117085469,695.524681321058,0,0,4,0,0,0,vertical,horizontal,vertical,horizontal,horizontal,vertical
1d,8,100222,3,57,185,20,F,NA,constant,homogeneous,6,absent,0.854861974716187,1,horizontal,horizontal,1,1.058812251091,red,1,NaN,817.787900804752,854.378832816255,NaN,NaN,817.787900804752,854.378832816255,1029.19248180629,711.784642431215,1011.40458100154,457.40580961496,782.212099195248,345.621167183745,570.807518193712,488.215357568785,588.595418998464,742.594190385041,4,0,0,0,0,0,horizontal,vertical,vertical,horizontal,horizontal,horizontal
1d,8,100222,3,58,186,20,F,NA,constant,homogeneous,5,absent,1.08901190757751,1,vertical,vertical,1,0.858817167282105,red,2,NaN,1050.31493177915,648.656293821019,NaN,NaN,831.076682568313,853.099268668537,1050.31493177915,648.656293821019,923.626453162816,376.971974679454,626.090418184063,413.504806087112,568.891514305654,707.767656743878,NaN,NaN,0,4,0,0,0,NaN,horizontal,vertical,horizontal,vertical,horizontal,none
1d,8,100222,3,59,187,20,F,NA,constant,homogeneous,3,absent,1.28086996078491,1,vertical,vertical,1,0.682350916862488,red,1,NaN,672.5,820.836477965032,NaN,NaN,672.5,820.836477965032,1055,600,672.5,379.163522034968,NaN,NaN,NaN,NaN,NaN,NaN,4,0,0,NaN,NaN,NaN,vertical,horizontal,vertical,none,none,none
1d,8,100222,3,60,188,20,F,NA,constant,homogeneous,6,present,1.54686594009399,1,horizontal,horizontal,1,0.999990167617798,red,4,2,822.224714400653,345.970351986605,1008.88377129369,746.261991269517,777.775285599347,854.029648013395,1008.88377129369,746.261991269517,1031.10848569435,492.232343256122,822.224714400653,345.970351986605,591.116228706307,453.738008730483,568.891514305654,707.767656743878,0,0,0,4,0,0,vertical,horizontal,vertical,horizontal,vertical,vertical
1d,8,100222,3,61,189,20,F,NA,constant,homogeneous,6,absent,0.981698989868164,1,horizontal,horizontal,1,0.788230667114258,red,5,NaN,588.595418998464,457.40580961496,NaN,NaN,782.212099195248,854.378832816255,1011.40458100154,742.594190385041,1029.19248180629,488.215357568785,817.787900804752,345.621167183745,588.595418998464,457.40580961496,570.807518193712,711.784642431215,0,0,0,0,4,0,vertical,vertical,vertical,vertical,horizontal,horizontal
1d,8,100222,3,62,190,20,F,NA,constant,homogeneous,4,absent,1.37453985214233,1,horizontal,horizontal,1,0.858817167282105,red,3,NaN,700.363562235235,365.271262369628,NaN,NaN,899.636437764765,834.728737630372,1034.72873763037,500.363562235235,700.363562235235,365.271262369628,565.271262369628,699.636437764765,NaN,NaN,NaN,NaN,0,0,4,0,NaN,NaN,horizontal,vertical,horizontal,horizontal,none,none
1d,8,100222,3,63,191,20,F,NA,constant,homogeneous,5,present,0.866091966629028,1,horizontal,horizontal,1,0.988225750923157,red,2,4,995.341332995339,763.910840470068,738.309916622085,352.574589799621,704.475318678942,836.431882914531,995.341332995339,763.910840470068,1016.25226451989,464.870587620533,738.309916622085,352.574589799621,545.621167183745,582.212099195248,NaN,NaN,0,4,0,0,0,NaN,horizontal,horizontal,horizontal,horizontal,horizontal,none
1d,8,100222,3,64,192,20,F,NA,constant,homogeneous,5,absent,0.606643199920654,1,horizontal,horizontal,1,0.764701833724976,red,5,NaN,545,600,NaN,NaN,721.200666434388,842.519411655264,1006.29933356561,749.885239334581,1006.29933356561,450.114760665419,721.200666434388,357.480588344736,545,600,NaN,NaN,0,0,0,0,4,NaN,horizontal,horizontal,horizontal,vertical,horizontal,none
1d,8,100222,4,1,193,20,F,NA,constant,homogeneous,5,present,0.831101894378662,1,horizontal,horizontal,1,0.776466250419617,red,3,5,891.383827134052,361.936991243214,586.139005173917,738.882953928832,865.998856501143,846.311085703712,1054.65053136242,613.345668841951,891.383827134052,361.936991243214,601.827779828472,439.523300282291,586.139005173917,738.882953928832,NaN,NaN,0,0,4,0,0,NaN,vertical,horizontal,horizontal,vertical,horizontal,none
1d,8,100222,4,2,194,20,F,NA,constant,homogeneous,4,absent,0.795825958251953,1,horizontal,horizontal,1,0.799995083808899,red,1,NaN,646.537169096228,803.65205506206,NaN,NaN,646.537169096228,803.65205506206,1003.65205506206,753.462830903772,953.462830903772,396.34794493794,596.34794493794,446.537169096228,NaN,NaN,NaN,NaN,4,0,0,0,NaN,NaN,horizontal,horizontal,vertical,vertical,none,none
1d,8,100222,4,3,195,20,F,NA,constant,homogeneous,6,absent,0.625669956207275,1,horizontal,horizontal,1,0.682350916862488,red,3,NaN,1029.19248180629,488.215357568785,NaN,NaN,782.212099195248,854.378832816255,1011.40458100154,742.594190385041,1029.19248180629,488.215357568785,817.787900804752,345.621167183745,588.595418998464,457.40580961496,570.807518193712,711.784642431215,0,0,4,0,0,0,vertical,horizontal,horizontal,vertical,horizontal,vertical
1d,8,100222,4,4,196,20,F,NA,constant,homogeneous,4,present,1.11932396888733,1,vertical,vertical,1,0.870581583976746,red,3,2,826.654758133252,346.39691668109,1053.60308331891,626.654758133252,773.345241866748,853.60308331891,1053.60308331891,626.654758133252,826.654758133252,346.39691668109,546.39691668109,573.345241866748,NaN,NaN,NaN,NaN,0,0,4,0,NaN,NaN,horizontal,vertical,vertical,horizontal,none,none
1d,8,100222,4,5,197,20,F,NA,constant,homogeneous,3,absent,1.18564915657043,1,horizontal,horizontal,1,0.964696917533874,red,2,NaN,1054.65053136242,613.345668841951,NaN,NaN,661.117046071168,813.860994826083,1054.65053136242,613.345668841951,684.232422566416,372.793336331966,NaN,NaN,NaN,NaN,NaN,NaN,0,4,0,NaN,NaN,NaN,vertical,horizontal,vertical,none,none,none
1d,8,100222,4,6,198,20,F,NA,constant,homogeneous,6,present,0.949857950210571,1,vertical,vertical,1,0.823523917198181,red,1,5,700.363562235235,834.728737630372,646.537169096228,396.34794493794,700.363562235235,834.728737630372,953.462830903772,803.65205506206,1053.09926866854,568.923317431687,899.636437764765,365.271262369628,646.537169096228,396.34794493794,546.900731331463,631.076682568313,4,0,0,0,0,0,vertical,vertical,vertical,vertical,vertical,vertical
1d,8,100222,4,7,199,20,F,NA,constant,homogeneous,3,present,0.846427202224731,1,horizontal,horizontal,1,1.07057666778564,red,3,2,768.923317431687,346.900731331463,1034.72873763037,699.636437764765,596.34794493794,753.462830903772,1034.72873763037,699.636437764765,768.923317431687,346.900731331463,NaN,NaN,NaN,NaN,NaN,NaN,0,0,4,NaN,NaN,NaN,horizontal,vertical,horizontal,none,none,none
1d,8,100222,4,8,200,20,F,NA,constant,homogeneous,4,present,0.491781949996948,1,horizontal,horizontal,1,0.6,red,3,2,700.363562235235,365.271262369628,1034.72873763037,500.363562235235,899.636437764765,834.728737630372,1034.72873763037,500.363562235235,700.363562235235,365.271262369628,565.271262369628,699.636437764765,NaN,NaN,NaN,NaN,0,0,4,0,NaN,NaN,vertical,vertical,horizontal,vertical,none,none
1d,8,100222,4,9,201,20,F,NA,constant,homogeneous,5,absent,0.749958992004395,1,vertical,vertical,1,0.623528833389282,red,5,NaN,601.827779828472,760.476699717708,NaN,NaN,891.383827134052,838.063008756786,1054.65053136242,586.654331158049,865.998856501143,353.688914296288,586.139005173917,461.117046071168,601.827779828472,760.476699717708,NaN,NaN,0,0,0,0,4,NaN,horizontal,vertical,horizontal,horizontal,vertical,none
1d,8,100222,4,10,202,20,F,NA,constant,homogeneous,6,present,0.646975040435791,1,horizontal,horizontal,1,0.694115333557129,red,3,6,1006.29933356561,450.114760665419,593.700666434388,749.885239334581,826.654758133252,853.60308331891,1032.95409169886,703.717843984329,1006.29933356561,450.114760665419,773.345241866748,346.39691668109,567.045908301137,496.282156015671,593.700666434388,749.885239334581,0,0,4,0,0,0,vertical,horizontal,horizontal,vertical,horizontal,horizontal
1d,8,100222,4,11,203,20,F,NA,constant,homogeneous,4,present,0.516650199890137,1,horizontal,horizontal,1,1.02351900100708,red,2,4,1048.46436652023,542.637481142314,551.535633479765,657.362518857686,857.362518857686,848.464366520235,1048.46436652023,542.637481142314,742.637481142314,351.535633479765,551.535633479765,657.362518857686,NaN,NaN,NaN,NaN,0,4,0,0,NaN,NaN,horizontal,horizontal,horizontal,horizontal,none,none
1d,8,100222,4,12,204,20,F,NA,constant,homogeneous,4,absent,0.795248031616211,1,vertical,vertical,1,0.999990167617798,red,1,NaN,738.309916622085,847.425410200379,NaN,NaN,738.309916622085,847.425410200379,1047.42541020038,661.690083377915,861.690083377915,352.574589799621,552.574589799621,538.309916622085,NaN,NaN,NaN,NaN,4,0,0,0,NaN,NaN,vertical,vertical,horizontal,horizontal,none,none
1d,8,100222,4,13,205,20,F,NA,constant,homogeneous,3,present,0.521381139755249,1,vertical,vertical,1,0.70587975025177,red,3,2,563.568117085469,504.475318678942,1000.94274216971,443.006323791957,835.489140744817,852.518357529101,1000.94274216971,443.006323791957,563.568117085469,504.475318678942,NaN,NaN,NaN,NaN,NaN,NaN,0,0,4,NaN,NaN,NaN,horizontal,horizontal,vertical,none,none,none
1d,8,100222,4,14,206,20,F,NA,constant,homogeneous,4,present,0.54277515411377,1,vertical,vertical,1,0.729408583641052,red,3,1,708.616172865948,361.936991243214,891.383827134052,838.063008756786,891.383827134052,838.063008756786,1038.06300875679,508.616172865948,708.616172865948,361.936991243214,561.936991243214,691.383827134052,NaN,NaN,NaN,NaN,0,0,4,0,NaN,NaN,vertical,vertical,vertical,horizontal,none,none
1d,8,100222,4,15,207,20,F,NA,constant,homogeneous,5,present,0.503115177154541,1,vertical,vertical,1,0.670586500167847,red,2,3,1051.86052685176,560.109211414741,839.890788585259,348.13947314824,915.767577433584,827.206663668034,1051.86052685176,560.109211414741,839.890788585259,348.13947314824,572.793336331966,484.232422566416,619.68777079743,780.31222920257,NaN,NaN,0,4,0,0,0,NaN,horizontal,vertical,vertical,horizontal,horizontal,none
1d,8,100222,4,16,208,20,F,NA,constant,homogeneous,5,present,0.408592939376831,1,vertical,vertical,1,0.964696917533874,red,3,5,963.910840470068,404.658667004661,552.574589799621,661.690083377915,782.212099195248,854.378832816255,1036.43188291453,695.524681321058,963.910840470068,404.658667004661,664.870587620533,383.747735480111,552.574589799621,661.690083377915,NaN,NaN,0,0,4,0,0,NaN,horizontal,horizontal,vertical,vertical,horizontal,none
1d,8,100222,4,17,209,20,F,NA,constant,homogeneous,3,absent,0.626346111297607,1,horizontal,horizontal,1,1.08234108448029,red,1,NaN,632.704947607421,792.450942956807,NaN,NaN,632.704947607421,792.450942956807,1050.31493177915,648.656293821019,716.980120613425,358.892763222174,NaN,NaN,NaN,NaN,NaN,NaN,4,0,0,NaN,NaN,NaN,horizontal,horizontal,vertical,none,none,none
1d,8,100222,4,18,210,20,F,NA,constant,homogeneous,6,present,0.93855619430542,1,horizontal,horizontal,1,0.764701833724976,red,3,2,1027.20666366803,484.232422566416,1013.86099482608,738.882953928832,786.654331158049,854.650531362416,1013.86099482608,738.882953928832,1027.20666366803,484.232422566416,813.345668841951,345.349468637584,586.139005173917,461.117046071168,572.793336331966,715.767577433584,0,0,4,0,0,0,vertical,vertical,horizontal,vertical,horizontal,horizontal
1d,8,100222,4,19,211,20,F,NA,constant,homogeneous,6,present,0.589895963668823,1,vertical,vertical,1,1.02351900100708,red,4,6,899.636437764765,365.271262369628,546.900731331463,631.076682568313,700.363562235235,834.728737630372,953.462830903772,803.65205506206,1053.09926866854,568.923317431687,899.636437764765,365.271262369628,646.537169096228,396.34794493794,546.900731331463,631.076682568313,0,0,0,4,0,0,horizontal,horizontal,vertical,vertical,horizontal,horizontal
1d,8,100222,4,20,212,20,F,NA,constant,homogeneous,6,absent,0.526878833770752,1,vertical,vertical,1,1.04704783439636,red,4,NaN,844.280285305067,348.874022981887,NaN,NaN,755.719714694933,851.125977018113,995.341332995339,763.910840470068,1039.62161830041,512.784863451954,844.280285305067,348.874022981887,604.658667004661,436.089159529932,560.378381699593,687.215136548046,0,0,0,4,0,0,vertical,horizontal,vertical,vertical,horizontal,vertical
1d,8,100222,4,21,213,20,F,NA,constant,homogeneous,4,absent,0.50653600692749,1,vertical,vertical,1,0.658822083473206,red,2,NaN,1016.25226451989,464.870587620533,NaN,NaN,935.129412379467,816.252264519889,1016.25226451989,464.870587620533,664.870587620533,383.747735480111,583.747735480111,735.129412379467,NaN,NaN,NaN,NaN,0,4,0,0,NaN,NaN,vertical,vertical,vertical,horizontal,none,none
1d,8,100222,4,22,214,20,F,NA,constant,homogeneous,3,absent,1.25399112701416,1,vertical,vertical,1,0.847052750587463,red,1,NaN,786.654331158049,854.650531362416,NaN,NaN,786.654331158049,854.650531362416,1027.20666366803,484.232422566416,586.139005173917,461.117046071168,NaN,NaN,NaN,NaN,NaN,NaN,4,0,0,NaN,NaN,NaN,vertical,horizontal,vertical,none,none,none
1d,8,100222,4,23,215,20,F,NA,constant,homogeneous,6,present,0.748630046844482,1,horizontal,horizontal,1,0.670586500167847,red,6,1,604.658667004661,763.910840470068,844.280285305067,851.125977018113,844.280285305067,851.125977018113,1039.62161830041,687.215136548046,995.341332995339,436.089159529932,755.719714694933,348.874022981887,560.378381699593,512.784863451954,604.658667004661,763.910840470068,0,0,0,0,0,4,horizontal,vertical,horizontal,horizontal,horizontal,horizontal
1d,8,100222,4,24,216,20,F,NA,constant,homogeneous,5,present,0.671982049942017,1,vertical,vertical,1,0.81175950050354,red,3,1,953.462830903772,396.34794493794,795.549636358493,854.96116226488,795.549636358493,854.96116226488,1041.10723677783,683.019879386575,953.462830903772,396.34794493794,653.738008730483,391.116228706307,556.142287229426,674.554784704298,NaN,NaN,0,0,4,0,0,NaN,vertical,horizontal,vertical,vertical,horizontal,none
1d,8,100222,4,25,217,20,F,NA,constant,homogeneous,4,present,1.02998208999634,1,horizontal,horizontal,1,0.623528833389282,red,3,1,746.982518841471,350.57236181288,853.017481158529,849.42763818712,853.017481158529,849.42763818712,1049.42763818712,546.982518841471,746.982518841471,350.57236181288,550.57236181288,653.017481158529,NaN,NaN,NaN,NaN,0,0,4,0,NaN,NaN,horizontal,vertical,horizontal,vertical,none,none
1d,8,100222,4,26,218,20,F,NA,constant,homogeneous,3,absent,1.58067989349365,1,vertical,vertical,1,0.894110417366028,red,3,NaN,550.57236181288,546.982518841471,NaN,NaN,878.799333565612,842.519411655264,970.628304621509,410.498069503264,550.57236181288,546.982518841471,NaN,NaN,NaN,NaN,NaN,NaN,0,0,4,NaN,NaN,NaN,vertical,horizontal,vertical,none,none,none
1d,8,100222,4,27,219,20,F,NA,constant,homogeneous,6,absent,0.618456840515137,1,horizontal,horizontal,1,0.894110417366028,red,4,NaN,887.215136548046,360.378381699593,NaN,NaN,712.784863451954,839.621618300407,963.910840470068,795.341332995339,1051.12597701811,555.719714694933,887.215136548046,360.378381699593,636.089159529932,404.658667004661,548.874022981887,644.280285305067,0,0,0,4,0,0,vertical,vertical,vertical,horizontal,horizontal,vertical
1d,8,100222,4,28,220,20,F,NA,constant,homogeneous,3,absent,0.770437955856323,1,vertical,vertical,1,0.776466250419617,red,3,NaN,552.574589799621,661.690083377915,NaN,NaN,977.137884467044,783.431649086356,870.287525733335,354.878267535729,552.574589799621,661.690083377915,NaN,NaN,NaN,NaN,NaN,NaN,0,0,4,NaN,NaN,NaN,vertical,horizontal,vertical,none,none,none
1d,8,100222,4,29,221,20,F,NA,constant,homogeneous,6,present,0.882088899612427,1,vertical,vertical,1,0.999990167617798,red,5,3,579.163522034968,472.5,1020.83647796503,472.5,800,855,1020.83647796503,727.5,1020.83647796503,472.5,800,345,579.163522034968,472.5,579.163522034968,727.5,0,0,0,0,4,0,vertical,vertical,horizontal,vertical,vertical,horizontal
1d,8,100222,4,30,222,20,F,NA,constant,homogeneous,3,present,0.547287940979004,1,vertical,vertical,1,0.976461334228516,red,2,3,938.882953928832,386.139005173917,545.349468637584,586.654331158049,915.767577433584,827.206663668034,938.882953928832,386.139005173917,545.349468637584,586.654331158049,NaN,NaN,NaN,NaN,NaN,NaN,0,4,0,NaN,NaN,NaN,vertical,vertical,vertical,none,none,none
1d,8,100222,4,31,223,20,F,NA,constant,homogeneous,3,absent,0.918846845626831,1,vertical,vertical,1,0.611764416694641,red,3,NaN,545.621167183745,617.787900804752,NaN,NaN,942.594190385041,811.404581001536,911.784642431215,370.807518193712,545.621167183745,617.787900804752,NaN,NaN,NaN,NaN,NaN,NaN,0,0,4,NaN,NaN,NaN,horizontal,vertical,vertical,none,none,none
1d,8,100222,4,32,224,20,F,NA,constant,homogeneous,5,absent,0.789054155349731,1,horizontal,horizontal,1,0.976461334228516,red,5,NaN,596.34794493794,753.462830903772,NaN,NaN,883.019879386575,841.107236777826,1054.96116226488,595.549636358493,874.554784704298,356.142287229426,591.116228706307,453.738008730483,596.34794493794,753.462830903772,NaN,NaN,0,0,0,0,4,NaN,vertical,horizontal,horizontal,horizontal,horizontal,none
1d,8,100222,4,33,225,20,F,NA,constant,homogeneous,5,absent,0.685040950775146,1,horizontal,horizontal,1,0.6,red,3,NaN,946.261991269517,391.116228706307,NaN,NaN,804.450363641507,854.96116226488,1043.85771277057,674.554784704298,946.261991269517,391.116228706307,646.537169096228,396.34794493794,558.892763222174,683.019879386575,NaN,NaN,0,0,4,0,0,NaN,horizontal,vertical,horizontal,vertical,horizontal,none
1d,8,100222,4,34,226,20,F,NA,constant,homogeneous,5,present,0.715627908706665,1,vertical,vertical,1,1.03528341770172,red,2,5,1025.15163617903,719.715248510402,547.481642470899,635.489140744817,755.719714694933,851.125977018113,1025.15163617903,719.715248510402,983.431649086356,422.862115532956,688.215357568785,370.807518193712,547.481642470899,635.489140744817,NaN,NaN,0,4,0,0,0,NaN,horizontal,vertical,horizontal,horizontal,horizontal,none
1d,8,100222,4,35,227,20,F,NA,constant,homogeneous,4,absent,0.826282024383545,1,vertical,vertical,1,0.611764416694641,red,4,NaN,545.155339110131,591.100628340862,NaN,NaN,791.100628340862,854.844660889869,1054.84466088987,608.899371659138,808.899371659138,345.155339110131,545.155339110131,591.100628340862,NaN,NaN,NaN,NaN,0,0,0,4,NaN,NaN,vertical,vertical,vertical,vertical,none,none
1d,8,100222,4,36,228,20,F,NA,constant,homogeneous,6,absent,0.682778120040894,1,vertical,vertical,1,0.988225750923157,red,4,NaN,760.109211414741,348.13947314824,NaN,NaN,839.890788585259,851.86052685176,1038.06300875679,691.383827134052,998.172220171528,439.523300282291,760.109211414741,348.13947314824,561.936991243214,508.616172865948,601.827779828472,760.476699717708,0,0,0,4,0,0,vertical,vertical,horizontal,vertical,horizontal,vertical
1d,8,100222,4,37,229,20,F,NA,constant,homogeneous,5,absent,0.742540836334229,1,horizontal,horizontal,1,0.894110417366028,red,1,NaN,672.5,820.836477965032,NaN,NaN,672.5,820.836477965032,970.628304621509,789.501930496736,1032.95409169886,496.282156015671,773.345241866748,346.39691668109,550.57236181288,546.982518841471,NaN,NaN,4,0,0,0,0,NaN,horizontal,horizontal,vertical,vertical,horizontal,none
1d,8,100222,4,38,230,20,F,NA,constant,homogeneous,3,present,0.59325098991394,1,vertical,vertical,1,0.964696917533874,red,3,2,552.574589799621,538.309916622085,977.137884467044,416.568350913644,870.287525733335,845.121732464271,977.137884467044,416.568350913644,552.574589799621,538.309916622085,NaN,NaN,NaN,NaN,NaN,NaN,0,0,4,NaN,NaN,NaN,horizontal,horizontal,vertical,none,none,none
1d,8,100222,4,39,231,20,F,NA,constant,homogeneous,5,present,0.68428111076355,1,horizontal,horizontal,1,0.764701833724976,red,3,4,949.885239334581,393.700666434388,650.114760665419,393.700666434388,800,855,1042.51941165526,678.799333565612,949.885239334581,393.700666434388,650.114760665419,393.700666434388,557.480588344736,678.799333565612,NaN,NaN,0,0,4,0,0,NaN,vertical,horizontal,horizontal,vertical,vertical,none
1d,8,100222,4,40,232,20,F,NA,constant,homogeneous,5,present,0.858572006225586,1,horizontal,horizontal,1,0.81175950050354,red,1,4,672.5,820.836477965032,773.345241866748,346.39691668109,672.5,820.836477965032,970.628304621509,789.501930496736,1032.95409169886,496.282156015671,773.345241866748,346.39691668109,550.57236181288,546.982518841471,NaN,NaN,4,0,0,0,0,NaN,horizontal,vertical,vertical,vertical,vertical,none
1d,8,100222,4,41,233,20,F,NA,constant,homogeneous,4,absent,0.613499879837036,1,horizontal,horizontal,1,0.670586500167847,red,2,NaN,1023.02802532055,476.373546837184,NaN,NaN,923.626453162816,823.028025320546,1023.02802532055,476.373546837184,676.373546837184,376.971974679454,576.971974679454,723.626453162816,NaN,NaN,NaN,NaN,0,4,0,0,NaN,NaN,vertical,horizontal,horizontal,vertical,none,none
1d,8,100222,4,42,234,20,F,NA,constant,homogeneous,3,present,0.490692853927612,1,horizontal,horizontal,1,0.635293250083923,red,2,1,942.594190385041,388.595418998464,911.784642431215,829.192481806288,911.784642431215,829.192481806288,942.594190385041,388.595418998464,545.621167183745,582.212099195248,NaN,NaN,NaN,NaN,NaN,NaN,0,4,0,NaN,NaN,NaN,horizontal,horizontal,horizontal,none,none,none
1d,8,100222,4,43,235,20,F,NA,constant,homogeneous,5,present,0.765614032745361,1,horizontal,horizontal,1,0.847052750587463,red,5,3,576.971974679454,723.626453162816,907.767656743878,368.891514305654,848.656293821019,850.314931779154,1053.09926866854,631.076682568313,907.767656743878,368.891514305654,613.504806087112,426.090418184063,576.971974679454,723.626453162816,NaN,NaN,0,0,0,0,4,NaN,vertical,vertical,horizontal,vertical,horizontal,none
1d,8,100222,4,44,236,20,F,NA,constant,homogeneous,4,present,0.547366857528687,1,vertical,vertical,1,0.70587975025177,red,3,4,738.309916622085,352.574589799621,552.574589799621,661.690083377915,861.690083377915,847.425410200379,1047.42541020038,538.309916622085,738.309916622085,352.574589799621,552.574589799621,661.690083377915,NaN,NaN,NaN,NaN,0,0,4,0,NaN,NaN,horizontal,horizontal,vertical,vertical,none,none
1d,8,100222,4,45,237,20,F,NA,constant,homogeneous,3,present,0.565442085266113,1,horizontal,horizontal,1,0.964696917533874,red,1,3,639.523300282292,798.172220171528,708.616172865948,361.936991243214,639.523300282292,798.172220171528,1051.86052685176,639.890788585259,708.616172865948,361.936991243214,NaN,NaN,NaN,NaN,NaN,NaN,4,0,0,NaN,NaN,NaN,horizontal,vertical,vertical,none,none,none
1d,8,100222,4,46,238,20,F,NA,constant,homogeneous,3,present,0.535248041152954,1,vertical,vertical,1,0.717644166946411,red,3,2,668.665290897936,381.422338320961,1054.96116226488,595.549636358493,676.373546837184,823.028025320546,1054.96116226488,595.549636358493,668.665290897936,381.422338320961,NaN,NaN,NaN,NaN,NaN,NaN,0,0,4,NaN,NaN,NaN,horizontal,horizontal,vertical,none,none,none
1d,8,100222,4,47,239,20,F,NA,constant,homogeneous,5,absent,0.931799173355103,1,vertical,vertical,1,0.870581583976746,red,5,NaN,636.089159529932,795.341332995339,NaN,NaN,935.129412379467,816.252264519889,1047.42541020038,538.309916622085,817.787900804752,345.621167183745,563.568117085469,504.475318678942,636.089159529932,795.341332995339,NaN,NaN,0,0,0,0,4,NaN,horizontal,vertical,horizontal,horizontal,vertical,none
1d,8,100222,4,48,240,20,F,NA,constant,homogeneous,4,absent,0.534113168716431,1,vertical,vertical,1,0.976461334228516,red,3,NaN,786.654331158049,345.349468637584,NaN,NaN,813.345668841951,854.650531362416,1054.65053136242,586.654331158049,786.654331158049,345.349468637584,545.349468637584,613.345668841951,NaN,NaN,NaN,NaN,0,0,4,0,NaN,NaN,horizontal,vertical,vertical,vertical,none,none
1d,8,100222,4,49,241,20,F,NA,constant,homogeneous,4,present,1.77147197723389,1,horizontal,horizontal,1,0.717644166946411,red,4,2,552.574589799621,538.309916622085,1047.42541020038,661.690083377915,738.309916622085,847.425410200379,1047.42541020038,661.690083377915,861.690083377915,352.574589799621,552.574589799621,538.309916622085,NaN,NaN,NaN,NaN,0,0,0,4,NaN,NaN,horizontal,horizontal,vertical,horizontal,none,none
1d,8,100222,4,50,242,20,F,NA,constant,homogeneous,3,present,0.656531810760498,1,horizontal,horizontal,1,1.08234108448029,red,2,3,938.882953928832,386.139005173917,545.349468637584,586.654331158049,915.767577433584,827.206663668034,938.882953928832,386.139005173917,545.349468637584,586.654331158049,NaN,NaN,NaN,NaN,NaN,NaN,0,4,0,NaN,NaN,NaN,horizontal,horizontal,horizontal,none,none,none
1d,8,100222,4,51,243,20,F,NA,constant,homogeneous,5,absent,0.774791955947876,1,horizontal,horizontal,1,1.04704783439636,red,1,NaN,668.665290897936,818.577661679039,NaN,NaN,668.665290897936,818.577661679039,967.295052392579,792.450942956807,1034.72873763037,500.363562235235,777.775285599347,345.970351986605,551.535633479765,542.637481142314,NaN,NaN,4,0,0,0,0,NaN,horizontal,horizontal,vertical,horizontal,vertical,none
1d,8,100222,4,52,244,20,F,NA,constant,homogeneous,4,present,0.826406002044678,1,vertical,vertical,1,1.01175458431244,red,1,3,672.5,820.836477965032,927.5,379.163522034968,672.5,820.836477965032,1020.83647796503,727.5,927.5,379.163522034968,579.163522034968,472.5,NaN,NaN,NaN,NaN,4,0,0,0,NaN,NaN,vertical,horizontal,horizontal,horizontal,none,none
