experiment,subject,uniqueID,block,trial,trial_cumulative,age,gender,color_cond_blocking,color_history,shape_type,set_size,distractor,rt,acc,target_orient,response_key,response_made,iti,target_color,target_item,distractor_item,target_X,target_Y,distractor_X,distractor_Y,item1_X,item1_Y,item2_X,item2_Y,item3_X,item3_Y,item4_X,item4_Y,item5_X,item5_Y,item6_X,item6_Y,item1_shape,item2_shape,item3_shape,item4_shape,item5_shape,item6_shape,item1_line,item2_line,item3_line,item4_line,item5_line,item6_line
1d,9,100229,1,1,1,19,F,NA,constant,homogeneous,6,absent,1.0517749786377,1,horizontal,horizontal,1,0.988221656574922,green,5,NaN,607.549057043193,432.704947607421,NaN,NaN,751.343706178981,850.314931779154,992.450942956807,767.295052392579,1041.10723677783,516.980120613425,848.656293821019,349.685068220846,607.549057043193,432.704947607421,558.892763222174,683.019879386575,0,0,0,0,4,0,horizontal,horizontal,horizontal,horizontal,horizontal,horizontal
1d,9,100229,1,2,2,19,F,NA,constant,homogeneous,5,present,1.05482387542725,1,vertical,vertical,1,1.08233599756278,green,3,2,1041.10723677783,516.980120613425,953.462830903772,803.65205506206,653.738008730483,808.883771293693,953.462830903772,803.65205506206,1041.10723677783,516.980120613425,795.549636358493,345.03883773512,556.142287229426,525.445215295702,NaN,NaN,0,0,4,0,0,NaN,horizontal,horizontal,vertical,horizontal,horizontal,none
1d,9,100229,1,3,3,19,F,NA,constant,homogeneous,6,present,0.732084989547729,1,horizontal,horizontal,1,0.799992974599202,green,5,1,629.371695378491,410.498069503264,721.200666434388,842.519411655264,721.200666434388,842.519411655264,970.628304621509,789.501930496736,1049.42763818712,546.982518841471,878.799333565612,357.480588344736,629.371695378491,410.498069503264,550.57236181288,653.017481158529,0,0,0,0,4,0,vertical,horizontal,horizontal,vertical,horizontal,vertical
1d,9,100229,1,4,4,19,F,NA,constant,homogeneous,3,absent,0.7118079662323,1,vertical,vertical,1,1.0705717049393,green,3,NaN,550.57236181288,546.982518841471,NaN,NaN,878.799333565612,842.519411655264,970.628304621509,410.498069503264,550.57236181288,546.982518841471,NaN,NaN,NaN,NaN,NaN,NaN,0,0,4,NaN,NaN,NaN,horizontal,vertical,vertical,none,none,none
1d,9,100229,1,5,5,19,F,NA,constant,homogeneous,6,absent,0.781742095947266,1,horizontal,horizontal,1,0.764700096728755,green,6,NaN,549.685068220846,648.656293821019,NaN,NaN,716.980120613425,841.107236777826,967.295052392579,792.450942956807,1050.31493177915,551.343706178981,883.019879386575,358.892763222174,632.704947607421,407.549057043193,549.685068220846,648.656293821019,0,0,0,0,0,4,horizontal,horizontal,horizontal,horizontal,vertical,horizontal
1d,9,100229,1,6,6,19,F,NA,constant,homogeneous,4,absent,1.23949599266052,1,horizontal,horizontal,1,0.705878633611343,green,4,NaN,581.422338320961,468.665290897936,NaN,NaN,668.665290897936,818.577661679039,1018.57766167904,731.334709102064,931.334709102064,381.422338320961,581.422338320961,468.665290897936,NaN,NaN,NaN,NaN,0,0,0,4,NaN,NaN,vertical,horizontal,horizontal,horizontal,none,none
1d,9,100229,1,7,7,19,F,NA,constant,homogeneous,4,absent,0.686721086502075,1,horizontal,horizontal,1,0.905871608210545,green,3,NaN,668.665290897936,381.422338320961,NaN,NaN,931.334709102064,818.577661679039,1018.57766167904,468.665290897936,668.665290897936,381.422338320961,581.422338320961,731.334709102064,NaN,NaN,NaN,NaN,0,0,4,0,NaN,NaN,vertical,vertical,horizontal,vertical,none,none
1d,9,100229,1,8,8,19,F,NA,constant,homogeneous,6,absent,0.549267053604126,1,vertical,vertical,1,0.83528585246965,green,4,NaN,746.982518841471,350.57236181288,NaN,NaN,853.017481158529,849.42763818712,1042.51941165526,678.799333565612,989.501930496736,429.371695378491,746.982518841471,350.57236181288,557.480588344736,521.200666434388,610.498069503264,770.628304621509,0,0,0,4,0,0,vertical,vertical,vertical,vertical,vertical,horizontal
1d,9,100229,1,9,9,19,F,NA,constant,homogeneous,5,present,0.812891006469727,1,horizontal,horizontal,1,0.623528585246965,green,4,5,581.422338320961,468.665290897936,607.549057043193,767.295052392579,899.636437764765,834.728737630372,1054.0296480134,577.775285599347,857.362518857686,351.535633479765,581.422338320961,468.665290897936,607.549057043193,767.295052392579,NaN,NaN,0,0,0,4,0,NaN,horizontal,vertical,horizontal,horizontal,horizontal,none
1d,9,100229,1,10,10,19,F,NA,constant,homogeneous,3,absent,0.601778030395508,1,vertical,vertical,1,0.811757267222685,green,3,NaN,588.595418998464,457.40580961496,NaN,NaN,782.212099195248,854.378832816255,1029.19248180629,488.215357568785,588.595418998464,457.40580961496,NaN,NaN,NaN,NaN,NaN,NaN,0,0,4,NaN,NaN,NaN,vertical,vertical,vertical,none,none,none
1d,9,100229,1,11,11,19,F,NA,constant,homogeneous,5,present,0.763699054718018,1,vertical,vertical,1,1.08233599756278,green,5,3,560.378381699593,687.215136548046,942.594190385041,388.595418998464,808.899371659138,854.844660889869,1045.12173246427,670.287525733335,942.594190385041,388.595418998464,643.006323791957,399.057257830286,560.378381699593,687.215136548046,NaN,NaN,0,0,0,0,4,NaN,vertical,horizontal,vertical,horizontal,vertical,none
1d,9,100229,1,12,12,19,F,NA,constant,homogeneous,6,absent,0.780054092407227,1,horizontal,horizontal,1,0.64705717049393,green,6,NaN,547.481642470899,635.489140744817,NaN,NaN,704.475318678942,836.431882914531,956.993676208043,800.942742169714,1052.5183575291,564.510859255183,895.524681321058,363.568117085469,643.006323791957,399.057257830286,547.481642470899,635.489140744817,0,0,0,0,0,4,horizontal,horizontal,vertical,horizontal,horizontal,horizontal
1d,9,100229,1,13,13,19,F,NA,constant,homogeneous,3,present,1.12167501449585,0,horizontal,vertical,1,0.69411434098786,green,1,3,1006.29933356561,749.885239334581,567.045908301137,703.717843984329,1006.29933356561,749.885239334581,826.654758133252,346.39691668109,567.045908301137,703.717843984329,NaN,NaN,NaN,NaN,NaN,NaN,4,0,0,NaN,NaN,NaN,horizontal,vertical,vertical,none,none,none
1d,9,100229,1,14,14,19,F,NA,constant,homogeneous,4,present,0.948108911514282,1,vertical,vertical,1,0.78822868197572,green,3,2,857.362518857686,351.535633479765,1048.46436652023,657.362518857686,742.637481142314,848.464366520235,1048.46436652023,657.362518857686,857.362518857686,351.535633479765,551.535633479765,542.637481142314,NaN,NaN,NaN,NaN,0,0,4,0,NaN,NaN,vertical,vertical,vertical,vertical,none,none
1d,9,100229,1,15,15,19,F,NA,constant,homogeneous,3,absent,1.13863801956177,1,horizontal,horizontal,1,0.776464389352237,green,1,NaN,870.287525733335,845.121732464271,NaN,NaN,870.287525733335,845.121732464271,977.137884467044,416.568350913644,552.574589799621,538.309916622085,NaN,NaN,NaN,NaN,NaN,NaN,4,0,0,NaN,NaN,NaN,horizontal,vertical,vertical,none,none,none
1d,9,100229,1,16,16,19,F,NA,constant,homogeneous,3,present,0.71386194229126,1,vertical,vertical,1,0.611764292623483,green,3,2,604.658667004661,436.089159529932,1039.62161830041,512.784863451954,755.719714694933,851.125977018113,1039.62161830041,512.784863451954,604.658667004661,436.089159529932,NaN,NaN,NaN,NaN,NaN,NaN,0,0,4,NaN,NaN,NaN,horizontal,vertical,vertical,none,none,none
1d,9,100229,1,17,17,19,F,NA,constant,homogeneous,6,absent,0.774628877639771,0,vertical,horizontal,1,0.917635900834027,green,6,NaN,616.568350913644,777.137884467044,NaN,NaN,861.690083377915,847.425410200379,1045.12173246427,670.287525733335,983.431649086356,422.862115532956,738.309916622085,352.574589799621,554.878267535729,529.712474266665,616.568350913644,777.137884467044,0,0,0,0,0,4,horizontal,vertical,horizontal,horizontal,vertical,vertical
1d,9,100229,1,18,18,19,F,NA,constant,homogeneous,4,absent,0.92326807975769,1,horizontal,horizontal,1,0.658821463117413,green,3,NaN,935.129412379467,383.747735480111,NaN,NaN,664.870587620533,816.252264519889,1016.25226451989,735.129412379467,935.129412379467,383.747735480111,583.747735480111,464.870587620533,NaN,NaN,NaN,NaN,0,0,4,0,NaN,NaN,horizontal,horizontal,horizontal,vertical,none,none
1d,9,100229,1,19,19,19,F,NA,constant,homogeneous,4,present,0.738821029663086,1,horizontal,horizontal,1,0.64705717049393,green,1,3,619.68777079743,780.31222920257,980.31222920257,419.68777079743,619.68777079743,780.31222920257,980.31222920257,780.31222920257,980.31222920257,419.68777079743,619.68777079743,419.68777079743,NaN,NaN,NaN,NaN,4,0,0,0,NaN,NaN,horizontal,vertical,horizontal,vertical,none,none
1d,9,100229,1,20,20,19,F,NA,constant,homogeneous,3,absent,0.762906074523926,1,vertical,vertical,1,0.658821463117413,green,2,NaN,874.554784704298,356.142287229426,NaN,NaN,973.909581815937,786.495193912888,874.554784704298,356.142287229426,551.535633479765,657.362518857686,NaN,NaN,NaN,NaN,NaN,NaN,0,4,0,NaN,NaN,NaN,vertical,vertical,vertical,none,none,none
1d,9,100229,1,21,21,19,F,NA,constant,homogeneous,3,absent,1.12254214286804,1,horizontal,horizontal,1,0.811757267222685,green,3,NaN,672.5,379.163522034968,NaN,NaN,672.5,820.836477965032,1055,600,672.5,379.163522034968,NaN,NaN,NaN,NaN,NaN,NaN,0,0,4,NaN,NaN,NaN,horizontal,vertical,horizontal,none,none,none
1d,9,100229,1,22,22,19,F,NA,constant,homogeneous,4,absent,0.569567918777466,1,vertical,vertical,1,1.02351453444537,green,3,NaN,764.510859255183,347.4816424709,NaN,NaN,835.489140744817,852.518357529101,1052.5183575291,564.510859255183,764.510859255183,347.4816424709,547.481642470899,635.489140744817,NaN,NaN,NaN,NaN,0,0,4,0,NaN,NaN,horizontal,vertical,vertical,vertical,none,none
1d,9,100229,1,23,23,19,F,NA,constant,homogeneous,5,absent,0.915814876556396,1,horizontal,horizontal,1,0.917635900834027,green,3,NaN,915.767577433584,372.793336331966,NaN,NaN,839.890788585259,851.86052685176,1051.86052685176,639.890788585259,915.767577433584,372.793336331966,619.68777079743,419.68777079743,572.793336331966,715.767577433584,NaN,NaN,0,0,4,0,0,NaN,horizontal,vertical,horizontal,vertical,vertical,none
1d,9,100229,1,24,24,19,F,NA,constant,homogeneous,5,absent,0.67875599861145,1,vertical,vertical,1,1.04704311969233,green,5,NaN,613.504806087112,773.909581815937,NaN,NaN,907.767656743878,831.108485694346,1053.09926866854,568.923317431687,848.656293821019,349.685068220846,576.971974679454,476.373546837184,613.504806087112,773.909581815937,NaN,NaN,0,0,0,0,4,NaN,vertical,vertical,horizontal,horizontal,vertical,none
1d,9,100229,1,25,25,19,F,NA,constant,homogeneous,5,present,0.53770899772644,1,horizontal,horizontal,1,1.05880741231582,green,5,3,591.116228706307,746.261991269517,883.019879386575,358.892763222174,874.554784704298,843.857712770574,1054.96116226488,604.450363641507,883.019879386575,358.892763222174,596.34794493794,446.537169096228,591.116228706307,746.261991269517,NaN,NaN,0,0,0,0,4,NaN,vertical,vertical,vertical,vertical,horizontal,none
1d,9,100229,1,26,26,19,F,NA,constant,homogeneous,4,present,0.540552854537964,1,vertical,vertical,1,0.799992974599202,green,1,3,738.309916622085,847.425410200379,861.690083377915,352.574589799621,738.309916622085,847.425410200379,1047.42541020038,661.690083377915,861.690083377915,352.574589799621,552.574589799621,538.309916622085,NaN,NaN,NaN,NaN,4,0,0,0,NaN,NaN,vertical,horizontal,vertical,vertical,none,none
1d,9,100229,1,27,27,19,F,NA,constant,homogeneous,5,absent,0.795204877853394,0,vertical,horizontal,1,0.776464389352237,green,4,NaN,607.549057043193,432.704947607421,NaN,NaN,857.362518857686,848.464366520235,1054.0296480134,622.224714400653,899.636437764765,365.271262369628,607.549057043193,432.704947607421,581.422338320961,731.334709102064,NaN,NaN,0,0,0,4,0,NaN,vertical,vertical,horizontal,vertical,vertical,none
1d,9,100229,1,28,28,19,F,NA,constant,homogeneous,5,present,0.663357973098755,1,horizontal,horizontal,1,1.01175024182189,green,5,3,574.848363820974,719.715248510402,911.784642431215,370.807518193712,844.280285305067,851.125977018113,1052.5183575291,635.489140744817,911.784642431215,370.807518193712,616.568350913644,422.862115532956,574.848363820974,719.715248510402,NaN,NaN,0,0,0,0,4,NaN,vertical,vertical,horizontal,vertical,horizontal,none
1d,9,100229,1,29,29,19,F,NA,constant,homogeneous,6,present,0.893610000610352,0,horizontal,vertical,1,0.635292877870448,green,1,5,927.5,820.836477965032,545,600,927.5,820.836477965032,1055,600,927.5,379.163522034968,672.5,379.163522034968,545,600,672.5,820.836477965032,4,0,0,0,0,0,horizontal,horizontal,horizontal,horizontal,vertical,vertical
1d,9,100229,1,30,30,19,F,NA,constant,homogeneous,6,present,0.787751913070679,1,vertical,vertical,1,0.799992974599202,green,1,2,676.373546837184,823.028025320546,931.334709102064,818.577661679039,676.373546837184,823.028025320546,931.334709102064,818.577661679039,1054.96116226488,595.549636358493,923.626453162816,376.971974679454,668.665290897936,381.422338320961,545.03883773512,604.450363641507,4,0,0,0,0,0,vertical,vertical,vertical,horizontal,horizontal,vertical
1d,9,100229,1,31,31,19,F,NA,constant,homogeneous,6,present,0.674251079559326,1,horizontal,horizontal,1,0.705878633611343,green,6,4,567.045908301137,703.717843984329,826.654758133252,346.39691668109,773.345241866748,853.60308331891,1006.29933356561,749.885239334581,1032.95409169886,496.282156015671,826.654758133252,346.39691668109,593.700666434388,450.114760665419,567.045908301137,703.717843984329,0,0,0,0,0,4,horizontal,vertical,horizontal,horizontal,horizontal,horizontal
1d,9,100229,1,32,32,19,F,NA,constant,homogeneous,4,present,0.732376098632812,1,horizontal,horizontal,1,0.635292877870448,green,2,3,1054.96116226488,595.549636358493,795.549636358493,345.03883773512,804.450363641507,854.96116226488,1054.96116226488,595.549636358493,795.549636358493,345.03883773512,545.03883773512,604.450363641507,NaN,NaN,NaN,NaN,0,4,0,0,NaN,NaN,horizontal,horizontal,vertical,vertical,none,none
1d,9,100229,1,33,33,19,F,NA,constant,homogeneous,4,absent,0.679669857025146,1,vertical,vertical,1,0.623528585246965,green,4,NaN,563.568117085469,504.475318678942,NaN,NaN,704.475318678942,836.431882914531,1036.43188291453,695.524681321058,895.524681321058,363.568117085469,563.568117085469,504.475318678942,NaN,NaN,NaN,NaN,0,0,0,4,NaN,NaN,vertical,vertical,vertical,vertical,none,none
1d,9,100229,1,34,34,19,F,NA,constant,homogeneous,3,present,0.842464923858643,1,horizontal,horizontal,1,0.658821463117413,green,1,2,983.431649086356,777.137884467044,861.690083377915,352.574589799621,983.431649086356,777.137884467044,861.690083377915,352.574589799621,554.878267535729,670.287525733335,NaN,NaN,NaN,NaN,NaN,NaN,4,0,0,NaN,NaN,NaN,horizontal,horizontal,vertical,none,none,none
1d,9,100229,1,35,35,19,F,NA,constant,homogeneous,3,absent,0.716022968292236,0,horizontal,vertical,1,0.623528585246965,green,3,NaN,549.685068220846,551.343706178981,NaN,NaN,883.019879386575,841.107236777826,967.295052392579,407.549057043193,549.685068220846,551.343706178981,NaN,NaN,NaN,NaN,NaN,NaN,0,0,4,NaN,NaN,NaN,horizontal,vertical,horizontal,none,none,none
1d,9,100229,1,36,36,19,F,NA,constant,homogeneous,3,present,0.65330696105957,1,horizontal,horizontal,1,0.752935804105272,green,3,2,574.848363820974,480.284751489598,1016.25226451989,464.870587620533,808.899371659138,854.844660889869,1016.25226451989,464.870587620533,574.848363820974,480.284751489598,NaN,NaN,NaN,NaN,NaN,NaN,0,0,4,NaN,NaN,NaN,horizontal,vertical,horizontal,none,none,none
1d,9,100229,1,37,37,19,F,NA,constant,homogeneous,4,present,0.633697986602783,1,vertical,vertical,1,0.752935804105272,green,1,3,817.787900804752,854.378832816255,782.212099195248,345.621167183745,817.787900804752,854.378832816255,1054.37883281626,582.212099195248,782.212099195248,345.621167183745,545.621167183745,617.787900804752,NaN,NaN,NaN,NaN,4,0,0,0,NaN,NaN,vertical,horizontal,vertical,vertical,none,none
1d,9,100229,1,38,38,19,F,NA,constant,homogeneous,5,present,0.517982959747314,1,vertical,vertical,1,0.776464389352237,green,5,3,547.481642470899,564.510859255183,1025.15163617903,480.284751489598,688.215357568785,829.192481806288,983.431649086356,777.137884467044,1025.15163617903,480.284751489598,755.719714694933,348.874022981887,547.481642470899,564.510859255183,NaN,NaN,0,0,0,0,4,NaN,horizontal,vertical,vertical,horizontal,vertical,none
1d,9,100229,1,39,39,19,F,NA,constant,homogeneous,5,absent,0.635547161102295,1,horizontal,horizontal,1,0.952928778704475,green,5,NaN,561.936991243214,691.383827134052,NaN,NaN,813.345668841951,854.650531362416,1046.31108570371,665.998856501143,938.882953928832,386.139005173917,639.523300282292,401.827779828472,561.936991243214,691.383827134052,NaN,NaN,0,0,0,0,4,NaN,horizontal,horizontal,vertical,vertical,horizontal,none
1d,9,100229,1,40,40,19,F,NA,constant,homogeneous,6,absent,0.674279928207397,1,vertical,vertical,1,0.88234302296358,green,1,NaN,692.232343256122,831.108485694346,NaN,NaN,692.232343256122,831.108485694346,946.261991269517,808.883771293693,1054.0296480134,577.775285599347,907.767656743878,368.891514305654,653.738008730483,391.116228706307,545.970351986605,622.224714400653,4,0,0,0,0,0,vertical,horizontal,vertical,horizontal,vertical,vertical
1d,9,100229,1,41,41,19,F,NA,constant,homogeneous,5,absent,1.30865097045898,1,horizontal,horizontal,1,0.635292877870448,green,1,NaN,835.489140744817,852.518357529101,NaN,NaN,835.489140744817,852.518357529101,1051.12597701811,644.280285305067,919.715248510402,374.848363820974,622.862115532956,416.568350913644,570.807518193712,711.784642431215,NaN,NaN,4,0,0,0,0,NaN,horizontal,horizontal,vertical,vertical,vertical,none
1d,9,100229,1,42,42,19,F,NA,constant,homogeneous,4,absent,0.690805912017822,1,vertical,vertical,1,0.78822868197572,green,4,NaN,607.549057043193,432.704947607421,NaN,NaN,632.704947607421,792.450942956807,992.450942956807,767.295052392579,967.295052392579,407.549057043193,607.549057043193,432.704947607421,NaN,NaN,NaN,NaN,0,0,0,4,NaN,NaN,horizontal,horizontal,horizontal,vertical,none,none
1d,9,100229,1,43,43,19,F,NA,constant,homogeneous,4,present,0.61951208114624,0,vertical,horizontal,1,0.92940019345751,green,4,2,579.163522034968,727.5,1020.83647796503,472.5,927.5,820.836477965032,1020.83647796503,472.5,672.5,379.163522034968,579.163522034968,727.5,NaN,NaN,NaN,NaN,0,0,0,4,NaN,NaN,vertical,vertical,vertical,vertical,none,none
1d,9,100229,1,44,44,19,F,NA,constant,homogeneous,6,present,0.604195833206177,1,vertical,vertical,1,0.623528585246965,green,6,2,613.504806087112,773.909581815937,1043.85771277057,674.554784704298,857.362518857686,848.464366520235,1043.85771277057,674.554784704298,986.495193912888,426.090418184063,742.637481142314,351.535633479765,556.142287229426,525.445215295702,613.504806087112,773.909581815937,0,0,0,0,0,4,horizontal,horizontal,horizontal,horizontal,horizontal,vertical
1d,9,100229,1,45,45,19,F,NA,constant,homogeneous,6,present,1.01412415504456,1,horizontal,horizontal,1,0.88234302296358,green,3,6,1046.31108570371,534.001143498857,553.688914296288,665.998856501143,734.001143498857,846.311085703712,980.31222920257,780.31222920257,1046.31108570371,534.001143498857,865.998856501143,353.688914296288,619.68777079743,419.68777079743,553.688914296288,665.998856501143,0,0,4,0,0,0,vertical,vertical,horizontal,horizontal,vertical,horizontal
1d,9,100229,1,46,46,19,F,NA,constant,homogeneous,3,absent,1.12435388565063,1,vertical,vertical,1,0.88234302296358,green,1,NaN,729.712474266665,845.121732464271,NaN,NaN,729.712474266665,845.121732464271,1047.42541020038,538.309916622085,622.862115532956,416.568350913644,NaN,NaN,NaN,NaN,NaN,NaN,4,0,0,NaN,NaN,NaN,vertical,vertical,horizontal,none,none,none
1d,9,100229,1,47,47,19,F,NA,constant,homogeneous,6,present,1.07221412658691,0,vertical,horizontal,1,0.858814437716615,green,3,1,1031.10848569435,492.232343256122,777.775285599347,854.029648013395,777.775285599347,854.029648013395,1008.88377129369,746.261991269517,1031.10848569435,492.232343256122,822.224714400653,345.970351986605,591.116228706307,453.738008730483,568.891514305654,707.767656743878,0,0,4,0,0,0,vertical,vertical,vertical,vertical,vertical,vertical
1d,9,100229,1,48,48,19,F,NA,constant,homogeneous,6,present,1.25998282432556,1,vertical,vertical,1,0.905871608210545,green,1,4,725.445215295702,843.857712770574,874.554784704298,356.142287229426,725.445215295702,843.857712770574,973.909581815937,786.495193912888,1048.46436652023,542.637481142314,874.554784704298,356.142287229426,626.090418184063,413.504806087112,551.535633479765,657.362518857686,4,0,0,0,0,0,vertical,horizontal,horizontal,vertical,vertical,vertical
1d,9,100229,1,49,49,19,F,NA,constant,homogeneous,3,present,0.741919040679932,1,horizontal,horizontal,1,1.02351453444537,green,3,2,636.089159529932,404.658667004661,1051.12597701811,555.719714694933,712.784863451954,839.621618300407,1051.12597701811,555.719714694933,636.089159529932,404.658667004661,NaN,NaN,NaN,NaN,NaN,NaN,0,0,4,NaN,NaN,NaN,horizontal,horizontal,horizontal,none,none,none
1d,9,100229,1,50,50,19,F,NA,constant,homogeneous,5,absent,0.635624885559082,1,vertical,vertical,1,0.729407218858308,green,3,NaN,938.882953928832,386.139005173917,NaN,NaN,813.345668841951,854.650531362416,1046.31108570371,665.998856501143,938.882953928832,386.139005173917,639.523300282292,401.827779828472,561.936991243214,691.383827134052,NaN,NaN,0,0,4,0,0,NaN,vertical,horizontal,vertical,horizontal,horizontal,none
1d,9,100229,1,51,51,19,F,NA,constant,homogeneous,3,present,0.845515012741089,1,vertical,vertical,1,1.04704311969233,green,3,1,773.345241866748,346.39691668109,593.700666434388,749.885239334581,593.700666434388,749.885239334581,1032.95409169886,703.717843984329,773.345241866748,346.39691668109,NaN,NaN,NaN,NaN,NaN,NaN,0,0,4,NaN,NaN,NaN,horizontal,vertical,vertical,none,none,none
1d,9,100229,1,52,52,19,F,NA,constant,homogeneous,4,absent,0.669981002807617,1,horizontal,horizontal,1,0.97645736395144,green,4,NaN,545.155339110131,608.899371659138,NaN,NaN,808.899371659138,854.844660889869,1054.84466088987,591.100628340862,791.100628340862,345.155339110131,545.155339110131,608.899371659138,NaN,NaN,NaN,NaN,0,0,0,4,NaN,NaN,horizontal,vertical,horizontal,horizontal,none,none
1d,9,100229,1,53,53,19,F,NA,constant,homogeneous,4,absent,0.703994989395142,1,vertical,vertical,1,0.611764292623483,green,3,NaN,653.738008730483,391.116228706307,NaN,NaN,946.261991269517,808.883771293693,1008.88377129369,453.738008730483,653.738008730483,391.116228706307,591.116228706307,746.261991269517,NaN,NaN,NaN,NaN,0,0,4,0,NaN,NaN,horizontal,vertical,vertical,vertical,none,none
1d,9,100229,1,54,54,19,F,NA,constant,homogeneous,3,absent,NaN,0,horizontal,none,0,1.05880741231582,green,2,NaN,995.341332995339,436.089159529932,NaN,NaN,844.280285305067,851.125977018113,995.341332995339,436.089159529932,560.378381699593,512.784863451954,NaN,NaN,NaN,NaN,NaN,NaN,0,4,0,NaN,NaN,NaN,vertical,horizontal,horizontal,none,none,none
1d,9,100229,1,55,55,19,F,NA,constant,homogeneous,6,absent,0.814007997512817,1,horizontal,horizontal,1,0.705878633611343,green,4,NaN,791.100628340862,345.155339110131,NaN,NaN,808.899371659138,854.844660889869,1025.15163617903,719.715248510402,1016.25226451989,464.870587620533,791.100628340862,345.155339110131,574.848363820974,480.284751489598,583.747735480111,735.129412379467,0,0,0,4,0,0,horizontal,vertical,horizontal,horizontal,vertical,vertical
1d,9,100229,1,56,56,19,F,NA,constant,homogeneous,4,present,0.687558889389038,1,horizontal,horizontal,1,0.870578730340097,green,2,3,1054.96116226488,595.549636358493,795.549636358493,345.03883773512,804.450363641507,854.96116226488,1054.96116226488,595.549636358493,795.549636358493,345.03883773512,545.03883773512,604.450363641507,NaN,NaN,NaN,NaN,0,4,0,0,NaN,NaN,horizontal,horizontal,vertical,horizontal,none,none
1d,9,100229,1,57,57,19,F,NA,constant,homogeneous,5,present,0.746158123016357,1,horizontal,horizontal,1,1.02351453444537,green,1,3,907.767656743878,831.108485694346,848.656293821019,349.685068220846,907.767656743878,831.108485694346,1053.09926866854,568.923317431687,848.656293821019,349.685068220846,576.971974679454,476.373546837184,613.504806087112,773.909581815937,NaN,NaN,4,0,0,0,0,NaN,horizontal,horizontal,horizontal,vertical,horizontal,none
1d,9,100229,1,58,58,19,F,NA,constant,homogeneous,3,present,0.660002946853638,1,vertical,vertical,1,0.74117151148179,green,3,1,547.481642470899,635.489140744817,956.993676208043,800.942742169714,956.993676208043,800.942742169714,895.524681321058,363.568117085469,547.481642470899,635.489140744817,NaN,NaN,NaN,NaN,NaN,NaN,0,0,4,NaN,NaN,NaN,vertical,horizontal,vertical,none,none,none
1d,9,100229,1,59,59,19,F,NA,constant,homogeneous,5,absent,0.72730016708374,1,horizontal,horizontal,1,0.894107315587062,green,1,NaN,653.738008730483,808.883771293693,NaN,NaN,653.738008730483,808.883771293693,953.462830903772,803.65205506206,1041.10723677783,516.980120613425,795.549636358493,345.03883773512,556.142287229426,525.445215295702,NaN,NaN,4,0,0,0,0,NaN,horizontal,vertical,vertical,horizontal,horizontal,none
1d,9,100229,1,60,60,19,F,NA,constant,homogeneous,5,present,0.965804815292358,1,vertical,vertical,1,0.776464389352237,green,1,4,817.787900804752,854.378832816255,636.089159529932,404.658667004661,817.787900804752,854.378832816255,1047.42541020038,661.690083377915,935.129412379467,383.747735480111,636.089159529932,404.658667004661,563.568117085469,695.524681321058,NaN,NaN,4,0,0,0,0,NaN,vertical,horizontal,horizontal,vertical,vertical,none
1d,9,100229,1,61,61,19,F,NA,constant,homogeneous,4,present,0.661819934844971,1,horizontal,horizontal,1,0.623528585246965,green,2,1,1039.62161830041,687.215136548046,712.784863451954,839.621618300407,712.784863451954,839.621618300407,1039.62161830041,687.215136548046,887.215136548046,360.378381699593,560.378381699593,512.784863451954,NaN,NaN,NaN,NaN,0,4,0,0,NaN,NaN,horizontal,horizontal,horizontal,horizontal,none,none
1d,9,100229,1,62,62,19,F,NA,constant,homogeneous,5,absent,1.50467085838318,1,vertical,vertical,1,1.09410029018626,green,3,NaN,992.450942956807,432.704947607421,NaN,NaN,742.637481142314,848.464366520235,1018.57766167904,731.334709102064,992.450942956807,432.704947607421,700.363562235235,365.271262369628,545.970351986605,622.224714400653,NaN,NaN,0,0,4,0,0,NaN,horizontal,horizontal,vertical,horizontal,vertical,none
1d,9,100229,1,63,63,19,F,NA,constant,homogeneous,6,absent,0.55671501159668,1,vertical,vertical,1,0.870578730340097,green,4,NaN,808.899371659138,345.155339110131,NaN,NaN,791.100628340862,854.844660889869,1016.25226451989,735.129412379467,1025.15163617903,480.284751489598,808.899371659138,345.155339110131,583.747735480111,464.870587620533,574.848363820974,719.715248510402,0,0,0,4,0,0,vertical,horizontal,horizontal,vertical,horizontal,horizontal
1d,9,100229,1,64,64,19,F,NA,constant,homogeneous,3,present,0.596245050430298,1,vertical,vertical,1,0.611764292623483,green,1,2,887.215136548046,839.621618300407,963.910840470068,404.658667004661,887.215136548046,839.621618300407,963.910840470068,404.658667004661,548.874022981887,555.719714694933,NaN,NaN,NaN,NaN,NaN,NaN,4,0,0,NaN,NaN,NaN,vertical,horizontal,horizontal,none,none,none
1d,9,100229,2,1,65,19,F,NA,constant,homogeneous,6,present,1.32787704467773,1,vertical,vertical,1,0.811757267222685,green,5,4,650.114760665419,393.700666434388,903.717843984329,367.045908301137,696.282156015671,832.954091698863,949.885239334581,806.299333565612,1053.60308331891,573.345241866748,903.717843984329,367.045908301137,650.114760665419,393.700666434388,546.39691668109,626.654758133252,0,0,0,0,4,0,horizontal,horizontal,horizontal,horizontal,vertical,horizontal
1d,9,100229,2,2,66,19,F,NA,constant,homogeneous,3,present,1.17118215560913,1,horizontal,horizontal,1,0.623528585246965,green,2,3,895.524681321058,363.568117085469,547.481642470899,635.489140744817,956.993676208043,800.942742169714,895.524681321058,363.568117085469,547.481642470899,635.489140744817,NaN,NaN,NaN,NaN,NaN,NaN,0,4,0,NaN,NaN,NaN,horizontal,horizontal,horizontal,none,none,none
1d,9,100229,2,3,67,19,F,NA,constant,homogeneous,4,absent,0.60283899307251,1,horizontal,horizontal,1,0.799992974599202,green,1,NaN,919.715248510402,825.151636179026,NaN,NaN,919.715248510402,825.151636179026,1025.15163617903,480.284751489598,680.284751489598,374.848363820974,574.848363820974,719.715248510402,NaN,NaN,NaN,NaN,4,0,0,0,NaN,NaN,horizontal,vertical,vertical,horizontal,none,none
1d,9,100229,2,4,68,19,F,NA,constant,homogeneous,4,present,0.695533990859985,1,vertical,vertical,1,1.02351453444537,green,2,3,998.172220171528,439.523300282291,639.523300282292,401.827779828472,960.476699717708,798.172220171528,998.172220171528,439.523300282291,639.523300282292,401.827779828472,601.827779828472,760.476699717708,NaN,NaN,NaN,NaN,0,4,0,0,NaN,NaN,horizontal,vertical,vertical,vertical,none,none
1d,9,100229,2,5,69,19,F,NA,constant,homogeneous,6,present,0.645625114440918,1,vertical,vertical,1,0.799992974599202,green,1,6,764.510859255183,852.518357529101,563.568117085469,695.524681321058,764.510859255183,852.518357529101,1000.94274216971,756.993676208043,1036.43188291453,504.475318678942,835.489140744817,347.4816424709,599.057257830286,443.006323791957,563.568117085469,695.524681321058,4,0,0,0,0,0,vertical,horizontal,horizontal,vertical,vertical,horizontal
1d,9,100229,2,6,70,19,F,NA,constant,homogeneous,4,present,0.66500997543335,1,horizontal,horizontal,1,0.905871608210545,green,3,1,835.489140744817,347.4816424709,764.510859255183,852.518357529101,764.510859255183,852.518357529101,1052.5183575291,635.489140744817,835.489140744817,347.4816424709,547.481642470899,564.510859255183,NaN,NaN,NaN,NaN,0,0,4,0,NaN,NaN,vertical,vertical,horizontal,vertical,none,none
1d,9,100229,2,7,71,19,F,NA,constant,homogeneous,3,absent,1.31910586357117,1,horizontal,horizontal,1,0.83528585246965,green,3,NaN,725.445215295702,356.142287229426,NaN,NaN,626.090418184063,786.495193912888,1048.46436652023,657.362518857686,725.445215295702,356.142287229426,NaN,NaN,NaN,NaN,NaN,NaN,0,0,4,NaN,NaN,NaN,vertical,vertical,horizontal,none,none,none
1d,9,100229,2,8,72,19,F,NA,constant,homogeneous,5,absent,0.620621919631958,1,vertical,vertical,1,0.952928778704475,green,1,NaN,764.510859255183,852.518357529101,NaN,NaN,764.510859255183,852.518357529101,1029.19248180629,711.784642431215,977.137884467044,416.568350913644,680.284751489598,374.848363820974,548.874022981887,644.280285305067,NaN,NaN,4,0,0,0,0,NaN,vertical,horizontal,vertical,horizontal,vertical,none
1d,9,100229,2,9,73,19,F,NA,constant,homogeneous,4,absent,0.626938819885254,1,vertical,vertical,1,1.08233599756278,green,1,NaN,636.089159529932,795.341332995339,NaN,NaN,636.089159529932,795.341332995339,995.341332995339,763.910840470068,963.910840470068,404.658667004661,604.658667004661,436.089159529932,NaN,NaN,NaN,NaN,4,0,0,0,NaN,NaN,vertical,horizontal,vertical,horizontal,none,none
1d,9,100229,2,10,74,19,F,NA,constant,homogeneous,5,absent,0.553095102310181,1,vertical,vertical,1,1.0705717049393,green,1,NaN,919.715248510402,825.151636179026,NaN,NaN,919.715248510402,825.151636179026,1051.12597701811,555.719714694933,835.489140744817,347.4816424709,570.807518193712,488.215357568785,622.862115532956,783.431649086356,NaN,NaN,4,0,0,0,0,NaN,vertical,horizontal,vertical,vertical,vertical,none
1d,9,100229,2,11,75,19,F,NA,constant,homogeneous,4,present,0.680015087127686,1,horizontal,horizontal,1,0.988221656574922,green,2,1,1016.25226451989,464.870587620533,935.129412379467,816.252264519889,935.129412379467,816.252264519889,1016.25226451989,464.870587620533,664.870587620533,383.747735480111,583.747735480111,735.129412379467,NaN,NaN,NaN,NaN,0,4,0,0,NaN,NaN,horizontal,horizontal,horizontal,horizontal,none,none
1d,9,100229,2,12,76,19,F,NA,constant,homogeneous,5,present,1.71978807449341,0,vertical,horizontal,1,1.09410029018626,green,2,3,1043.85771277057,674.554784704298,946.261991269517,391.116228706307,804.450363641507,854.96116226488,1043.85771277057,674.554784704298,946.261991269517,391.116228706307,646.537169096228,396.34794493794,558.892763222174,683.019879386575,NaN,NaN,0,4,0,0,0,NaN,vertical,vertical,horizontal,horizontal,horizontal,none
1d,9,100229,2,13,77,19,F,NA,constant,homogeneous,3,present,1.21778106689453,1,horizontal,horizontal,1,0.964693071327957,green,2,3,1041.10723677783,683.019879386575,751.343706178981,349.685068220846,607.549057043193,767.295052392579,1041.10723677783,683.019879386575,751.343706178981,349.685068220846,NaN,NaN,NaN,NaN,NaN,NaN,0,4,0,NaN,NaN,NaN,vertical,horizontal,horizontal,none,none,none
1d,9,100229,2,14,78,19,F,NA,constant,homogeneous,6,absent,0.633413076400757,1,horizontal,horizontal,1,0.752935804105272,green,2,NaN,1025.15163617903,719.715248510402,NaN,NaN,808.899371659138,854.844660889869,1025.15163617903,719.715248510402,1016.25226451989,464.870587620533,791.100628340862,345.155339110131,574.848363820974,480.284751489598,583.747735480111,735.129412379467,0,4,0,0,0,0,horizontal,horizontal,horizontal,horizontal,horizontal,horizontal
1d,9,100229,2,15,79,19,F,NA,constant,homogeneous,4,absent,0.554827928543091,1,horizontal,horizontal,1,0.83528585246965,green,1,NaN,963.910840470068,795.341332995339,NaN,NaN,963.910840470068,795.341332995339,995.341332995339,436.089159529932,636.089159529932,404.658667004661,604.658667004661,763.910840470068,NaN,NaN,NaN,NaN,4,0,0,0,NaN,NaN,horizontal,vertical,vertical,horizontal,none,none
1d,9,100229,2,16,80,19,F,NA,constant,homogeneous,3,absent,0.591056108474731,1,vertical,vertical,1,0.64705717049393,green,1,NaN,822.224714400653,854.029648013395,NaN,NaN,822.224714400653,854.029648013395,1008.88377129369,453.738008730483,568.891514305654,492.232343256122,NaN,NaN,NaN,NaN,NaN,NaN,4,0,0,NaN,NaN,NaN,vertical,horizontal,horizontal,none,none,none
1d,9,100229,2,17,81,19,F,NA,constant,homogeneous,4,absent,0.679436922073364,0,vertical,horizontal,1,0.799992974599202,green,3,NaN,970.628304621509,410.498069503264,NaN,NaN,629.371695378491,789.501930496736,989.501930496736,770.628304621509,970.628304621509,410.498069503264,610.498069503264,429.371695378491,NaN,NaN,NaN,NaN,0,0,4,0,NaN,NaN,horizontal,vertical,vertical,vertical,none,none
1d,9,100229,2,18,82,19,F,NA,constant,homogeneous,3,absent,0.973719120025635,1,horizontal,horizontal,1,0.847050145093132,green,1,NaN,883.019879386575,841.107236777826,NaN,NaN,883.019879386575,841.107236777826,967.295052392579,407.549057043193,549.685068220846,551.343706178981,NaN,NaN,NaN,NaN,NaN,NaN,4,0,0,NaN,NaN,NaN,horizontal,vertical,vertical,none,none,none
1d,9,100229,2,19,83,19,F,NA,constant,homogeneous,4,present,1.79595708847046,1,vertical,vertical,1,0.729407218858308,green,2,1,1038.06300875679,508.616172865948,891.383827134052,838.063008756786,891.383827134052,838.063008756786,1038.06300875679,508.616172865948,708.616172865948,361.936991243214,561.936991243214,691.383827134052,NaN,NaN,NaN,NaN,0,4,0,0,NaN,NaN,horizontal,vertical,vertical,horizontal,none,none
1d,9,100229,2,20,84,19,F,NA,constant,homogeneous,4,absent,1.38331508636475,1,horizontal,horizontal,1,0.964693071327957,green,3,NaN,907.767656743878,368.891514305654,NaN,NaN,692.232343256122,831.108485694346,1031.10848569435,707.767656743878,907.767656743878,368.891514305654,568.891514305654,492.232343256122,NaN,NaN,NaN,NaN,0,0,4,0,NaN,NaN,vertical,vertical,horizontal,vertical,none,none
1d,9,100229,2,21,85,19,F,NA,constant,homogeneous,5,present,0.759824991226196,1,vertical,vertical,1,0.83528585246965,green,4,3,700.363562235235,365.271262369628,992.450942956807,432.704947607421,742.637481142314,848.464366520235,1018.57766167904,731.334709102064,992.450942956807,432.704947607421,700.363562235235,365.271262369628,545.970351986605,622.224714400653,NaN,NaN,0,0,0,4,0,NaN,vertical,horizontal,horizontal,vertical,horizontal,none
1d,9,100229,2,22,86,19,F,NA,constant,homogeneous,4,present,0.497910022735596,1,vertical,vertical,1,0.729407218858308,green,3,2,953.462830903772,396.34794493794,1003.65205506206,753.462830903772,646.537169096228,803.65205506206,1003.65205506206,753.462830903772,953.462830903772,396.34794493794,596.34794493794,446.537169096228,NaN,NaN,NaN,NaN,0,0,4,0,NaN,NaN,vertical,vertical,vertical,horizontal,none,none
1d,9,100229,2,23,87,19,F,NA,constant,homogeneous,5,present,0.580120086669922,1,vertical,vertical,1,0.611764292623483,green,3,5,1036.43188291453,504.475318678942,552.574589799621,538.309916622085,664.870587620533,816.252264519889,963.910840470068,795.341332995339,1036.43188291453,504.475318678942,782.212099195248,345.621167183745,552.574589799621,538.309916622085,NaN,NaN,0,0,4,0,0,NaN,horizontal,horizontal,vertical,vertical,horizontal,none
1d,9,100229,2,24,88,19,F,NA,constant,homogeneous,4,present,0.76084303855896,1,vertical,vertical,1,0.847050145093132,green,2,3,1046.31108570371,665.998856501143,865.998856501143,353.688914296288,734.001143498857,846.311085703712,1046.31108570371,665.998856501143,865.998856501143,353.688914296288,553.688914296288,534.001143498857,NaN,NaN,NaN,NaN,0,4,0,0,NaN,NaN,vertical,vertical,vertical,vertical,none,none
1d,9,100229,2,25,89,19,F,NA,constant,homogeneous,3,present,0.718568086624146,1,horizontal,horizontal,1,0.717642926234825,green,2,1,844.280285305067,348.874022981887,995.341332995339,763.910840470068,995.341332995339,763.910840470068,844.280285305067,348.874022981887,560.378381699593,687.215136548046,NaN,NaN,NaN,NaN,NaN,NaN,0,4,0,NaN,NaN,NaN,vertical,horizontal,vertical,none,none,none
1d,9,100229,2,26,90,19,F,NA,constant,homogeneous,6,present,0.713315010070801,1,vertical,vertical,1,0.811757267222685,green,6,4,552.574589799621,661.690083377915,870.287525733335,354.878267535729,729.712474266665,845.121732464271,977.137884467044,783.431649086356,1047.42541020038,538.309916622085,870.287525733335,354.878267535729,622.862115532956,416.568350913644,552.574589799621,661.690083377915,0,0,0,0,0,4,horizontal,vertical,vertical,vertical,horizontal,vertical
1d,9,100229,2,27,91,19,F,NA,constant,homogeneous,3,absent,0.557261943817139,1,vertical,vertical,1,1.0705717049393,green,3,NaN,751.343706178981,349.685068220846,NaN,NaN,607.549057043193,767.295052392579,1041.10723677783,683.019879386575,751.343706178981,349.685068220846,NaN,NaN,NaN,NaN,NaN,NaN,0,0,4,NaN,NaN,NaN,vertical,horizontal,vertical,none,none,none
1d,9,100229,2,28,92,19,F,NA,constant,homogeneous,3,present,0.551726102828979,1,vertical,vertical,1,0.752935804105272,green,2,1,1039.62161830041,512.784863451954,755.719714694933,851.125977018113,755.719714694933,851.125977018113,1039.62161830041,512.784863451954,604.658667004661,436.089159529932,NaN,NaN,NaN,NaN,NaN,NaN,0,4,0,NaN,NaN,NaN,horizontal,vertical,horizontal,none,none,none
1d,9,100229,2,29,93,19,F,NA,constant,homogeneous,6,absent,0.941366195678711,1,horizontal,horizontal,1,0.917635900834027,green,5,NaN,549.685068220846,551.343706178981,NaN,NaN,883.019879386575,841.107236777826,1050.31493177915,648.656293821019,967.295052392579,407.549057043193,716.980120613425,358.892763222174,549.685068220846,551.343706178981,632.704947607421,792.450942956807,0,0,0,0,4,0,horizontal,vertical,vertical,horizontal,horizontal,horizontal
1d,9,100229,2,30,94,19,F,NA,constant,homogeneous,6,present,0.839115142822266,1,horizontal,horizontal,1,0.941164486080992,green,4,2,672.5,379.163522034968,1055,600,927.5,820.836477965032,1055,600,927.5,379.163522034968,672.5,379.163522034968,545,600,672.5,820.836477965032,0,0,0,4,0,0,vertical,vertical,vertical,horizontal,vertical,horizontal
1d,9,100229,2,31,95,19,F,NA,constant,homogeneous,5,absent,0.610196828842163,1,horizontal,horizontal,1,0.69411434098786,green,1,NaN,878.799333565612,842.519411655264,NaN,NaN,878.799333565612,842.519411655264,1055,600,878.799333565612,357.480588344736,593.700666434388,450.114760665419,593.700666434388,749.885239334581,NaN,NaN,4,0,0,0,0,NaN,horizontal,horizontal,vertical,vertical,vertical,none
1d,9,100229,2,32,96,19,F,NA,constant,homogeneous,5,absent,0.693312168121338,1,vertical,vertical,1,0.952928778704475,green,5,NaN,549.685068220846,648.656293821019,NaN,NaN,768.923317431687,853.099268668537,1031.10848569435,707.767656743878,973.909581815937,413.504806087112,676.373546837184,376.971974679454,549.685068220846,648.656293821019,NaN,NaN,0,0,0,0,4,NaN,vertical,vertical,vertical,horizontal,vertical,none
1d,9,100229,2,33,97,19,F,NA,constant,homogeneous,5,present,0.644492864608765,1,horizontal,horizontal,1,0.847050145093132,green,1,2,931.334709102064,818.577661679039,1048.46436652023,542.637481142314,931.334709102064,818.577661679039,1048.46436652023,542.637481142314,822.224714400653,345.970351986605,565.271262369628,500.363562235235,632.704947607421,792.450942956807,NaN,NaN,4,0,0,0,0,NaN,horizontal,horizontal,vertical,vertical,horizontal,none
1d,9,100229,2,34,98,19,F,NA,constant,homogeneous,3,absent,0.72219705581665,0,vertical,horizontal,1,1.03527882706885,green,2,NaN,970.628304621509,410.498069503264,NaN,NaN,878.799333565612,842.519411655264,970.628304621509,410.498069503264,550.57236181288,546.982518841471,NaN,NaN,NaN,NaN,NaN,NaN,0,4,0,NaN,NaN,NaN,vertical,vertical,horizontal,none,none,none
1d,9,100229,2,35,99,19,F,NA,constant,homogeneous,6,absent,0.737797975540161,1,horizontal,horizontal,1,1.04704311969233,green,4,NaN,899.636437764765,365.271262369628,NaN,NaN,700.363562235235,834.728737630372,953.462830903772,803.65205506206,1053.09926866854,568.923317431687,899.636437764765,365.271262369628,646.537169096228,396.34794493794,546.900731331463,631.076682568313,0,0,0,4,0,0,vertical,horizontal,vertical,horizontal,horizontal,horizontal
1d,9,100229,2,36,100,19,F,NA,constant,homogeneous,3,absent,0.833230018615723,1,horizontal,horizontal,1,0.635292877870448,green,3,NaN,548.13947314824,639.890788585259,NaN,NaN,960.476699717708,798.172220171528,891.383827134052,361.936991243214,548.13947314824,639.890788585259,NaN,NaN,NaN,NaN,NaN,NaN,0,0,4,NaN,NaN,NaN,horizontal,vertical,horizontal,none,none,none
1d,9,100229,2,37,101,19,F,NA,constant,homogeneous,5,present,0.692628145217896,1,vertical,vertical,1,0.729407218858308,green,1,2,887.215136548046,839.621618300407,1054.84466088987,591.100628340862,887.215136548046,839.621618300407,1054.84466088987,591.100628340862,870.287525733335,354.878267535729,588.595418998464,457.40580961496,599.057257830286,756.993676208043,NaN,NaN,4,0,0,0,0,NaN,vertical,vertical,horizontal,vertical,horizontal,none
1d,9,100229,2,38,102,19,F,NA,constant,homogeneous,5,absent,1.45914602279663,1,horizontal,horizontal,1,0.623528585246965,green,3,NaN,1039.62161830041,512.784863451954,NaN,NaN,657.405809614959,811.404581001536,956.993676208043,800.942742169714,1039.62161830041,512.784863451954,791.100628340862,345.155339110131,554.878267535729,529.712474266665,NaN,NaN,0,0,4,0,0,NaN,horizontal,horizontal,horizontal,vertical,horizontal,none
1d,9,100229,2,39,103,19,F,NA,constant,homogeneous,6,present,0.725481986999512,1,horizontal,horizontal,1,0.623528585246965,green,6,1,567.045908301137,703.717843984329,773.345241866748,853.60308331891,773.345241866748,853.60308331891,1006.29933356561,749.885239334581,1032.95409169886,496.282156015671,826.654758133252,346.39691668109,593.700666434388,450.114760665419,567.045908301137,703.717843984329,0,0,0,0,0,4,vertical,horizontal,vertical,horizontal,horizontal,horizontal
1d,9,100229,2,40,104,19,F,NA,constant,homogeneous,6,absent,0.687672138214111,1,vertical,vertical,1,0.988221656574922,green,6,NaN,545.349468637584,613.345668841951,NaN,NaN,684.232422566416,827.206663668034,938.882953928832,813.860994826083,1054.65053136242,586.654331158049,915.767577433584,372.793336331966,661.117046071168,386.139005173917,545.349468637584,613.345668841951,0,0,0,0,0,4,vertical,vertical,horizontal,vertical,vertical,vertical
1d,9,100229,2,41,105,19,F,NA,constant,homogeneous,3,absent,0.636383056640625,1,horizontal,horizontal,1,0.941164486080992,green,2,NaN,1051.86052685176,560.109211414741,NaN,NaN,708.616172865948,838.063008756786,1051.86052685176,560.109211414741,639.523300282292,401.827779828472,NaN,NaN,NaN,NaN,NaN,NaN,0,4,0,NaN,NaN,NaN,vertical,horizontal,horizontal,none,none,none
1d,9,100229,2,42,106,19,F,NA,constant,homogeneous,6,absent,0.673039197921753,1,vertical,vertical,1,0.78822868197572,green,6,NaN,626.090418184063,786.495193912888,NaN,NaN,874.554784704298,843.857712770574,1048.46436652023,657.362518857686,973.909581815937,413.504806087112,725.445215295702,356.142287229426,551.535633479765,542.637481142314,626.090418184063,786.495193912888,0,0,0,0,0,4,horizontal,vertical,vertical,vertical,vertical,vertical
1d,9,100229,2,43,107,19,F,NA,constant,homogeneous,3,present,0.580146074295044,1,vertical,vertical,1,0.658821463117413,green,1,3,684.232422566416,827.206663668034,661.117046071168,386.139005173917,684.232422566416,827.206663668034,1054.65053136242,586.654331158049,661.117046071168,386.139005173917,NaN,NaN,NaN,NaN,NaN,NaN,4,0,0,NaN,NaN,NaN,vertical,horizontal,vertical,none,none,none
1d,9,100229,2,44,108,19,F,NA,constant,homogeneous,4,present,0.822339057922363,1,horizontal,horizontal,1,0.92940019345751,green,3,2,773.345241866748,346.39691668109,1053.60308331891,573.345241866748,826.654758133252,853.60308331891,1053.60308331891,573.345241866748,773.345241866748,346.39691668109,546.39691668109,626.654758133252,NaN,NaN,NaN,NaN,0,0,4,0,NaN,NaN,horizontal,vertical,horizontal,horizontal,none,none
1d,9,100229,2,45,109,19,F,NA,constant,homogeneous,6,absent,1.33959794044495,1,vertical,vertical,1,0.823521559846167,green,3,NaN,1031.10848569435,492.232343256122,NaN,NaN,777.775285599347,854.029648013395,1008.88377129369,746.261991269517,1031.10848569435,492.232343256122,822.224714400653,345.970351986605,591.116228706307,453.738008730483,568.891514305654,707.767656743878,0,0,4,0,0,0,vertical,horizontal,vertical,vertical,horizontal,vertical
1d,9,100229,2,46,110,19,F,NA,constant,homogeneous,6,absent,0.958048105239868,1,horizontal,horizontal,1,0.964693071327957,green,3,NaN,967.295052392579,407.549057043193,NaN,NaN,883.019879386575,841.107236777826,1050.31493177915,648.656293821019,967.295052392579,407.549057043193,716.980120613425,358.892763222174,549.685068220846,551.343706178981,632.704947607421,792.450942956807,0,0,4,0,0,0,horizontal,vertical,horizontal,horizontal,horizontal,vertical
1d,9,100229,2,47,111,19,F,NA,constant,homogeneous,3,present,0.670438766479492,0,horizontal,vertical,1,0.858814437716615,green,1,3,700.363562235235,834.728737630372,646.537169096228,396.34794493794,700.363562235235,834.728737630372,1053.09926866854,568.923317431687,646.537169096228,396.34794493794,NaN,NaN,NaN,NaN,NaN,NaN,4,0,0,NaN,NaN,NaN,horizontal,vertical,horizontal,none,none,none
1d,9,100229,2,48,112,19,F,NA,constant,homogeneous,5,absent,0.734694004058838,1,horizontal,horizontal,1,0.917635900834027,green,3,NaN,1039.62161830041,512.784863451954,NaN,NaN,657.405809614959,811.404581001536,956.993676208043,800.942742169714,1039.62161830041,512.784863451954,791.100628340862,345.155339110131,554.878267535729,529.712474266665,NaN,NaN,0,0,4,0,0,NaN,horizontal,horizontal,horizontal,horizontal,vertical,none
1d,9,100229,2,49,113,19,F,NA,constant,homogeneous,5,absent,0.820227146148682,1,vertical,vertical,1,0.74117151148179,green,4,NaN,696.282156015671,367.045908301137,NaN,NaN,746.982518841471,849.42763818712,1020.83647796503,727.5,989.501930496736,429.371695378491,696.282156015671,367.045908301137,546.39691668109,626.654758133252,NaN,NaN,0,0,0,4,0,NaN,vertical,horizontal,vertical,vertical,vertical,none
1d,9,100229,2,50,114,19,F,NA,constant,homogeneous,5,absent,1.08605909347534,1,horizontal,horizontal,1,0.670585755740895,green,1,NaN,907.767656743878,831.108485694346,NaN,NaN,907.767656743878,831.108485694346,1053.09926866854,568.923317431687,848.656293821019,349.685068220846,576.971974679454,476.373546837184,613.504806087112,773.909581815937,NaN,NaN,4,0,0,0,0,NaN,horizontal,vertical,horizontal,horizontal,horizontal,none
1d,9,100229,2,51,115,19,F,NA,constant,homogeneous,5,present,0.740212917327881,1,horizontal,horizontal,1,0.611764292623483,green,5,4,556.142287229426,525.445215295702,795.549636358493,345.03883773512,653.738008730483,808.883771293693,953.462830903772,803.65205506206,1041.10723677783,516.980120613425,795.549636358493,345.03883773512,556.142287229426,525.445215295702,NaN,NaN,0,0,0,0,4,NaN,vertical,vertical,vertical,vertical,horizontal,none
1d,9,100229,2,52,116,19,F,NA,constant,homogeneous,4,absent,0.649755001068115,1,horizontal,horizontal,1,0.729407218858308,green,2,NaN,1052.5183575291,564.510859255183,NaN,NaN,835.489140744817,852.518357529101,1052.5183575291,564.510859255183,764.510859255183,347.4816424709,547.481642470899,635.489140744817,NaN,NaN,NaN,NaN,0,4,0,0,NaN,NaN,vertical,horizontal,horizontal,vertical,none,none
1d,9,100229,2,53,117,19,F,NA,constant,homogeneous,6,absent,0.687625885009766,1,vertical,vertical,1,0.823521559846167,green,4,NaN,688.215357568785,370.807518193712,NaN,NaN,911.784642431215,829.192481806288,1054.37883281626,617.787900804752,942.594190385041,388.595418998464,688.215357568785,370.807518193712,545.621167183745,582.212099195248,657.405809614959,811.404581001536,0,0,0,4,0,0,vertical,horizontal,vertical,vertical,vertical,horizontal
1d,9,100229,2,54,118,19,F,NA,constant,homogeneous,3,absent,0.633508920669556,1,vertical,vertical,1,0.799992974599202,green,3,NaN,570.807518193712,488.215357568785,NaN,NaN,817.787900804752,854.378832816255,1011.40458100154,457.40580961496,570.807518193712,488.215357568785,NaN,NaN,NaN,NaN,NaN,NaN,0,0,4,NaN,NaN,NaN,horizontal,horizontal,vertical,none,none,none
1d,9,100229,2,55,119,19,F,NA,constant,homogeneous,6,present,0.784090042114258,1,vertical,vertical,1,0.894107315587062,green,1,3,751.343706178981,850.314931779154,1041.10723677783,516.980120613425,751.343706178981,850.314931779154,992.450942956807,767.295052392579,1041.10723677783,516.980120613425,848.656293821019,349.685068220846,607.549057043193,432.704947607421,558.892763222174,683.019879386575,4,0,0,0,0,0,vertical,vertical,vertical,vertical,horizontal,vertical
1d,9,100229,2,56,120,19,F,NA,constant,homogeneous,6,present,0.787565946578979,1,horizontal,horizontal,1,0.776464389352237,green,2,5,1011.40458100154,742.594190385041,588.595418998464,457.40580961496,782.212099195248,854.378832816255,1011.40458100154,742.594190385041,1029.19248180629,488.215357568785,817.787900804752,345.621167183745,588.595418998464,457.40580961496,570.807518193712,711.784642431215,0,4,0,0,0,0,vertical,horizontal,vertical,horizontal,horizontal,vertical
1d,9,100229,2,57,121,19,F,NA,constant,homogeneous,3,present,0.694881916046143,1,vertical,vertical,1,0.764700096728755,green,3,2,556.142287229426,525.445215295702,986.495193912888,426.090418184063,857.362518857686,848.464366520235,986.495193912888,426.090418184063,556.142287229426,525.445215295702,NaN,NaN,NaN,NaN,NaN,NaN,0,0,4,NaN,NaN,NaN,vertical,vertical,vertical,none,none,none
1d,9,100229,2,58,122,19,F,NA,constant,homogeneous,3,present,0.588605165481567,0,vertical,horizontal,1,0.776464389352237,green,2,3,1042.51941165526,678.799333565612,746.982518841471,350.57236181288,610.498069503264,770.628304621509,1042.51941165526,678.799333565612,746.982518841471,350.57236181288,NaN,NaN,NaN,NaN,NaN,NaN,0,4,0,NaN,NaN,NaN,vertical,vertical,horizontal,none,none,none
1d,9,100229,2,59,123,19,F,NA,constant,homogeneous,5,present,0.798485040664673,0,horizontal,vertical,1,0.69411434098786,green,5,1,545,600,721.200666434388,842.519411655264,721.200666434388,842.519411655264,1006.29933356561,749.885239334581,1006.29933356561,450.114760665419,721.200666434388,357.480588344736,545,600,NaN,NaN,0,0,0,0,4,NaN,vertical,horizontal,vertical,vertical,horizontal,none
1d,9,100229,2,60,124,19,F,NA,constant,homogeneous,6,present,0.771687984466553,1,horizontal,horizontal,1,0.847050145093132,green,6,4,610.498069503264,770.628304621509,746.982518841471,350.57236181288,853.017481158529,849.42763818712,1042.51941165526,678.799333565612,989.501930496736,429.371695378491,746.982518841471,350.57236181288,557.480588344736,521.200666434388,610.498069503264,770.628304621509,0,0,0,0,0,4,vertical,vertical,vertical,horizontal,horizontal,horizontal
1d,9,100229,2,61,125,19,F,NA,constant,homogeneous,5,present,0.624394178390503,1,horizontal,horizontal,1,0.858814437716615,green,5,3,572.793336331966,715.767577433584,915.767577433584,372.793336331966,839.890788585259,851.86052685176,1051.86052685176,639.890788585259,915.767577433584,372.793336331966,619.68777079743,419.68777079743,572.793336331966,715.767577433584,NaN,NaN,0,0,0,0,4,NaN,horizontal,horizontal,vertical,horizontal,horizontal,none
1d,9,100229,2,62,126,19,F,NA,constant,homogeneous,4,present,0.527068138122559,1,horizontal,horizontal,1,0.69411434098786,green,1,4,632.704947607421,792.450942956807,607.549057043193,432.704947607421,632.704947607421,792.450942956807,992.450942956807,767.295052392579,967.295052392579,407.549057043193,607.549057043193,432.704947607421,NaN,NaN,NaN,NaN,4,0,0,0,NaN,NaN,horizontal,horizontal,horizontal,vertical,none,none
1d,9,100229,2,63,127,19,F,NA,constant,homogeneous,4,absent,0.862015962600708,1,vertical,vertical,1,0.799992974599202,green,3,NaN,804.450363641507,345.03883773512,NaN,NaN,795.549636358493,854.96116226488,1054.96116226488,604.450363641507,804.450363641507,345.03883773512,545.03883773512,595.549636358493,NaN,NaN,NaN,NaN,0,0,4,0,NaN,NaN,horizontal,horizontal,vertical,vertical,none,none
1d,9,100229,2,64,128,19,F,NA,constant,homogeneous,4,absent,0.530571937561035,1,vertical,vertical,1,0.964693071327957,green,1,NaN,664.870587620533,816.252264519889,NaN,NaN,664.870587620533,816.252264519889,1016.25226451989,735.129412379467,935.129412379467,383.747735480111,583.747735480111,464.870587620533,NaN,NaN,NaN,NaN,4,0,0,0,NaN,NaN,vertical,vertical,vertical,vertical,none,none
1d,9,100229,3,1,129,19,F,NA,constant,homogeneous,4,absent,0.785598993301392,1,horizontal,horizontal,1,0.999985949198405,green,3,NaN,668.665290897936,381.422338320961,NaN,NaN,931.334709102064,818.577661679039,1018.57766167904,468.665290897936,668.665290897936,381.422338320961,581.422338320961,731.334709102064,NaN,NaN,NaN,NaN,0,0,4,0,NaN,NaN,vertical,vertical,horizontal,horizontal,none,none
1d,9,100229,3,2,130,19,F,NA,constant,homogeneous,6,absent,0.734462022781372,1,vertical,vertical,1,0.670585755740895,green,4,NaN,923.626453162816,376.971974679454,NaN,NaN,676.373546837184,823.028025320546,931.334709102064,818.577661679039,1054.96116226488,595.549636358493,923.626453162816,376.971974679454,668.665290897936,381.422338320961,545.03883773512,604.450363641507,0,0,0,4,0,0,horizontal,horizontal,horizontal,vertical,horizontal,vertical
1d,9,100229,3,3,131,19,F,NA,constant,homogeneous,4,absent,0.706377983093262,1,vertical,vertical,1,0.64705717049393,green,1,NaN,768.923317431687,853.099268668537,NaN,NaN,768.923317431687,853.099268668537,1053.09926866854,631.076682568313,831.076682568313,346.900731331463,546.900731331463,568.923317431687,NaN,NaN,NaN,NaN,4,0,0,0,NaN,NaN,vertical,vertical,vertical,vertical,none,none
1d,9,100229,3,4,132,19,F,NA,constant,homogeneous,4,present,0.478235006332397,1,vertical,vertical,1,0.870578730340097,green,1,2,777.775285599347,854.029648013395,1054.0296480134,622.224714400653,777.775285599347,854.029648013395,1054.0296480134,622.224714400653,822.224714400653,345.970351986605,545.970351986605,577.775285599347,NaN,NaN,NaN,NaN,4,0,0,0,NaN,NaN,vertical,vertical,vertical,vertical,none,none
1d,9,100229,3,5,133,19,F,NA,constant,homogeneous,5,present,0.613790035247803,1,horizontal,horizontal,1,1.09410029018626,green,2,5,1020.83647796503,727.5,546.39691668109,626.654758133252,746.982518841471,849.42763818712,1020.83647796503,727.5,989.501930496736,429.371695378491,696.282156015671,367.045908301137,546.39691668109,626.654758133252,NaN,NaN,0,4,0,0,0,NaN,horizontal,horizontal,horizontal,horizontal,vertical,none
1d,9,100229,3,6,134,19,F,NA,constant,homogeneous,3,present,0.821401834487915,1,horizontal,horizontal,1,0.752935804105272,green,1,3,755.719714694933,851.125977018113,604.658667004661,436.089159529932,755.719714694933,851.125977018113,1039.62161830041,512.784863451954,604.658667004661,436.089159529932,NaN,NaN,NaN,NaN,NaN,NaN,4,0,0,NaN,NaN,NaN,horizontal,horizontal,horizontal,none,none,none
1d,9,100229,3,7,135,19,F,NA,constant,homogeneous,3,absent,0.54466700553894,1,horizontal,horizontal,1,0.941164486080992,green,1,NaN,992.450942956807,767.295052392579,NaN,NaN,992.450942956807,767.295052392579,848.656293821019,349.685068220846,558.892763222174,683.019879386575,NaN,NaN,NaN,NaN,NaN,NaN,4,0,0,NaN,NaN,NaN,horizontal,horizontal,vertical,none,none,none
1d,9,100229,3,8,136,19,F,NA,constant,homogeneous,4,absent,0.648725032806396,1,vertical,vertical,1,0.847050145093132,green,3,NaN,931.334709102064,381.422338320961,NaN,NaN,668.665290897936,818.577661679039,1018.57766167904,731.334709102064,931.334709102064,381.422338320961,581.422338320961,468.665290897936,NaN,NaN,NaN,NaN,0,0,4,0,NaN,NaN,vertical,vertical,vertical,vertical,none,none
1d,9,100229,3,9,137,19,F,NA,constant,homogeneous,6,present,0.677428960800171,0,horizontal,vertical,1,0.97645736395144,green,1,2,700.363562235235,834.728737630372,953.462830903772,803.65205506206,700.363562235235,834.728737630372,953.462830903772,803.65205506206,1053.09926866854,568.923317431687,899.636437764765,365.271262369628,646.537169096228,396.34794493794,546.900731331463,631.076682568313,4,0,0,0,0,0,horizontal,horizontal,vertical,horizontal,vertical,vertical
1d,9,100229,3,10,138,19,F,NA,constant,homogeneous,6,present,0.875571966171265,1,vertical,vertical,1,1.02351453444537,green,3,1,1053.60308331891,573.345241866748,696.282156015671,832.954091698863,696.282156015671,832.954091698863,949.885239334581,806.299333565612,1053.60308331891,573.345241866748,903.717843984329,367.045908301137,650.114760665419,393.700666434388,546.39691668109,626.654758133252,0,0,4,0,0,0,vertical,vertical,vertical,vertical,horizontal,vertical
1d,9,100229,3,11,139,19,F,NA,constant,homogeneous,3,absent,0.480799913406372,1,vertical,vertical,1,0.776464389352237,green,2,NaN,1050.31493177915,648.656293821019,NaN,NaN,632.704947607421,792.450942956807,1050.31493177915,648.656293821019,716.980120613425,358.892763222174,NaN,NaN,NaN,NaN,NaN,NaN,0,4,0,NaN,NaN,NaN,vertical,vertical,horizontal,none,none,none
1d,9,100229,3,12,140,19,F,NA,constant,homogeneous,3,present,0.558052062988281,1,vertical,vertical,1,0.97645736395144,green,3,2,653.738008730483,391.116228706307,1054.0296480134,577.775285599347,692.232343256122,831.108485694346,1054.0296480134,577.775285599347,653.738008730483,391.116228706307,NaN,NaN,NaN,NaN,NaN,NaN,0,0,4,NaN,NaN,NaN,horizontal,vertical,vertical,none,none,none
1d,9,100229,3,13,141,19,F,NA,constant,homogeneous,5,absent,0.793231964111328,1,horizontal,horizontal,1,0.799992974599202,green,4,NaN,572.793336331966,484.232422566416,NaN,NaN,915.767577433584,827.206663668034,1051.86052685176,560.109211414741,839.890788585259,348.13947314824,572.793336331966,484.232422566416,619.68777079743,780.31222920257,NaN,NaN,0,0,0,4,0,NaN,vertical,vertical,horizontal,horizontal,horizontal,none
1d,9,100229,3,14,142,19,F,NA,constant,homogeneous,6,present,0.685176849365234,1,vertical,vertical,1,0.988221656574922,green,3,6,1043.85771277057,525.445215295702,556.142287229426,674.554784704298,742.637481142314,848.464366520235,986.495193912888,773.909581815937,1043.85771277057,525.445215295702,857.362518857686,351.535633479765,613.504806087112,426.090418184063,556.142287229426,674.554784704298,0,0,4,0,0,0,vertical,horizontal,vertical,vertical,horizontal,horizontal
1d,9,100229,3,15,143,19,F,NA,constant,homogeneous,4,present,0.541290998458862,1,vertical,vertical,1,0.905871608210545,green,3,4,848.656293821019,349.685068220846,549.685068220846,551.343706178981,751.343706178981,850.314931779154,1050.31493177915,648.656293821019,848.656293821019,349.685068220846,549.685068220846,551.343706178981,NaN,NaN,NaN,NaN,0,0,4,0,NaN,NaN,horizontal,horizontal,vertical,vertical,none,none
1d,9,100229,3,16,144,19,F,NA,constant,homogeneous,4,present,1.16942000389099,1,horizontal,horizontal,1,0.658821463117413,green,3,2,700.363562235235,365.271262369628,1034.72873763037,500.363562235235,899.636437764765,834.728737630372,1034.72873763037,500.363562235235,700.363562235235,365.271262369628,565.271262369628,699.636437764765,NaN,NaN,NaN,NaN,0,0,4,0,NaN,NaN,vertical,vertical,horizontal,vertical,none,none
1d,9,100229,3,17,145,19,F,NA,constant,homogeneous,5,absent,0.682325124740601,0,vertical,horizontal,1,1.0705717049393,green,4,NaN,568.891514305654,492.232343256122,NaN,NaN,923.626453162816,823.028025320546,1050.31493177915,551.343706178981,831.076682568313,346.900731331463,568.891514305654,492.232343256122,626.090418184063,786.495193912888,NaN,NaN,0,0,0,4,0,NaN,vertical,horizontal,vertical,vertical,horizontal,none
1d,9,100229,3,18,146,19,F,NA,constant,homogeneous,3,present,0.685281038284302,1,horizontal,horizontal,1,0.64705717049393,green,2,3,1045.12173246427,529.712474266665,616.568350913644,422.862115532956,738.309916622085,847.425410200379,1045.12173246427,529.712474266665,616.568350913644,422.862115532956,NaN,NaN,NaN,NaN,NaN,NaN,0,4,0,NaN,NaN,NaN,horizontal,horizontal,horizontal,none,none,none
1d,9,100229,3,19,147,19,F,NA,constant,homogeneous,6,present,0.552899122238159,0,horizontal,vertical,1,1.0705717049393,green,6,4,579.163522034968,727.5,800,345,800,855,1020.83647796503,727.5,1020.83647796503,472.5,800,345,579.163522034968,472.5,579.163522034968,727.5,0,0,0,0,0,4,vertical,horizontal,horizontal,horizontal,vertical,horizontal
1d,9,100229,3,20,148,19,F,NA,constant,homogeneous,3,absent,0.802011013031006,1,horizontal,horizontal,1,0.88234302296358,green,3,NaN,545.621167183745,617.787900804752,NaN,NaN,942.594190385041,811.404581001536,911.784642431215,370.807518193712,545.621167183745,617.787900804752,NaN,NaN,NaN,NaN,NaN,NaN,0,0,4,NaN,NaN,NaN,horizontal,horizontal,horizontal,none,none,none
1d,9,100229,3,21,149,19,F,NA,constant,homogeneous,6,absent,0.825837135314941,1,horizontal,horizontal,1,0.988221656574922,green,4,NaN,751.343706178981,349.685068220846,NaN,NaN,848.656293821019,850.314931779154,1041.10723677783,683.019879386575,992.450942956807,432.704947607421,751.343706178981,349.685068220846,558.892763222174,516.980120613425,607.549057043193,767.295052392579,0,0,0,4,0,0,horizontal,horizontal,vertical,horizontal,vertical,horizontal
1d,9,100229,3,22,150,19,F,NA,constant,homogeneous,5,present,0.648340940475464,1,vertical,vertical,1,0.894107315587062,green,3,4,835.489140744817,347.4816424709,570.807518193712,488.215357568785,919.715248510402,825.151636179026,1051.12597701811,555.719714694933,835.489140744817,347.4816424709,570.807518193712,488.215357568785,622.862115532956,783.431649086356,NaN,NaN,0,0,4,0,0,NaN,vertical,horizontal,vertical,horizontal,horizontal,none
1d,9,100229,3,23,151,19,F,NA,constant,homogeneous,4,present,0.838968992233276,1,vertical,vertical,1,0.670585755740895,green,3,1,729.712474266665,354.878267535729,870.287525733335,845.121732464271,870.287525733335,845.121732464271,1045.12173246427,529.712474266665,729.712474266665,354.878267535729,554.878267535729,670.287525733335,NaN,NaN,NaN,NaN,0,0,4,0,NaN,NaN,horizontal,vertical,vertical,vertical,none,none
1d,9,100229,3,24,152,19,F,NA,constant,homogeneous,6,present,0.795677185058594,1,vertical,vertical,1,0.988221656574922,green,2,1,992.450942956807,767.295052392579,751.343706178981,850.314931779154,751.343706178981,850.314931779154,992.450942956807,767.295052392579,1041.10723677783,516.980120613425,848.656293821019,349.685068220846,607.549057043193,432.704947607421,558.892763222174,683.019879386575,0,4,0,0,0,0,vertical,vertical,vertical,vertical,vertical,horizontal
1d,9,100229,3,25,153,19,F,NA,constant,homogeneous,4,absent,0.555251121520996,1,vertical,vertical,1,0.97645736395144,green,3,NaN,938.882953928832,386.139005173917,NaN,NaN,661.117046071168,813.860994826083,1013.86099482608,738.882953928832,938.882953928832,386.139005173917,586.139005173917,461.117046071168,NaN,NaN,NaN,NaN,0,0,4,0,NaN,NaN,horizontal,horizontal,vertical,horizontal,none,none
1d,9,100229,3,26,154,19,F,NA,constant,homogeneous,4,absent,0.644302129745483,1,horizontal,horizontal,1,0.88234302296358,green,4,NaN,545.03883773512,595.549636358493,NaN,NaN,795.549636358493,854.96116226488,1054.96116226488,604.450363641507,804.450363641507,345.03883773512,545.03883773512,595.549636358493,NaN,NaN,NaN,NaN,0,0,0,4,NaN,NaN,horizontal,vertical,vertical,horizontal,none,none
1d,9,100229,3,27,155,19,F,NA,constant,homogeneous,4,present,0.657405138015747,0,vertical,horizontal,1,0.811757267222685,green,2,1,1054.37883281626,582.212099195248,817.787900804752,854.378832816255,817.787900804752,854.378832816255,1054.37883281626,582.212099195248,782.212099195248,345.621167183745,545.621167183745,617.787900804752,NaN,NaN,NaN,NaN,0,4,0,0,NaN,NaN,horizontal,vertical,horizontal,horizontal,none,none
1d,9,100229,3,28,156,19,F,NA,constant,homogeneous,3,present,0.553486108779907,1,horizontal,horizontal,1,0.729407218858308,green,1,2,596.34794493794,753.462830903772,1034.72873763037,699.636437764765,596.34794493794,753.462830903772,1034.72873763037,699.636437764765,768.923317431687,346.900731331463,NaN,NaN,NaN,NaN,NaN,NaN,4,0,0,NaN,NaN,NaN,horizontal,horizontal,horizontal,none,none,none
1d,9,100229,3,29,157,19,F,NA,constant,homogeneous,6,absent,1.01861500740051,1,vertical,vertical,1,0.682350048364378,green,6,NaN,548.874022981887,644.280285305067,NaN,NaN,712.784863451954,839.621618300407,963.910840470068,795.341332995339,1051.12597701811,555.719714694933,887.215136548046,360.378381699593,636.089159529932,404.658667004661,548.874022981887,644.280285305067,0,0,0,0,0,4,horizontal,horizontal,vertical,vertical,vertical,vertical
1d,9,100229,3,30,158,19,F,NA,constant,homogeneous,4,present,0.873863935470581,1,horizontal,horizontal,1,0.752935804105272,green,2,4,1036.43188291453,695.524681321058,563.568117085469,504.475318678942,704.475318678942,836.431882914531,1036.43188291453,695.524681321058,895.524681321058,363.568117085469,563.568117085469,504.475318678942,NaN,NaN,NaN,NaN,0,4,0,0,NaN,NaN,horizontal,horizontal,vertical,vertical,none,none
1d,9,100229,3,31,159,19,F,NA,constant,homogeneous,6,absent,0.675774097442627,1,vertical,vertical,1,1.01175024182189,green,3,NaN,953.462830903772,396.34794493794,NaN,NaN,899.636437764765,834.728737630372,1053.09926866854,631.076682568313,953.462830903772,396.34794493794,700.363562235235,365.271262369628,546.900731331463,568.923317431687,646.537169096228,803.65205506206,0,0,4,0,0,0,horizontal,horizontal,vertical,horizontal,horizontal,vertical
1d,9,100229,3,32,160,19,F,NA,constant,homogeneous,3,absent,0.790793180465698,1,horizontal,horizontal,1,0.658821463117413,green,3,NaN,547.481642470899,635.489140744817,NaN,NaN,956.993676208043,800.942742169714,895.524681321058,363.568117085469,547.481642470899,635.489140744817,NaN,NaN,NaN,NaN,NaN,NaN,0,0,4,NaN,NaN,NaN,vertical,horizontal,horizontal,none,none,none
1d,9,100229,3,33,161,19,F,NA,constant,homogeneous,6,absent,0.670925140380859,0,horizontal,vertical,1,0.999985949198405,green,3,NaN,989.501930496736,429.371695378491,NaN,NaN,853.017481158529,849.42763818712,1042.51941165526,678.799333565612,989.501930496736,429.371695378491,746.982518841471,350.57236181288,557.480588344736,521.200666434388,610.498069503264,770.628304621509,0,0,4,0,0,0,horizontal,horizontal,horizontal,vertical,horizontal,horizontal
1d,9,100229,3,34,162,19,F,NA,constant,homogeneous,3,present,0.648240804672241,0,horizontal,vertical,1,0.988221656574922,green,2,1,1032.95409169886,496.282156015671,773.345241866748,853.60308331891,773.345241866748,853.60308331891,1032.95409169886,496.282156015671,593.700666434388,450.114760665419,NaN,NaN,NaN,NaN,NaN,NaN,0,4,0,NaN,NaN,NaN,horizontal,horizontal,horizontal,none,none,none
1d,9,100229,3,35,163,19,F,NA,constant,homogeneous,5,absent,1.45372295379639,1,vertical,vertical,1,0.823521559846167,green,1,NaN,672.5,820.836477965032,NaN,NaN,672.5,820.836477965032,970.628304621509,789.501930496736,1032.95409169886,496.282156015671,773.345241866748,346.39691668109,550.57236181288,546.982518841471,NaN,NaN,4,0,0,0,0,NaN,vertical,horizontal,vertical,vertical,horizontal,none
1d,9,100229,3,36,164,19,F,NA,constant,homogeneous,3,present,NaN,0,vertical,none,0,0.682350048364378,green,2,3,848.656293821019,349.685068220846,558.892763222174,683.019879386575,992.450942956807,767.295052392579,848.656293821019,349.685068220846,558.892763222174,683.019879386575,NaN,NaN,NaN,NaN,NaN,NaN,0,4,0,NaN,NaN,NaN,horizontal,vertical,vertical,none,none,none
1d,9,100229,3,37,165,19,F,NA,constant,homogeneous,4,present,0.791460037231445,1,horizontal,horizontal,1,0.717642926234825,green,2,3,1018.57766167904,731.334709102064,931.334709102064,381.422338320961,668.665290897936,818.577661679039,1018.57766167904,731.334709102064,931.334709102064,381.422338320961,581.422338320961,468.665290897936,NaN,NaN,NaN,NaN,0,4,0,0,NaN,NaN,horizontal,horizontal,horizontal,horizontal,none,none
1d,9,100229,3,38,166,19,F,NA,constant,homogeneous,3,absent,0.671473979949951,1,vertical,vertical,1,0.999985949198405,green,3,NaN,668.665290897936,381.422338320961,NaN,NaN,676.373546837184,823.028025320546,1054.96116226488,595.549636358493,668.665290897936,381.422338320961,NaN,NaN,NaN,NaN,NaN,NaN,0,0,4,NaN,NaN,NaN,vertical,horizontal,vertical,none,none,none
1d,9,100229,3,39,167,19,F,NA,constant,homogeneous,4,absent,NaN,0,horizontal,none,0,0.752935804105272,green,4,NaN,588.595418998464,457.40580961496,NaN,NaN,657.405809614959,811.404581001536,1011.40458100154,742.594190385041,942.594190385041,388.595418998464,588.595418998464,457.40580961496,NaN,NaN,NaN,NaN,0,0,0,4,NaN,NaN,vertical,horizontal,horizontal,horizontal,none,none
1d,9,100229,3,40,168,19,F,NA,constant,homogeneous,5,present,0.755426168441772,1,vertical,vertical,1,0.74117151148179,green,3,4,986.495193912888,426.090418184063,692.232343256122,368.891514305654,751.343706178981,850.314931779154,1023.02802532055,723.626453162816,986.495193912888,426.090418184063,692.232343256122,368.891514305654,546.900731331463,631.076682568313,NaN,NaN,0,0,4,0,0,NaN,vertical,horizontal,vertical,vertical,horizontal,none
1d,9,100229,3,41,169,19,F,NA,constant,homogeneous,6,present,0.920527935028076,1,horizontal,horizontal,1,0.894107315587062,green,6,1,581.422338320961,731.334709102064,804.450363641507,854.96116226488,804.450363641507,854.96116226488,1023.02802532055,723.626453162816,1018.57766167904,468.665290897936,795.549636358493,345.03883773512,576.971974679454,476.373546837184,581.422338320961,731.334709102064,0,0,0,0,0,4,horizontal,vertical,horizontal,horizontal,horizontal,horizontal
1d,9,100229,3,42,170,19,F,NA,constant,homogeneous,6,absent,0.85126805305481,1,horizontal,horizontal,1,1.01175024182189,green,5,NaN,545.970351986605,577.775285599347,NaN,NaN,907.767656743878,831.108485694346,1054.0296480134,622.224714400653,946.261991269517,391.116228706307,692.232343256122,368.891514305654,545.970351986605,577.775285599347,653.738008730483,808.883771293693,0,0,0,0,4,0,horizontal,vertical,horizontal,horizontal,horizontal,horizontal
1d,9,100229,3,43,171,19,F,NA,constant,homogeneous,5,absent,0.662410974502563,1,horizontal,horizontal,1,0.88234302296358,green,4,NaN,650.114760665419,393.700666434388,NaN,NaN,800,855,1042.51941165526,678.799333565612,949.885239334581,393.700666434388,650.114760665419,393.700666434388,557.480588344736,678.799333565612,NaN,NaN,0,0,0,4,0,NaN,horizontal,vertical,vertical,horizontal,horizontal,none
1d,9,100229,3,44,172,19,F,NA,constant,homogeneous,3,present,0.626015186309814,1,vertical,vertical,1,0.69411434098786,green,2,3,956.993676208043,399.057257830286,547.481642470899,564.510859255183,895.524681321058,836.431882914531,956.993676208043,399.057257830286,547.481642470899,564.510859255183,NaN,NaN,NaN,NaN,NaN,NaN,0,4,0,NaN,NaN,NaN,vertical,vertical,horizontal,none,none,none
1d,9,100229,3,45,173,19,F,NA,constant,homogeneous,5,present,0.921227216720581,1,vertical,vertical,1,0.941164486080992,green,5,2,650.114760665419,806.299333565612,1042.51941165526,521.200666434388,949.885239334581,806.299333565612,1042.51941165526,521.200666434388,800,345,557.480588344736,521.200666434388,650.114760665419,806.299333565612,NaN,NaN,0,0,0,0,4,NaN,horizontal,horizontal,horizontal,vertical,vertical,none
1d,9,100229,3,46,174,19,F,NA,constant,homogeneous,5,present,1.01216697692871,0,horizontal,vertical,1,0.611764292623483,green,5,2,560.378381699593,687.215136548046,1045.12173246427,670.287525733335,808.899371659138,854.844660889869,1045.12173246427,670.287525733335,942.594190385041,388.595418998464,643.006323791957,399.057257830286,560.378381699593,687.215136548046,NaN,NaN,0,0,0,0,4,NaN,vertical,horizontal,horizontal,vertical,horizontal,none
1d,9,100229,3,47,175,19,F,NA,constant,homogeneous,4,absent,0.840496063232422,0,horizontal,vertical,1,0.988221656574922,green,4,NaN,553.688914296288,665.998856501143,NaN,NaN,865.998856501143,846.311085703712,1046.31108570371,534.001143498857,734.001143498857,353.688914296288,553.688914296288,665.998856501143,NaN,NaN,NaN,NaN,0,0,0,4,NaN,NaN,horizontal,horizontal,horizontal,horizontal,none,none
1d,9,100229,3,48,176,19,F,NA,constant,homogeneous,3,present,0.826396942138672,1,vertical,vertical,1,0.847050145093132,green,2,3,1045.12173246427,529.712474266665,616.568350913644,422.862115532956,738.309916622085,847.425410200379,1045.12173246427,529.712474266665,616.568350913644,422.862115532956,NaN,NaN,NaN,NaN,NaN,NaN,0,4,0,NaN,NaN,NaN,vertical,vertical,vertical,none,none,none
1d,9,100229,3,49,177,19,F,NA,constant,homogeneous,5,absent,0.812763214111328,1,horizontal,horizontal,1,0.682350048364378,green,2,NaN,986.495193912888,773.909581815937,NaN,NaN,692.232343256122,831.108485694346,986.495193912888,773.909581815937,1023.02802532055,476.373546837184,751.343706178981,349.685068220846,546.900731331463,568.923317431687,NaN,NaN,0,4,0,0,0,NaN,vertical,horizontal,horizontal,vertical,horizontal,none
1d,9,100229,3,50,178,19,F,NA,constant,homogeneous,5,absent,0.865257024765015,1,vertical,vertical,1,0.78822868197572,green,1,NaN,684.232422566416,827.206663668034,NaN,NaN,684.232422566416,827.206663668034,980.31222920257,780.31222920257,1027.20666366803,484.232422566416,760.109211414741,348.13947314824,548.13947314824,560.109211414741,NaN,NaN,4,0,0,0,0,NaN,vertical,horizontal,vertical,horizontal,horizontal,none
1d,9,100229,3,51,179,19,F,NA,constant,homogeneous,5,present,1.33427500724792,1,horizontal,horizontal,1,0.78822868197572,green,3,1,853.017481158529,350.57236181288,903.717843984329,832.954091698863,903.717843984329,832.954091698863,1053.60308331891,573.345241866748,853.017481158529,350.57236181288,579.163522034968,472.5,610.498069503264,770.628304621509,NaN,NaN,0,0,4,0,0,NaN,horizontal,horizontal,horizontal,vertical,vertical,none
1d,9,100229,3,52,180,19,F,NA,constant,homogeneous,5,present,0.992097139358521,1,vertical,vertical,1,0.952928778704475,green,1,4,755.719714694933,851.125977018113,688.215357568785,370.807518193712,755.719714694933,851.125977018113,1025.15163617903,719.715248510402,983.431649086356,422.862115532956,688.215357568785,370.807518193712,547.481642470899,635.489140744817,NaN,NaN,4,0,0,0,0,NaN,vertical,horizontal,vertical,horizontal,horizontal,none
1d,9,100229,3,53,181,19,F,NA,constant,homogeneous,6,absent,1.77572393417358,0,vertical,horizontal,1,0.776464389352237,green,3,NaN,1041.10723677783,516.980120613425,NaN,NaN,751.343706178981,850.314931779154,992.450942956807,767.295052392579,1041.10723677783,516.980120613425,848.656293821019,349.685068220846,607.549057043193,432.704947607421,558.892763222174,683.019879386575,0,0,4,0,0,0,horizontal,horizontal,vertical,vertical,vertical,horizontal
1d,9,100229,3,54,182,19,F,NA,constant,homogeneous,4,absent,1.27653908729553,1,vertical,vertical,1,1.04704311969233,green,3,NaN,721.200666434388,357.480588344736,NaN,NaN,878.799333565612,842.519411655264,1042.51941165526,521.200666434388,721.200666434388,357.480588344736,557.480588344736,678.799333565612,NaN,NaN,NaN,NaN,0,0,4,0,NaN,NaN,horizontal,horizontal,vertical,vertical,none,none
1d,9,100229,3,55,183,19,F,NA,constant,homogeneous,6,present,0.730787992477417,1,horizontal,horizontal,1,1.02351453444537,green,4,6,848.656293821019,349.685068220846,558.892763222174,683.019879386575,751.343706178981,850.314931779154,992.450942956807,767.295052392579,1041.10723677783,516.980120613425,848.656293821019,349.685068220846,607.549057043193,432.704947607421,558.892763222174,683.019879386575,0,0,0,4,0,0,vertical,horizontal,vertical,horizontal,vertical,vertical
1d,9,100229,3,56,184,19,F,NA,constant,homogeneous,4,present,0.756637096405029,1,horizontal,horizontal,1,0.752935804105272,green,3,1,729.712474266665,354.878267535729,870.287525733335,845.121732464271,870.287525733335,845.121732464271,1045.12173246427,529.712474266665,729.712474266665,354.878267535729,554.878267535729,670.287525733335,NaN,NaN,NaN,NaN,0,0,4,0,NaN,NaN,vertical,horizontal,horizontal,horizontal,none,none
1d,9,100229,3,57,185,19,F,NA,constant,homogeneous,6,absent,0.588788986206055,1,horizontal,horizontal,1,1.03527882706885,green,2,NaN,1052.5183575291,635.489140744817,NaN,NaN,895.524681321058,836.431882914531,1052.5183575291,635.489140744817,956.993676208043,399.057257830286,704.475318678942,363.568117085469,547.481642470899,564.510859255183,643.006323791957,800.942742169714,0,4,0,0,0,0,horizontal,horizontal,horizontal,vertical,vertical,horizontal
1d,9,100229,3,58,186,19,F,NA,constant,homogeneous,6,present,0.619657039642334,1,vertical,vertical,1,0.952928778704475,green,2,1,1039.62161830041,687.215136548046,844.280285305067,851.125977018113,844.280285305067,851.125977018113,1039.62161830041,687.215136548046,995.341332995339,436.089159529932,755.719714694933,348.874022981887,560.378381699593,512.784863451954,604.658667004661,763.910840470068,0,4,0,0,0,0,vertical,vertical,horizontal,vertical,vertical,horizontal
1d,9,100229,3,59,187,19,F,NA,constant,homogeneous,5,present,0.734200000762939,0,horizontal,vertical,1,0.894107315587062,green,1,3,692.232343256122,831.108485694346,1023.02802532055,476.373546837184,692.232343256122,831.108485694346,986.495193912888,773.909581815937,1023.02802532055,476.373546837184,751.343706178981,349.685068220846,546.900731331463,568.923317431687,NaN,NaN,4,0,0,0,0,NaN,horizontal,vertical,horizontal,horizontal,horizontal,none
1d,9,100229,3,60,188,19,F,NA,constant,homogeneous,3,absent,1.59920215606689,1,horizontal,horizontal,1,0.905871608210545,green,1,NaN,949.885239334581,806.299333565612,NaN,NaN,949.885239334581,806.299333565612,903.717843984329,367.045908301137,546.39691668109,626.654758133252,NaN,NaN,NaN,NaN,NaN,NaN,4,0,0,NaN,NaN,NaN,horizontal,horizontal,horizontal,none,none,none
1d,9,100229,3,61,189,19,F,NA,constant,homogeneous,3,absent,NaN,0,vertical,none,0,0.6,green,1,NaN,692.232343256122,831.108485694346,NaN,NaN,692.232343256122,831.108485694346,1054.0296480134,577.775285599347,653.738008730483,391.116228706307,NaN,NaN,NaN,NaN,NaN,NaN,4,0,0,NaN,NaN,NaN,vertical,vertical,horizontal,none,none,none
1d,9,100229,3,62,190,19,F,NA,constant,homogeneous,3,absent,0.624738931655884,1,vertical,vertical,1,0.847050145093132,green,1,NaN,704.475318678942,836.431882914531,NaN,NaN,704.475318678942,836.431882914531,1052.5183575291,564.510859255183,643.006323791957,399.057257830286,NaN,NaN,NaN,NaN,NaN,NaN,4,0,0,NaN,NaN,NaN,vertical,vertical,horizontal,none,none,none
1d,9,100229,3,63,191,19,F,NA,constant,homogeneous,5,absent,0.699788093566895,1,horizontal,horizontal,1,0.905871608210545,green,2,NaN,1000.94274216971,756.993676208043,NaN,NaN,712.784863451954,839.621618300407,1000.94274216971,756.993676208043,1011.40458100154,457.40580961496,729.712474266665,354.878267535729,545.155339110131,591.100628340862,NaN,NaN,0,4,0,0,0,NaN,horizontal,horizontal,horizontal,horizontal,vertical,none
1d,9,100229,3,64,192,19,F,NA,constant,homogeneous,5,absent,0.999814033508301,1,vertical,vertical,1,0.705878633611343,green,4,NaN,738.309916622085,352.574589799621,NaN,NaN,704.475318678942,836.431882914531,995.341332995339,763.910840470068,1016.25226451989,464.870587620533,738.309916622085,352.574589799621,545.621167183745,582.212099195248,NaN,NaN,0,0,0,4,0,NaN,vertical,vertical,vertical,vertical,horizontal,none
1d,9,100229,4,1,193,19,F,NA,constant,homogeneous,6,present,0.95133113861084,1,vertical,vertical,1,0.635292877870448,green,3,1,1053.60308331891,573.345241866748,696.282156015671,832.954091698863,696.282156015671,832.954091698863,949.885239334581,806.299333565612,1053.60308331891,573.345241866748,903.717843984329,367.045908301137,650.114760665419,393.700666434388,546.39691668109,626.654758133252,0,0,4,0,0,0,vertical,vertical,vertical,horizontal,vertical,vertical
1d,9,100229,4,2,194,19,F,NA,constant,homogeneous,3,absent,0.618561983108521,1,vertical,vertical,1,0.611764292623483,green,3,NaN,552.574589799621,661.690083377915,NaN,NaN,977.137884467044,783.431649086356,870.287525733335,354.878267535729,552.574589799621,661.690083377915,NaN,NaN,NaN,NaN,NaN,NaN,0,0,4,NaN,NaN,NaN,horizontal,vertical,vertical,none,none,none
1d,9,100229,4,3,195,19,F,NA,constant,homogeneous,5,absent,0.649399995803833,1,vertical,vertical,1,0.705878633611343,green,3,NaN,1018.57766167904,468.665290897936,NaN,NaN,700.363562235235,834.728737630372,992.450942956807,767.295052392579,1018.57766167904,468.665290897936,742.637481142314,351.535633479765,545.970351986605,577.775285599347,NaN,NaN,0,0,4,0,0,NaN,vertical,horizontal,vertical,horizontal,vertical,none
1d,9,100229,4,4,196,19,F,NA,constant,homogeneous,5,present,0.516136169433594,1,vertical,vertical,1,0.88234302296358,green,3,2,1006.29933356561,450.114760665419,1006.29933356561,749.885239334581,721.200666434388,842.519411655264,1006.29933356561,749.885239334581,1006.29933356561,450.114760665419,721.200666434388,357.480588344736,545,600,NaN,NaN,0,0,4,0,0,NaN,horizontal,horizontal,vertical,horizontal,horizontal,none
1d,9,100229,4,5,197,19,F,NA,constant,homogeneous,3,present,0.624132871627808,1,vertical,vertical,1,0.670585755740895,green,1,2,588.595418998464,742.594190385041,1029.19248180629,711.784642431215,588.595418998464,742.594190385041,1029.19248180629,711.784642431215,782.212099195248,345.621167183745,NaN,NaN,NaN,NaN,NaN,NaN,4,0,0,NaN,NaN,NaN,vertical,horizontal,vertical,none,none,none
1d,9,100229,4,6,198,19,F,NA,constant,homogeneous,4,absent,0.945777893066406,1,horizontal,horizontal,1,1.05880741231582,green,1,NaN,891.383827134052,838.063008756786,NaN,NaN,891.383827134052,838.063008756786,1038.06300875679,508.616172865948,708.616172865948,361.936991243214,561.936991243214,691.383827134052,NaN,NaN,NaN,NaN,4,0,0,0,NaN,NaN,horizontal,horizontal,horizontal,vertical,none,none
1d,9,100229,4,7,199,19,F,NA,constant,homogeneous,3,absent,0.54243278503418,1,horizontal,horizontal,1,1.08233599756278,green,2,NaN,1054.84466088987,608.899371659138,NaN,NaN,664.870587620533,816.252264519889,1054.84466088987,608.899371659138,680.284751489598,374.848363820974,NaN,NaN,NaN,NaN,NaN,NaN,0,4,0,NaN,NaN,NaN,horizontal,horizontal,vertical,none,none,none
1d,9,100229,4,8,200,19,F,NA,constant,homogeneous,4,absent,0.504560232162476,1,horizontal,horizontal,1,0.941164486080992,green,4,NaN,565.271262369628,699.636437764765,NaN,NaN,899.636437764765,834.728737630372,1034.72873763037,500.363562235235,700.363562235235,365.271262369628,565.271262369628,699.636437764765,NaN,NaN,NaN,NaN,0,0,0,4,NaN,NaN,vertical,vertical,vertical,horizontal,none,none
1d,9,100229,4,9,201,19,F,NA,constant,homogeneous,4,present,0.593933820724487,1,vertical,vertical,1,0.752935804105272,green,2,3,1011.40458100154,457.40580961496,657.405809614959,388.595418998464,942.594190385041,811.404581001536,1011.40458100154,457.40580961496,657.405809614959,388.595418998464,588.595418998464,742.594190385041,NaN,NaN,NaN,NaN,0,4,0,0,NaN,NaN,vertical,vertical,horizontal,vertical,none,none
1d,9,100229,4,10,202,19,F,NA,constant,homogeneous,5,present,0.818423986434937,1,horizontal,horizontal,1,0.823521559846167,green,1,3,817.787900804752,854.378832816255,935.129412379467,383.747735480111,817.787900804752,854.378832816255,1047.42541020038,661.690083377915,935.129412379467,383.747735480111,636.089159529932,404.658667004661,563.568117085469,695.524681321058,NaN,NaN,4,0,0,0,0,NaN,horizontal,vertical,vertical,horizontal,horizontal,none
1d,9,100229,4,11,203,19,F,NA,constant,homogeneous,3,present,0.716771841049194,1,horizontal,horizontal,1,0.894107315587062,green,1,2,963.910840470068,795.341332995339,887.215136548046,360.378381699593,963.910840470068,795.341332995339,887.215136548046,360.378381699593,548.874022981887,644.280285305067,NaN,NaN,NaN,NaN,NaN,NaN,4,0,0,NaN,NaN,NaN,horizontal,horizontal,vertical,none,none,none
1d,9,100229,4,12,204,19,F,NA,constant,homogeneous,6,present,0.900783061981201,1,vertical,vertical,1,1.0705717049393,green,2,5,1054.65053136242,613.345668841951,545.349468637584,586.654331158049,915.767577433584,827.206663668034,1054.65053136242,613.345668841951,938.882953928832,386.139005173917,684.232422566416,372.793336331966,545.349468637584,586.654331158049,661.117046071168,813.860994826083,0,4,0,0,0,0,vertical,vertical,horizontal,vertical,horizontal,horizontal
1d,9,100229,4,13,205,19,F,NA,constant,homogeneous,6,absent,1.01305794715881,1,vertical,vertical,1,0.69411434098786,green,6,NaN,568.891514305654,707.767656743878,NaN,NaN,777.775285599347,854.029648013395,1008.88377129369,746.261991269517,1031.10848569435,492.232343256122,822.224714400653,345.970351986605,591.116228706307,453.738008730483,568.891514305654,707.767656743878,0,0,0,0,0,4,vertical,vertical,horizontal,horizontal,vertical,vertical
1d,9,100229,4,14,206,19,F,NA,constant,homogeneous,3,absent,1.90716004371643,0,horizontal,vertical,1,0.88234302296358,green,2,NaN,895.524681321058,363.568117085469,NaN,NaN,956.993676208043,800.942742169714,895.524681321058,363.568117085469,547.481642470899,635.489140744817,NaN,NaN,NaN,NaN,NaN,NaN,0,4,0,NaN,NaN,NaN,horizontal,horizontal,vertical,none,none,none
1d,9,100229,4,15,207,19,F,NA,constant,homogeneous,4,present,1.24649119377136,1,horizontal,horizontal,1,0.64705717049393,green,2,4,1054.37883281626,617.787900804752,545.621167183745,582.212099195248,782.212099195248,854.378832816255,1054.37883281626,617.787900804752,817.787900804752,345.621167183745,545.621167183745,582.212099195248,NaN,NaN,NaN,NaN,0,4,0,0,NaN,NaN,vertical,horizontal,horizontal,horizontal,none,none
1d,9,100229,4,16,208,19,F,NA,constant,homogeneous,4,present,0.754968881607056,1,vertical,vertical,1,0.752935804105272,green,3,4,835.489140744817,347.4816424709,547.481642470899,564.510859255183,764.510859255183,852.518357529101,1052.5183575291,635.489140744817,835.489140744817,347.4816424709,547.481642470899,564.510859255183,NaN,NaN,NaN,NaN,0,0,4,0,NaN,NaN,vertical,horizontal,vertical,vertical,none,none
1d,9,100229,4,17,209,19,F,NA,constant,homogeneous,5,present,0.609909057617188,1,vertical,vertical,1,0.78822868197572,green,4,5,661.117046071168,386.139005173917,553.688914296288,665.998856501143,786.654331158049,854.650531362416,1038.06300875679,691.383827134052,960.476699717708,401.827779828472,661.117046071168,386.139005173917,553.688914296288,665.998856501143,NaN,NaN,0,0,0,4,0,NaN,horizontal,horizontal,horizontal,vertical,vertical,none
1d,9,100229,4,18,210,19,F,NA,constant,homogeneous,5,absent,1.02674889564514,1,horizontal,horizontal,1,1.03527882706885,green,1,NaN,865.998856501143,846.311085703712,NaN,NaN,865.998856501143,846.311085703712,1054.65053136242,613.345668841951,891.383827134052,361.936991243214,601.827779828472,439.523300282291,586.139005173917,738.882953928832,NaN,NaN,4,0,0,0,0,NaN,horizontal,vertical,horizontal,vertical,horizontal,none
1d,9,100229,4,19,211,19,F,NA,constant,homogeneous,5,present,0.697052955627441,1,horizontal,horizontal,1,1.0705717049393,green,4,2,579.163522034968,472.5,1053.60308331891,573.345241866748,903.717843984329,832.954091698863,1053.60308331891,573.345241866748,853.017481158529,350.57236181288,579.163522034968,472.5,610.498069503264,770.628304621509,NaN,NaN,0,0,0,4,0,NaN,vertical,vertical,vertical,horizontal,horizontal,none
1d,9,100229,4,20,212,19,F,NA,constant,homogeneous,5,absent,0.749433994293213,1,vertical,vertical,1,0.905871608210545,green,3,NaN,826.654758133252,346.39691668109,NaN,NaN,927.5,820.836477965032,1049.42763818712,546.982518841471,826.654758133252,346.39691668109,567.045908301137,496.282156015671,629.371695378491,789.501930496736,NaN,NaN,0,0,4,0,0,NaN,vertical,vertical,vertical,vertical,vertical,none
1d,9,100229,4,21,213,19,F,NA,constant,homogeneous,3,present,1.37301898002625,1,horizontal,horizontal,1,1.02351453444537,green,2,3,980.31222920257,419.68777079743,553.688914296288,534.001143498857,865.998856501143,846.311085703712,980.31222920257,419.68777079743,553.688914296288,534.001143498857,NaN,NaN,NaN,NaN,NaN,NaN,0,4,0,NaN,NaN,NaN,vertical,horizontal,horizontal,none,none,none
1d,9,100229,4,22,214,19,F,NA,constant,homogeneous,3,present,0.763484001159668,1,vertical,vertical,1,0.752935804105272,green,2,1,1051.86052685176,639.890788585259,639.523300282292,798.172220171528,639.523300282292,798.172220171528,1051.86052685176,639.890788585259,708.616172865948,361.936991243214,NaN,NaN,NaN,NaN,NaN,NaN,0,4,0,NaN,NaN,NaN,horizontal,vertical,horizontal,none,none,none
1d,9,100229,4,23,215,19,F,NA,constant,homogeneous,6,present,0.934509038925171,1,horizontal,horizontal,1,0.764700096728755,green,3,2,949.885239334581,393.700666434388,1053.60308331891,626.654758133252,903.717843984329,832.954091698863,1053.60308331891,626.654758133252,949.885239334581,393.700666434388,696.282156015671,367.045908301137,546.39691668109,573.345241866748,650.114760665419,806.299333565612,0,0,4,0,0,0,vertical,horizontal,horizontal,vertical,vertical,vertical
1d,9,100229,4,24,216,19,F,NA,constant,homogeneous,6,present,1.23799610137939,1,vertical,vertical,1,0.83528585246965,green,2,3,935.129412379467,816.252264519889,1054.84466088987,591.100628340862,680.284751489598,825.151636179026,935.129412379467,816.252264519889,1054.84466088987,591.100628340862,919.715248510402,374.848363820974,664.870587620533,383.747735480111,545.155339110131,608.899371659138,0,4,0,0,0,0,vertical,vertical,horizontal,horizontal,horizontal,vertical
1d,9,100229,4,25,217,19,F,NA,constant,homogeneous,6,absent,1.00060701370239,1,horizontal,horizontal,1,0.670585755740895,green,4,NaN,861.690083377915,352.574589799621,NaN,NaN,738.309916622085,847.425410200379,983.431649086356,777.137884467044,1045.12173246427,529.712474266665,861.690083377915,352.574589799621,616.568350913644,422.862115532956,554.878267535729,670.287525733335,0,0,0,4,0,0,horizontal,horizontal,vertical,horizontal,vertical,vertical
1d,9,100229,4,26,218,19,F,NA,constant,homogeneous,3,absent,0.792320013046265,1,vertical,vertical,1,0.988221656574922,green,3,NaN,558.892763222174,683.019879386575,NaN,NaN,992.450942956807,767.295052392579,848.656293821019,349.685068220846,558.892763222174,683.019879386575,NaN,NaN,NaN,NaN,NaN,NaN,0,0,4,NaN,NaN,NaN,vertical,vertical,vertical,none,none,none
1d,9,100229,4,27,219,19,F,NA,constant,homogeneous,6,absent,0.655442953109741,1,horizontal,horizontal,1,0.952928778704475,green,4,NaN,760.109211414741,348.13947314824,NaN,NaN,839.890788585259,851.86052685176,1038.06300875679,691.383827134052,998.172220171528,439.523300282291,760.109211414741,348.13947314824,561.936991243214,508.616172865948,601.827779828472,760.476699717708,0,0,0,4,0,0,vertical,horizontal,horizontal,horizontal,vertical,vertical
1d,9,100229,4,28,220,19,F,NA,constant,homogeneous,5,present,0.661317825317383,1,horizontal,horizontal,1,0.823521559846167,green,5,1,636.089159529932,795.341332995339,935.129412379467,816.252264519889,935.129412379467,816.252264519889,1047.42541020038,538.309916622085,817.787900804752,345.621167183745,563.568117085469,504.475318678942,636.089159529932,795.341332995339,NaN,NaN,0,0,0,0,4,NaN,vertical,horizontal,horizontal,horizontal,horizontal,none
1d,9,100229,4,29,221,19,F,NA,constant,homogeneous,6,present,0.741426944732666,1,horizontal,horizontal,1,0.92940019345751,green,6,1,576.971974679454,723.626453162816,795.549636358493,854.96116226488,795.549636358493,854.96116226488,1018.57766167904,731.334709102064,1023.02802532055,476.373546837184,804.450363641507,345.03883773512,581.422338320961,468.665290897936,576.971974679454,723.626453162816,0,0,0,0,0,4,vertical,horizontal,horizontal,horizontal,horizontal,horizontal
1d,9,100229,4,30,222,19,F,NA,constant,homogeneous,3,present,0.785485029220581,1,horizontal,horizontal,1,1.05880741231582,green,2,1,874.554784704298,356.142287229426,973.909581815937,786.495193912888,973.909581815937,786.495193912888,874.554784704298,356.142287229426,551.535633479765,657.362518857686,NaN,NaN,NaN,NaN,NaN,NaN,0,4,0,NaN,NaN,NaN,vertical,horizontal,horizontal,none,none,none
1d,9,100229,4,31,223,19,F,NA,constant,homogeneous,4,present,0.780833005905151,1,horizontal,horizontal,1,0.97645736395144,green,1,2,777.775285599347,854.029648013395,1054.0296480134,622.224714400653,777.775285599347,854.029648013395,1054.0296480134,622.224714400653,822.224714400653,345.970351986605,545.970351986605,577.775285599347,NaN,NaN,NaN,NaN,4,0,0,0,NaN,NaN,horizontal,vertical,horizontal,vertical,none,none
1d,9,100229,4,32,224,19,F,NA,constant,homogeneous,3,absent,0.86220908164978,1,vertical,vertical,1,0.682350048364378,green,1,NaN,657.405809614959,811.404581001536,NaN,NaN,657.405809614959,811.404581001536,1054.37883281626,617.787900804752,688.215357568785,370.807518193712,NaN,NaN,NaN,NaN,NaN,NaN,4,0,0,NaN,NaN,NaN,vertical,vertical,horizontal,none,none,none
1d,9,100229,4,33,225,19,F,NA,constant,homogeneous,5,absent,0.963895082473755,1,vertical,vertical,1,0.611764292623483,green,4,NaN,729.712474266665,354.878267535729,NaN,NaN,712.784863451954,839.621618300407,1000.94274216971,756.993676208043,1011.40458100154,457.40580961496,729.712474266665,354.878267535729,545.155339110131,591.100628340862,NaN,NaN,0,0,0,4,0,NaN,vertical,vertical,horizontal,vertical,horizontal,none
1d,9,100229,4,34,226,19,F,NA,constant,homogeneous,5,absent,0.604784965515137,1,horizontal,horizontal,1,1.04704311969233,green,4,NaN,643.006323791957,399.057257830286,NaN,NaN,808.899371659138,854.844660889869,1045.12173246427,670.287525733335,942.594190385041,388.595418998464,643.006323791957,399.057257830286,560.378381699593,687.215136548046,NaN,NaN,0,0,0,4,0,NaN,vertical,vertical,vertical,horizontal,horizontal,none
1d,9,100229,4,35,227,19,F,NA,constant,homogeneous,5,present,0.836627006530762,1,vertical,vertical,1,0.78822868197572,green,2,1,1031.10848569435,707.767656743878,768.923317431687,853.099268668537,768.923317431687,853.099268668537,1031.10848569435,707.767656743878,973.909581815937,413.504806087112,676.373546837184,376.971974679454,549.685068220846,648.656293821019,NaN,NaN,0,4,0,0,0,NaN,vertical,vertical,horizontal,vertical,vertical,none
1d,9,100229,4,36,228,19,F,NA,constant,homogeneous,3,present,0.6822350025177,1,horizontal,horizontal,1,0.635292877870448,green,2,3,1042.51941165526,678.799333565612,746.982518841471,350.57236181288,610.498069503264,770.628304621509,1042.51941165526,678.799333565612,746.982518841471,350.57236181288,NaN,NaN,NaN,NaN,NaN,NaN,0,4,0,NaN,NaN,NaN,horizontal,horizontal,horizontal,none,none,none
1d,9,100229,4,37,229,19,F,NA,constant,homogeneous,4,present,0.70564603805542,1,horizontal,horizontal,1,0.88234302296358,green,1,4,953.462830903772,803.65205506206,596.34794493794,753.462830903772,953.462830903772,803.65205506206,1003.65205506206,446.537169096228,646.537169096228,396.34794493794,596.34794493794,753.462830903772,NaN,NaN,NaN,NaN,4,0,0,0,NaN,NaN,horizontal,horizontal,vertical,horizontal,none,none
1d,9,100229,4,38,230,19,F,NA,constant,homogeneous,6,present,0.665868043899536,1,horizontal,horizontal,1,1.08233599756278,green,2,3,1003.65205506206,753.462830903772,1034.72873763037,500.363562235235,768.923317431687,853.099268668537,1003.65205506206,753.462830903772,1034.72873763037,500.363562235235,831.076682568313,346.900731331463,596.34794493794,446.537169096228,565.271262369628,699.636437764765,0,4,0,0,0,0,vertical,horizontal,horizontal,horizontal,vertical,horizontal
1d,9,100229,4,39,231,19,F,NA,constant,homogeneous,4,absent,0.69317889213562,1,horizontal,horizontal,1,0.69411434098786,green,1,NaN,734.001143498857,846.311085703712,NaN,NaN,734.001143498857,846.311085703712,1046.31108570371,665.998856501143,865.998856501143,353.688914296288,553.688914296288,534.001143498857,NaN,NaN,NaN,NaN,4,0,0,0,NaN,NaN,horizontal,vertical,horizontal,vertical,none,none
1d,9,100229,4,40,232,19,F,NA,constant,homogeneous,4,absent,0.673818111419678,1,vertical,vertical,1,0.92940019345751,green,2,NaN,1054.37883281626,617.787900804752,NaN,NaN,782.212099195248,854.378832816255,1054.37883281626,617.787900804752,817.787900804752,345.621167183745,545.621167183745,582.212099195248,NaN,NaN,NaN,NaN,0,4,0,0,NaN,NaN,horizontal,vertical,horizontal,horizontal,none,none
1d,9,100229,4,41,233,19,F,NA,constant,homogeneous,6,absent,0.691359043121338,1,vertical,vertical,1,0.78822868197572,green,5,NaN,622.862115532956,416.568350913644,NaN,NaN,729.712474266665,845.121732464271,977.137884467044,783.431649086356,1047.42541020038,538.309916622085,870.287525733335,354.878267535729,622.862115532956,416.568350913644,552.574589799621,661.690083377915,0,0,0,0,4,0,vertical,horizontal,vertical,horizontal,vertical,vertical
1d,9,100229,4,42,234,19,F,NA,constant,homogeneous,4,absent,0.830879926681519,1,vertical,vertical,1,1.0705717049393,green,1,NaN,931.334709102064,818.577661679039,NaN,NaN,931.334709102064,818.577661679039,1018.57766167904,468.665290897936,668.665290897936,381.422338320961,581.422338320961,731.334709102064,NaN,NaN,NaN,NaN,4,0,0,0,NaN,NaN,vertical,horizontal,horizontal,horizontal,none,none
1d,9,100229,4,43,235,19,F,NA,constant,homogeneous,5,absent,0.765760898590088,1,horizontal,horizontal,1,0.717642926234825,green,4,NaN,738.309916622085,352.574589799621,NaN,NaN,704.475318678942,836.431882914531,995.341332995339,763.910840470068,1016.25226451989,464.870587620533,738.309916622085,352.574589799621,545.621167183745,582.212099195248,NaN,NaN,0,0,0,4,0,NaN,vertical,vertical,horizontal,horizontal,horizontal,none
1d,9,100229,4,44,236,19,F,NA,constant,homogeneous,5,present,0.630776166915894,0,horizontal,vertical,1,1.0705717049393,green,1,3,822.224714400653,854.029648013395,931.334709102064,381.422338320961,822.224714400653,854.029648013395,1048.46436652023,657.362518857686,931.334709102064,381.422338320961,632.704947607421,407.549057043193,565.271262369628,699.636437764765,NaN,NaN,4,0,0,0,0,NaN,horizontal,vertical,vertical,horizontal,horizontal,none
1d,9,100229,4,45,237,19,F,NA,constant,homogeneous,4,present,1.2975959777832,1,vertical,vertical,1,0.905871608210545,green,2,4,1020.83647796503,472.5,579.163522034968,727.5,927.5,820.836477965032,1020.83647796503,472.5,672.5,379.163522034968,579.163522034968,727.5,NaN,NaN,NaN,NaN,0,4,0,0,NaN,NaN,vertical,vertical,horizontal,vertical,none,none
1d,9,100229,4,46,238,19,F,NA,constant,homogeneous,3,present,1.36034417152405,1,vertical,vertical,1,0.823521559846167,green,1,2,791.100628340862,854.844660889869,1025.15163617903,480.284751489598,791.100628340862,854.844660889869,1025.15163617903,480.284751489598,583.747735480111,464.870587620533,NaN,NaN,NaN,NaN,NaN,NaN,4,0,0,NaN,NaN,NaN,vertical,horizontal,horizontal,none,none,none
1d,9,100229,4,47,239,19,F,NA,constant,homogeneous,6,absent,0.854942083358765,1,horizontal,horizontal,1,0.964693071327957,green,4,NaN,738.309916622085,352.574589799621,NaN,NaN,861.690083377915,847.425410200379,1045.12173246427,670.287525733335,983.431649086356,422.862115532956,738.309916622085,352.574589799621,554.878267535729,529.712474266665,616.568350913644,777.137884467044,0,0,0,4,0,0,horizontal,vertical,horizontal,horizontal,vertical,horizontal
1d,9,100229,4,48,240,19,F,NA,constant,homogeneous,5,absent,0.777925968170166,1,vertical,vertical,1,0.88234302296358,green,5,NaN,576.971974679454,723.626453162816,NaN,NaN,848.656293821019,850.314931779154,1053.09926866854,631.076682568313,907.767656743878,368.891514305654,613.504806087112,426.090418184063,576.971974679454,723.626453162816,NaN,NaN,0,0,0,0,4,NaN,vertical,horizontal,horizontal,vertical,vertical,none
1d,9,100229,4,49,241,19,F,NA,constant,homogeneous,6,present,0.667845964431763,0,horizontal,vertical,1,0.905871608210545,green,6,1,664.870587620533,816.252264519889,919.715248510402,825.151636179026,919.715248510402,825.151636179026,1054.84466088987,608.899371659138,935.129412379467,383.747735480111,680.284751489598,374.848363820974,545.155339110131,591.100628340862,664.870587620533,816.252264519889,0,0,0,0,0,4,horizontal,vertical,horizontal,vertical,vertical,horizontal
