experiment,subject,uniqueID,block,trial,trial_cumulative,age,gender,color_cond_blocking,color_history,shape_type,set_size,distractor,rt,acc,target_orient,response_key,response_made,iti,target_color,target_item,distractor_item,target_X,target_Y,distractor_X,distractor_Y,item1_X,item1_Y,item2_X,item2_Y,item3_X,item3_Y,item4_X,item4_Y,item5_X,item5_Y,item6_X,item6_Y,item1_shape,item2_shape,item3_shape,item4_shape,item5_shape,item6_shape,item1_line,item2_line,item3_line,item4_line,item5_line,item6_line
1b,10,100195,1,1,1,20,M,NA,constant,heterogeneous,5,absent,1.12730312347412,1,horizontal,horizontal,1,0.917644476890564,green,5,NaN,629.371695378491,789.501930496736,NaN,NaN,927.5,820.836477965032,1049.42763818712,546.982518841471,826.654758133252,346.39691668109,567.045908301137,496.282156015671,629.371695378491,789.501930496736,0,0,6,0,3,3,4,NaN,horizontal,horizontal,horizontal,vertical,horizontal,none
1b,10,100195,1,2,2,20,M,NA,constant,heterogeneous,6,present,0.990776062011719,1,vertical,vertical,1,1.05881979995304,green,6,2,619.68777079743,780.31222920257,1046.31108570371,665.998856501143,865.998856501143,846.311085703712,1046.31108570371,665.998856501143,980.31222920257,419.68777079743,734.001143498857,353.688914296288,553.688914296288,534.001143498857,619.68777079743,780.31222920257,6,3,0,5,5,4,vertical,vertical,vertical,vertical,vertical,vertical
1b,10,100195,1,3,3,20,M,NA,constant,heterogeneous,6,present,NaN,0,horizontal,none,0,1.04705518969783,green,3,5,1043.85771277057,525.445215295702,613.504806087112,426.090418184063,742.637481142314,848.464366520235,986.495193912888,773.909581815937,1043.85771277057,525.445215295702,857.362518857686,351.535633479765,613.504806087112,426.090418184063,556.142287229426,674.554784704298,3,0,4,6,0,5,horizontal,horizontal,horizontal,vertical,horizontal,vertical
1b,10,100195,1,4,4,20,M,NA,constant,heterogeneous,6,absent,NaN,0,vertical,none,0,0.835292205104121,green,4,NaN,760.109211414741,348.13947314824,NaN,NaN,839.890788585259,851.86052685176,1038.06300875679,691.383827134052,998.172220171528,439.523300282291,760.109211414741,348.13947314824,561.936991243214,508.616172865948,601.827779828472,760.476699717708,0,5,6,4,3,5,horizontal,vertical,vertical,vertical,vertical,vertical
1b,10,100195,1,5,5,20,M,NA,constant,heterogeneous,4,absent,0.993281841278076,0,vertical,horizontal,1,0.611764610255206,green,4,NaN,546.900731331463,568.923317431687,NaN,NaN,768.923317431687,853.099268668537,1053.09926866854,631.076682568313,831.076682568313,346.900731331463,546.900731331463,568.923317431687,0,0,0,0,5,0,6,4,NaN,NaN,vertical,horizontal,horizontal,vertical,none,none
1b,10,100195,1,6,6,20,M,NA,constant,heterogeneous,5,absent,NaN,0,horizontal,none,0,0.623529220510412,green,1,NaN,831.076682568313,853.099268668537,NaN,NaN,831.076682568313,853.099268668537,1050.31493177915,648.656293821019,923.626453162816,376.971974679454,626.090418184063,413.504806087112,568.891514305654,707.767656743878,0,0,4,6,3,0,5,NaN,horizontal,vertical,vertical,horizontal,vertical,none
1b,10,100195,1,7,7,20,M,NA,constant,heterogeneous,6,absent,1.72930502891541,0,vertical,horizontal,1,0.764704543572885,green,6,NaN,610.498069503264,770.628304621509,NaN,NaN,853.017481158529,849.42763818712,1042.51941165526,678.799333565612,989.501930496736,429.371695378491,746.982518841471,350.57236181288,557.480588344736,521.200666434388,610.498069503264,770.628304621509,0,6,0,3,5,4,vertical,horizontal,horizontal,vertical,vertical,vertical
1b,10,100195,1,8,8,20,M,NA,constant,heterogeneous,5,present,1.61452794075012,1,horizontal,horizontal,1,0.917644476890564,green,2,3,1000.94274216971,756.993676208043,1011.40458100154,457.40580961496,712.784863451954,839.621618300407,1000.94274216971,756.993676208043,1011.40458100154,457.40580961496,729.712474266665,354.878267535729,545.155339110131,591.100628340862,0,0,6,4,6,0,5,NaN,vertical,horizontal,vertical,vertical,horizontal,none
1b,10,100195,1,9,9,20,M,NA,constant,heterogeneous,6,present,0.89454197883606,1,vertical,vertical,1,0.776469153828091,green,6,5,565.271262369628,699.636437764765,596.34794493794,446.537169096228,768.923317431687,853.099268668537,1003.65205506206,753.462830903772,1034.72873763037,500.363562235235,831.076682568313,346.900731331463,596.34794493794,446.537169096228,565.271262369628,699.636437764765,6,5,0,0,5,4,horizontal,vertical,horizontal,vertical,horizontal,vertical
1b,10,100195,1,10,10,20,M,NA,constant,heterogeneous,5,absent,0.868881940841675,0,horizontal,vertical,1,0.799998374338503,green,5,NaN,570.807518193712,711.784642431215,NaN,NaN,835.489140744817,852.518357529101,1051.12597701811,644.280285305067,919.715248510402,374.848363820974,622.862115532956,416.568350913644,570.807518193712,711.784642431215,0,0,5,6,3,5,4,NaN,horizontal,horizontal,horizontal,vertical,horizontal,none
1b,10,100195,1,11,11,20,M,NA,constant,heterogeneous,5,present,NaN,0,horizontal,none,0,0.623529220510412,green,4,2,596.34794493794,446.537169096228,1054.96116226488,604.450363641507,874.554784704298,843.857712770574,1054.96116226488,604.450363641507,883.019879386575,358.892763222174,596.34794493794,446.537169096228,591.116228706307,746.261991269517,0,0,0,5,6,4,5,NaN,vertical,horizontal,horizontal,horizontal,horizontal,none
1b,10,100195,1,12,12,20,M,NA,constant,heterogeneous,5,present,1.63509297370911,1,vertical,vertical,1,0.799998374338503,green,2,1,1051.86052685176,560.109211414741,915.767577433584,827.206663668034,915.767577433584,827.206663668034,1051.86052685176,560.109211414741,839.890788585259,348.13947314824,572.793336331966,484.232422566416,619.68777079743,780.31222920257,0,0,0,4,3,6,0,NaN,horizontal,vertical,horizontal,vertical,vertical,none
1b,10,100195,1,13,13,20,M,NA,constant,heterogeneous,5,present,1.98290395736694,1,vertical,vertical,1,0.741175323062473,green,1,2,729.712474266665,845.121732464271,1011.40458100154,742.594190385041,729.712474266665,845.121732464271,1011.40458100154,742.594190385041,1000.94274216971,443.006323791957,712.784863451954,360.378381699593,545.155339110131,608.899371659138,0,0,4,5,3,6,5,NaN,vertical,horizontal,horizontal,vertical,vertical,none
1b,10,100195,1,14,14,20,M,NA,constant,heterogeneous,5,present,1.1281681060791,1,horizontal,horizontal,1,0.882350646124946,green,4,2,557.480588344736,521.200666434388,1042.51941165526,521.200666434388,949.885239334581,806.299333565612,1042.51941165526,521.200666434388,800,345,557.480588344736,521.200666434388,650.114760665419,806.299333565612,0,0,3,6,5,4,5,NaN,vertical,horizontal,vertical,horizontal,vertical,none
1b,10,100195,1,15,15,20,M,NA,constant,heterogeneous,4,present,1.46754813194275,0,horizontal,vertical,1,0.823527594848915,green,4,3,601.827779828472,439.523300282291,960.476699717708,401.827779828472,639.523300282292,798.172220171528,998.172220171528,760.476699717708,960.476699717708,401.827779828472,601.827779828472,439.523300282291,0,0,0,0,3,3,5,4,NaN,NaN,vertical,vertical,horizontal,horizontal,none,none
1b,10,100195,1,16,16,20,M,NA,constant,heterogeneous,3,present,1.25055003166199,0,vertical,horizontal,1,1.08234902046345,green,3,1,556.142287229426,674.554784704298,986.495193912888,773.909581815937,986.495193912888,773.909581815937,857.362518857686,351.535633479765,556.142287229426,674.554784704298,0,0,0,0,0,0,5,6,4,NaN,NaN,NaN,vertical,vertical,vertical,none,none,none
1b,10,100195,1,17,17,20,M,NA,constant,heterogeneous,3,absent,1.14836311340332,1,vertical,vertical,1,1.03529057944262,green,1,NaN,696.282156015671,832.954091698863,NaN,NaN,696.282156015671,832.954091698863,1053.60308331891,573.345241866748,650.114760665419,393.700666434388,0,0,0,0,0,0,4,5,3,NaN,NaN,NaN,vertical,horizontal,horizontal,none,none,none
1b,10,100195,1,18,18,20,M,NA,constant,heterogeneous,3,present,0.786113023757935,1,horizontal,horizontal,1,0.729410712807267,green,1,3,646.537169096228,803.65205506206,700.363562235235,365.271262369628,646.537169096228,803.65205506206,1053.09926866854,631.076682568313,700.363562235235,365.271262369628,0,0,0,0,0,0,4,3,5,NaN,NaN,NaN,horizontal,horizontal,vertical,none,none,none
1b,10,100195,1,19,19,20,M,NA,constant,heterogeneous,3,present,0.796513080596924,0,vertical,horizontal,1,0.92940908714577,green,3,1,629.371695378491,410.498069503264,721.200666434388,842.519411655264,721.200666434388,842.519411655264,1049.42763818712,546.982518841471,629.371695378491,410.498069503264,0,0,0,0,0,0,0,5,4,NaN,NaN,NaN,horizontal,vertical,vertical,none,none,none
1b,10,100195,1,20,20,20,M,NA,constant,heterogeneous,3,absent,1.25913596153259,1,horizontal,horizontal,1,0.92940908714577,green,1,NaN,764.510859255183,852.518357529101,NaN,NaN,764.510859255183,852.518357529101,1036.43188291453,504.475318678942,599.057257830286,443.006323791957,0,0,0,0,0,0,4,5,0,NaN,NaN,NaN,horizontal,vertical,vertical,none,none,none
1b,10,100195,1,21,21,20,M,NA,constant,heterogeneous,5,present,1.04349803924561,1,vertical,vertical,1,0.92940908714577,green,1,5,664.870587620533,816.252264519889,552.574589799621,538.309916622085,664.870587620533,816.252264519889,963.910840470068,795.341332995339,1036.43188291453,504.475318678942,782.212099195248,345.621167183745,552.574589799621,538.309916622085,0,0,4,5,3,0,6,NaN,vertical,vertical,vertical,horizontal,horizontal,none
1b,10,100195,1,22,22,20,M,NA,constant,heterogeneous,3,absent,1.09901404380798,1,vertical,vertical,1,0.92940908714577,green,2,NaN,1038.06300875679,691.383827134052,NaN,NaN,601.827779828472,760.476699717708,1038.06300875679,691.383827134052,760.109211414741,348.13947314824,0,0,0,0,0,0,5,4,3,NaN,NaN,NaN,vertical,vertical,horizontal,none,none,none
1b,10,100195,1,23,23,20,M,NA,constant,heterogeneous,3,absent,1.137610912323,1,horizontal,horizontal,1,1.04705518969783,green,3,NaN,764.510859255183,347.4816424709,NaN,NaN,599.057257830286,756.993676208043,1036.43188291453,695.524681321058,764.510859255183,347.4816424709,0,0,0,0,0,0,6,6,4,NaN,NaN,NaN,horizontal,vertical,horizontal,none,none,none
1b,10,100195,1,24,24,20,M,NA,constant,heterogeneous,4,present,1.89120602607727,0,horizontal,vertical,1,0.729410712807267,green,3,4,874.554784704298,356.142287229426,556.142287229426,525.445215295702,725.445215295702,843.857712770574,1043.85771277057,674.554784704298,874.554784704298,356.142287229426,556.142287229426,525.445215295702,0,0,0,0,5,0,4,5,NaN,NaN,horizontal,horizontal,horizontal,horizontal,none,none
1b,10,100195,1,25,25,20,M,NA,constant,heterogeneous,6,absent,NaN,0,horizontal,none,0,0.788233764083297,green,4,NaN,777.775285599347,345.970351986605,NaN,NaN,822.224714400653,854.029648013395,1031.10848569435,707.767656743878,1008.88377129369,453.738008730483,777.775285599347,345.970351986605,568.891514305654,492.232343256122,591.116228706307,746.261991269517,3,5,3,4,6,5,horizontal,horizontal,horizontal,horizontal,vertical,horizontal
1b,10,100195,1,26,26,20,M,NA,constant,heterogeneous,4,present,1.04029417037964,1,horizontal,horizontal,1,0.941173697400976,green,1,2,657.405809614959,811.404581001536,1011.40458100154,742.594190385041,657.405809614959,811.404581001536,1011.40458100154,742.594190385041,942.594190385041,388.595418998464,588.595418998464,457.40580961496,0,0,0,0,4,6,5,5,NaN,NaN,horizontal,vertical,vertical,vertical,none,none
1b,10,100195,1,27,27,20,M,NA,constant,heterogeneous,3,absent,0.923104047775269,1,vertical,vertical,1,0.894115256380152,green,2,NaN,887.215136548046,360.378381699593,NaN,NaN,963.910840470068,795.341332995339,887.215136548046,360.378381699593,548.874022981887,644.280285305067,0,0,0,0,0,0,6,4,0,NaN,NaN,NaN,horizontal,vertical,vertical,none,none,none
1b,10,100195,1,28,28,20,M,NA,constant,heterogeneous,4,absent,NaN,0,horizontal,none,0,0.823527594848915,green,1,NaN,760.109211414741,851.86052685176,NaN,NaN,760.109211414741,851.86052685176,1051.86052685176,639.890788585259,839.890788585259,348.13947314824,548.13947314824,560.109211414741,0,0,0,0,4,5,0,3,NaN,NaN,horizontal,vertical,horizontal,vertical,none,none
1b,10,100195,1,29,29,20,M,NA,constant,heterogeneous,3,absent,0.879047870635986,1,horizontal,horizontal,1,0.823527594848915,green,1,NaN,607.549057043193,767.295052392579,NaN,NaN,607.549057043193,767.295052392579,1041.10723677783,683.019879386575,751.343706178981,349.685068220846,0,0,0,0,0,0,4,3,6,NaN,NaN,NaN,horizontal,vertical,vertical,none,none,none
1b,10,100195,1,30,30,20,M,NA,constant,heterogeneous,4,present,1.19068193435669,0,vertical,horizontal,1,0.917644476890564,green,3,2,704.475318678942,363.568117085469,1036.43188291453,504.475318678942,895.524681321058,836.431882914531,1036.43188291453,504.475318678942,704.475318678942,363.568117085469,563.568117085469,695.524681321058,0,0,0,0,3,5,4,6,NaN,NaN,vertical,horizontal,vertical,vertical,none,none
1b,10,100195,1,31,31,20,M,NA,constant,heterogeneous,3,present,1.37155699729919,1,horizontal,horizontal,1,0.635293830765618,green,3,2,746.982518841471,350.57236181288,1042.51941165526,678.799333565612,610.498069503264,770.628304621509,1042.51941165526,678.799333565612,746.982518841471,350.57236181288,0,0,0,0,0,0,6,5,4,NaN,NaN,NaN,horizontal,horizontal,horizontal,none,none,none
1b,10,100195,1,32,32,20,M,NA,constant,heterogeneous,4,absent,1.6759979724884,0,vertical,horizontal,1,0.847056815359328,green,1,NaN,915.767577433584,827.206663668034,NaN,NaN,915.767577433584,827.206663668034,1027.20666366803,484.232422566416,684.232422566416,372.793336331966,572.793336331966,715.767577433584,0,0,0,0,4,0,6,5,NaN,NaN,vertical,horizontal,vertical,vertical,none,none
1b,10,100195,1,33,33,20,M,NA,constant,heterogeneous,6,present,NaN,0,horizontal,none,0,0.92940908714577,green,4,5,688.215357568785,370.807518193712,545.621167183745,582.212099195248,911.784642431215,829.192481806288,1054.37883281626,617.787900804752,942.594190385041,388.595418998464,688.215357568785,370.807518193712,545.621167183745,582.212099195248,657.405809614959,811.404581001536,6,5,5,4,0,3,vertical,horizontal,horizontal,horizontal,horizontal,horizontal
1b,10,100195,1,34,34,20,M,NA,constant,heterogeneous,6,absent,1.83934712409973,0,vertical,horizontal,1,0.941173697400976,green,3,NaN,946.261991269517,391.116228706307,NaN,NaN,907.767656743878,831.108485694346,1054.0296480134,622.224714400653,946.261991269517,391.116228706307,692.232343256122,368.891514305654,545.970351986605,577.775285599347,653.738008730483,808.883771293693,6,3,4,0,5,3,vertical,vertical,vertical,horizontal,vertical,vertical
1b,10,100195,1,35,35,20,M,NA,constant,heterogeneous,4,present,1.76708197593689,1,vertical,vertical,1,0.92940908714577,green,3,2,848.656293821019,349.685068220846,1050.31493177915,648.656293821019,751.343706178981,850.314931779154,1050.31493177915,648.656293821019,848.656293821019,349.685068220846,549.685068220846,551.343706178981,0,0,0,0,0,5,4,3,NaN,NaN,horizontal,horizontal,vertical,horizontal,none,none
1b,10,100195,1,36,36,20,M,NA,constant,heterogeneous,5,present,1.35762906074524,0,vertical,horizontal,1,0.952938307656182,green,2,3,1054.84466088987,608.899371659138,887.215136548046,360.378381699593,870.287525733335,845.121732464271,1054.84466088987,608.899371659138,887.215136548046,360.378381699593,599.057257830286,443.006323791957,588.595418998464,742.594190385041,0,0,3,4,3,6,6,NaN,horizontal,vertical,horizontal,horizontal,vertical,none
1b,10,100195,1,37,37,20,M,NA,constant,heterogeneous,3,absent,NaN,0,vertical,none,0,1.07058441020824,green,2,NaN,1054.96116226488,604.450363641507,NaN,NaN,668.665290897936,818.577661679039,1054.96116226488,604.450363641507,676.373546837184,376.971974679454,0,0,0,0,0,0,6,4,5,NaN,NaN,NaN,vertical,vertical,vertical,none,none,none
1b,10,100195,1,38,38,20,M,NA,constant,heterogeneous,4,present,NaN,0,horizontal,none,0,0.682352271786443,green,2,3,1052.5183575291,635.489140744817,835.489140744817,347.4816424709,764.510859255183,852.518357529101,1052.5183575291,635.489140744817,835.489140744817,347.4816424709,547.481642470899,564.510859255183,0,0,0,0,3,4,0,3,NaN,NaN,vertical,horizontal,vertical,horizontal,none,none
1b,10,100195,1,39,39,20,M,NA,constant,heterogeneous,3,present,1.26957082748413,1,horizontal,horizontal,1,1.05881979995304,green,2,3,808.899371659138,345.155339110131,574.848363820974,719.715248510402,1016.25226451989,735.129412379467,808.899371659138,345.155339110131,574.848363820974,719.715248510402,0,0,0,0,0,0,3,4,5,NaN,NaN,NaN,vertical,horizontal,vertical,none,none,none
1b,10,100195,1,40,40,20,M,NA,constant,heterogeneous,4,present,0.608662128448486,1,vertical,vertical,1,1.05881979995304,green,2,3,1008.88377129369,746.261991269517,946.261991269517,391.116228706307,653.738008730483,808.883771293693,1008.88377129369,746.261991269517,946.261991269517,391.116228706307,591.116228706307,453.738008730483,0,0,0,0,6,4,3,0,NaN,NaN,vertical,vertical,vertical,vertical,none,none
1b,10,100195,1,41,41,20,M,NA,constant,heterogeneous,4,absent,NaN,0,horizontal,none,0,0.894115256380152,green,1,NaN,704.475318678942,836.431882914531,NaN,NaN,704.475318678942,836.431882914531,1036.43188291453,695.524681321058,895.524681321058,363.568117085469,563.568117085469,504.475318678942,0,0,0,0,4,6,5,6,NaN,NaN,horizontal,vertical,horizontal,vertical,none,none
1b,10,100195,1,42,42,20,M,NA,constant,heterogeneous,3,present,0.853027820587158,1,horizontal,horizontal,1,0.894115256380152,green,1,3,907.767656743878,831.108485694346,545.970351986605,577.775285599347,907.767656743878,831.108485694346,946.261991269517,391.116228706307,545.970351986605,577.775285599347,0,0,0,0,0,0,4,5,6,NaN,NaN,NaN,horizontal,vertical,vertical,none,none,none
1b,10,100195,1,43,43,20,M,NA,constant,heterogeneous,4,absent,1.09061193466187,1,horizontal,horizontal,1,0.823527594848915,green,1,NaN,653.738008730483,808.883771293693,NaN,NaN,653.738008730483,808.883771293693,1008.88377129369,746.261991269517,946.261991269517,391.116228706307,591.116228706307,453.738008730483,0,0,0,0,4,6,5,3,NaN,NaN,horizontal,vertical,horizontal,vertical,none,none
1b,10,100195,1,44,44,20,M,NA,constant,heterogeneous,6,present,NaN,0,vertical,none,0,0.741175323062473,green,3,4,960.476699717708,401.827779828472,708.616172865948,361.936991243214,891.383827134052,838.063008756786,1051.86052685176,639.890788585259,960.476699717708,401.827779828472,708.616172865948,361.936991243214,548.13947314824,560.109211414741,639.523300282292,798.172220171528,6,5,4,0,6,3,horizontal,horizontal,vertical,vertical,vertical,vertical
1b,10,100195,1,45,45,20,M,NA,constant,heterogeneous,5,present,1.72360801696777,1,horizontal,horizontal,1,0.799998374338503,green,2,5,1048.46436652023,657.362518857686,565.271262369628,699.636437764765,822.224714400653,854.029648013395,1048.46436652023,657.362518857686,931.334709102064,381.422338320961,632.704947607421,407.549057043193,565.271262369628,699.636437764765,0,0,0,4,3,6,0,NaN,horizontal,horizontal,horizontal,horizontal,vertical,none
1b,10,100195,1,46,46,20,M,NA,constant,heterogeneous,6,present,1.57308506965637,0,horizontal,vertical,1,0.741175323062473,green,3,1,970.628304621509,410.498069503264,878.799333565612,842.519411655264,878.799333565612,842.519411655264,1049.42763818712,653.017481158529,970.628304621509,410.498069503264,721.200666434388,357.480588344736,550.57236181288,546.982518841471,629.371695378491,789.501930496736,6,5,4,3,3,0,vertical,vertical,horizontal,horizontal,horizontal,horizontal
1b,10,100195,1,47,47,20,M,NA,constant,heterogeneous,5,absent,NaN,0,vertical,none,0,0.882350646124946,green,3,NaN,848.656293821019,349.685068220846,NaN,NaN,907.767656743878,831.108485694346,1053.09926866854,568.923317431687,848.656293821019,349.685068220846,576.971974679454,476.373546837184,613.504806087112,773.909581815937,0,0,0,3,4,6,0,NaN,vertical,vertical,vertical,horizontal,vertical,none
1b,10,100195,1,48,48,20,M,NA,constant,heterogeneous,4,absent,NaN,0,horizontal,none,0,1.07058441020824,green,2,NaN,1032.95409169886,496.282156015671,NaN,NaN,903.717843984329,832.954091698863,1032.95409169886,496.282156015671,696.282156015671,367.045908301137,567.045908301137,703.717843984329,0,0,0,0,0,4,3,5,NaN,NaN,vertical,horizontal,vertical,horizontal,none,none
1b,10,100195,1,49,49,20,M,NA,constant,heterogeneous,5,absent,1.94168996810913,1,vertical,vertical,1,1.07058441020824,green,4,NaN,583.747735480111,464.870587620533,NaN,NaN,895.524681321058,836.431882914531,1054.37883281626,582.212099195248,861.690083377915,352.574589799621,583.747735480111,464.870587620533,604.658667004661,763.910840470068,0,0,6,3,5,4,0,NaN,horizontal,horizontal,vertical,vertical,vertical,none
1b,10,100195,1,50,50,20,M,NA,constant,heterogeneous,5,absent,NaN,0,horizontal,none,0,0.799998374338503,green,1,NaN,777.775285599347,854.029648013395,NaN,NaN,777.775285599347,854.029648013395,1034.72873763037,699.636437764765,967.295052392579,407.549057043193,668.665290897936,381.422338320961,551.535633479765,657.362518857686,0,0,4,6,5,5,3,NaN,horizontal,vertical,vertical,vertical,vertical,none
1b,10,100195,1,51,51,20,M,NA,constant,heterogeneous,3,present,1.16585898399353,0,vertical,horizontal,1,0.635293830765618,green,1,2,980.31222920257,780.31222920257,865.998856501143,353.688914296288,980.31222920257,780.31222920257,865.998856501143,353.688914296288,553.688914296288,665.998856501143,0,0,0,0,0,0,4,5,5,NaN,NaN,NaN,vertical,horizontal,vertical,none,none,none
1b,10,100195,1,52,52,20,M,NA,constant,heterogeneous,6,absent,NaN,0,horizontal,none,0,1.07058441020824,green,5,NaN,548.874022981887,555.719714694933,NaN,NaN,887.215136548046,839.621618300407,1051.12597701811,644.280285305067,963.910840470068,404.658667004661,712.784863451954,360.378381699593,548.874022981887,555.719714694933,636.089159529932,795.341332995339,0,5,5,6,4,3,horizontal,vertical,vertical,vertical,horizontal,vertical
1b,10,100195,1,53,53,20,M,NA,constant,heterogeneous,4,absent,1.72617101669312,1,vertical,vertical,1,0.764704543572885,green,4,NaN,545,600,NaN,NaN,800,855,1055,600,800,345,545,600,0,0,0,0,6,5,0,4,NaN,NaN,horizontal,horizontal,vertical,vertical,none,none
1b,10,100195,1,54,54,20,M,NA,constant,heterogeneous,6,absent,NaN,0,horizontal,none,0,0.92940908714577,green,2,NaN,1041.10723677783,683.019879386575,NaN,NaN,848.656293821019,850.314931779154,1041.10723677783,683.019879386575,992.450942956807,432.704947607421,751.343706178981,349.685068220846,558.892763222174,516.980120613425,607.549057043193,767.295052392579,3,4,6,3,0,6,horizontal,horizontal,vertical,vertical,vertical,horizontal
1b,10,100195,1,55,55,20,M,NA,constant,heterogeneous,3,present,NaN,0,vertical,none,0,0.65882305127603,green,3,1,548.874022981887,555.719714694933,887.215136548046,839.621618300407,887.215136548046,839.621618300407,963.910840470068,404.658667004661,548.874022981887,555.719714694933,0,0,0,0,0,0,6,3,4,NaN,NaN,NaN,horizontal,vertical,vertical,none,none,none
1b,10,100195,1,56,56,20,M,NA,constant,heterogeneous,3,absent,NaN,0,horizontal,none,0,0.65882305127603,green,3,NaN,786.654331158049,345.349468637584,NaN,NaN,586.139005173917,738.882953928832,1027.20666366803,715.767577433584,786.654331158049,345.349468637584,0,0,0,0,0,0,6,0,4,NaN,NaN,NaN,horizontal,vertical,horizontal,none,none,none
1b,10,100195,1,57,57,20,M,NA,constant,heterogeneous,5,absent,1.18625807762146,0,vertical,horizontal,1,0.976467528166594,green,5,NaN,643.006323791957,800.942742169714,NaN,NaN,942.594190385041,811.404581001536,1045.12173246427,529.712474266665,808.899371659138,345.155339110131,560.378381699593,512.784863451954,643.006323791957,800.942742169714,0,0,5,3,6,3,4,NaN,vertical,vertical,horizontal,vertical,vertical,none
1b,10,100195,1,58,58,20,M,NA,constant,heterogeneous,4,absent,NaN,0,vertical,none,0,0.788233764083297,green,4,NaN,565.271262369628,699.636437764765,NaN,NaN,899.636437764765,834.728737630372,1034.72873763037,500.363562235235,700.363562235235,365.271262369628,565.271262369628,699.636437764765,0,0,0,0,0,5,6,4,NaN,NaN,horizontal,vertical,horizontal,vertical,none,none
1b,10,100195,1,59,59,20,M,NA,constant,heterogeneous,5,absent,1.65163683891296,0,vertical,horizontal,1,0.858821425614534,green,5,NaN,629.371695378491,789.501930496736,NaN,NaN,927.5,820.836477965032,1049.42763818712,546.982518841471,826.654758133252,346.39691668109,567.045908301137,496.282156015671,629.371695378491,789.501930496736,0,0,0,3,6,0,4,NaN,vertical,vertical,vertical,vertical,vertical,none
1b,10,100195,1,60,60,20,M,NA,constant,heterogeneous,4,present,1.14881610870361,1,vertical,vertical,1,0.811762984593709,green,1,4,668.665290897936,818.577661679039,581.422338320961,468.665290897936,668.665290897936,818.577661679039,1018.57766167904,731.334709102064,931.334709102064,381.422338320961,581.422338320961,468.665290897936,0,0,0,0,4,6,0,5,NaN,NaN,vertical,vertical,horizontal,horizontal,none,none
1b,10,100195,1,61,61,20,M,NA,constant,heterogeneous,6,absent,1.95085501670837,1,horizontal,horizontal,1,0.941173697400976,green,1,NaN,895.524681321058,836.431882914531,NaN,NaN,895.524681321058,836.431882914531,1052.5183575291,635.489140744817,956.993676208043,399.057257830286,704.475318678942,363.568117085469,547.481642470899,564.510859255183,643.006323791957,800.942742169714,4,5,0,0,6,5,horizontal,horizontal,horizontal,horizontal,horizontal,vertical
1b,10,100195,1,62,62,20,M,NA,constant,heterogeneous,6,present,1.27492713928223,1,horizontal,horizontal,1,1.05881979995304,green,4,3,817.787900804752,345.621167183745,1029.19248180629,488.215357568785,782.212099195248,854.378832816255,1011.40458100154,742.594190385041,1029.19248180629,488.215357568785,817.787900804752,345.621167183745,588.595418998464,457.40580961496,570.807518193712,711.784642431215,5,3,5,4,0,0,vertical,vertical,horizontal,horizontal,horizontal,horizontal
1b,10,100195,1,63,63,20,M,NA,constant,heterogeneous,6,present,0.97840404510498,0,vertical,horizontal,1,1.09411363071866,green,4,2,755.719714694933,348.874022981887,1039.62161830041,687.215136548046,844.280285305067,851.125977018113,1039.62161830041,687.215136548046,995.341332995339,436.089159529932,755.719714694933,348.874022981887,560.378381699593,512.784863451954,604.658667004661,763.910840470068,0,6,0,4,6,5,horizontal,vertical,vertical,vertical,horizontal,horizontal
1b,10,100195,1,64,64,20,M,NA,constant,heterogeneous,6,absent,1.51838397979736,0,vertical,horizontal,1,0.6,green,2,NaN,1051.12597701811,644.280285305067,NaN,NaN,887.215136548046,839.621618300407,1051.12597701811,644.280285305067,963.910840470068,404.658667004661,712.784863451954,360.378381699593,548.874022981887,555.719714694933,636.089159529932,795.341332995339,5,4,5,3,3,6,vertical,vertical,horizontal,vertical,horizontal,horizontal
1b,10,100195,2,1,65,20,M,NA,constant,heterogeneous,4,absent,0.867310047149658,0,horizontal,vertical,1,0.705881492296855,green,2,NaN,1031.10848569435,707.767656743878,NaN,NaN,692.232343256122,831.108485694346,1031.10848569435,707.767656743878,907.767656743878,368.891514305654,568.891514305654,492.232343256122,0,0,0,0,5,4,6,5,NaN,NaN,horizontal,horizontal,vertical,vertical,none,none
1b,10,100195,2,2,66,20,M,NA,constant,heterogeneous,3,present,0.76981782913208,1,horizontal,horizontal,1,0.858821425614534,green,3,2,676.373546837184,376.971974679454,1054.96116226488,604.450363641507,668.665290897936,818.577661679039,1054.96116226488,604.450363641507,676.373546837184,376.971974679454,0,0,0,0,0,0,5,5,4,NaN,NaN,NaN,vertical,vertical,horizontal,none,none,none
1b,10,100195,2,3,67,20,M,NA,constant,heterogeneous,5,present,0.722319841384888,1,horizontal,horizontal,1,0.647058441020824,green,4,5,653.738008730483,391.116228706307,556.142287229426,674.554784704298,795.549636358493,854.96116226488,1041.10723677783,683.019879386575,953.462830903772,396.34794493794,653.738008730483,391.116228706307,556.142287229426,674.554784704298,0,0,3,0,3,4,6,NaN,vertical,vertical,vertical,horizontal,vertical,none
1b,10,100195,2,4,68,20,M,NA,constant,heterogeneous,4,absent,1.72695302963257,1,vertical,vertical,1,0.905879866635358,green,4,NaN,576.971974679454,476.373546837184,NaN,NaN,676.373546837184,823.028025320546,1023.02802532055,723.626453162816,923.626453162816,376.971974679454,576.971974679454,476.373546837184,0,0,0,0,3,6,0,4,NaN,NaN,horizontal,horizontal,vertical,vertical,none,none
1b,10,100195,2,5,69,20,M,NA,constant,heterogeneous,3,present,0.544512033462524,1,vertical,vertical,1,0.941173697400976,green,1,3,953.462830903772,803.65205506206,546.900731331463,631.076682568313,953.462830903772,803.65205506206,899.636437764765,365.271262369628,546.900731331463,631.076682568313,0,0,0,0,0,0,4,5,6,NaN,NaN,NaN,vertical,horizontal,vertical,none,none,none
1b,10,100195,2,6,70,20,M,NA,constant,heterogeneous,3,absent,0.619594812393188,1,vertical,vertical,1,0.811762984593709,green,3,NaN,636.089159529932,404.658667004661,NaN,NaN,712.784863451954,839.621618300407,1051.12597701811,555.719714694933,636.089159529932,404.658667004661,0,0,0,0,0,0,0,0,4,NaN,NaN,NaN,horizontal,vertical,vertical,none,none,none
1b,10,100195,2,7,71,20,M,NA,constant,heterogeneous,4,absent,0.943902969360352,1,vertical,vertical,1,0.9882321384218,green,2,NaN,1025.15163617903,480.284751489598,NaN,NaN,919.715248510402,825.151636179026,1025.15163617903,480.284751489598,680.284751489598,374.848363820974,574.848363820974,719.715248510402,0,0,0,0,3,4,5,5,NaN,NaN,horizontal,vertical,horizontal,horizontal,none,none
1b,10,100195,2,8,72,20,M,NA,constant,heterogeneous,3,absent,0.729073047637939,0,horizontal,vertical,1,0.894115256380152,green,2,NaN,1054.0296480134,577.775285599347,NaN,NaN,692.232343256122,831.108485694346,1054.0296480134,577.775285599347,653.738008730483,391.116228706307,0,0,0,0,0,0,3,4,6,NaN,NaN,NaN,vertical,horizontal,vertical,none,none,none
1b,10,100195,2,9,73,20,M,NA,constant,heterogeneous,6,absent,1.12673807144165,1,vertical,vertical,1,0.941173697400976,green,6,NaN,572.793336331966,715.767577433584,NaN,NaN,786.654331158049,854.650531362416,1013.86099482608,738.882953928832,1027.20666366803,484.232422566416,813.345668841951,345.349468637584,586.139005173917,461.117046071168,572.793336331966,715.767577433584,5,5,0,0,6,4,vertical,horizontal,vertical,horizontal,vertical,vertical
1b,10,100195,2,10,74,20,M,NA,constant,heterogeneous,4,present,1.23919892311096,1,vertical,vertical,1,1.09411363071866,green,1,2,808.899371659138,854.844660889869,1054.84466088987,591.100628340862,808.899371659138,854.844660889869,1054.84466088987,591.100628340862,791.100628340862,345.155339110131,545.155339110131,608.899371659138,0,0,0,0,4,3,0,6,NaN,NaN,vertical,horizontal,vertical,horizontal,none,none
1b,10,100195,2,11,75,20,M,NA,constant,heterogeneous,3,absent,0.820048809051514,1,horizontal,horizontal,1,1.01176135893221,green,2,NaN,967.295052392579,407.549057043193,NaN,NaN,883.019879386575,841.107236777826,967.295052392579,407.549057043193,549.685068220846,551.343706178981,0,0,0,0,0,0,6,4,6,NaN,NaN,NaN,vertical,horizontal,horizontal,none,none,none
1b,10,100195,2,12,76,20,M,NA,constant,heterogeneous,6,absent,1.76804399490356,0,horizontal,vertical,1,0.964702917911388,green,2,NaN,1055,600,NaN,NaN,927.5,820.836477965032,1055,600,927.5,379.163522034968,672.5,379.163522034968,545,600,672.5,820.836477965032,6,4,6,5,3,3,horizontal,horizontal,vertical,horizontal,horizontal,vertical
1b,10,100195,2,13,77,20,M,NA,constant,heterogeneous,6,present,NaN,0,horizontal,none,0,0.941173697400976,green,6,1,629.371695378491,789.501930496736,878.799333565612,842.519411655264,878.799333565612,842.519411655264,1049.42763818712,653.017481158529,970.628304621509,410.498069503264,721.200666434388,357.480588344736,550.57236181288,546.982518841471,629.371695378491,789.501930496736,0,3,5,0,3,4,horizontal,vertical,horizontal,vertical,vertical,horizontal
1b,10,100195,2,14,78,20,M,NA,constant,heterogeneous,3,present,1.12076807022095,1,horizontal,horizontal,1,0.894115256380152,green,1,2,601.827779828472,760.476699717708,1038.06300875679,691.383827134052,601.827779828472,760.476699717708,1038.06300875679,691.383827134052,760.109211414741,348.13947314824,0,0,0,0,0,0,4,6,6,NaN,NaN,NaN,horizontal,horizontal,vertical,none,none,none
1b,10,100195,2,15,79,20,M,NA,constant,heterogeneous,6,absent,NaN,0,vertical,none,0,0.647058441020824,green,2,NaN,1048.46436652023,657.362518857686,NaN,NaN,874.554784704298,843.857712770574,1048.46436652023,657.362518857686,973.909581815937,413.504806087112,725.445215295702,356.142287229426,551.535633479765,542.637481142314,626.090418184063,786.495193912888,6,4,3,0,5,3,vertical,vertical,horizontal,vertical,horizontal,vertical
1b,10,100195,2,16,80,20,M,NA,constant,heterogeneous,3,present,1.22912096977234,0,vertical,horizontal,1,0.823527594848915,green,2,1,935.129412379467,383.747735480111,919.715248510402,825.151636179026,919.715248510402,825.151636179026,935.129412379467,383.747735480111,545.155339110131,591.100628340862,0,0,0,0,0,0,5,4,6,NaN,NaN,NaN,horizontal,vertical,vertical,none,none,none
1b,10,100195,2,17,81,20,M,NA,constant,heterogeneous,3,absent,0.817857027053833,1,vertical,vertical,1,0.6,green,3,NaN,579.163522034968,472.5,NaN,NaN,800,855,1020.83647796503,472.5,579.163522034968,472.5,0,0,0,0,0,0,6,6,4,NaN,NaN,NaN,horizontal,horizontal,vertical,none,none,none
1b,10,100195,2,18,82,20,M,NA,constant,heterogeneous,5,absent,0.728511810302734,1,vertical,vertical,1,0.705881492296855,green,2,NaN,1054.65053136242,586.654331158049,NaN,NaN,891.383827134052,838.063008756786,1054.65053136242,586.654331158049,865.998856501143,353.688914296288,586.139005173917,461.117046071168,601.827779828472,760.476699717708,0,0,5,4,0,3,5,NaN,horizontal,vertical,vertical,horizontal,horizontal,none
1b,10,100195,2,19,83,20,M,NA,constant,heterogeneous,6,present,0.702144145965576,1,vertical,vertical,1,0.741175323062473,green,3,6,1055,600,545,600,672.5,820.836477965032,927.5,820.836477965032,1055,600,927.5,379.163522034968,672.5,379.163522034968,545,600,6,3,4,5,0,0,horizontal,vertical,vertical,horizontal,vertical,horizontal
1b,10,100195,2,20,84,20,M,NA,constant,heterogeneous,3,absent,0.981544971466064,1,horizontal,horizontal,1,0.87058603586974,green,1,NaN,1016.25226451989,735.129412379467,NaN,NaN,1016.25226451989,735.129412379467,808.899371659138,345.155339110131,574.848363820974,719.715248510402,0,0,0,0,0,0,4,3,5,NaN,NaN,NaN,horizontal,vertical,vertical,none,none,none
1b,10,100195,2,21,85,20,M,NA,constant,heterogeneous,6,absent,1.4347779750824,1,horizontal,horizontal,1,0.670587661531236,green,5,NaN,664.870587620533,383.747735480111,NaN,NaN,680.284751489598,825.151636179026,935.129412379467,816.252264519889,1054.84466088987,591.100628340862,919.715248510402,374.848363820974,664.870587620533,383.747735480111,545.155339110131,608.899371659138,6,3,0,5,4,6,vertical,vertical,horizontal,vertical,horizontal,vertical
1b,10,100195,2,22,86,20,M,NA,constant,heterogeneous,3,present,1.11260294914246,1,vertical,vertical,1,0.635293830765618,green,3,2,688.215357568785,370.807518193712,1054.37883281626,617.787900804752,657.405809614959,811.404581001536,1054.37883281626,617.787900804752,688.215357568785,370.807518193712,0,0,0,0,0,0,6,0,4,NaN,NaN,NaN,vertical,vertical,vertical,none,none,none
1b,10,100195,2,23,87,20,M,NA,constant,heterogeneous,6,present,NaN,0,vertical,none,0,0.92940908714577,green,1,5,907.767656743878,831.108485694346,545.970351986605,577.775285599347,907.767656743878,831.108485694346,1054.0296480134,622.224714400653,946.261991269517,391.116228706307,692.232343256122,368.891514305654,545.970351986605,577.775285599347,653.738008730483,808.883771293693,4,3,6,0,0,5,vertical,horizontal,vertical,horizontal,vertical,horizontal
1b,10,100195,2,24,88,20,M,NA,constant,heterogeneous,3,absent,1.17380785942078,1,vertical,vertical,1,0.999996748677006,green,1,NaN,768.923317431687,853.099268668537,NaN,NaN,768.923317431687,853.099268668537,1034.72873763037,500.363562235235,596.34794493794,446.537169096228,0,0,0,0,0,0,4,6,0,NaN,NaN,NaN,vertical,horizontal,horizontal,none,none,none
1b,10,100195,2,25,89,20,M,NA,constant,heterogeneous,5,present,0.777179002761841,1,vertical,vertical,1,0.788233764083297,green,2,3,1029.19248180629,711.784642431215,977.137884467044,416.568350913644,764.510859255183,852.518357529101,1029.19248180629,711.784642431215,977.137884467044,416.568350913644,680.284751489598,374.848363820974,548.874022981887,644.280285305067,0,0,5,4,6,5,3,NaN,horizontal,vertical,horizontal,vertical,vertical,none
1b,10,100195,2,26,90,20,M,NA,constant,heterogeneous,5,absent,0.753711938858032,0,horizontal,vertical,1,0.835292205104121,green,1,NaN,883.019879386575,841.107236777826,NaN,NaN,883.019879386575,841.107236777826,1054.96116226488,595.549636358493,874.554784704298,356.142287229426,591.116228706307,453.738008730483,596.34794493794,753.462830903772,0,0,4,0,0,3,6,NaN,horizontal,vertical,vertical,horizontal,vertical,none
1b,10,100195,2,27,91,20,M,NA,constant,heterogeneous,4,present,0.909963130950928,1,horizontal,horizontal,1,1.04705518969783,green,3,2,835.489140744817,347.4816424709,1052.5183575291,635.489140744817,764.510859255183,852.518357529101,1052.5183575291,635.489140744817,835.489140744817,347.4816424709,547.481642470899,564.510859255183,0,0,0,0,6,0,4,6,NaN,NaN,horizontal,vertical,horizontal,horizontal,none,none
1b,10,100195,2,28,92,20,M,NA,constant,heterogeneous,5,absent,1.33909606933594,1,vertical,vertical,1,0.941173697400976,green,1,NaN,817.787900804752,854.378832816255,NaN,NaN,817.787900804752,854.378832816255,1047.42541020038,661.690083377915,935.129412379467,383.747735480111,636.089159529932,404.658667004661,563.568117085469,695.524681321058,0,0,4,0,3,5,5,NaN,vertical,horizontal,horizontal,vertical,horizontal,none
1b,10,100195,2,29,93,20,M,NA,constant,heterogeneous,4,present,0.878390073776245,1,horizontal,horizontal,1,0.623529220510412,green,3,2,777.775285599347,345.970351986605,1054.0296480134,577.775285599347,822.224714400653,854.029648013395,1054.0296480134,577.775285599347,777.775285599347,345.970351986605,545.970351986605,622.224714400653,0,0,0,0,0,3,4,3,NaN,NaN,vertical,horizontal,horizontal,horizontal,none,none
1b,10,100195,2,30,94,20,M,NA,constant,heterogeneous,6,absent,NaN,0,horizontal,none,0,0.635293830765618,green,6,NaN,574.848363820974,719.715248510402,NaN,NaN,791.100628340862,854.844660889869,1016.25226451989,735.129412379467,1025.15163617903,480.284751489598,808.899371659138,345.155339110131,583.747735480111,464.870587620533,574.848363820974,719.715248510402,5,3,6,3,6,4,horizontal,horizontal,horizontal,vertical,horizontal,horizontal
1b,10,100195,2,31,95,20,M,NA,constant,heterogeneous,5,present,1.28751802444458,1,vertical,vertical,1,0.717646102552061,green,2,4,1053.09926866854,568.923317431687,576.971974679454,476.373546837184,907.767656743878,831.108485694346,1053.09926866854,568.923317431687,848.656293821019,349.685068220846,576.971974679454,476.373546837184,613.504806087112,773.909581815937,0,0,5,4,3,3,6,NaN,horizontal,vertical,vertical,vertical,vertical,none
1b,10,100195,2,32,96,20,M,NA,constant,heterogeneous,3,absent,0.725960969924927,1,horizontal,horizontal,1,0.835292205104121,green,3,NaN,639.523300282292,401.827779828472,NaN,NaN,708.616172865948,838.063008756786,1051.86052685176,560.109211414741,639.523300282292,401.827779828472,0,0,0,0,0,0,6,6,4,NaN,NaN,NaN,horizontal,horizontal,horizontal,none,none,none
1b,10,100195,2,33,97,20,M,NA,constant,heterogeneous,5,absent,1.34216523170471,1,vertical,vertical,1,0.670587661531236,green,5,NaN,548.13947314824,560.109211414741,NaN,NaN,684.232422566416,827.206663668034,980.31222920257,780.31222920257,1027.20666366803,484.232422566416,760.109211414741,348.13947314824,548.13947314824,560.109211414741,0,0,6,3,5,3,4,NaN,vertical,vertical,vertical,vertical,vertical,none
1b,10,100195,2,34,98,20,M,NA,constant,heterogeneous,4,present,NaN,0,vertical,none,0,0.905879866635358,green,4,1,581.422338320961,731.334709102064,931.334709102064,818.577661679039,931.334709102064,818.577661679039,1018.57766167904,468.665290897936,668.665290897936,381.422338320961,581.422338320961,731.334709102064,0,0,0,0,0,3,3,4,NaN,NaN,vertical,vertical,horizontal,vertical,none,none
1b,10,100195,2,35,99,20,M,NA,constant,heterogeneous,4,absent,NaN,0,vertical,none,0,0.776469153828091,green,4,NaN,601.827779828472,760.476699717708,NaN,NaN,960.476699717708,798.172220171528,998.172220171528,439.523300282291,639.523300282292,401.827779828472,601.827779828472,760.476699717708,0,0,0,0,3,0,5,4,NaN,NaN,vertical,horizontal,vertical,vertical,none,none
1b,10,100195,2,36,100,20,M,NA,constant,heterogeneous,5,absent,1.51153683662415,1,horizontal,horizontal,1,0.611764610255206,green,5,NaN,626.090418184063,786.495193912888,NaN,NaN,923.626453162816,823.028025320546,1050.31493177915,551.343706178981,831.076682568313,346.900731331463,568.891514305654,492.232343256122,626.090418184063,786.495193912888,0,0,6,3,0,5,4,NaN,vertical,vertical,vertical,vertical,horizontal,none
1b,10,100195,2,37,101,20,M,NA,constant,heterogeneous,5,absent,1.20712804794312,0,vertical,horizontal,1,0.65882305127603,green,5,NaN,545.621167183745,617.787900804752,NaN,NaN,738.309916622085,847.425410200379,1016.25226451989,735.129412379467,995.341332995339,436.089159529932,704.475318678942,363.568117085469,545.621167183745,617.787900804752,0,0,0,3,0,6,4,NaN,vertical,vertical,vertical,horizontal,vertical,none
1b,10,100195,2,38,102,20,M,NA,constant,heterogeneous,6,present,1.82283687591553,0,horizontal,vertical,1,0.764704543572885,green,1,6,786.654331158049,854.650531362416,572.793336331966,715.767577433584,786.654331158049,854.650531362416,1013.86099482608,738.882953928832,1027.20666366803,484.232422566416,813.345668841951,345.349468637584,586.139005173917,461.117046071168,572.793336331966,715.767577433584,4,6,6,5,3,5,horizontal,horizontal,vertical,horizontal,horizontal,vertical
1b,10,100195,2,39,103,20,M,NA,constant,heterogeneous,3,present,0.694852113723755,1,horizontal,horizontal,1,0.764704543572885,green,2,3,1053.60308331891,626.654758133252,696.282156015671,367.045908301137,650.114760665419,806.299333565612,1053.60308331891,626.654758133252,696.282156015671,367.045908301137,0,0,0,0,0,0,0,4,0,NaN,NaN,NaN,vertical,horizontal,vertical,none,none,none
1b,10,100195,2,40,104,20,M,NA,constant,heterogeneous,5,absent,1.38524889945984,1,horizontal,horizontal,1,0.811762984593709,green,1,NaN,931.334709102064,818.577661679039,NaN,NaN,931.334709102064,818.577661679039,1048.46436652023,542.637481142314,822.224714400653,345.970351986605,565.271262369628,500.363562235235,632.704947607421,792.450942956807,0,0,4,0,0,3,3,NaN,horizontal,horizontal,vertical,vertical,horizontal,none
1b,10,100195,2,41,105,20,M,NA,constant,heterogeneous,4,present,0.883815050125122,1,vertical,vertical,1,0.952938307656182,green,2,3,1054.0296480134,577.775285599347,777.775285599347,345.970351986605,822.224714400653,854.029648013395,1054.0296480134,577.775285599347,777.775285599347,345.970351986605,545.970351986605,622.224714400653,0,0,0,0,0,4,5,3,NaN,NaN,horizontal,vertical,horizontal,vertical,none,none
1b,10,100195,2,42,106,20,M,NA,constant,heterogeneous,4,absent,1.42007207870483,1,horizontal,horizontal,1,0.905879866635358,green,1,NaN,657.405809614959,811.404581001536,NaN,NaN,657.405809614959,811.404581001536,1011.40458100154,742.594190385041,942.594190385041,388.595418998464,588.595418998464,457.40580961496,0,0,0,0,4,0,0,6,NaN,NaN,horizontal,vertical,horizontal,horizontal,none,none
1b,10,100195,2,43,107,20,M,NA,constant,heterogeneous,5,present,0.872479915618896,1,horizontal,horizontal,1,1.01176135893221,green,5,2,545.155339110131,591.100628340862,1000.94274216971,756.993676208043,712.784863451954,839.621618300407,1000.94274216971,756.993676208043,1011.40458100154,457.40580961496,729.712474266665,354.878267535729,545.155339110131,591.100628340862,0,0,3,6,5,0,4,NaN,horizontal,horizontal,horizontal,vertical,horizontal,none
1b,10,100195,2,44,108,20,M,NA,constant,heterogeneous,6,absent,0.939078092575073,1,vertical,vertical,1,0.635293830765618,green,6,NaN,561.936991243214,691.383827134052,NaN,NaN,760.109211414741,851.86052685176,998.172220171528,760.476699717708,1038.06300875679,508.616172865948,839.890788585259,348.13947314824,601.827779828472,439.523300282291,561.936991243214,691.383827134052,6,5,0,3,3,4,vertical,horizontal,horizontal,vertical,horizontal,vertical
1b,10,100195,2,45,109,20,M,NA,constant,heterogeneous,6,absent,1.7036349773407,1,horizontal,horizontal,1,0.87058603586974,green,5,NaN,653.738008730483,391.116228706307,NaN,NaN,692.232343256122,831.108485694346,946.261991269517,808.883771293693,1054.0296480134,577.775285599347,907.767656743878,368.891514305654,653.738008730483,391.116228706307,545.970351986605,622.224714400653,0,3,3,6,4,5,vertical,horizontal,vertical,horizontal,horizontal,horizontal
1b,10,100195,2,46,110,20,M,NA,constant,heterogeneous,5,absent,0.84804105758667,1,horizontal,horizontal,1,0.717646102552061,green,4,NaN,643.006323791957,399.057257830286,NaN,NaN,808.899371659138,854.844660889869,1045.12173246427,670.287525733335,942.594190385041,388.595418998464,643.006323791957,399.057257830286,560.378381699593,687.215136548046,0,0,0,6,6,4,3,NaN,vertical,horizontal,vertical,horizontal,horizontal,none
1b,10,100195,2,47,111,20,M,NA,constant,heterogeneous,6,present,0.838798046112061,0,horizontal,vertical,1,0.670587661531236,green,6,2,545.970351986605,622.224714400653,946.261991269517,808.883771293693,692.232343256122,831.108485694346,946.261991269517,808.883771293693,1054.0296480134,577.775285599347,907.767656743878,368.891514305654,653.738008730483,391.116228706307,545.970351986605,622.224714400653,6,5,6,3,5,4,horizontal,horizontal,horizontal,horizontal,vertical,horizontal
1b,10,100195,2,48,112,20,M,NA,constant,heterogeneous,4,absent,NaN,0,vertical,none,0,0.905879866635358,green,3,NaN,636.089159529932,404.658667004661,NaN,NaN,963.910840470068,795.341332995339,995.341332995339,436.089159529932,636.089159529932,404.658667004661,604.658667004661,763.910840470068,0,0,0,0,0,6,4,3,NaN,NaN,horizontal,horizontal,vertical,vertical,none,none
1b,10,100195,2,49,113,20,M,NA,constant,heterogeneous,4,present,1.0584499835968,0,horizontal,vertical,1,0.623529220510412,green,1,4,911.784642431215,829.192481806288,570.807518193712,711.784642431215,911.784642431215,829.192481806288,1029.19248180629,488.215357568785,688.215357568785,370.807518193712,570.807518193712,711.784642431215,0,0,0,0,4,5,5,0,NaN,NaN,horizontal,vertical,vertical,vertical,none,none
1b,10,100195,2,50,114,20,M,NA,constant,heterogeneous,3,absent,1.25617098808289,1,vertical,vertical,1,0.811762984593709,green,1,NaN,915.767577433584,827.206663668034,NaN,NaN,915.767577433584,827.206663668034,938.882953928832,386.139005173917,545.349468637584,586.654331158049,0,0,0,0,0,0,4,6,5,NaN,NaN,NaN,vertical,vertical,horizontal,none,none,none
1b,10,100195,2,51,115,20,M,NA,constant,heterogeneous,5,present,0.931053876876831,1,horizontal,horizontal,1,0.682352271786443,green,3,5,831.076682568313,346.900731331463,626.090418184063,786.495193912888,923.626453162816,823.028025320546,1050.31493177915,551.343706178981,831.076682568313,346.900731331463,568.891514305654,492.232343256122,626.090418184063,786.495193912888,0,0,0,5,4,3,0,NaN,vertical,vertical,horizontal,horizontal,vertical,none
1b,10,100195,2,52,116,20,M,NA,constant,heterogeneous,6,present,1.14584898948669,0,vertical,horizontal,1,0.9882321384218,green,1,4,768.923317431687,853.099268668537,831.076682568313,346.900731331463,768.923317431687,853.099268668537,1003.65205506206,753.462830903772,1034.72873763037,500.363562235235,831.076682568313,346.900731331463,596.34794493794,446.537169096228,565.271262369628,699.636437764765,4,6,5,0,5,3,vertical,vertical,horizontal,vertical,horizontal,vertical
1b,10,100195,2,53,117,20,M,NA,constant,heterogeneous,4,present,1.07698488235474,1,horizontal,horizontal,1,0.835292205104121,green,1,3,835.489140744817,852.518357529101,764.510859255183,347.4816424709,835.489140744817,852.518357529101,1052.5183575291,564.510859255183,764.510859255183,347.4816424709,547.481642470899,635.489140744817,0,0,0,0,4,0,6,5,NaN,NaN,horizontal,vertical,horizontal,vertical,none,none
1b,10,100195,2,54,118,20,M,NA,constant,heterogeneous,5,present,1.33476996421814,0,vertical,horizontal,1,0.788233764083297,green,3,1,1039.62161830041,512.784863451954,657.405809614959,811.404581001536,657.405809614959,811.404581001536,956.993676208043,800.942742169714,1039.62161830041,512.784863451954,791.100628340862,345.155339110131,554.878267535729,529.712474266665,0,0,0,5,4,3,5,NaN,horizontal,horizontal,vertical,horizontal,vertical,none
1b,10,100195,2,55,119,20,M,NA,constant,heterogeneous,6,present,1.87808704376221,1,vertical,vertical,1,0.611764610255206,green,1,4,903.717843984329,832.954091698863,696.282156015671,367.045908301137,903.717843984329,832.954091698863,1053.60308331891,626.654758133252,949.885239334581,393.700666434388,696.282156015671,367.045908301137,546.39691668109,573.345241866748,650.114760665419,806.299333565612,4,0,6,3,6,5,vertical,vertical,vertical,vertical,vertical,horizontal
1b,10,100195,2,56,120,20,M,NA,constant,heterogeneous,6,absent,NaN,0,vertical,none,0,0.87058603586974,green,6,NaN,599.057257830286,756.993676208043,NaN,NaN,835.489140744817,852.518357529101,1036.43188291453,695.524681321058,1000.94274216971,443.006323791957,764.510859255183,347.4816424709,563.568117085469,504.475318678942,599.057257830286,756.993676208043,5,3,6,6,0,4,horizontal,horizontal,vertical,horizontal,vertical,vertical
1b,10,100195,2,57,121,20,M,NA,constant,heterogeneous,5,present,NaN,0,horizontal,none,0,1.01176135893221,green,4,3,568.891514305654,492.232343256122,831.076682568313,346.900731331463,923.626453162816,823.028025320546,1050.31493177915,551.343706178981,831.076682568313,346.900731331463,568.891514305654,492.232343256122,626.090418184063,786.495193912888,0,0,3,5,6,4,5,NaN,vertical,vertical,horizontal,horizontal,vertical,none
1b,10,100195,2,58,122,20,M,NA,constant,heterogeneous,4,present,0.763370037078857,0,vertical,horizontal,1,1.07058441020824,green,4,2,545.349468637584,613.345668841951,1054.65053136242,586.654331158049,813.345668841951,854.650531362416,1054.65053136242,586.654331158049,786.654331158049,345.349468637584,545.349468637584,613.345668841951,0,0,0,0,0,3,6,4,NaN,NaN,horizontal,horizontal,vertical,vertical,none,none
1b,10,100195,2,59,123,20,M,NA,constant,heterogeneous,5,present,1.13459801673889,1,vertical,vertical,1,0.788233764083297,green,1,5,907.767656743878,831.108485694346,613.504806087112,773.909581815937,907.767656743878,831.108485694346,1053.09926866854,568.923317431687,848.656293821019,349.685068220846,576.971974679454,476.373546837184,613.504806087112,773.909581815937,0,0,4,6,6,3,3,NaN,vertical,vertical,vertical,vertical,horizontal,none
1b,10,100195,2,60,124,20,M,NA,constant,heterogeneous,4,absent,1.07090091705322,1,horizontal,horizontal,1,0.682352271786443,green,1,NaN,676.373546837184,823.028025320546,NaN,NaN,676.373546837184,823.028025320546,1023.02802532055,723.626453162816,923.626453162816,376.971974679454,576.971974679454,476.373546837184,0,0,0,0,4,5,0,0,NaN,NaN,horizontal,vertical,vertical,vertical,none,none
1b,10,100195,2,61,125,20,M,NA,constant,heterogeneous,6,present,1.41554379463196,1,horizontal,horizontal,1,0.941173697400976,green,4,2,804.450363641507,345.03883773512,1018.57766167904,731.334709102064,795.549636358493,854.96116226488,1018.57766167904,731.334709102064,1023.02802532055,476.373546837184,804.450363641507,345.03883773512,581.422338320961,468.665290897936,576.971974679454,723.626453162816,5,0,3,4,0,5,vertical,horizontal,vertical,horizontal,vertical,horizontal
1b,10,100195,2,62,126,20,M,NA,constant,heterogeneous,4,absent,1.0281069278717,0,horizontal,vertical,1,1.01176135893221,green,2,NaN,1050.31493177915,648.656293821019,NaN,NaN,751.343706178981,850.314931779154,1050.31493177915,648.656293821019,848.656293821019,349.685068220846,549.685068220846,551.343706178981,0,0,0,0,5,4,3,5,NaN,NaN,horizontal,horizontal,vertical,vertical,none,none
1b,10,100195,2,63,127,20,M,NA,constant,heterogeneous,3,present,0.893792867660522,1,vertical,vertical,1,1.03529057944262,green,3,1,579.163522034968,472.5,800,855,800,855,1020.83647796503,472.5,579.163522034968,472.5,0,0,0,0,0,0,6,5,4,NaN,NaN,NaN,vertical,horizontal,vertical,none,none,none
1b,10,100195,2,64,128,20,M,NA,constant,heterogeneous,3,present,0.77619194984436,0,horizontal,vertical,1,0.811762984593709,green,3,1,548.874022981887,644.280285305067,963.910840470068,795.341332995339,963.910840470068,795.341332995339,887.215136548046,360.378381699593,548.874022981887,644.280285305067,0,0,0,0,0,0,0,3,4,NaN,NaN,NaN,horizontal,vertical,horizontal,none,none,none
1b,10,100195,3,1,129,20,M,NA,constant,heterogeneous,5,present,1.58785891532898,1,vertical,vertical,1,1.09411363071866,green,3,2,808.899371659138,345.155339110131,1045.12173246427,529.712474266665,942.594190385041,811.404581001536,1045.12173246427,529.712474266665,808.899371659138,345.155339110131,560.378381699593,512.784863451954,643.006323791957,800.942742169714,0,0,5,3,4,6,0,NaN,vertical,vertical,vertical,vertical,horizontal,none
1b,10,100195,3,2,130,20,M,NA,constant,heterogeneous,4,present,0.608913898468018,1,vertical,vertical,1,0.65882305127603,green,2,1,980.31222920257,419.68777079743,980.31222920257,780.31222920257,980.31222920257,780.31222920257,980.31222920257,419.68777079743,619.68777079743,419.68777079743,619.68777079743,780.31222920257,0,0,0,0,5,4,3,5,NaN,NaN,horizontal,vertical,vertical,horizontal,none,none
1b,10,100195,3,3,131,20,M,NA,constant,heterogeneous,5,present,1.07727980613708,1,horizontal,horizontal,1,0.999996748677006,green,5,2,579.163522034968,727.5,1053.60308331891,626.654758133252,853.017481158529,849.42763818712,1053.60308331891,626.654758133252,903.717843984329,367.045908301137,610.498069503264,429.371695378491,579.163522034968,727.5,0,0,6,3,5,3,4,NaN,horizontal,vertical,vertical,vertical,horizontal,none
1b,10,100195,3,4,132,20,M,NA,constant,heterogeneous,3,absent,0.717847108840942,0,vertical,horizontal,1,0.941173697400976,green,1,NaN,581.422338320961,731.334709102064,NaN,NaN,581.422338320961,731.334709102064,1023.02802532055,723.626453162816,795.549636358493,345.03883773512,0,0,0,0,0,0,4,5,5,NaN,NaN,NaN,vertical,horizontal,horizontal,none,none,none
1b,10,100195,3,5,133,20,M,NA,constant,heterogeneous,6,absent,1.33988904953003,1,vertical,vertical,1,0.776469153828091,green,3,NaN,1018.57766167904,468.665290897936,NaN,NaN,804.450363641507,854.96116226488,1023.02802532055,723.626453162816,1018.57766167904,468.665290897936,795.549636358493,345.03883773512,576.971974679454,476.373546837184,581.422338320961,731.334709102064,6,3,4,6,3,5,vertical,vertical,vertical,vertical,vertical,vertical
1b,10,100195,3,6,134,20,M,NA,constant,heterogeneous,3,absent,0.898577928543091,1,vertical,vertical,1,0.976467528166594,green,1,NaN,1008.88377129369,746.261991269517,NaN,NaN,1008.88377129369,746.261991269517,822.224714400653,345.970351986605,568.891514305654,707.767656743878,0,0,0,0,0,0,4,3,6,NaN,NaN,NaN,vertical,horizontal,horizontal,none,none,none
1b,10,100195,3,7,135,20,M,NA,constant,heterogeneous,4,absent,0.779698133468628,0,horizontal,vertical,1,0.764704543572885,green,2,NaN,1027.20666366803,715.767577433584,NaN,NaN,684.232422566416,827.206663668034,1027.20666366803,715.767577433584,915.767577433584,372.793336331966,572.793336331966,484.232422566416,0,0,0,0,6,4,3,5,NaN,NaN,vertical,horizontal,vertical,horizontal,none,none
1b,10,100195,3,8,136,20,M,NA,constant,heterogeneous,4,present,1.08312821388245,1,vertical,vertical,1,0.764704543572885,green,1,2,622.862115532956,783.431649086356,983.431649086356,777.137884467044,622.862115532956,783.431649086356,983.431649086356,777.137884467044,977.137884467044,416.568350913644,616.568350913644,422.862115532956,0,0,0,0,4,0,5,5,NaN,NaN,vertical,horizontal,horizontal,horizontal,none,none
1b,10,100195,3,9,137,20,M,NA,constant,heterogeneous,3,present,1.21268391609192,1,vertical,vertical,1,0.776469153828091,green,3,1,558.892763222174,516.980120613425,848.656293821019,850.314931779154,848.656293821019,850.314931779154,992.450942956807,432.704947607421,558.892763222174,516.980120613425,0,0,0,0,0,0,0,3,4,NaN,NaN,NaN,horizontal,horizontal,vertical,none,none,none
1b,10,100195,3,10,138,20,M,NA,constant,heterogeneous,3,present,0.574917078018188,1,vertical,vertical,1,1.09411363071866,green,3,1,545.03883773512,604.450363641507,931.334709102064,818.577661679039,931.334709102064,818.577661679039,923.626453162816,376.971974679454,545.03883773512,604.450363641507,0,0,0,0,0,0,6,0,4,NaN,NaN,NaN,vertical,vertical,vertical,none,none,none
1b,10,100195,3,11,139,20,M,NA,constant,heterogeneous,5,present,0.64838695526123,1,vertical,vertical,1,1.09411363071866,green,3,5,938.882953928832,386.139005173917,561.936991243214,691.383827134052,813.345668841951,854.650531362416,1046.31108570371,665.998856501143,938.882953928832,386.139005173917,639.523300282292,401.827779828472,561.936991243214,691.383827134052,0,0,3,5,4,3,0,NaN,horizontal,horizontal,vertical,vertical,horizontal,none
1b,10,100195,3,12,140,20,M,NA,constant,heterogeneous,4,absent,0.742914915084839,1,vertical,vertical,1,1.07058441020824,green,4,NaN,567.045908301137,703.717843984329,NaN,NaN,903.717843984329,832.954091698863,1032.95409169886,496.282156015671,696.282156015671,367.045908301137,567.045908301137,703.717843984329,0,0,0,0,3,5,6,4,NaN,NaN,vertical,vertical,vertical,vertical,none,none
1b,10,100195,3,13,141,20,M,NA,constant,heterogeneous,3,absent,0.518205881118774,1,horizontal,horizontal,1,0.799998374338503,green,2,NaN,1053.60308331891,573.345241866748,NaN,NaN,696.282156015671,832.954091698863,1053.60308331891,573.345241866748,650.114760665419,393.700666434388,0,0,0,0,0,0,0,4,5,NaN,NaN,NaN,vertical,horizontal,vertical,none,none,none
1b,10,100195,3,14,142,20,M,NA,constant,heterogeneous,3,absent,0.70795202255249,1,vertical,vertical,1,0.752939933317679,green,3,NaN,601.827779828472,439.523300282291,NaN,NaN,760.109211414741,851.86052685176,1038.06300875679,508.616172865948,601.827779828472,439.523300282291,0,0,0,0,0,0,6,6,4,NaN,NaN,NaN,horizontal,horizontal,vertical,none,none,none
1b,10,100195,3,15,143,20,M,NA,constant,heterogeneous,5,present,0.937451124191284,1,vertical,vertical,1,0.764704543572885,green,1,4,923.626453162816,823.028025320546,568.891514305654,492.232343256122,923.626453162816,823.028025320546,1050.31493177915,551.343706178981,831.076682568313,346.900731331463,568.891514305654,492.232343256122,626.090418184063,786.495193912888,0,0,4,5,0,5,0,NaN,vertical,vertical,horizontal,horizontal,horizontal,none
1b,10,100195,3,16,144,20,M,NA,constant,heterogeneous,5,present,1.2279109954834,1,horizontal,horizontal,1,0.976467528166594,green,3,1,835.489140744817,347.4816424709,919.715248510402,825.151636179026,919.715248510402,825.151636179026,1051.12597701811,555.719714694933,835.489140744817,347.4816424709,570.807518193712,488.215357568785,622.862115532956,783.431649086356,0,0,3,0,4,0,3,NaN,horizontal,horizontal,horizontal,vertical,horizontal,none
1b,10,100195,3,17,145,20,M,NA,constant,heterogeneous,5,absent,NaN,0,vertical,none,0,1.04705518969783,green,4,NaN,570.807518193712,488.215357568785,NaN,NaN,919.715248510402,825.151636179026,1051.12597701811,555.719714694933,835.489140744817,347.4816424709,570.807518193712,488.215357568785,622.862115532956,783.431649086356,0,0,3,3,5,4,0,NaN,horizontal,vertical,horizontal,vertical,vertical,none
1b,10,100195,3,18,146,20,M,NA,constant,heterogeneous,3,absent,1.32858490943909,1,horizontal,horizontal,1,0.741175323062473,green,2,NaN,1052.5183575291,635.489140744817,NaN,NaN,643.006323791957,800.942742169714,1052.5183575291,635.489140744817,704.475318678942,363.568117085469,0,0,0,0,0,0,3,4,6,NaN,NaN,NaN,vertical,horizontal,vertical,none,none,none
1b,10,100195,3,19,147,20,M,NA,constant,heterogeneous,5,absent,1.06521511077881,1,horizontal,horizontal,1,0.682352271786443,green,5,NaN,546.39691668109,626.654758133252,NaN,NaN,746.982518841471,849.42763818712,1020.83647796503,727.5,989.501930496736,429.371695378491,696.282156015671,367.045908301137,546.39691668109,626.654758133252,0,0,5,0,6,3,4,NaN,vertical,vertical,horizontal,horizontal,horizontal,none
1b,10,100195,3,20,148,20,M,NA,constant,heterogeneous,6,present,0.841905117034912,1,horizontal,horizontal,1,0.976467528166594,green,6,2,622.862115532956,783.431649086356,1047.42541020038,661.690083377915,870.287525733335,845.121732464271,1047.42541020038,661.690083377915,977.137884467044,416.568350913644,729.712474266665,354.878267535729,552.574589799621,538.309916622085,622.862115532956,783.431649086356,0,5,6,5,0,4,vertical,horizontal,vertical,horizontal,horizontal,horizontal
1b,10,100195,3,21,149,20,M,NA,constant,heterogeneous,6,present,1.36827611923218,1,vertical,vertical,1,0.65882305127603,green,5,3,619.68777079743,419.68777079743,1046.31108570371,534.001143498857,734.001143498857,846.311085703712,980.31222920257,780.31222920257,1046.31108570371,534.001143498857,865.998856501143,353.688914296288,619.68777079743,419.68777079743,553.688914296288,665.998856501143,0,3,3,6,4,5,vertical,horizontal,horizontal,vertical,vertical,vertical
1b,10,100195,3,22,150,20,M,NA,constant,heterogeneous,6,present,NaN,0,vertical,none,0,1.08234902046345,green,4,6,839.890788585259,348.13947314824,561.936991243214,691.383827134052,760.109211414741,851.86052685176,998.172220171528,760.476699717708,1038.06300875679,508.616172865948,839.890788585259,348.13947314824,601.827779828472,439.523300282291,561.936991243214,691.383827134052,6,0,3,4,5,5,vertical,horizontal,vertical,vertical,horizontal,horizontal
1b,10,100195,3,23,151,20,M,NA,constant,heterogeneous,4,absent,0.923145055770874,1,vertical,vertical,1,0.87058603586974,green,4,NaN,601.827779828472,760.476699717708,NaN,NaN,960.476699717708,798.172220171528,998.172220171528,439.523300282291,639.523300282292,401.827779828472,601.827779828472,760.476699717708,0,0,0,0,6,5,0,4,NaN,NaN,vertical,horizontal,vertical,vertical,none,none
1b,10,100195,3,24,152,20,M,NA,constant,heterogeneous,4,present,0.910488128662109,0,horizontal,vertical,1,0.635293830765618,green,2,1,1029.19248180629,488.215357568785,911.784642431215,829.192481806288,911.784642431215,829.192481806288,1029.19248180629,488.215357568785,688.215357568785,370.807518193712,570.807518193712,711.784642431215,0,0,0,0,6,4,5,3,NaN,NaN,horizontal,horizontal,horizontal,vertical,none,none
1b,10,100195,3,25,153,20,M,NA,constant,heterogeneous,4,present,0.815376996994019,1,vertical,vertical,1,0.729410712807267,green,4,2,549.685068220846,648.656293821019,1050.31493177915,551.343706178981,848.656293821019,850.314931779154,1050.31493177915,551.343706178981,751.343706178981,349.685068220846,549.685068220846,648.656293821019,0,0,0,0,6,0,3,4,NaN,NaN,vertical,horizontal,vertical,vertical,none,none
1b,10,100195,3,26,154,20,M,NA,constant,heterogeneous,6,absent,0.836004972457886,1,horizontal,horizontal,1,0.611764610255206,green,3,NaN,1036.43188291453,504.475318678942,NaN,NaN,764.510859255183,852.518357529101,1000.94274216971,756.993676208043,1036.43188291453,504.475318678942,835.489140744817,347.4816424709,599.057257830286,443.006323791957,563.568117085469,695.524681321058,3,6,4,0,6,5,horizontal,vertical,horizontal,vertical,vertical,vertical
1b,10,100195,3,27,155,20,M,NA,constant,heterogeneous,4,present,0.982470035552979,1,horizontal,horizontal,1,1.07058441020824,green,1,4,887.215136548046,839.621618300407,560.378381699593,687.215136548046,887.215136548046,839.621618300407,1039.62161830041,512.784863451954,712.784863451954,360.378381699593,560.378381699593,687.215136548046,0,0,0,0,4,6,5,3,NaN,NaN,horizontal,vertical,vertical,vertical,none,none
1b,10,100195,3,28,156,20,M,NA,constant,heterogeneous,5,present,0.894519805908203,1,vertical,vertical,1,0.811762984593709,green,5,2,639.523300282292,798.172220171528,1046.31108570371,534.001143498857,938.882953928832,813.860994826083,1046.31108570371,534.001143498857,813.345668841951,345.349468637584,561.936991243214,508.616172865948,639.523300282292,798.172220171528,0,0,5,5,3,6,4,NaN,horizontal,horizontal,horizontal,vertical,vertical,none
1b,10,100195,3,29,157,20,M,NA,constant,heterogeneous,4,absent,1.75863099098206,1,horizontal,horizontal,1,1.09411363071866,green,3,NaN,619.68777079743,419.68777079743,NaN,NaN,980.31222920257,780.31222920257,980.31222920257,419.68777079743,619.68777079743,419.68777079743,619.68777079743,780.31222920257,0,0,0,0,6,5,4,3,NaN,NaN,horizontal,vertical,horizontal,vertical,none,none
1b,10,100195,3,30,158,20,M,NA,constant,heterogeneous,3,present,0.733486175537109,1,horizontal,horizontal,1,0.9882321384218,green,1,3,786.654331158049,854.650531362416,586.139005173917,461.117046071168,786.654331158049,854.650531362416,1027.20666366803,484.232422566416,586.139005173917,461.117046071168,0,0,0,0,0,0,4,5,3,NaN,NaN,NaN,horizontal,vertical,vertical,none,none,none
1b,10,100195,3,31,159,20,M,NA,constant,heterogeneous,6,present,1.43394994735718,1,horizontal,horizontal,1,0.670587661531236,green,3,5,1020.83647796503,472.5,579.163522034968,472.5,800,855,1020.83647796503,727.5,1020.83647796503,472.5,800,345,579.163522034968,472.5,579.163522034968,727.5,6,3,4,5,3,0,vertical,vertical,horizontal,vertical,vertical,horizontal
1b,10,100195,3,32,160,20,M,NA,constant,heterogeneous,3,present,0.761976957321167,1,horizontal,horizontal,1,0.952938307656182,green,2,1,1020.83647796503,727.5,579.163522034968,727.5,579.163522034968,727.5,1020.83647796503,727.5,800,345,0,0,0,0,0,0,5,4,6,NaN,NaN,NaN,horizontal,horizontal,horizontal,none,none,none
1b,10,100195,3,33,161,20,M,NA,constant,heterogeneous,4,absent,1.66930603981018,1,vertical,vertical,1,0.999996748677006,green,2,NaN,1003.65205506206,446.537169096228,NaN,NaN,953.462830903772,803.65205506206,1003.65205506206,446.537169096228,646.537169096228,396.34794493794,596.34794493794,753.462830903772,0,0,0,0,6,4,5,6,NaN,NaN,horizontal,vertical,vertical,horizontal,none,none
1b,10,100195,3,34,162,20,M,NA,constant,heterogeneous,4,present,0.891381025314331,0,horizontal,vertical,1,0.823527594848915,green,4,2,549.685068220846,551.343706178981,1050.31493177915,648.656293821019,751.343706178981,850.314931779154,1050.31493177915,648.656293821019,848.656293821019,349.685068220846,549.685068220846,551.343706178981,0,0,0,0,3,5,6,4,NaN,NaN,vertical,horizontal,vertical,horizontal,none,none
1b,10,100195,3,35,163,20,M,NA,constant,heterogeneous,3,present,0.759076118469238,0,horizontal,vertical,1,1.09411363071866,green,2,3,1041.10723677783,683.019879386575,751.343706178981,349.685068220846,607.549057043193,767.295052392579,1041.10723677783,683.019879386575,751.343706178981,349.685068220846,0,0,0,0,0,0,0,4,6,NaN,NaN,NaN,horizontal,horizontal,horizontal,none,none,none
1b,10,100195,3,36,164,20,M,NA,constant,heterogeneous,5,absent,1.55272102355957,1,vertical,vertical,1,0.905879866635358,green,5,NaN,554.878267535729,670.287525733335,NaN,NaN,791.100628340862,854.844660889869,1039.62161830041,687.215136548046,956.993676208043,399.057257830286,657.405809614959,388.595418998464,554.878267535729,670.287525733335,0,0,0,5,6,6,4,NaN,horizontal,horizontal,horizontal,horizontal,vertical,none
1b,10,100195,3,37,165,20,M,NA,constant,heterogeneous,6,absent,0.853322982788086,0,vertical,horizontal,1,1.07058441020824,green,5,NaN,636.089159529932,404.658667004661,NaN,NaN,712.784863451954,839.621618300407,963.910840470068,795.341332995339,1051.12597701811,555.719714694933,887.215136548046,360.378381699593,636.089159529932,404.658667004661,548.874022981887,644.280285305067,6,0,0,3,4,5,horizontal,vertical,horizontal,horizontal,vertical,vertical
1b,10,100195,3,38,166,20,M,NA,constant,heterogeneous,5,present,0.776344060897827,1,horizontal,horizontal,1,0.882350646124946,green,4,3,657.405809614959,388.595418998464,956.993676208043,399.057257830286,791.100628340862,854.844660889869,1039.62161830041,687.215136548046,956.993676208043,399.057257830286,657.405809614959,388.595418998464,554.878267535729,670.287525733335,0,0,6,0,6,4,3,NaN,vertical,horizontal,vertical,horizontal,horizontal,none
1b,10,100195,3,39,167,20,M,NA,constant,heterogeneous,5,absent,1.09352588653564,0,horizontal,vertical,1,0.670587661531236,green,3,NaN,977.137884467044,416.568350913644,NaN,NaN,764.510859255183,852.518357529101,1029.19248180629,711.784642431215,977.137884467044,416.568350913644,680.284751489598,374.848363820974,548.874022981887,644.280285305067,0,0,3,6,4,5,5,NaN,vertical,horizontal,horizontal,horizontal,vertical,none
1b,10,100195,3,40,168,20,M,NA,constant,heterogeneous,5,absent,1.12874007225037,1,horizontal,horizontal,1,0.858821425614534,green,2,NaN,1046.31108570371,665.998856501143,NaN,NaN,813.345668841951,854.650531362416,1046.31108570371,665.998856501143,938.882953928832,386.139005173917,639.523300282292,401.827779828472,561.936991243214,691.383827134052,0,0,0,4,6,6,5,NaN,vertical,horizontal,vertical,vertical,vertical,none
1b,10,100195,3,41,169,20,M,NA,constant,heterogeneous,4,present,1.37637901306152,1,vertical,vertical,1,0.835292205104121,green,3,2,899.636437764765,365.271262369628,1034.72873763037,699.636437764765,700.363562235235,834.728737630372,1034.72873763037,699.636437764765,899.636437764765,365.271262369628,565.271262369628,500.363562235235,0,0,0,0,5,5,4,6,NaN,NaN,horizontal,horizontal,vertical,horizontal,none,none
1b,10,100195,3,42,170,20,M,NA,constant,heterogeneous,3,present,0.725093841552734,1,vertical,vertical,1,0.847056815359328,green,2,1,1054.65053136242,586.654331158049,684.232422566416,827.206663668034,684.232422566416,827.206663668034,1054.65053136242,586.654331158049,661.117046071168,386.139005173917,0,0,0,0,0,0,3,4,6,NaN,NaN,NaN,vertical,vertical,vertical,none,none,none
1b,10,100195,3,43,171,20,M,NA,constant,heterogeneous,4,absent,1.11183595657349,1,vertical,vertical,1,0.611764610255206,green,2,NaN,1013.86099482608,461.117046071168,NaN,NaN,938.882953928832,813.860994826083,1013.86099482608,461.117046071168,661.117046071168,386.139005173917,586.139005173917,738.882953928832,0,0,0,0,5,4,0,0,NaN,NaN,vertical,vertical,horizontal,horizontal,none,none
1b,10,100195,3,44,172,20,M,NA,constant,heterogeneous,3,absent,1.10910701751709,1,vertical,vertical,1,0.741175323062473,green,1,NaN,661.117046071168,813.860994826083,NaN,NaN,661.117046071168,813.860994826083,1054.65053136242,613.345668841951,684.232422566416,372.793336331966,0,0,0,0,0,0,4,3,6,NaN,NaN,NaN,vertical,horizontal,vertical,none,none,none
1b,10,100195,3,45,173,20,M,NA,constant,heterogeneous,4,absent,0.998122215270996,1,horizontal,horizontal,1,0.92940908714577,green,3,NaN,646.537169096228,396.34794493794,NaN,NaN,953.462830903772,803.65205506206,1003.65205506206,446.537169096228,646.537169096228,396.34794493794,596.34794493794,753.462830903772,0,0,0,0,6,6,4,3,NaN,NaN,vertical,vertical,horizontal,vertical,none,none
1b,10,100195,3,46,174,20,M,NA,constant,heterogeneous,4,absent,1.15921187400818,0,horizontal,vertical,1,1.04705518969783,green,3,NaN,903.717843984329,367.045908301137,NaN,NaN,696.282156015671,832.954091698863,1032.95409169886,703.717843984329,903.717843984329,367.045908301137,567.045908301137,496.282156015671,0,0,0,0,0,3,4,0,NaN,NaN,vertical,horizontal,horizontal,horizontal,none,none
1b,10,100195,3,47,175,20,M,NA,constant,heterogeneous,6,absent,1.21422386169434,0,vertical,horizontal,1,0.9882321384218,green,2,NaN,1048.46436652023,657.362518857686,NaN,NaN,874.554784704298,843.857712770574,1048.46436652023,657.362518857686,973.909581815937,413.504806087112,725.445215295702,356.142287229426,551.535633479765,542.637481142314,626.090418184063,786.495193912888,0,4,0,3,6,3,vertical,vertical,vertical,horizontal,vertical,vertical
1b,10,100195,3,48,176,20,M,NA,constant,heterogeneous,6,absent,0.784182071685791,1,horizontal,horizontal,1,0.87058603586974,green,5,NaN,548.13947314824,560.109211414741,NaN,NaN,891.383827134052,838.063008756786,1051.86052685176,639.890788585259,960.476699717708,401.827779828472,708.616172865948,361.936991243214,548.13947314824,560.109211414741,639.523300282292,798.172220171528,3,0,3,5,4,0,vertical,vertical,vertical,vertical,horizontal,horizontal
1b,10,100195,3,49,177,20,M,NA,constant,heterogeneous,6,absent,1.01592087745667,0,horizontal,vertical,1,1.01176135893221,green,1,NaN,915.767577433584,827.206663668034,NaN,NaN,915.767577433584,827.206663668034,1054.65053136242,613.345668841951,938.882953928832,386.139005173917,684.232422566416,372.793336331966,545.349468637584,586.654331158049,661.117046071168,813.860994826083,4,3,0,5,6,5,horizontal,vertical,horizontal,horizontal,vertical,horizontal
1b,10,100195,3,50,178,20,M,NA,constant,heterogeneous,3,absent,0.673693895339966,1,horizontal,horizontal,1,1.04705518969783,green,3,NaN,545.349468637584,613.345668841951,NaN,NaN,938.882953928832,813.860994826083,915.767577433584,372.793336331966,545.349468637584,613.345668841951,0,0,0,0,0,0,0,5,4,NaN,NaN,NaN,vertical,horizontal,horizontal,none,none,none
1b,10,100195,3,51,179,20,M,NA,constant,heterogeneous,6,present,1.00685405731201,1,vertical,vertical,1,0.776469153828091,green,1,2,887.215136548046,839.621618300407,1051.12597701811,644.280285305067,887.215136548046,839.621618300407,1051.12597701811,644.280285305067,963.910840470068,404.658667004661,712.784863451954,360.378381699593,548.874022981887,555.719714694933,636.089159529932,795.341332995339,4,5,5,0,3,6,vertical,horizontal,vertical,vertical,horizontal,horizontal
1b,10,100195,3,52,180,20,M,NA,constant,heterogeneous,3,present,0.652084112167358,1,horizontal,horizontal,1,0.847056815359328,green,2,1,1032.95409169886,496.282156015671,773.345241866748,853.60308331891,773.345241866748,853.60308331891,1032.95409169886,496.282156015671,593.700666434388,450.114760665419,0,0,0,0,0,0,5,4,0,NaN,NaN,NaN,vertical,horizontal,horizontal,none,none,none
1b,10,100195,3,53,181,20,M,NA,constant,heterogeneous,6,absent,1.10756206512451,1,vertical,vertical,1,0.917644476890564,green,1,NaN,700.363562235235,834.728737630372,NaN,NaN,700.363562235235,834.728737630372,953.462830903772,803.65205506206,1053.09926866854,568.923317431687,899.636437764765,365.271262369628,646.537169096228,396.34794493794,546.900731331463,631.076682568313,4,0,5,3,6,3,vertical,horizontal,vertical,horizontal,vertical,horizontal
1b,10,100195,3,54,182,20,M,NA,constant,heterogeneous,5,absent,0.737252950668335,1,vertical,vertical,1,0.964702917911388,green,2,NaN,1050.31493177915,648.656293821019,NaN,NaN,831.076682568313,853.099268668537,1050.31493177915,648.656293821019,923.626453162816,376.971974679454,626.090418184063,413.504806087112,568.891514305654,707.767656743878,0,0,3,4,0,0,3,NaN,horizontal,vertical,horizontal,vertical,horizontal,none
1b,10,100195,3,55,183,20,M,NA,constant,heterogeneous,6,present,1.65444803237915,1,horizontal,horizontal,1,0.917644476890564,green,1,3,721.200666434388,842.519411655264,1049.42763818712,546.982518841471,721.200666434388,842.519411655264,970.628304621509,789.501930496736,1049.42763818712,546.982518841471,878.799333565612,357.480588344736,629.371695378491,410.498069503264,550.57236181288,653.017481158529,4,5,5,3,3,0,horizontal,vertical,horizontal,vertical,horizontal,horizontal
1b,10,100195,3,56,184,20,M,NA,constant,heterogeneous,6,present,1.19048190116882,0,vertical,horizontal,1,0.741175323062473,green,3,1,960.476699717708,401.827779828472,891.383827134052,838.063008756786,891.383827134052,838.063008756786,1051.86052685176,639.890788585259,960.476699717708,401.827779828472,708.616172865948,361.936991243214,548.13947314824,560.109211414741,639.523300282292,798.172220171528,3,5,4,3,0,5,horizontal,horizontal,vertical,vertical,vertical,horizontal
1b,10,100195,3,57,185,20,M,NA,constant,heterogeneous,6,present,1.83621501922607,1,horizontal,horizontal,1,0.682352271786443,green,3,4,1025.15163617903,480.284751489598,808.899371659138,345.155339110131,791.100628340862,854.844660889869,1016.25226451989,735.129412379467,1025.15163617903,480.284751489598,808.899371659138,345.155339110131,583.747735480111,464.870587620533,574.848363820974,719.715248510402,3,6,4,0,5,6,horizontal,horizontal,horizontal,horizontal,horizontal,horizontal
1b,10,100195,3,58,186,20,M,NA,constant,heterogeneous,3,absent,1.09649300575256,1,horizontal,horizontal,1,0.764704543572885,green,2,NaN,1008.88377129369,453.738008730483,NaN,NaN,822.224714400653,854.029648013395,1008.88377129369,453.738008730483,568.891514305654,492.232343256122,0,0,0,0,0,0,3,4,6,NaN,NaN,NaN,horizontal,horizontal,horizontal,none,none,none
1b,10,100195,3,59,187,20,M,NA,constant,heterogeneous,3,present,1.67343401908875,1,vertical,vertical,1,0.941173697400976,green,1,3,791.100628340862,854.844660889869,583.747735480111,464.870587620533,791.100628340862,854.844660889869,1025.15163617903,480.284751489598,583.747735480111,464.870587620533,0,0,0,0,0,0,4,6,0,NaN,NaN,NaN,vertical,horizontal,horizontal,none,none,none
1b,10,100195,3,60,188,20,M,NA,constant,heterogeneous,5,present,1.0111141204834,1,horizontal,horizontal,1,1.01176135893221,green,4,2,622.862115532956,416.568350913644,1051.12597701811,644.280285305067,835.489140744817,852.518357529101,1051.12597701811,644.280285305067,919.715248510402,374.848363820974,622.862115532956,416.568350913644,570.807518193712,711.784642431215,0,0,6,3,3,4,0,NaN,vertical,vertical,vertical,horizontal,vertical,none
1b,10,100195,3,61,189,20,M,NA,constant,heterogeneous,4,present,0.908296823501587,1,horizontal,horizontal,1,0.823527594848915,green,1,2,734.001143498857,846.311085703712,1046.31108570371,665.998856501143,734.001143498857,846.311085703712,1046.31108570371,665.998856501143,865.998856501143,353.688914296288,553.688914296288,534.001143498857,0,0,0,0,4,0,3,5,NaN,NaN,horizontal,horizontal,horizontal,horizontal,none,none
1b,10,100195,3,62,190,20,M,NA,constant,heterogeneous,6,absent,1.15719985961914,1,horizontal,horizontal,1,0.92940908714577,green,3,NaN,1029.19248180629,488.215357568785,NaN,NaN,782.212099195248,854.378832816255,1011.40458100154,742.594190385041,1029.19248180629,488.215357568785,817.787900804752,345.621167183745,588.595418998464,457.40580961496,570.807518193712,711.784642431215,3,6,4,3,0,0,horizontal,vertical,horizontal,horizontal,horizontal,horizontal
1b,10,100195,3,63,191,20,M,NA,constant,heterogeneous,5,absent,1.68251204490662,1,vertical,vertical,1,0.694116882041649,green,2,NaN,1047.42541020038,661.690083377915,NaN,NaN,817.787900804752,854.378832816255,1047.42541020038,661.690083377915,935.129412379467,383.747735480111,636.089159529932,404.658667004661,563.568117085469,695.524681321058,0,0,3,4,5,0,5,NaN,vertical,vertical,vertical,vertical,horizontal,none
1b,10,100195,3,64,192,20,M,NA,constant,heterogeneous,5,absent,1.06967401504517,1,horizontal,horizontal,1,0.87058603586974,green,1,NaN,760.109211414741,851.86052685176,NaN,NaN,760.109211414741,851.86052685176,1027.20666366803,715.767577433584,980.31222920257,419.68777079743,684.232422566416,372.793336331966,548.13947314824,639.890788585259,0,0,4,5,0,0,3,NaN,horizontal,horizontal,vertical,horizontal,vertical,none
1b,10,100195,4,1,193,20,M,NA,constant,heterogeneous,3,absent,0.899966955184937,0,vertical,horizontal,1,0.999996748677006,green,2,NaN,1031.10848569435,707.767656743878,NaN,NaN,591.116228706307,746.261991269517,1031.10848569435,707.767656743878,777.775285599347,345.970351986605,0,0,0,0,0,0,6,4,5,NaN,NaN,NaN,horizontal,vertical,vertical,none,none,none
1b,10,100195,4,2,194,20,M,NA,constant,heterogeneous,3,absent,1.45725989341736,1,horizontal,horizontal,1,0.952938307656182,green,2,NaN,895.524681321058,363.568117085469,NaN,NaN,956.993676208043,800.942742169714,895.524681321058,363.568117085469,547.481642470899,635.489140744817,0,0,0,0,0,0,3,4,6,NaN,NaN,NaN,horizontal,horizontal,vertical,none,none,none
1b,10,100195,4,3,195,20,M,NA,constant,heterogeneous,3,present,1.20656394958496,0,horizontal,vertical,1,0.9882321384218,green,3,1,551.535633479765,542.637481142314,874.554784704298,843.857712770574,874.554784704298,843.857712770574,973.909581815937,413.504806087112,551.535633479765,542.637481142314,0,0,0,0,0,0,0,3,4,NaN,NaN,NaN,vertical,horizontal,horizontal,none,none,none
1b,10,100195,4,4,196,20,M,NA,constant,heterogeneous,3,absent,1.095055103302,1,vertical,vertical,1,0.611764610255206,green,1,NaN,1013.86099482608,738.882953928832,NaN,NaN,1013.86099482608,738.882953928832,813.345668841951,345.349468637584,572.793336331966,715.767577433584,0,0,0,0,0,0,4,3,6,NaN,NaN,NaN,vertical,horizontal,vertical,none,none,none
1b,10,100195,4,5,197,20,M,NA,constant,heterogeneous,6,present,1.62686204910278,1,horizontal,horizontal,1,0.682352271786443,green,4,3,712.784863451954,360.378381699593,963.910840470068,404.658667004661,887.215136548046,839.621618300407,1051.12597701811,644.280285305067,963.910840470068,404.658667004661,712.784863451954,360.378381699593,548.874022981887,555.719714694933,636.089159529932,795.341332995339,0,3,5,4,6,0,vertical,vertical,vertical,horizontal,horizontal,horizontal
1b,10,100195,4,6,198,20,M,NA,constant,heterogeneous,3,absent,0.82593297958374,1,horizontal,horizontal,1,0.717646102552061,green,1,NaN,610.498069503264,770.628304621509,NaN,NaN,610.498069503264,770.628304621509,1042.51941165526,678.799333565612,746.982518841471,350.57236181288,0,0,0,0,0,0,4,3,6,NaN,NaN,NaN,horizontal,vertical,vertical,none,none,none
1b,10,100195,4,7,199,20,M,NA,constant,heterogeneous,3,absent,0.914200067520142,1,vertical,vertical,1,0.964702917911388,green,2,NaN,1039.62161830041,687.215136548046,NaN,NaN,604.658667004661,763.910840470068,1039.62161830041,687.215136548046,755.719714694933,348.874022981887,0,0,0,0,0,0,0,4,0,NaN,NaN,NaN,horizontal,vertical,vertical,none,none,none
1b,10,100195,4,8,200,20,M,NA,constant,heterogeneous,4,absent,1.00856399536133,1,vertical,vertical,1,0.811762984593709,green,4,NaN,576.971974679454,476.373546837184,NaN,NaN,676.373546837184,823.028025320546,1023.02802532055,723.626453162816,923.626453162816,376.971974679454,576.971974679454,476.373546837184,0,0,0,0,0,6,5,4,NaN,NaN,vertical,vertical,vertical,vertical,none,none
1b,10,100195,4,9,201,20,M,NA,constant,heterogeneous,6,present,0.97704291343689,0,horizontal,vertical,1,0.811762984593709,green,3,6,986.495193912888,426.090418184063,613.504806087112,773.909581815937,857.362518857686,848.464366520235,1043.85771277057,674.554784704298,986.495193912888,426.090418184063,742.637481142314,351.535633479765,556.142287229426,525.445215295702,613.504806087112,773.909581815937,3,3,4,6,5,5,vertical,vertical,horizontal,vertical,vertical,horizontal
1b,10,100195,4,10,202,20,M,NA,constant,heterogeneous,6,present,0.689982175827026,1,vertical,vertical,1,0.65882305127603,green,3,4,953.462830903772,396.34794493794,700.363562235235,365.271262369628,899.636437764765,834.728737630372,1053.09926866854,631.076682568313,953.462830903772,396.34794493794,700.363562235235,365.271262369628,546.900731331463,568.923317431687,646.537169096228,803.65205506206,3,0,4,6,6,0,horizontal,vertical,vertical,vertical,horizontal,horizontal
1b,10,100195,4,11,203,20,M,NA,constant,heterogeneous,3,present,0.99771785736084,1,vertical,vertical,1,1.09411363071866,green,3,2,607.549057043193,432.704947607421,1041.10723677783,516.980120613425,751.343706178981,850.314931779154,1041.10723677783,516.980120613425,607.549057043193,432.704947607421,0,0,0,0,0,0,6,6,4,NaN,NaN,NaN,vertical,horizontal,vertical,none,none,none
1b,10,100195,4,12,204,20,M,NA,constant,heterogeneous,5,absent,0.803524017333984,1,vertical,vertical,1,0.682352271786443,green,5,NaN,545.970351986605,577.775285599347,NaN,NaN,700.363562235235,834.728737630372,992.450942956807,767.295052392579,1018.57766167904,468.665290897936,742.637481142314,351.535633479765,545.970351986605,577.775285599347,0,0,3,5,5,3,4,NaN,vertical,vertical,vertical,vertical,vertical,none
1b,10,100195,4,13,205,20,M,NA,constant,heterogeneous,3,present,0.771159887313843,1,vertical,vertical,1,0.964702917911388,green,1,2,935.129412379467,816.252264519889,919.715248510402,374.848363820974,935.129412379467,816.252264519889,919.715248510402,374.848363820974,545.155339110131,608.899371659138,0,0,0,0,0,0,4,3,5,NaN,NaN,NaN,vertical,vertical,vertical,none,none,none
1b,10,100195,4,14,206,20,M,NA,constant,heterogeneous,3,absent,0.871805191040039,1,vertical,vertical,1,0.65882305127603,green,3,NaN,558.892763222174,683.019879386575,NaN,NaN,992.450942956807,767.295052392579,848.656293821019,349.685068220846,558.892763222174,683.019879386575,0,0,0,0,0,0,6,3,4,NaN,NaN,NaN,horizontal,vertical,vertical,none,none,none
1b,10,100195,4,15,207,20,M,NA,constant,heterogeneous,6,present,0.847379922866821,1,vertical,vertical,1,0.694116882041649,green,5,2,596.34794493794,446.537169096228,1003.65205506206,753.462830903772,768.923317431687,853.099268668537,1003.65205506206,753.462830903772,1034.72873763037,500.363562235235,831.076682568313,346.900731331463,596.34794493794,446.537169096228,565.271262369628,699.636437764765,6,5,0,5,4,3,horizontal,horizontal,vertical,vertical,vertical,vertical
1b,10,100195,4,16,208,20,M,NA,constant,heterogeneous,5,absent,0.731930017471313,1,vertical,vertical,1,0.776469153828091,green,4,NaN,777.775285599347,345.970351986605,NaN,NaN,668.665290897936,818.577661679039,967.295052392579,792.450942956807,1034.72873763037,500.363562235235,777.775285599347,345.970351986605,551.535633479765,542.637481142314,0,0,0,6,3,4,6,NaN,vertical,horizontal,horizontal,vertical,vertical,none
1b,10,100195,4,17,209,20,M,NA,constant,heterogeneous,5,present,0.852114915847778,1,horizontal,horizontal,1,0.65882305127603,green,4,2,746.982518841471,350.57236181288,989.501930496736,770.628304621509,696.282156015671,832.954091698863,989.501930496736,770.628304621509,1020.83647796503,472.5,746.982518841471,350.57236181288,546.39691668109,573.345241866748,0,0,0,5,6,4,5,NaN,vertical,vertical,horizontal,horizontal,horizontal,none
1b,10,100195,4,18,210,20,M,NA,constant,heterogeneous,4,absent,1.05417013168335,1,vertical,vertical,1,0.858821425614534,green,3,NaN,777.775285599347,345.970351986605,NaN,NaN,822.224714400653,854.029648013395,1054.0296480134,577.775285599347,777.775285599347,345.970351986605,545.970351986605,622.224714400653,0,0,0,0,6,5,4,3,NaN,NaN,horizontal,vertical,vertical,vertical,none,none
1b,10,100195,4,19,211,20,M,NA,constant,heterogeneous,3,present,1.04669499397278,1,horizontal,horizontal,1,0.741175323062473,green,1,3,746.982518841471,849.42763818712,610.498069503264,429.371695378491,746.982518841471,849.42763818712,1042.51941165526,521.200666434388,610.498069503264,429.371695378491,0,0,0,0,0,0,4,5,5,NaN,NaN,NaN,horizontal,vertical,vertical,none,none,none
1b,10,100195,4,20,212,20,M,NA,constant,heterogeneous,6,absent,1.74942111968994,1,vertical,vertical,1,0.894115256380152,green,4,NaN,878.799333565612,357.480588344736,NaN,NaN,721.200666434388,842.519411655264,970.628304621509,789.501930496736,1049.42763818712,546.982518841471,878.799333565612,357.480588344736,629.371695378491,410.498069503264,550.57236181288,653.017481158529,0,6,3,4,6,5,horizontal,horizontal,horizontal,vertical,horizontal,horizontal
1b,10,100195,4,21,213,20,M,NA,constant,heterogeneous,4,present,0.939825057983398,0,horizontal,vertical,1,0.752939933317679,green,3,1,804.450363641507,345.03883773512,795.549636358493,854.96116226488,795.549636358493,854.96116226488,1054.96116226488,604.450363641507,804.450363641507,345.03883773512,545.03883773512,595.549636358493,0,0,0,0,5,3,4,3,NaN,NaN,vertical,vertical,horizontal,horizontal,none,none
1b,10,100195,4,22,214,20,M,NA,constant,heterogeneous,4,absent,0.782201051712036,1,vertical,vertical,1,0.964702917911388,green,3,NaN,938.882953928832,386.139005173917,NaN,NaN,661.117046071168,813.860994826083,1013.86099482608,738.882953928832,938.882953928832,386.139005173917,586.139005173917,461.117046071168,0,0,0,0,6,5,4,5,NaN,NaN,horizontal,horizontal,vertical,horizontal,none,none
1b,10,100195,4,23,215,20,M,NA,constant,heterogeneous,6,absent,0.818704843521118,1,horizontal,horizontal,1,0.823527594848915,green,4,NaN,700.363562235235,365.271262369628,NaN,NaN,899.636437764765,834.728737630372,1053.09926866854,631.076682568313,953.462830903772,396.34794493794,700.363562235235,365.271262369628,546.900731331463,568.923317431687,646.537169096228,803.65205506206,3,5,6,4,5,3,vertical,vertical,vertical,horizontal,vertical,horizontal
1b,10,100195,4,24,216,20,M,NA,constant,heterogeneous,5,present,1.20765590667725,1,horizontal,horizontal,1,0.835292205104121,green,1,5,839.890788585259,851.86052685176,572.793336331966,715.767577433584,839.890788585259,851.86052685176,1051.86052685176,639.890788585259,915.767577433584,372.793336331966,619.68777079743,419.68777079743,572.793336331966,715.767577433584,0,0,4,6,5,0,5,NaN,horizontal,horizontal,vertical,horizontal,vertical,none
1b,10,100195,4,25,217,20,M,NA,constant,heterogeneous,5,present,1.0566189289093,0,vertical,horizontal,1,0.635293830765618,green,5,3,581.422338320961,731.334709102064,899.636437764765,365.271262369628,857.362518857686,848.464366520235,1054.0296480134,622.224714400653,899.636437764765,365.271262369628,607.549057043193,432.704947607421,581.422338320961,731.334709102064,0,0,6,0,0,5,4,NaN,horizontal,horizontal,vertical,horizontal,vertical,none
1b,10,100195,4,26,218,20,M,NA,constant,heterogeneous,3,present,0.913096904754639,0,vertical,horizontal,1,0.764704543572885,green,1,3,907.767656743878,831.108485694346,545.970351986605,577.775285599347,907.767656743878,831.108485694346,946.261991269517,391.116228706307,545.970351986605,577.775285599347,0,0,0,0,0,0,4,3,5,NaN,NaN,NaN,vertical,vertical,vertical,none,none,none
1b,10,100195,4,27,219,20,M,NA,constant,heterogeneous,5,absent,0.859514951705933,1,vertical,vertical,1,0.799998374338503,green,1,NaN,692.232343256122,831.108485694346,NaN,NaN,692.232343256122,831.108485694346,986.495193912888,773.909581815937,1023.02802532055,476.373546837184,751.343706178981,349.685068220846,546.900731331463,568.923317431687,0,0,4,5,5,0,6,NaN,vertical,vertical,vertical,horizontal,vertical,none
1b,10,100195,4,28,220,20,M,NA,constant,heterogeneous,4,absent,0.788221120834351,0,horizontal,vertical,1,0.976467528166594,green,1,NaN,742.637481142314,848.464366520235,NaN,NaN,742.637481142314,848.464366520235,1048.46436652023,657.362518857686,857.362518857686,351.535633479765,551.535633479765,542.637481142314,0,0,0,0,4,0,0,6,NaN,NaN,horizontal,vertical,vertical,vertical,none,none
1b,10,100195,4,29,221,20,M,NA,constant,heterogeneous,6,absent,1.69895911216736,0,horizontal,vertical,1,0.92940908714577,green,3,NaN,1000.94274216971,443.006323791957,NaN,NaN,835.489140744817,852.518357529101,1036.43188291453,695.524681321058,1000.94274216971,443.006323791957,764.510859255183,347.4816424709,563.568117085469,504.475318678942,599.057257830286,756.993676208043,5,3,4,6,0,0,horizontal,vertical,horizontal,vertical,vertical,vertical
1b,10,100195,4,30,222,20,M,NA,constant,heterogeneous,5,absent,1.71495294570923,1,horizontal,horizontal,1,1.09411363071866,green,5,NaN,545.349468637584,586.654331158049,NaN,NaN,708.616172865948,838.063008756786,998.172220171528,760.476699717708,1013.86099482608,461.117046071168,734.001143498857,353.688914296288,545.349468637584,586.654331158049,0,0,5,6,6,5,4,NaN,vertical,vertical,horizontal,vertical,horizontal,none
1b,10,100195,4,31,223,20,M,NA,constant,heterogeneous,4,present,0.850197076797485,1,horizontal,horizontal,1,0.635293830765618,green,3,4,887.215136548046,360.378381699593,560.378381699593,512.784863451954,712.784863451954,839.621618300407,1039.62161830041,687.215136548046,887.215136548046,360.378381699593,560.378381699593,512.784863451954,0,0,0,0,0,5,4,0,NaN,NaN,vertical,vertical,horizontal,horizontal,none,none
1b,10,100195,4,32,224,20,M,NA,constant,heterogeneous,5,present,0.71930193901062,1,vertical,vertical,1,0.999996748677006,green,5,2,554.878267535729,529.712474266665,956.993676208043,800.942742169714,657.405809614959,811.404581001536,956.993676208043,800.942742169714,1039.62161830041,512.784863451954,791.100628340862,345.155339110131,554.878267535729,529.712474266665,0,0,6,3,0,5,4,NaN,horizontal,vertical,vertical,horizontal,vertical,none
1b,10,100195,4,33,225,20,M,NA,constant,heterogeneous,5,present,NaN,0,horizontal,none,0,0.705881492296855,green,4,3,646.537169096228,396.34794493794,946.261991269517,391.116228706307,804.450363641507,854.96116226488,1043.85771277057,674.554784704298,946.261991269517,391.116228706307,646.537169096228,396.34794493794,558.892763222174,683.019879386575,0,0,5,5,0,4,3,NaN,vertical,horizontal,vertical,horizontal,horizontal,none
1b,10,100195,4,34,226,20,M,NA,constant,heterogeneous,6,absent,1.29280090332031,1,vertical,vertical,1,0.811762984593709,green,3,NaN,1053.60308331891,573.345241866748,NaN,NaN,696.282156015671,832.954091698863,949.885239334581,806.299333565612,1053.60308331891,573.345241866748,903.717843984329,367.045908301137,650.114760665419,393.700666434388,546.39691668109,626.654758133252,3,6,4,0,0,5,vertical,horizontal,vertical,horizontal,horizontal,horizontal
1b,10,100195,4,35,227,20,M,NA,constant,heterogeneous,3,absent,0.684145927429199,0,horizontal,vertical,1,0.87058603586974,green,1,NaN,839.890788585259,851.86052685176,NaN,NaN,839.890788585259,851.86052685176,998.172220171528,439.523300282291,561.936991243214,508.616172865948,0,0,0,0,0,0,4,5,5,NaN,NaN,NaN,horizontal,horizontal,vertical,none,none,none
1b,10,100195,4,36,228,20,M,NA,constant,heterogeneous,5,absent,1.09960293769836,1,vertical,vertical,1,0.682352271786443,green,1,NaN,861.690083377915,847.425410200379,NaN,NaN,861.690083377915,847.425410200379,1054.37883281626,617.787900804752,895.524681321058,363.568117085469,604.658667004661,436.089159529932,583.747735480111,735.129412379467,0,0,4,3,0,5,6,NaN,vertical,horizontal,horizontal,horizontal,vertical,none
1b,10,100195,4,37,229,20,M,NA,constant,heterogeneous,4,absent,0.632266998291016,1,horizontal,horizontal,1,0.705881492296855,green,4,NaN,591.116228706307,746.261991269517,NaN,NaN,946.261991269517,808.883771293693,1008.88377129369,453.738008730483,653.738008730483,391.116228706307,591.116228706307,746.261991269517,0,0,0,0,0,5,0,4,NaN,NaN,horizontal,horizontal,vertical,horizontal,none,none
1b,10,100195,4,38,230,20,M,NA,constant,heterogeneous,5,present,1.07602620124817,0,vertical,horizontal,1,0.952938307656182,green,1,4,725.445215295702,843.857712770574,716.980120613425,358.892763222174,725.445215295702,843.857712770574,1008.88377129369,746.261991269517,1003.65205506206,446.537169096228,716.980120613425,358.892763222174,545.03883773512,604.450363641507,0,0,4,6,3,6,0,NaN,vertical,horizontal,vertical,vertical,horizontal,none
1b,10,100195,4,39,231,20,M,NA,constant,heterogeneous,3,present,0.736701965332031,0,horizontal,vertical,1,0.952938307656182,green,2,3,1053.60308331891,573.345241866748,650.114760665419,393.700666434388,696.282156015671,832.954091698863,1053.60308331891,573.345241866748,650.114760665419,393.700666434388,0,0,0,0,0,0,5,4,3,NaN,NaN,NaN,vertical,horizontal,horizontal,none,none,none
1b,10,100195,4,40,232,20,M,NA,constant,heterogeneous,4,present,0.95563006401062,1,horizontal,horizontal,1,1.02352596918742,green,1,2,891.383827134052,838.063008756786,1038.06300875679,508.616172865948,891.383827134052,838.063008756786,1038.06300875679,508.616172865948,708.616172865948,361.936991243214,561.936991243214,691.383827134052,0,0,0,0,4,0,6,5,NaN,NaN,horizontal,horizontal,horizontal,horizontal,none,none
1b,10,100195,4,41,233,20,M,NA,constant,heterogeneous,4,present,1.01713109016418,1,vertical,vertical,1,0.894115256380152,green,2,3,1055,600,800,345,800,855,1055,600,800,345,545,600,0,0,0,0,3,4,6,5,NaN,NaN,vertical,vertical,vertical,vertical,none,none
1b,10,100195,4,42,234,20,M,NA,constant,heterogeneous,4,absent,0.996437072753906,1,horizontal,horizontal,1,0.741175323062473,green,3,NaN,919.715248510402,374.848363820974,NaN,NaN,680.284751489598,825.151636179026,1025.15163617903,719.715248510402,919.715248510402,374.848363820974,574.848363820974,480.284751489598,0,0,0,0,0,3,4,6,NaN,NaN,vertical,horizontal,horizontal,horizontal,none,none
1b,10,100195,4,43,235,20,M,NA,constant,heterogeneous,6,absent,1.00868821144104,1,vertical,vertical,1,0.811762984593709,green,4,NaN,696.282156015671,367.045908301137,NaN,NaN,903.717843984329,832.954091698863,1053.60308331891,626.654758133252,949.885239334581,393.700666434388,696.282156015671,367.045908301137,546.39691668109,573.345241866748,650.114760665419,806.299333565612,0,3,3,4,6,0,vertical,vertical,vertical,vertical,horizontal,vertical
1b,10,100195,4,44,236,20,M,NA,constant,heterogeneous,4,present,1.11665010452271,1,vertical,vertical,1,0.976467528166594,green,4,2,567.045908301137,703.717843984329,1032.95409169886,496.282156015671,903.717843984329,832.954091698863,1032.95409169886,496.282156015671,696.282156015671,367.045908301137,567.045908301137,703.717843984329,0,0,0,0,0,3,5,4,NaN,NaN,vertical,horizontal,vertical,vertical,none,none
1b,10,100195,4,45,237,20,M,NA,constant,heterogeneous,3,present,0.780547142028809,0,horizontal,vertical,1,0.87058603586974,green,2,3,1029.19248180629,488.215357568785,588.595418998464,457.40580961496,782.212099195248,854.378832816255,1029.19248180629,488.215357568785,588.595418998464,457.40580961496,0,0,0,0,0,0,3,4,5,NaN,NaN,NaN,horizontal,horizontal,vertical,none,none,none
1b,10,100195,4,46,238,20,M,NA,constant,heterogeneous,5,absent,0.905572175979614,1,horizontal,horizontal,1,0.670587661531236,green,5,NaN,548.874022981887,555.719714694933,NaN,NaN,680.284751489598,825.151636179026,977.137884467044,783.431649086356,1029.19248180629,488.215357568785,764.510859255183,347.4816424709,548.874022981887,555.719714694933,0,0,6,5,0,6,4,NaN,horizontal,horizontal,horizontal,vertical,horizontal,none
1b,10,100195,4,47,239,20,M,NA,constant,heterogeneous,4,present,0.920562982559204,0,vertical,horizontal,1,0.811762984593709,green,1,3,729.712474266665,845.121732464271,870.287525733335,354.878267535729,729.712474266665,845.121732464271,1045.12173246427,670.287525733335,870.287525733335,354.878267535729,554.878267535729,529.712474266665,0,0,0,0,4,3,3,0,NaN,NaN,vertical,vertical,horizontal,vertical,none,none
1b,10,100195,4,48,240,20,M,NA,constant,heterogeneous,4,present,0.682582855224609,1,vertical,vertical,1,0.9882321384218,green,1,3,712.784863451954,839.621618300407,887.215136548046,360.378381699593,712.784863451954,839.621618300407,1039.62161830041,687.215136548046,887.215136548046,360.378381699593,560.378381699593,512.784863451954,0,0,0,0,4,3,0,5,NaN,NaN,vertical,vertical,horizontal,vertical,none,none
1b,10,100195,4,49,241,20,M,NA,constant,heterogeneous,3,absent,1.40604114532471,1,horizontal,horizontal,1,0.87058603586974,green,1,NaN,915.767577433584,827.206663668034,NaN,NaN,915.767577433584,827.206663668034,938.882953928832,386.139005173917,545.349468637584,586.654331158049,0,0,0,0,0,0,4,6,6,NaN,NaN,NaN,horizontal,vertical,horizontal,none,none,none
1b,10,100195,4,50,242,20,M,NA,constant,heterogeneous,4,present,0.872080087661743,1,horizontal,horizontal,1,0.705881492296855,green,2,1,1046.31108570371,534.001143498857,865.998856501143,846.311085703712,865.998856501143,846.311085703712,1046.31108570371,534.001143498857,734.001143498857,353.688914296288,553.688914296288,665.998856501143,0,0,0,0,6,4,6,0,NaN,NaN,horizontal,horizontal,horizontal,vertical,none,none
1b,10,100195,4,51,243,20,M,NA,constant,heterogeneous,6,present,1.22329998016357,1,vertical,vertical,1,0.670587661531236,green,1,4,712.784863451954,839.621618300407,887.215136548046,360.378381699593,712.784863451954,839.621618300407,963.910840470068,795.341332995339,1051.12597701811,555.719714694933,887.215136548046,360.378381699593,636.089159529932,404.658667004661,548.874022981887,644.280285305067,4,0,3,5,5,6,vertical,horizontal,vertical,vertical,horizontal,horizontal
1b,10,100195,4,52,244,20,M,NA,constant,heterogeneous,4,absent,1.00517082214355,1,vertical,vertical,1,0.647058441020824,green,2,NaN,992.450942956807,767.295052392579,NaN,NaN,632.704947607421,792.450942956807,992.450942956807,767.295052392579,967.295052392579,407.549057043193,607.549057043193,432.704947607421,0,0,0,0,5,4,3,3,NaN,NaN,vertical,vertical,vertical,vertical,none,none
1b,10,100195,4,53,245,20,M,NA,constant,heterogeneous,5,present,0.83418607711792,1,vertical,vertical,1,1.04705518969783,green,2,4,1054.37883281626,617.787900804752,604.658667004661,436.089159529932,861.690083377915,847.425410200379,1054.37883281626,617.787900804752,895.524681321058,363.568117085469,604.658667004661,436.089159529932,583.747735480111,735.129412379467,0,0,3,4,6,3,6,NaN,vertical,vertical,horizontal,horizontal,horizontal,none
