experiment,subject,uniqueID,block,trial,trial_cumulative,age,gender,color_cond_blocking,color_history,shape_type,set_size,distractor,rt,acc,target_orient,response_key,response_made,iti,target_color,target_item,distractor_item,target_X,target_Y,distractor_X,distractor_Y,item1_X,item1_Y,item2_X,item2_Y,item3_X,item3_Y,item4_X,item4_Y,item5_X,item5_Y,item6_X,item6_Y,item1_shape,item2_shape,item3_shape,item4_shape,item5_shape,item6_shape,item1_line,item2_line,item3_line,item4_line,item5_line,item6_line
1b,11,100196,1,1,1,22,F,NA,constant,heterogeneous,3,present,1.19601607322693,1,vertical,vertical,1,1.04704903405288,red,2,1,1023.02802532055,476.373546837184,795.549636358493,854.96116226488,795.549636358493,854.96116226488,1023.02802532055,476.373546837184,581.422338320961,468.665290897936,0,0,0,0,0,0,5,4,0,NaN,NaN,NaN,vertical,vertical,vertical,none,none,none
1b,11,100196,1,2,2,22,F,NA,constant,heterogeneous,6,absent,NaN,0,vertical,none,0,0.752937827439144,red,2,NaN,1013.86099482608,738.882953928832,NaN,NaN,786.654331158049,854.650531362416,1013.86099482608,738.882953928832,1027.20666366803,484.232422566416,813.345668841951,345.349468637584,586.139005173917,461.117046071168,572.793336331966,715.767577433584,0,4,6,6,3,0,vertical,vertical,vertical,vertical,horizontal,horizontal
1b,11,100196,1,3,3,22,F,NA,constant,heterogeneous,5,present,1.83833289146423,1,horizontal,horizontal,1,0.752937827439144,red,3,2,861.690083377915,352.574589799621,1054.37883281626,582.212099195248,895.524681321058,836.431882914531,1054.37883281626,582.212099195248,861.690083377915,352.574589799621,583.747735480111,464.870587620533,604.658667004661,763.910840470068,0,0,3,3,4,6,0,NaN,horizontal,horizontal,horizontal,vertical,horizontal,none
1b,11,100196,1,4,4,22,F,NA,constant,heterogeneous,3,present,1.39767599105835,1,horizontal,horizontal,1,0.929404551407387,red,2,3,1032.95409169886,703.717843984329,773.345241866748,346.39691668109,593.700666434388,749.885239334581,1032.95409169886,703.717843984329,773.345241866748,346.39691668109,0,0,0,0,0,0,3,4,6,NaN,NaN,NaN,vertical,horizontal,horizontal,none,none,none
1b,11,100196,1,5,5,22,F,NA,constant,heterogeneous,6,present,1.0500500202179,1,vertical,vertical,1,0.611764448264549,red,2,6,1038.06300875679,691.383827134052,601.827779828472,760.476699717708,839.890788585259,851.86052685176,1038.06300875679,691.383827134052,998.172220171528,439.523300282291,760.109211414741,348.13947314824,561.936991243214,508.616172865948,601.827779828472,760.476699717708,3,4,0,5,3,6,horizontal,vertical,vertical,vertical,vertical,vertical
1b,11,100196,1,6,6,22,F,NA,constant,heterogeneous,4,present,1.08447599411011,0,vertical,horizontal,1,0.858817861820089,red,1,3,942.594190385041,811.404581001536,657.405809614959,388.595418998464,942.594190385041,811.404581001536,1011.40458100154,457.40580961496,657.405809614959,388.595418998464,588.595418998464,742.594190385041,0,0,0,0,4,3,5,0,NaN,NaN,vertical,vertical,horizontal,vertical,none,none
1b,11,100196,1,7,7,22,F,NA,constant,heterogeneous,4,present,1.00701403617859,1,vertical,vertical,1,1.04704903405288,red,2,4,1034.72873763037,699.636437764765,565.271262369628,500.363562235235,700.363562235235,834.728737630372,1034.72873763037,699.636437764765,899.636437764765,365.271262369628,565.271262369628,500.363562235235,0,0,0,0,3,4,3,0,NaN,NaN,horizontal,vertical,vertical,horizontal,none,none
1b,11,100196,1,8,8,22,F,NA,constant,heterogeneous,5,absent,0.727924108505249,1,vertical,vertical,1,0.611764448264549,red,2,NaN,998.172220171528,760.476699717708,NaN,NaN,708.616172865948,838.063008756786,998.172220171528,760.476699717708,1013.86099482608,461.117046071168,734.001143498857,353.688914296288,545.349468637584,586.654331158049,0,0,6,4,5,0,0,NaN,horizontal,vertical,vertical,vertical,horizontal,none
1b,11,100196,1,9,9,22,F,NA,constant,heterogeneous,6,present,0.988391160964966,1,vertical,vertical,1,1.09410682711108,red,6,5,657.405809614959,811.404581001536,545.621167183745,582.212099195248,911.784642431215,829.192481806288,1054.37883281626,617.787900804752,942.594190385041,388.595418998464,688.215357568785,370.807518193712,545.621167183745,582.212099195248,657.405809614959,811.404581001536,6,0,0,3,5,4,horizontal,vertical,horizontal,horizontal,vertical,vertical
1b,11,100196,1,10,10,22,F,NA,constant,heterogeneous,6,present,1.00530099868774,1,vertical,vertical,1,0.647057793058198,red,2,1,1047.42541020038,661.690083377915,870.287525733335,845.121732464271,870.287525733335,845.121732464271,1047.42541020038,661.690083377915,977.137884467044,416.568350913644,729.712474266665,354.878267535729,552.574589799621,538.309916622085,622.862115532956,783.431649086356,6,4,3,5,0,0,horizontal,vertical,vertical,horizontal,horizontal,horizontal
1b,11,100196,1,11,11,22,F,NA,constant,heterogeneous,5,absent,1.5372428894043,1,horizontal,horizontal,1,0.776466723968243,red,3,NaN,887.215136548046,360.378381699593,NaN,NaN,870.287525733335,845.121732464271,1054.84466088987,608.899371659138,887.215136548046,360.378381699593,599.057257830286,443.006323791957,588.595418998464,742.594190385041,0,0,0,6,4,3,5,NaN,vertical,vertical,horizontal,horizontal,vertical,none
1b,11,100196,1,12,12,22,F,NA,constant,heterogeneous,5,absent,1.32217383384705,1,vertical,vertical,1,0.705880034380946,red,1,NaN,688.215357568785,829.192481806288,NaN,NaN,688.215357568785,829.192481806288,983.431649086356,777.137884467044,1025.15163617903,480.284751489598,755.719714694933,348.874022981887,547.481642470899,564.510859255183,0,0,4,0,3,3,5,NaN,vertical,vertical,horizontal,vertical,vertical,none
1b,11,100196,1,13,13,22,F,NA,constant,heterogeneous,3,absent,1.20604395866394,1,vertical,vertical,1,1.05881348231743,red,1,NaN,919.715248510402,825.151636179026,NaN,NaN,919.715248510402,825.151636179026,935.129412379467,383.747735480111,545.155339110131,591.100628340862,0,0,0,0,0,0,4,6,3,NaN,NaN,NaN,vertical,horizontal,horizontal,none,none,none
1b,11,100196,1,14,14,22,F,NA,constant,heterogeneous,4,absent,1.35951900482178,1,horizontal,horizontal,1,0.858817861820089,red,1,NaN,831.076682568313,853.099268668537,NaN,NaN,831.076682568313,853.099268668537,1053.09926866854,568.923317431687,768.923317431687,346.900731331463,546.900731331463,631.076682568313,0,0,0,0,4,5,3,0,NaN,NaN,horizontal,vertical,vertical,horizontal,none,none
1b,11,100196,1,15,15,22,F,NA,constant,heterogeneous,5,present,1.75529098510742,1,vertical,vertical,1,1.02352013752378,red,2,3,1054.96116226488,595.549636358493,874.554784704298,356.142287229426,883.019879386575,841.107236777826,1054.96116226488,595.549636358493,874.554784704298,356.142287229426,591.116228706307,453.738008730483,596.34794493794,753.462830903772,0,0,0,4,6,5,5,NaN,horizontal,vertical,horizontal,horizontal,horizontal,none
1b,11,100196,1,16,16,22,F,NA,constant,heterogeneous,5,present,0.811969995498657,1,vertical,vertical,1,0.858817861820089,red,1,5,919.715248510402,825.151636179026,622.862115532956,783.431649086356,919.715248510402,825.151636179026,1051.12597701811,555.719714694933,835.489140744817,347.4816424709,570.807518193712,488.215357568785,622.862115532956,783.431649086356,0,0,4,3,6,5,0,NaN,vertical,horizontal,vertical,horizontal,horizontal,none
1b,11,100196,1,17,17,22,F,NA,constant,heterogeneous,6,absent,1.18982791900635,1,vertical,vertical,1,1.07057793058198,red,2,NaN,1003.65205506206,753.462830903772,NaN,NaN,768.923317431687,853.099268668537,1003.65205506206,753.462830903772,1034.72873763037,500.363562235235,831.076682568313,346.900731331463,596.34794493794,446.537169096228,565.271262369628,699.636437764765,3,4,0,5,6,3,vertical,vertical,horizontal,horizontal,vertical,horizontal
1b,11,100196,1,18,18,22,F,NA,constant,heterogeneous,3,absent,1.00630712509155,1,horizontal,horizontal,1,0.823524517026441,red,2,NaN,1054.65053136242,613.345668841951,NaN,NaN,661.117046071168,813.860994826083,1054.65053136242,613.345668841951,684.232422566416,372.793336331966,0,0,0,0,0,0,0,4,6,NaN,NaN,NaN,horizontal,horizontal,horizontal,none,none,none
1b,11,100196,1,19,19,22,F,NA,constant,heterogeneous,3,present,0.908933877944946,1,vertical,vertical,1,0.717644482645495,red,3,1,721.200666434388,357.480588344736,629.371695378491,789.501930496736,629.371695378491,789.501930496736,1049.42763818712,653.017481158529,721.200666434388,357.480588344736,0,0,0,0,0,0,0,6,4,NaN,NaN,NaN,vertical,horizontal,vertical,none,none,none
1b,11,100196,1,20,20,22,F,NA,constant,heterogeneous,6,absent,1.53909301757812,1,vertical,vertical,1,0.788231172232792,red,1,NaN,773.345241866748,853.60308331891,NaN,NaN,773.345241866748,853.60308331891,1006.29933356561,749.885239334581,1032.95409169886,496.282156015671,826.654758133252,346.39691668109,593.700666434388,450.114760665419,567.045908301137,703.717843984329,4,0,3,0,6,5,vertical,horizontal,vertical,horizontal,vertical,horizontal
1b,11,100196,1,21,21,22,F,NA,constant,heterogeneous,3,present,0.787729978561401,1,horizontal,horizontal,1,1.08234237884653,red,1,2,777.775285599347,854.029648013395,1031.10848569435,492.232343256122,777.775285599347,854.029648013395,1031.10848569435,492.232343256122,591.116228706307,453.738008730483,0,0,0,0,0,0,4,0,6,NaN,NaN,NaN,horizontal,vertical,horizontal,none,none,none
1b,11,100196,1,22,22,22,F,NA,constant,heterogeneous,6,absent,1.98220181465149,0,horizontal,vertical,1,0.917640103142837,red,4,NaN,734.001143498857,353.688914296288,NaN,NaN,865.998856501143,846.311085703712,1046.31108570371,665.998856501143,980.31222920257,419.68777079743,734.001143498857,353.688914296288,553.688914296288,534.001143498857,619.68777079743,780.31222920257,3,5,3,4,0,5,vertical,horizontal,horizontal,horizontal,vertical,vertical
1b,11,100196,1,23,23,22,F,NA,constant,heterogeneous,5,present,0.939382076263428,1,vertical,vertical,1,1.07057793058198,red,4,2,725.445215295702,356.142287229426,1003.65205506206,753.462830903772,716.980120613425,841.107236777826,1003.65205506206,753.462830903772,1008.88377129369,453.738008730483,725.445215295702,356.142287229426,545.03883773512,595.549636358493,0,0,0,0,3,4,6,NaN,horizontal,vertical,horizontal,vertical,horizontal,none
1b,11,100196,1,24,24,22,F,NA,constant,heterogeneous,5,absent,1.6645040512085,1,horizontal,horizontal,1,0.717644482645495,red,3,NaN,1016.25226451989,464.870587620533,NaN,NaN,704.475318678942,836.431882914531,995.341332995339,763.910840470068,1016.25226451989,464.870587620533,738.309916622085,352.574589799621,545.621167183745,582.212099195248,0,0,5,5,4,6,0,NaN,vertical,vertical,horizontal,vertical,vertical,none
1b,11,100196,1,25,25,22,F,NA,constant,heterogeneous,3,present,1.05897808074951,1,vertical,vertical,1,1.04704903405288,red,2,3,938.882953928832,386.139005173917,545.349468637584,586.654331158049,915.767577433584,827.206663668034,938.882953928832,386.139005173917,545.349468637584,586.654331158049,0,0,0,0,0,0,3,4,6,NaN,NaN,NaN,vertical,vertical,horizontal,none,none,none
1b,11,100196,1,26,26,22,F,NA,constant,heterogeneous,3,absent,1.22224593162537,1,vertical,vertical,1,0.894111206613738,red,2,NaN,1013.86099482608,461.117046071168,NaN,NaN,813.345668841951,854.650531362416,1013.86099482608,461.117046071168,572.793336331966,484.232422566416,0,0,0,0,0,0,3,4,5,NaN,NaN,NaN,horizontal,vertical,vertical,none,none,none
1b,11,100196,1,27,27,22,F,NA,constant,heterogeneous,4,absent,1.12530994415283,1,vertical,vertical,1,0.717644482645495,red,1,NaN,817.787900804752,854.378832816255,NaN,NaN,817.787900804752,854.378832816255,1054.37883281626,582.212099195248,782.212099195248,345.621167183745,545.621167183745,617.787900804752,0,0,0,0,4,0,5,0,NaN,NaN,vertical,horizontal,horizontal,horizontal,none,none
1b,11,100196,1,28,28,22,F,NA,constant,heterogeneous,6,absent,1.47703289985657,1,horizontal,horizontal,1,1.04704903405288,red,5,NaN,610.498069503264,429.371695378491,NaN,NaN,746.982518841471,849.42763818712,989.501930496736,770.628304621509,1042.51941165526,521.200666434388,853.017481158529,350.57236181288,610.498069503264,429.371695378491,557.480588344736,678.799333565612,5,6,3,5,4,6,horizontal,horizontal,horizontal,vertical,horizontal,horizontal
1b,11,100196,1,29,29,22,F,NA,constant,heterogeneous,3,absent,1.58152604103088,1,horizontal,horizontal,1,0.941168999671936,red,2,NaN,923.626453162816,376.971974679454,NaN,NaN,931.334709102064,818.577661679039,923.626453162816,376.971974679454,545.03883773512,604.450363641507,0,0,0,0,0,0,0,4,6,NaN,NaN,NaN,horizontal,horizontal,horizontal,none,none,none
1b,11,100196,1,30,30,22,F,NA,constant,heterogeneous,6,absent,1.34708499908447,1,horizontal,horizontal,1,1.09410682711108,red,3,NaN,1051.12597701811,555.719714694933,NaN,NaN,712.784863451954,839.621618300407,963.910840470068,795.341332995339,1051.12597701811,555.719714694933,887.215136548046,360.378381699593,636.089159529932,404.658667004661,548.874022981887,644.280285305067,3,6,4,6,5,0,horizontal,vertical,horizontal,vertical,vertical,vertical
1b,11,100196,1,31,31,22,F,NA,constant,heterogeneous,5,absent,1.66671085357666,1,horizontal,horizontal,1,0.823524517026441,red,4,NaN,704.475318678942,363.568117085469,NaN,NaN,738.309916622085,847.425410200379,1016.25226451989,735.129412379467,995.341332995339,436.089159529932,704.475318678942,363.568117085469,545.621167183745,617.787900804752,0,0,3,6,3,4,6,NaN,vertical,vertical,vertical,horizontal,horizontal,none
1b,11,100196,1,32,32,22,F,NA,constant,heterogeneous,4,present,0.82230806350708,1,horizontal,horizontal,1,1.09410682711108,red,3,1,773.345241866748,346.39691668109,826.654758133252,853.60308331891,826.654758133252,853.60308331891,1053.60308331891,573.345241866748,773.345241866748,346.39691668109,546.39691668109,626.654758133252,0,0,0,0,6,0,4,0,NaN,NaN,vertical,horizontal,horizontal,horizontal,none,none
1b,11,100196,1,33,33,22,F,NA,constant,heterogeneous,6,absent,1.98185706138611,1,horizontal,horizontal,1,0.741173379174594,red,3,NaN,946.261991269517,391.116228706307,NaN,NaN,907.767656743878,831.108485694346,1054.0296480134,622.224714400653,946.261991269517,391.116228706307,692.232343256122,368.891514305654,545.970351986605,577.775285599347,653.738008730483,808.883771293693,6,0,4,5,3,6,horizontal,horizontal,horizontal,vertical,vertical,horizontal
1b,11,100196,1,34,34,22,F,NA,constant,heterogeneous,5,absent,0.888509035110474,1,vertical,vertical,1,0.752937827439144,red,1,NaN,738.309916622085,847.425410200379,NaN,NaN,738.309916622085,847.425410200379,1016.25226451989,735.129412379467,995.341332995339,436.089159529932,704.475318678942,363.568117085469,545.621167183745,617.787900804752,0,0,4,5,0,6,0,NaN,vertical,vertical,vertical,horizontal,horizontal,none
1b,11,100196,1,35,35,22,F,NA,constant,heterogeneous,6,present,1.02013397216797,1,vertical,vertical,1,1.07057793058198,red,6,3,613.504806087112,773.909581815937,986.495193912888,426.090418184063,857.362518857686,848.464366520235,1043.85771277057,674.554784704298,986.495193912888,426.090418184063,742.637481142314,351.535633479765,556.142287229426,525.445215295702,613.504806087112,773.909581815937,3,0,6,5,5,4,horizontal,vertical,vertical,vertical,vertical,vertical
1b,11,100196,1,36,36,22,F,NA,constant,heterogeneous,3,absent,1.24633288383484,1,horizontal,horizontal,1,0.894111206613738,red,3,NaN,643.006323791957,399.057257830286,NaN,NaN,704.475318678942,836.431882914531,1052.5183575291,564.510859255183,643.006323791957,399.057257830286,0,0,0,0,0,0,3,0,4,NaN,NaN,NaN,horizontal,horizontal,horizontal,none,none,none
1b,11,100196,1,37,37,22,F,NA,constant,heterogeneous,6,present,1.59220194816589,1,horizontal,horizontal,1,1.03528458578833,red,1,5,700.363562235235,834.728737630372,646.537169096228,396.34794493794,700.363562235235,834.728737630372,953.462830903772,803.65205506206,1053.09926866854,568.923317431687,899.636437764765,365.271262369628,646.537169096228,396.34794493794,546.900731331463,631.076682568313,4,3,0,3,6,0,horizontal,horizontal,horizontal,horizontal,horizontal,horizontal
1b,11,100196,1,38,38,22,F,NA,constant,heterogeneous,3,present,0.874317169189453,1,vertical,vertical,1,0.894111206613738,red,1,2,579.163522034968,727.5,1020.83647796503,727.5,579.163522034968,727.5,1020.83647796503,727.5,800,345,0,0,0,0,0,0,4,3,3,NaN,NaN,NaN,vertical,horizontal,horizontal,none,none,none
1b,11,100196,1,39,39,22,F,NA,constant,heterogeneous,4,present,1.89696002006531,0,vertical,horizontal,1,0.84705341355554,red,2,1,1027.20666366803,484.232422566416,915.767577433584,827.206663668034,915.767577433584,827.206663668034,1027.20666366803,484.232422566416,684.232422566416,372.793336331966,572.793336331966,715.767577433584,0,0,0,0,5,4,5,3,NaN,NaN,horizontal,vertical,horizontal,vertical,none,none
1b,11,100196,1,40,40,22,F,NA,constant,heterogeneous,3,absent,0.984622001647949,1,vertical,vertical,1,1.07057793058198,red,2,NaN,1047.42541020038,661.690083377915,NaN,NaN,622.862115532956,783.431649086356,1047.42541020038,661.690083377915,729.712474266665,354.878267535729,0,0,0,0,0,0,3,4,3,NaN,NaN,NaN,vertical,vertical,vertical,none,none,none
1b,11,100196,1,41,41,22,F,NA,constant,heterogeneous,5,present,1.64804196357727,1,horizontal,horizontal,1,0.988226792730134,red,3,4,800,345,557.480588344736,521.200666434388,949.885239334581,806.299333565612,1042.51941165526,521.200666434388,800,345,557.480588344736,521.200666434388,650.114760665419,806.299333565612,0,0,3,5,4,6,6,NaN,horizontal,vertical,horizontal,vertical,vertical,none
1b,11,100196,1,42,42,22,F,NA,constant,heterogeneous,3,absent,1.23012781143188,0,horizontal,vertical,1,0.647057793058198,red,1,NaN,967.295052392579,792.450942956807,NaN,NaN,967.295052392579,792.450942956807,883.019879386575,358.892763222174,549.685068220846,648.656293821019,0,0,0,0,0,0,4,6,3,NaN,NaN,NaN,horizontal,horizontal,vertical,none,none,none
1b,11,100196,1,43,43,22,F,NA,constant,heterogeneous,4,present,1.6062650680542,0,horizontal,vertical,1,0.964697896201035,red,3,4,835.489140744817,347.4816424709,547.481642470899,564.510859255183,764.510859255183,852.518357529101,1052.5183575291,635.489140744817,835.489140744817,347.4816424709,547.481642470899,564.510859255183,0,0,0,0,6,3,4,3,NaN,NaN,horizontal,vertical,horizontal,vertical,none,none
1b,11,100196,1,44,44,22,F,NA,constant,heterogeneous,3,present,0.879287004470825,1,horizontal,horizontal,1,0.635293344793649,red,3,1,646.537169096228,396.34794493794,700.363562235235,834.728737630372,700.363562235235,834.728737630372,1053.09926866854,568.923317431687,646.537169096228,396.34794493794,0,0,0,0,0,0,5,5,4,NaN,NaN,NaN,horizontal,vertical,horizontal,none,none,none
1b,11,100196,1,45,45,22,F,NA,constant,heterogeneous,4,absent,0.758378982543945,1,horizontal,horizontal,1,0.870582310084639,red,3,NaN,822.224714400653,345.970351986605,NaN,NaN,777.775285599347,854.029648013395,1054.0296480134,622.224714400653,822.224714400653,345.970351986605,545.970351986605,577.775285599347,0,0,0,0,5,6,4,0,NaN,NaN,vertical,vertical,horizontal,horizontal,none,none
1b,11,100196,1,46,46,22,F,NA,constant,heterogeneous,6,present,0.931461095809937,1,horizontal,horizontal,1,0.694115586116396,red,2,3,977.137884467044,783.431649086356,1047.42541020038,538.309916622085,729.712474266665,845.121732464271,977.137884467044,783.431649086356,1047.42541020038,538.309916622085,870.287525733335,354.878267535729,622.862115532956,416.568350913644,552.574589799621,661.690083377915,6,4,3,0,5,5,horizontal,horizontal,vertical,horizontal,vertical,horizontal
1b,11,100196,1,47,47,22,F,NA,constant,heterogeneous,5,present,1.2784948348999,1,horizontal,horizontal,1,0.6,red,4,5,586.139005173917,461.117046071168,601.827779828472,760.476699717708,891.383827134052,838.063008756786,1054.65053136242,586.654331158049,865.998856501143,353.688914296288,586.139005173917,461.117046071168,601.827779828472,760.476699717708,0,0,6,5,0,4,3,NaN,vertical,vertical,horizontal,horizontal,vertical,none
1b,11,100196,1,48,48,22,F,NA,constant,heterogeneous,3,present,0.893543004989624,1,horizontal,horizontal,1,1.07057793058198,red,1,2,688.215357568785,829.192481806288,1054.37883281626,582.212099195248,688.215357568785,829.192481806288,1054.37883281626,582.212099195248,657.405809614959,388.595418998464,0,0,0,0,0,0,4,6,5,NaN,NaN,NaN,horizontal,vertical,horizontal,none,none,none
1b,11,100196,1,49,49,22,F,NA,constant,heterogeneous,4,present,1.08370590209961,1,horizontal,horizontal,1,0.999991240994684,red,1,4,980.31222920257,780.31222920257,619.68777079743,780.31222920257,980.31222920257,780.31222920257,980.31222920257,419.68777079743,619.68777079743,419.68777079743,619.68777079743,780.31222920257,0,0,0,0,4,6,0,5,NaN,NaN,horizontal,horizontal,horizontal,vertical,none,none
1b,11,100196,1,50,50,22,F,NA,constant,heterogeneous,4,absent,NaN,0,horizontal,none,0,0.999991240994684,red,3,NaN,831.076682568313,346.900731331463,NaN,NaN,768.923317431687,853.099268668537,1053.09926866854,631.076682568313,831.076682568313,346.900731331463,546.900731331463,568.923317431687,0,0,0,0,3,5,4,5,NaN,NaN,horizontal,horizontal,horizontal,vertical,none,none
1b,11,100196,1,51,51,22,F,NA,constant,heterogeneous,5,present,1.42645192146301,1,horizontal,horizontal,1,1.02352013752378,red,5,4,557.480588344736,678.799333565612,650.114760665419,393.700666434388,800,855,1042.51941165526,678.799333565612,949.885239334581,393.700666434388,650.114760665419,393.700666434388,557.480588344736,678.799333565612,0,0,6,5,0,3,4,NaN,horizontal,vertical,horizontal,horizontal,horizontal,none
1b,11,100196,1,52,52,22,F,NA,constant,heterogeneous,6,present,1.37625980377197,1,horizontal,horizontal,1,1.04704903405288,red,2,1,970.628304621509,789.501930496736,721.200666434388,842.519411655264,721.200666434388,842.519411655264,970.628304621509,789.501930496736,1049.42763818712,546.982518841471,878.799333565612,357.480588344736,629.371695378491,410.498069503264,550.57236181288,653.017481158529,6,4,6,0,0,5,vertical,horizontal,vertical,horizontal,horizontal,vertical
1b,11,100196,1,53,53,22,F,NA,constant,heterogeneous,3,absent,0.8919517993927,1,vertical,vertical,1,0.999991240994684,red,1,NaN,1003.65205506206,753.462830903772,NaN,NaN,1003.65205506206,753.462830903772,831.076682568313,346.900731331463,565.271262369628,699.636437764765,0,0,0,0,0,0,4,3,0,NaN,NaN,NaN,vertical,vertical,vertical,none,none,none
1b,11,100196,1,54,54,22,F,NA,constant,heterogeneous,4,absent,1.1588671207428,1,vertical,vertical,1,1.04704903405288,red,3,NaN,938.882953928832,386.139005173917,NaN,NaN,661.117046071168,813.860994826083,1013.86099482608,738.882953928832,938.882953928832,386.139005173917,586.139005173917,461.117046071168,0,0,0,0,5,0,4,6,NaN,NaN,horizontal,vertical,vertical,horizontal,none,none
1b,11,100196,1,55,55,22,F,NA,constant,heterogeneous,4,present,1.40971493721008,1,vertical,vertical,1,0.776466723968243,red,2,4,1045.12173246427,529.712474266665,554.878267535729,670.287525733335,870.287525733335,845.121732464271,1045.12173246427,529.712474266665,729.712474266665,354.878267535729,554.878267535729,670.287525733335,0,0,0,0,6,4,3,3,NaN,NaN,vertical,vertical,vertical,horizontal,none,none
1b,11,100196,1,56,56,22,F,NA,constant,heterogeneous,5,absent,1.15191292762756,1,vertical,vertical,1,0.894111206613738,red,5,NaN,556.142287229426,525.445215295702,NaN,NaN,653.738008730483,808.883771293693,953.462830903772,803.65205506206,1041.10723677783,516.980120613425,795.549636358493,345.03883773512,556.142287229426,525.445215295702,0,0,3,6,5,3,4,NaN,horizontal,horizontal,horizontal,vertical,vertical,none
1b,11,100196,1,57,57,22,F,NA,constant,heterogeneous,4,absent,1.20478701591492,0,vertical,horizontal,1,0.670586689587297,red,4,NaN,601.827779828472,760.476699717708,NaN,NaN,960.476699717708,798.172220171528,998.172220171528,439.523300282291,639.523300282292,401.827779828472,601.827779828472,760.476699717708,0,0,0,0,5,0,6,4,NaN,NaN,horizontal,vertical,vertical,vertical,none,none
1b,11,100196,1,58,58,22,F,NA,constant,heterogeneous,6,absent,1.288006067276,1,vertical,vertical,1,0.752937827439144,red,5,NaN,551.535633479765,542.637481142314,NaN,NaN,874.554784704298,843.857712770574,1048.46436652023,657.362518857686,973.909581815937,413.504806087112,725.445215295702,356.142287229426,551.535633479765,542.637481142314,626.090418184063,786.495193912888,5,3,0,6,4,5,vertical,vertical,vertical,vertical,vertical,horizontal
1b,11,100196,1,59,59,22,F,NA,constant,heterogeneous,4,absent,1.76952791213989,0,horizontal,vertical,1,0.976462344465585,red,1,NaN,680.284751489598,825.151636179026,NaN,NaN,680.284751489598,825.151636179026,1025.15163617903,719.715248510402,919.715248510402,374.848363820974,574.848363820974,480.284751489598,0,0,0,0,4,3,3,6,NaN,NaN,horizontal,horizontal,horizontal,vertical,none,none
1b,11,100196,1,60,60,22,F,NA,constant,heterogeneous,4,present,1.42415881156921,1,horizontal,horizontal,1,0.952933447936485,red,4,3,613.504806087112,773.909581815937,626.090418184063,413.504806087112,973.909581815937,786.495193912888,986.495193912888,426.090418184063,626.090418184063,413.504806087112,613.504806087112,773.909581815937,0,0,0,0,3,3,5,4,NaN,NaN,horizontal,horizontal,horizontal,horizontal,none,none
1b,11,100196,1,61,61,22,F,NA,constant,heterogeneous,5,absent,1.81740212440491,1,horizontal,horizontal,1,1.03528458578833,red,3,NaN,986.495193912888,426.090418184063,NaN,NaN,751.343706178981,850.314931779154,1023.02802532055,723.626453162816,986.495193912888,426.090418184063,692.232343256122,368.891514305654,546.900731331463,631.076682568313,0,0,5,3,4,6,3,NaN,horizontal,vertical,horizontal,vertical,vertical,none
1b,11,100196,1,62,62,22,F,NA,constant,heterogeneous,5,present,1.6105899810791,1,vertical,vertical,1,0.623528896529099,red,4,1,692.232343256122,368.891514305654,751.343706178981,850.314931779154,751.343706178981,850.314931779154,1023.02802532055,723.626453162816,986.495193912888,426.090418184063,692.232343256122,368.891514305654,546.900731331463,631.076682568313,0,0,0,0,5,4,5,NaN,horizontal,horizontal,vertical,vertical,vertical,none
1b,11,100196,1,63,63,22,F,NA,constant,heterogeneous,6,present,1.88136601448059,1,horizontal,horizontal,1,0.905875654878287,red,3,6,1048.46436652023,542.637481142314,551.535633479765,657.362518857686,725.445215295702,843.857712770574,973.909581815937,786.495193912888,1048.46436652023,542.637481142314,874.554784704298,356.142287229426,626.090418184063,413.504806087112,551.535633479765,657.362518857686,3,5,4,0,5,3,vertical,horizontal,horizontal,vertical,vertical,horizontal
1b,11,100196,1,64,64,22,F,NA,constant,heterogeneous,4,absent,0.930171012878418,1,vertical,vertical,1,0.752937827439144,red,1,NaN,817.787900804752,854.378832816255,NaN,NaN,817.787900804752,854.378832816255,1054.37883281626,582.212099195248,782.212099195248,345.621167183745,545.621167183745,617.787900804752,0,0,0,0,4,0,6,0,NaN,NaN,vertical,horizontal,vertical,vertical,none,none
1b,11,100196,2,1,65,22,F,NA,constant,heterogeneous,6,present,1.31422591209412,1,vertical,vertical,1,0.694115586116396,red,6,3,561.936991243214,691.383827134052,1038.06300875679,508.616172865948,760.109211414741,851.86052685176,998.172220171528,760.476699717708,1038.06300875679,508.616172865948,839.890788585259,348.13947314824,601.827779828472,439.523300282291,561.936991243214,691.383827134052,3,3,5,0,6,4,horizontal,horizontal,vertical,vertical,horizontal,vertical
1b,11,100196,2,2,66,22,F,NA,constant,heterogeneous,4,absent,1.0122230052948,1,horizontal,horizontal,1,0.776466723968243,red,2,NaN,1054.0296480134,577.775285599347,NaN,NaN,822.224714400653,854.029648013395,1054.0296480134,577.775285599347,777.775285599347,345.970351986605,545.970351986605,622.224714400653,0,0,0,0,0,4,6,5,NaN,NaN,vertical,horizontal,vertical,horizontal,none,none
1b,11,100196,2,3,67,22,F,NA,constant,heterogeneous,6,present,1.62495112419128,1,horizontal,horizontal,1,0.811760068761891,red,5,2,661.117046071168,386.139005173917,938.882953928832,813.860994826083,684.232422566416,827.206663668034,938.882953928832,813.860994826083,1054.65053136242,586.654331158049,915.767577433584,372.793336331966,661.117046071168,386.139005173917,545.349468637584,613.345668841951,3,6,5,0,4,6,vertical,horizontal,vertical,horizontal,horizontal,horizontal
1b,11,100196,2,4,68,22,F,NA,constant,heterogeneous,4,present,0.753889799118042,1,vertical,vertical,1,0.611764448264549,red,4,2,576.971974679454,723.626453162816,1023.02802532055,476.373546837184,923.626453162816,823.028025320546,1023.02802532055,476.373546837184,676.373546837184,376.971974679454,576.971974679454,723.626453162816,0,0,0,0,5,5,0,4,NaN,NaN,horizontal,horizontal,horizontal,vertical,none,none
1b,11,100196,2,5,69,22,F,NA,constant,heterogeneous,6,present,0.961931943893433,1,vertical,vertical,1,0.83528896529099,red,6,1,545,600,672.5,820.836477965032,672.5,820.836477965032,927.5,820.836477965032,1055,600,927.5,379.163522034968,672.5,379.163522034968,545,600,3,5,0,3,5,4,horizontal,vertical,horizontal,vertical,horizontal,vertical
1b,11,100196,2,6,70,22,F,NA,constant,heterogeneous,3,present,0.772409915924072,1,horizontal,horizontal,1,0.952933447936485,red,1,2,891.383827134052,838.063008756786,960.476699717708,401.827779828472,891.383827134052,838.063008756786,960.476699717708,401.827779828472,548.13947314824,560.109211414741,0,0,0,0,0,0,4,6,0,NaN,NaN,NaN,horizontal,horizontal,vertical,none,none,none
1b,11,100196,2,7,71,22,F,NA,constant,heterogeneous,4,present,0.983623027801514,1,vertical,vertical,1,0.788231172232792,red,2,4,1049.42763818712,653.017481158529,550.57236181288,546.982518841471,746.982518841471,849.42763818712,1049.42763818712,653.017481158529,853.017481158529,350.57236181288,550.57236181288,546.982518841471,0,0,0,0,0,4,5,3,NaN,NaN,horizontal,vertical,vertical,horizontal,none,none
1b,11,100196,2,8,72,22,F,NA,constant,heterogeneous,3,absent,1.01155495643616,1,horizontal,horizontal,1,0.6,red,3,NaN,607.549057043193,432.704947607421,NaN,NaN,751.343706178981,850.314931779154,1041.10723677783,516.980120613425,607.549057043193,432.704947607421,0,0,0,0,0,0,3,0,4,NaN,NaN,NaN,vertical,horizontal,horizontal,none,none,none
1b,11,100196,2,9,73,22,F,NA,constant,heterogeneous,5,absent,0.867085933685303,1,vertical,vertical,1,0.752937827439144,red,1,NaN,760.109211414741,851.86052685176,NaN,NaN,760.109211414741,851.86052685176,1027.20666366803,715.767577433584,980.31222920257,419.68777079743,684.232422566416,372.793336331966,548.13947314824,639.890788585259,0,0,4,0,6,5,3,NaN,vertical,vertical,horizontal,vertical,horizontal,none
1b,11,100196,2,10,74,22,F,NA,constant,heterogeneous,6,absent,1.67360591888428,1,horizontal,horizontal,1,0.658822241322748,red,6,NaN,572.793336331966,715.767577433584,NaN,NaN,786.654331158049,854.650531362416,1013.86099482608,738.882953928832,1027.20666366803,484.232422566416,813.345668841951,345.349468637584,586.139005173917,461.117046071168,572.793336331966,715.767577433584,3,6,3,6,5,4,horizontal,horizontal,vertical,vertical,vertical,horizontal
1b,11,100196,2,11,75,22,F,NA,constant,heterogeneous,5,present,0.941966772079468,1,horizontal,horizontal,1,0.729408930910045,red,1,4,857.362518857686,848.464366520235,607.549057043193,432.704947607421,857.362518857686,848.464366520235,1054.0296480134,622.224714400653,899.636437764765,365.271262369628,607.549057043193,432.704947607421,581.422338320961,731.334709102064,0,0,4,5,6,0,0,NaN,horizontal,vertical,horizontal,vertical,horizontal,none
1b,11,100196,2,12,76,22,F,NA,constant,heterogeneous,3,present,1.02853512763977,1,vertical,vertical,1,0.976462344465585,red,3,1,556.142287229426,674.554784704298,986.495193912888,773.909581815937,986.495193912888,773.909581815937,857.362518857686,351.535633479765,556.142287229426,674.554784704298,0,0,0,0,0,0,6,3,4,NaN,NaN,NaN,horizontal,horizontal,vertical,none,none,none
1b,11,100196,2,13,77,22,F,NA,constant,heterogeneous,6,present,0.942441940307617,1,vertical,vertical,1,0.858817861820089,red,3,6,1050.31493177915,551.343706178981,549.685068220846,648.656293821019,716.980120613425,841.107236777826,967.295052392579,792.450942956807,1050.31493177915,551.343706178981,883.019879386575,358.892763222174,632.704947607421,407.549057043193,549.685068220846,648.656293821019,6,5,4,5,6,0,vertical,horizontal,vertical,horizontal,horizontal,vertical
1b,11,100196,2,14,78,22,F,NA,constant,heterogeneous,4,absent,1.0715970993042,1,horizontal,horizontal,1,1.09410682711108,red,3,NaN,835.489140744817,347.4816424709,NaN,NaN,764.510859255183,852.518357529101,1052.5183575291,635.489140744817,835.489140744817,347.4816424709,547.481642470899,564.510859255183,0,0,0,0,3,0,4,0,NaN,NaN,horizontal,vertical,horizontal,vertical,none,none
1b,11,100196,2,15,79,22,F,NA,constant,heterogeneous,6,present,1.56147885322571,1,horizontal,horizontal,1,0.811760068761891,red,4,3,853.017481158529,350.57236181288,1042.51941165526,521.200666434388,746.982518841471,849.42763818712,989.501930496736,770.628304621509,1042.51941165526,521.200666434388,853.017481158529,350.57236181288,610.498069503264,429.371695378491,557.480588344736,678.799333565612,5,3,3,4,0,0,vertical,vertical,vertical,horizontal,horizontal,horizontal
1b,11,100196,2,16,80,22,F,NA,constant,heterogeneous,6,absent,0.91074800491333,1,horizontal,horizontal,1,0.894111206613738,red,6,NaN,572.793336331966,715.767577433584,NaN,NaN,786.654331158049,854.650531362416,1013.86099482608,738.882953928832,1027.20666366803,484.232422566416,813.345668841951,345.349468637584,586.139005173917,461.117046071168,572.793336331966,715.767577433584,0,5,0,6,3,4,horizontal,horizontal,horizontal,vertical,vertical,horizontal
1b,11,100196,2,17,81,22,F,NA,constant,heterogeneous,4,absent,1.02879977226257,1,vertical,vertical,1,0.788231172232792,red,2,NaN,1049.42763818712,653.017481158529,NaN,NaN,746.982518841471,849.42763818712,1049.42763818712,653.017481158529,853.017481158529,350.57236181288,550.57236181288,546.982518841471,0,0,0,0,3,4,5,0,NaN,NaN,vertical,vertical,horizontal,vertical,none,none
1b,11,100196,2,18,82,22,F,NA,constant,heterogeneous,4,present,1.81355094909668,1,horizontal,horizontal,1,1.01175568925923,red,1,4,795.549636358493,854.96116226488,545.03883773512,595.549636358493,795.549636358493,854.96116226488,1054.96116226488,604.450363641507,804.450363641507,345.03883773512,545.03883773512,595.549636358493,0,0,0,0,4,6,3,3,NaN,NaN,horizontal,vertical,vertical,horizontal,none,none
1b,11,100196,2,19,83,22,F,NA,constant,heterogeneous,4,absent,1.25290012359619,0,horizontal,vertical,1,0.929404551407387,red,3,NaN,946.261991269517,391.116228706307,NaN,NaN,653.738008730483,808.883771293693,1008.88377129369,746.261991269517,946.261991269517,391.116228706307,591.116228706307,453.738008730483,0,0,0,0,6,3,4,3,NaN,NaN,vertical,horizontal,horizontal,vertical,none,none
1b,11,100196,2,20,84,22,F,NA,constant,heterogeneous,6,absent,1.11462903022766,1,vertical,vertical,1,1.02352013752378,red,1,NaN,676.373546837184,823.028025320546,NaN,NaN,676.373546837184,823.028025320546,931.334709102064,818.577661679039,1054.96116226488,595.549636358493,923.626453162816,376.971974679454,668.665290897936,381.422338320961,545.03883773512,604.450363641507,4,5,0,3,6,0,vertical,vertical,vertical,vertical,vertical,vertical
1b,11,100196,2,21,85,22,F,NA,constant,heterogeneous,4,absent,0.96465015411377,1,horizontal,horizontal,1,0.776466723968243,red,2,NaN,1050.31493177915,551.343706178981,NaN,NaN,848.656293821019,850.314931779154,1050.31493177915,551.343706178981,751.343706178981,349.685068220846,549.685068220846,648.656293821019,0,0,0,0,0,4,5,3,NaN,NaN,horizontal,horizontal,vertical,vertical,none,none
1b,11,100196,2,22,86,22,F,NA,constant,heterogeneous,5,absent,1.46063303947449,1,horizontal,horizontal,1,1.02352013752378,red,5,NaN,548.874022981887,555.719714694933,NaN,NaN,680.284751489598,825.151636179026,977.137884467044,783.431649086356,1029.19248180629,488.215357568785,764.510859255183,347.4816424709,548.874022981887,555.719714694933,0,0,5,3,0,6,4,NaN,horizontal,horizontal,vertical,vertical,horizontal,none
1b,11,100196,2,23,87,22,F,NA,constant,heterogeneous,6,absent,1.71430516242981,0,horizontal,vertical,1,0.611764448264549,red,6,NaN,596.34794493794,753.462830903772,NaN,NaN,831.076682568313,853.099268668537,1034.72873763037,699.636437764765,1003.65205506206,446.537169096228,768.923317431687,346.900731331463,565.271262369628,500.363562235235,596.34794493794,753.462830903772,3,5,6,6,3,4,horizontal,horizontal,vertical,vertical,vertical,horizontal
1b,11,100196,2,24,88,22,F,NA,constant,heterogeneous,5,present,1.29423999786377,1,horizontal,horizontal,1,0.670586689587297,red,3,2,992.450942956807,432.704947607421,1018.57766167904,731.334709102064,742.637481142314,848.464366520235,1018.57766167904,731.334709102064,992.450942956807,432.704947607421,700.363562235235,365.271262369628,545.970351986605,622.224714400653,0,0,3,6,4,0,3,NaN,vertical,vertical,horizontal,horizontal,horizontal,none
1b,11,100196,2,25,89,22,F,NA,constant,heterogeneous,4,absent,1.4510178565979,1,vertical,vertical,1,0.729408930910045,red,3,NaN,839.890788585259,348.13947314824,NaN,NaN,760.109211414741,851.86052685176,1051.86052685176,639.890788585259,839.890788585259,348.13947314824,548.13947314824,560.109211414741,0,0,0,0,5,6,4,6,NaN,NaN,vertical,vertical,vertical,vertical,none,none
1b,11,100196,2,26,90,22,F,NA,constant,heterogeneous,4,present,1.10602807998657,1,horizontal,horizontal,1,0.694115586116396,red,4,2,568.891514305654,707.767656743878,1031.10848569435,492.232343256122,907.767656743878,831.108485694346,1031.10848569435,492.232343256122,692.232343256122,368.891514305654,568.891514305654,707.767656743878,0,0,0,0,0,3,5,4,NaN,NaN,vertical,horizontal,horizontal,horizontal,none,none
1b,11,100196,2,27,91,22,F,NA,constant,heterogeneous,5,present,1.2115581035614,1,horizontal,horizontal,1,0.952933447936485,red,1,2,903.717843984329,832.954091698863,1053.60308331891,573.345241866748,903.717843984329,832.954091698863,1053.60308331891,573.345241866748,853.017481158529,350.57236181288,579.163522034968,472.5,610.498069503264,770.628304621509,0,0,4,6,5,3,0,NaN,horizontal,vertical,horizontal,vertical,vertical,none
1b,11,100196,2,28,92,22,F,NA,constant,heterogeneous,3,absent,1.10245299339294,1,horizontal,horizontal,1,0.917640103142837,red,2,NaN,1006.29933356561,450.114760665419,NaN,NaN,826.654758133252,853.60308331891,1006.29933356561,450.114760665419,567.045908301137,496.282156015671,0,0,0,0,0,0,3,4,0,NaN,NaN,NaN,vertical,horizontal,vertical,none,none,none
1b,11,100196,2,29,93,22,F,NA,constant,heterogeneous,6,absent,1.45308184623718,1,vertical,vertical,1,0.623528896529099,red,3,NaN,1027.20666366803,484.232422566416,NaN,NaN,786.654331158049,854.650531362416,1013.86099482608,738.882953928832,1027.20666366803,484.232422566416,813.345668841951,345.349468637584,586.139005173917,461.117046071168,572.793336331966,715.767577433584,3,6,4,6,0,5,horizontal,horizontal,vertical,vertical,horizontal,horizontal
1b,11,100196,2,30,94,22,F,NA,constant,heterogeneous,5,absent,1.06210207939148,1,horizontal,horizontal,1,0.788231172232792,red,2,NaN,983.431649086356,777.137884467044,NaN,NaN,688.215357568785,829.192481806288,983.431649086356,777.137884467044,1025.15163617903,480.284751489598,755.719714694933,348.874022981887,547.481642470899,564.510859255183,0,0,6,4,6,3,0,NaN,horizontal,horizontal,horizontal,vertical,vertical,none
1b,11,100196,2,31,95,22,F,NA,constant,heterogeneous,6,absent,1.23052000999451,1,horizontal,horizontal,1,0.952933447936485,red,1,NaN,903.717843984329,832.954091698863,NaN,NaN,903.717843984329,832.954091698863,1053.60308331891,626.654758133252,949.885239334581,393.700666434388,696.282156015671,367.045908301137,546.39691668109,573.345241866748,650.114760665419,806.299333565612,4,6,3,5,0,3,horizontal,horizontal,horizontal,vertical,horizontal,horizontal
1b,11,100196,2,32,96,22,F,NA,constant,heterogeneous,6,present,0.952424049377441,1,horizontal,horizontal,1,1.05881348231743,red,1,4,887.215136548046,839.621618300407,712.784863451954,360.378381699593,887.215136548046,839.621618300407,1051.12597701811,644.280285305067,963.910840470068,404.658667004661,712.784863451954,360.378381699593,548.874022981887,555.719714694933,636.089159529932,795.341332995339,4,0,5,6,6,0,horizontal,horizontal,horizontal,vertical,vertical,horizontal
1b,11,100196,2,33,97,22,F,NA,constant,heterogeneous,3,absent,0.908361911773682,1,vertical,vertical,1,0.823524517026441,red,1,NaN,646.537169096228,803.65205506206,NaN,NaN,646.537169096228,803.65205506206,1053.09926866854,631.076682568313,700.363562235235,365.271262369628,0,0,0,0,0,0,4,0,3,NaN,NaN,NaN,vertical,horizontal,horizontal,none,none,none
1b,11,100196,2,34,98,22,F,NA,constant,heterogeneous,4,present,0.800585985183716,1,vertical,vertical,1,1.09410682711108,red,3,1,946.261991269517,391.116228706307,653.738008730483,808.883771293693,653.738008730483,808.883771293693,1008.88377129369,746.261991269517,946.261991269517,391.116228706307,591.116228706307,453.738008730483,0,0,0,0,3,0,4,0,NaN,NaN,vertical,horizontal,vertical,vertical,none,none
1b,11,100196,2,35,99,22,F,NA,constant,heterogeneous,5,present,0.901281118392944,1,vertical,vertical,1,0.623528896529099,red,2,3,989.501930496736,770.628304621509,1020.83647796503,472.5,696.282156015671,832.954091698863,989.501930496736,770.628304621509,1020.83647796503,472.5,746.982518841471,350.57236181288,546.39691668109,573.345241866748,0,0,0,4,3,3,6,NaN,horizontal,vertical,vertical,vertical,horizontal,none
1b,11,100196,2,36,100,22,F,NA,constant,heterogeneous,5,present,0.909393072128296,1,horizontal,horizontal,1,0.894111206613738,red,4,1,616.568350913644,422.862115532956,844.280285305067,851.125977018113,844.280285305067,851.125977018113,1052.5183575291,635.489140744817,911.784642431215,370.807518193712,616.568350913644,422.862115532956,574.848363820974,719.715248510402,0,0,5,0,5,4,6,NaN,horizontal,vertical,vertical,horizontal,vertical,none
1b,11,100196,2,37,101,22,F,NA,constant,heterogeneous,5,absent,0.972831964492798,0,vertical,horizontal,1,0.858817861820089,red,4,NaN,583.747735480111,464.870587620533,NaN,NaN,895.524681321058,836.431882914531,1054.37883281626,582.212099195248,861.690083377915,352.574589799621,583.747735480111,464.870587620533,604.658667004661,763.910840470068,0,0,6,6,0,4,5,NaN,vertical,vertical,horizontal,vertical,horizontal,none
1b,11,100196,2,38,102,22,F,NA,constant,heterogeneous,3,absent,0.84174108505249,1,vertical,vertical,1,1.05881348231743,red,1,NaN,610.498069503264,770.628304621509,NaN,NaN,610.498069503264,770.628304621509,1042.51941165526,678.799333565612,746.982518841471,350.57236181288,0,0,0,0,0,0,4,6,6,NaN,NaN,NaN,vertical,horizontal,horizontal,none,none,none
1b,11,100196,2,39,103,22,F,NA,constant,heterogeneous,3,absent,0.924597024917603,1,vertical,vertical,1,0.894111206613738,red,3,NaN,550.57236181288,653.017481158529,NaN,NaN,970.628304621509,789.501930496736,878.799333565612,357.480588344736,550.57236181288,653.017481158529,0,0,0,0,0,0,5,6,4,NaN,NaN,NaN,vertical,horizontal,vertical,none,none,none
1b,11,100196,2,40,104,22,F,NA,constant,heterogeneous,4,present,1.25831294059753,1,horizontal,horizontal,1,0.752937827439144,red,1,2,760.109211414741,851.86052685176,1051.86052685176,639.890788585259,760.109211414741,851.86052685176,1051.86052685176,639.890788585259,839.890788585259,348.13947314824,548.13947314824,560.109211414741,0,0,0,0,4,0,3,5,NaN,NaN,horizontal,horizontal,horizontal,horizontal,none,none
1b,11,100196,2,41,105,22,F,NA,constant,heterogeneous,3,present,0.937342882156372,1,vertical,vertical,1,0.682351137851847,red,2,3,1048.46436652023,657.362518857686,725.445215295702,356.142287229426,626.090418184063,786.495193912888,1048.46436652023,657.362518857686,725.445215295702,356.142287229426,0,0,0,0,0,0,5,4,0,NaN,NaN,NaN,vertical,vertical,vertical,none,none,none
1b,11,100196,2,42,106,22,F,NA,constant,heterogeneous,4,present,1.06373906135559,1,vertical,vertical,1,0.964697896201035,red,4,2,591.116228706307,453.738008730483,1008.88377129369,746.261991269517,653.738008730483,808.883771293693,1008.88377129369,746.261991269517,946.261991269517,391.116228706307,591.116228706307,453.738008730483,0,0,0,0,5,3,6,4,NaN,NaN,vertical,horizontal,vertical,vertical,none,none
1b,11,100196,2,43,107,22,F,NA,constant,heterogeneous,3,absent,1.25888204574585,0,horizontal,vertical,1,0.894111206613738,red,2,NaN,861.690083377915,352.574589799621,NaN,NaN,983.431649086356,777.137884467044,861.690083377915,352.574589799621,554.878267535729,670.287525733335,0,0,0,0,0,0,0,4,3,NaN,NaN,NaN,horizontal,horizontal,vertical,none,none,none
1b,11,100196,2,44,108,22,F,NA,constant,heterogeneous,4,present,1.34579801559448,1,horizontal,horizontal,1,0.658822241322748,red,4,1,551.535633479765,542.637481142314,742.637481142314,848.464366520235,742.637481142314,848.464366520235,1048.46436652023,657.362518857686,857.362518857686,351.535633479765,551.535633479765,542.637481142314,0,0,0,0,0,5,3,4,NaN,NaN,vertical,horizontal,vertical,horizontal,none,none
1b,11,100196,2,45,109,22,F,NA,constant,heterogeneous,5,absent,0.943250894546509,1,horizontal,horizontal,1,0.729408930910045,red,2,NaN,1032.95409169886,703.717843984329,NaN,NaN,773.345241866748,853.60308331891,1032.95409169886,703.717843984329,970.628304621509,410.498069503264,672.5,379.163522034968,550.57236181288,653.017481158529,0,0,3,4,6,0,3,NaN,horizontal,horizontal,horizontal,vertical,horizontal,none
1b,11,100196,2,46,110,22,F,NA,constant,heterogeneous,6,present,0.751955986022949,1,horizontal,horizontal,1,0.870582310084639,red,2,5,1027.20666366803,715.767577433584,572.793336331966,484.232422566416,813.345668841951,854.650531362416,1027.20666366803,715.767577433584,1013.86099482608,461.117046071168,786.654331158049,345.349468637584,572.793336331966,484.232422566416,586.139005173917,738.882953928832,5,4,6,0,6,5,horizontal,horizontal,horizontal,horizontal,horizontal,horizontal
1b,11,100196,2,47,111,22,F,NA,constant,heterogeneous,5,present,0.82048511505127,1,vertical,vertical,1,0.670586689587297,red,5,1,554.878267535729,670.287525733335,791.100628340862,854.844660889869,791.100628340862,854.844660889869,1039.62161830041,687.215136548046,956.993676208043,399.057257830286,657.405809614959,388.595418998464,554.878267535729,670.287525733335,0,0,3,0,6,5,4,NaN,vertical,horizontal,horizontal,horizontal,vertical,none
1b,11,100196,2,48,112,22,F,NA,constant,heterogeneous,6,absent,1.02527499198914,1,vertical,vertical,1,0.811760068761891,red,5,NaN,622.862115532956,416.568350913644,NaN,NaN,729.712474266665,845.121732464271,977.137884467044,783.431649086356,1047.42541020038,538.309916622085,870.287525733335,354.878267535729,622.862115532956,416.568350913644,552.574589799621,661.690083377915,5,3,6,0,4,5,horizontal,vertical,horizontal,vertical,vertical,horizontal
1b,11,100196,2,49,113,22,F,NA,constant,heterogeneous,5,absent,1.03805303573608,1,vertical,vertical,1,0.999991240994684,red,5,NaN,599.057257830286,756.993676208043,NaN,NaN,887.215136548046,839.621618300407,1054.84466088987,591.100628340862,870.287525733335,354.878267535729,588.595418998464,457.40580961496,599.057257830286,756.993676208043,0,0,5,3,6,0,4,NaN,horizontal,vertical,vertical,vertical,vertical,none
1b,11,100196,2,50,114,22,F,NA,constant,heterogeneous,6,present,1.20238208770752,1,vertical,vertical,1,0.964697896201035,red,4,3,688.215357568785,370.807518193712,942.594190385041,388.595418998464,911.784642431215,829.192481806288,1054.37883281626,617.787900804752,942.594190385041,388.595418998464,688.215357568785,370.807518193712,545.621167183745,582.212099195248,657.405809614959,811.404581001536,6,0,6,4,0,3,horizontal,vertical,horizontal,vertical,horizontal,horizontal
1b,11,100196,2,51,115,22,F,NA,constant,heterogeneous,3,present,1.08337616920471,1,horizontal,horizontal,1,1.03528458578833,red,3,1,688.215357568785,370.807518193712,657.405809614959,811.404581001536,657.405809614959,811.404581001536,1054.37883281626,617.787900804752,688.215357568785,370.807518193712,0,0,0,0,0,0,6,3,4,NaN,NaN,NaN,horizontal,horizontal,horizontal,none,none,none
1b,11,100196,2,52,116,22,F,NA,constant,heterogeneous,5,absent,1.1628429889679,1,vertical,vertical,1,1.08234237884653,red,4,NaN,773.345241866748,346.39691668109,NaN,NaN,672.5,820.836477965032,970.628304621509,789.501930496736,1032.95409169886,496.282156015671,773.345241866748,346.39691668109,550.57236181288,546.982518841471,0,0,6,6,3,4,0,NaN,vertical,vertical,vertical,vertical,horizontal,none
1b,11,100196,2,53,117,22,F,NA,constant,heterogeneous,3,present,0.895525932312012,1,vertical,vertical,1,1.07057793058198,red,1,2,610.498069503264,770.628304621509,1042.51941165526,678.799333565612,610.498069503264,770.628304621509,1042.51941165526,678.799333565612,746.982518841471,350.57236181288,0,0,0,0,0,0,4,6,3,NaN,NaN,NaN,vertical,vertical,horizontal,none,none,none
1b,11,100196,2,54,118,22,F,NA,constant,heterogeneous,5,absent,NaN,0,horizontal,none,0,1.04704903405288,red,4,NaN,716.980120613425,358.892763222174,NaN,NaN,725.445215295702,843.857712770574,1008.88377129369,746.261991269517,1003.65205506206,446.537169096228,716.980120613425,358.892763222174,545.03883773512,604.450363641507,0,0,3,5,0,4,6,NaN,horizontal,horizontal,horizontal,horizontal,vertical,none
1b,11,100196,2,55,119,22,F,NA,constant,heterogeneous,4,absent,0.84300708770752,1,vertical,vertical,1,0.6,red,2,NaN,1008.88377129369,746.261991269517,NaN,NaN,653.738008730483,808.883771293693,1008.88377129369,746.261991269517,946.261991269517,391.116228706307,591.116228706307,453.738008730483,0,0,0,0,3,4,5,0,NaN,NaN,vertical,vertical,vertical,vertical,none,none
1b,11,100196,2,56,120,22,F,NA,constant,heterogeneous,3,present,0.981384992599487,1,horizontal,horizontal,1,0.870582310084639,red,3,1,646.537169096228,396.34794493794,700.363562235235,834.728737630372,700.363562235235,834.728737630372,1053.09926866854,568.923317431687,646.537169096228,396.34794493794,0,0,0,0,0,0,0,3,4,NaN,NaN,NaN,vertical,vertical,horizontal,none,none,none
1b,11,100196,2,57,121,22,F,NA,constant,heterogeneous,3,present,0.822818994522095,1,horizontal,horizontal,1,0.882346758349188,red,2,3,1054.84466088987,608.899371659138,680.284751489598,374.848363820974,664.870587620533,816.252264519889,1054.84466088987,608.899371659138,680.284751489598,374.848363820974,0,0,0,0,0,0,6,4,3,NaN,NaN,NaN,vertical,horizontal,vertical,none,none,none
1b,11,100196,2,58,122,22,F,NA,constant,heterogeneous,5,present,0.816794157028198,1,vertical,vertical,1,1.05881348231743,red,1,4,734.001143498857,846.311085703712,708.616172865948,361.936991243214,734.001143498857,846.311085703712,1013.86099482608,738.882953928832,998.172220171528,439.523300282291,708.616172865948,361.936991243214,545.349468637584,613.345668841951,0,0,4,5,6,0,3,NaN,vertical,horizontal,vertical,vertical,horizontal,none
1b,11,100196,2,59,123,22,F,NA,constant,heterogeneous,4,absent,0.942117929458618,1,vertical,vertical,1,1.03528458578833,red,2,NaN,1032.95409169886,496.282156015671,NaN,NaN,903.717843984329,832.954091698863,1032.95409169886,496.282156015671,696.282156015671,367.045908301137,567.045908301137,703.717843984329,0,0,0,0,5,4,6,3,NaN,NaN,vertical,vertical,vertical,vertical,none,none
1b,11,100196,2,60,124,22,F,NA,constant,heterogeneous,3,present,1.14872908592224,1,vertical,vertical,1,0.999991240994684,red,1,3,721.200666434388,842.519411655264,629.371695378491,410.498069503264,721.200666434388,842.519411655264,1049.42763818712,546.982518841471,629.371695378491,410.498069503264,0,0,0,0,0,0,4,0,0,NaN,NaN,NaN,vertical,vertical,horizontal,none,none,none
1b,11,100196,2,61,125,22,F,NA,constant,heterogeneous,3,absent,0.881427049636841,1,vertical,vertical,1,0.858817861820089,red,2,NaN,980.31222920257,419.68777079743,NaN,NaN,865.998856501143,846.311085703712,980.31222920257,419.68777079743,553.688914296288,534.001143498857,0,0,0,0,0,0,0,4,5,NaN,NaN,NaN,horizontal,vertical,vertical,none,none,none
1b,11,100196,2,62,126,22,F,NA,constant,heterogeneous,3,absent,1.12027597427368,1,horizontal,horizontal,1,1.05881348231743,red,3,NaN,549.685068220846,551.343706178981,NaN,NaN,883.019879386575,841.107236777826,967.295052392579,407.549057043193,549.685068220846,551.343706178981,0,0,0,0,0,0,3,0,4,NaN,NaN,NaN,vertical,vertical,horizontal,none,none,none
1b,11,100196,2,63,127,22,F,NA,constant,heterogeneous,5,present,0.823112010955811,1,vertical,vertical,1,0.799995620497342,red,1,4,708.616172865948,838.063008756786,734.001143498857,353.688914296288,708.616172865948,838.063008756786,998.172220171528,760.476699717708,1013.86099482608,461.117046071168,734.001143498857,353.688914296288,545.349468637584,586.654331158049,0,0,4,6,0,5,5,NaN,vertical,vertical,vertical,horizontal,horizontal,none
1b,11,100196,2,64,128,22,F,NA,constant,heterogeneous,6,absent,1.01231503486633,1,vertical,vertical,1,1.02352013752378,red,5,NaN,549.685068220846,551.343706178981,NaN,NaN,883.019879386575,841.107236777826,1050.31493177915,648.656293821019,967.295052392579,407.549057043193,716.980120613425,358.892763222174,549.685068220846,551.343706178981,632.704947607421,792.450942956807,5,6,3,0,4,6,vertical,horizontal,horizontal,horizontal,vertical,horizontal
1b,11,100196,3,1,129,22,F,NA,constant,heterogeneous,3,present,1.45501899719238,1,horizontal,horizontal,1,0.729408930910045,red,1,3,844.280285305067,851.125977018113,560.378381699593,512.784863451954,844.280285305067,851.125977018113,995.341332995339,436.089159529932,560.378381699593,512.784863451954,0,0,0,0,0,0,4,5,0,NaN,NaN,NaN,horizontal,vertical,horizontal,none,none,none
1b,11,100196,3,2,130,22,F,NA,constant,heterogeneous,5,present,1.05414915084839,1,vertical,vertical,1,0.894111206613738,red,3,1,817.787900804752,345.621167183745,935.129412379467,816.252264519889,935.129412379467,816.252264519889,1047.42541020038,538.309916622085,817.787900804752,345.621167183745,563.568117085469,504.475318678942,636.089159529932,795.341332995339,0,0,0,0,4,5,5,NaN,horizontal,horizontal,vertical,horizontal,horizontal,none
1b,11,100196,3,3,131,22,F,NA,constant,heterogeneous,5,present,0.704110145568848,1,vertical,vertical,1,0.635293344793649,red,3,2,813.345668841951,345.349468637584,1046.31108570371,534.001143498857,938.882953928832,813.860994826083,1046.31108570371,534.001143498857,813.345668841951,345.349468637584,561.936991243214,508.616172865948,639.523300282292,798.172220171528,0,0,6,0,4,0,3,NaN,vertical,vertical,vertical,vertical,vertical,none
1b,11,100196,3,4,132,22,F,NA,constant,heterogeneous,4,present,0.745546102523804,1,horizontal,horizontal,1,0.964697896201035,red,1,2,949.885239334581,806.299333565612,1006.29933356561,450.114760665419,949.885239334581,806.299333565612,1006.29933356561,450.114760665419,650.114760665419,393.700666434388,593.700666434388,749.885239334581,0,0,0,0,4,3,5,6,NaN,NaN,horizontal,horizontal,vertical,horizontal,none,none
1b,11,100196,3,5,133,22,F,NA,constant,heterogeneous,3,absent,1.17706608772278,1,horizontal,horizontal,1,1.02352013752378,red,1,NaN,738.309916622085,847.425410200379,NaN,NaN,738.309916622085,847.425410200379,1045.12173246427,529.712474266665,616.568350913644,422.862115532956,0,0,0,0,0,0,4,3,5,NaN,NaN,NaN,horizontal,horizontal,vertical,none,none,none
1b,11,100196,3,6,134,22,F,NA,constant,heterogeneous,5,absent,0.886956930160522,1,horizontal,horizontal,1,0.894111206613738,red,2,NaN,1051.86052685176,560.109211414741,NaN,NaN,915.767577433584,827.206663668034,1051.86052685176,560.109211414741,839.890788585259,348.13947314824,572.793336331966,484.232422566416,619.68777079743,780.31222920257,0,0,0,4,0,5,3,NaN,horizontal,horizontal,horizontal,vertical,horizontal,none
1b,11,100196,3,7,135,22,F,NA,constant,heterogeneous,6,present,0.803205013275146,1,horizontal,horizontal,1,0.917640103142837,red,4,5,874.554784704298,356.142287229426,626.090418184063,413.504806087112,725.445215295702,843.857712770574,973.909581815937,786.495193912888,1048.46436652023,542.637481142314,874.554784704298,356.142287229426,626.090418184063,413.504806087112,551.535633479765,657.362518857686,0,0,3,4,5,5,horizontal,horizontal,vertical,horizontal,horizontal,vertical
1b,11,100196,3,8,136,22,F,NA,constant,heterogeneous,4,present,0.89352011680603,1,vertical,vertical,1,0.905875654878287,red,1,3,632.704947607421,792.450942956807,967.295052392579,407.549057043193,632.704947607421,792.450942956807,992.450942956807,767.295052392579,967.295052392579,407.549057043193,607.549057043193,432.704947607421,0,0,0,0,4,5,3,6,NaN,NaN,vertical,vertical,horizontal,vertical,none,none
1b,11,100196,3,9,137,22,F,NA,constant,heterogeneous,5,present,0.832229852676392,1,horizontal,horizontal,1,0.83528896529099,red,5,1,548.13947314824,639.890788585259,760.109211414741,851.86052685176,760.109211414741,851.86052685176,1027.20666366803,715.767577433584,980.31222920257,419.68777079743,684.232422566416,372.793336331966,548.13947314824,639.890788585259,0,0,5,5,0,6,4,NaN,horizontal,horizontal,horizontal,vertical,horizontal,none
1b,11,100196,3,10,138,22,F,NA,constant,heterogeneous,4,absent,1.10712099075317,1,horizontal,horizontal,1,0.905875654878287,red,2,NaN,1045.12173246427,529.712474266665,NaN,NaN,870.287525733335,845.121732464271,1045.12173246427,529.712474266665,729.712474266665,354.878267535729,554.878267535729,670.287525733335,0,0,0,0,5,4,3,0,NaN,NaN,vertical,horizontal,vertical,vertical,none,none
1b,11,100196,3,11,139,22,F,NA,constant,heterogeneous,3,present,0.786125898361206,1,horizontal,horizontal,1,0.83528896529099,red,1,2,653.738008730483,808.883771293693,1054.0296480134,622.224714400653,653.738008730483,808.883771293693,1054.0296480134,622.224714400653,692.232343256122,368.891514305654,0,0,0,0,0,0,4,6,5,NaN,NaN,NaN,horizontal,vertical,horizontal,none,none,none
1b,11,100196,3,12,140,22,F,NA,constant,heterogeneous,3,absent,0.750598907470703,1,vertical,vertical,1,1.02352013752378,red,3,NaN,712.784863451954,360.378381699593,NaN,NaN,636.089159529932,795.341332995339,1051.12597701811,644.280285305067,712.784863451954,360.378381699593,0,0,0,0,0,0,5,0,4,NaN,NaN,NaN,horizontal,vertical,vertical,none,none,none
1b,11,100196,3,13,141,22,F,NA,constant,heterogeneous,5,absent,1.25736212730408,1,vertical,vertical,1,0.788231172232792,red,4,NaN,672.5,379.163522034968,NaN,NaN,773.345241866748,853.60308331891,1032.95409169886,703.717843984329,970.628304621509,410.498069503264,672.5,379.163522034968,550.57236181288,653.017481158529,0,0,3,5,0,4,5,NaN,vertical,horizontal,vertical,vertical,vertical,none
1b,11,100196,3,14,142,22,F,NA,constant,heterogeneous,6,absent,1.90592002868652,1,vertical,vertical,1,0.752937827439144,red,5,NaN,546.900731331463,568.923317431687,NaN,NaN,899.636437764765,834.728737630372,1053.09926866854,631.076682568313,953.462830903772,396.34794493794,700.363562235235,365.271262369628,546.900731331463,568.923317431687,646.537169096228,803.65205506206,0,6,5,3,4,5,horizontal,horizontal,horizontal,vertical,vertical,horizontal
1b,11,100196,3,15,143,22,F,NA,constant,heterogeneous,5,present,1.33294296264648,1,horizontal,horizontal,1,1.02352013752378,red,3,4,1020.83647796503,472.5,746.982518841471,350.57236181288,696.282156015671,832.954091698863,989.501930496736,770.628304621509,1020.83647796503,472.5,746.982518841471,350.57236181288,546.39691668109,573.345241866748,0,0,3,5,4,3,0,NaN,vertical,vertical,horizontal,vertical,horizontal,none
1b,11,100196,3,16,144,22,F,NA,constant,heterogeneous,4,absent,0.695224046707153,1,vertical,vertical,1,0.976462344465585,red,4,NaN,556.142287229426,525.445215295702,NaN,NaN,725.445215295702,843.857712770574,1043.85771277057,674.554784704298,874.554784704298,356.142287229426,556.142287229426,525.445215295702,0,0,0,0,0,6,5,4,NaN,NaN,horizontal,vertical,horizontal,vertical,none,none
1b,11,100196,3,17,145,22,F,NA,constant,heterogeneous,6,present,0.710887908935547,1,vertical,vertical,1,0.670586689587297,red,5,6,576.971974679454,476.373546837184,581.422338320961,731.334709102064,804.450363641507,854.96116226488,1023.02802532055,723.626453162816,1018.57766167904,468.665290897936,795.549636358493,345.03883773512,576.971974679454,476.373546837184,581.422338320961,731.334709102064,5,3,0,6,4,6,horizontal,horizontal,horizontal,horizontal,vertical,horizontal
1b,11,100196,3,18,146,22,F,NA,constant,heterogeneous,6,present,1.57769203186035,1,horizontal,horizontal,1,1.02352013752378,red,6,5,560.378381699593,687.215136548046,604.658667004661,436.089159529932,755.719714694933,851.125977018113,995.341332995339,763.910840470068,1039.62161830041,512.784863451954,844.280285305067,348.874022981887,604.658667004661,436.089159529932,560.378381699593,687.215136548046,5,6,0,3,3,4,vertical,vertical,vertical,horizontal,horizontal,horizontal
1b,11,100196,3,19,147,22,F,NA,constant,heterogeneous,3,present,0.790381908416748,1,horizontal,horizontal,1,0.84705341355554,red,1,3,734.001143498857,846.311085703712,619.68777079743,419.68777079743,734.001143498857,846.311085703712,1046.31108570371,534.001143498857,619.68777079743,419.68777079743,0,0,0,0,0,0,4,0,6,NaN,NaN,NaN,horizontal,vertical,horizontal,none,none,none
1b,11,100196,3,20,148,22,F,NA,constant,heterogeneous,5,absent,0.792895078659058,1,horizontal,horizontal,1,0.717644482645495,red,2,NaN,1053.60308331891,626.654758133252,NaN,NaN,853.017481158529,849.42763818712,1053.60308331891,626.654758133252,903.717843984329,367.045908301137,610.498069503264,429.371695378491,579.163522034968,727.5,0,0,6,4,5,3,0,NaN,horizontal,horizontal,horizontal,vertical,vertical,none
1b,11,100196,3,21,149,22,F,NA,constant,heterogeneous,3,present,0.980216026306152,1,vertical,vertical,1,0.964697896201035,red,2,3,960.476699717708,401.827779828472,548.13947314824,560.109211414741,891.383827134052,838.063008756786,960.476699717708,401.827779828472,548.13947314824,560.109211414741,0,0,0,0,0,0,3,4,0,NaN,NaN,NaN,horizontal,vertical,vertical,none,none,none
1b,11,100196,3,22,150,22,F,NA,constant,heterogeneous,5,absent,0.903112888336182,1,vertical,vertical,1,0.752937827439144,red,2,NaN,1052.5183575291,564.510859255183,NaN,NaN,911.784642431215,829.192481806288,1052.5183575291,564.510859255183,844.280285305067,348.874022981887,574.848363820974,480.284751489598,616.568350913644,777.137884467044,0,0,5,4,3,0,3,NaN,vertical,vertical,horizontal,horizontal,vertical,none
1b,11,100196,3,23,151,22,F,NA,constant,heterogeneous,4,absent,0.754457950592041,1,horizontal,horizontal,1,0.858817861820089,red,4,NaN,548.13947314824,639.890788585259,NaN,NaN,839.890788585259,851.86052685176,1051.86052685176,560.109211414741,760.109211414741,348.13947314824,548.13947314824,639.890788585259,0,0,0,0,0,5,0,4,NaN,NaN,vertical,vertical,vertical,horizontal,none,none
1b,11,100196,3,24,152,22,F,NA,constant,heterogeneous,6,present,0.987281084060669,1,horizontal,horizontal,1,1.08234237884653,red,4,3,808.899371659138,345.155339110131,1025.15163617903,480.284751489598,791.100628340862,854.844660889869,1016.25226451989,735.129412379467,1025.15163617903,480.284751489598,808.899371659138,345.155339110131,583.747735480111,464.870587620533,574.848363820974,719.715248510402,3,3,6,4,5,6,vertical,vertical,vertical,horizontal,vertical,horizontal
1b,11,100196,3,25,153,22,F,NA,constant,heterogeneous,5,present,NaN,0,horizontal,none,0,0.952933447936485,red,4,2,712.784863451954,360.378381699593,1011.40458100154,742.594190385041,729.712474266665,845.121732464271,1011.40458100154,742.594190385041,1000.94274216971,443.006323791957,712.784863451954,360.378381699593,545.155339110131,608.899371659138,0,0,5,0,0,4,6,NaN,vertical,vertical,vertical,horizontal,vertical,none
1b,11,100196,3,26,154,22,F,NA,constant,heterogeneous,5,present,1.16713309288025,1,vertical,vertical,1,0.623528896529099,red,5,3,547.481642470899,635.489140744817,983.431649086356,422.862115532956,755.719714694933,851.125977018113,1025.15163617903,719.715248510402,983.431649086356,422.862115532956,688.215357568785,370.807518193712,547.481642470899,635.489140744817,0,0,6,0,6,3,4,NaN,horizontal,horizontal,horizontal,vertical,vertical,none
1b,11,100196,3,27,155,22,F,NA,constant,heterogeneous,6,absent,0.975817203521729,1,vertical,vertical,1,1.04704903405288,red,3,NaN,931.334709102064,381.422338320961,NaN,NaN,923.626453162816,823.028025320546,1054.96116226488,604.450363641507,931.334709102064,381.422338320961,676.373546837184,376.971974679454,545.03883773512,595.549636358493,668.665290897936,818.577661679039,5,0,4,3,5,6,horizontal,vertical,vertical,vertical,horizontal,vertical
1b,11,100196,3,28,156,22,F,NA,constant,heterogeneous,6,present,0.892968893051147,1,vertical,vertical,1,0.870582310084639,red,4,5,786.654331158049,345.349468637584,572.793336331966,484.232422566416,813.345668841951,854.650531362416,1027.20666366803,715.767577433584,1013.86099482608,461.117046071168,786.654331158049,345.349468637584,572.793336331966,484.232422566416,586.139005173917,738.882953928832,6,0,5,4,3,0,horizontal,vertical,vertical,vertical,horizontal,horizontal
1b,11,100196,3,29,157,22,F,NA,constant,heterogeneous,4,absent,0.786746978759766,1,horizontal,horizontal,1,0.976462344465585,red,4,NaN,591.116228706307,746.261991269517,NaN,NaN,946.261991269517,808.883771293693,1008.88377129369,453.738008730483,653.738008730483,391.116228706307,591.116228706307,746.261991269517,0,0,0,0,6,6,0,4,NaN,NaN,vertical,horizontal,vertical,horizontal,none,none
1b,11,100196,3,30,158,22,F,NA,constant,heterogeneous,6,absent,1.15094399452209,1,horizontal,horizontal,1,0.623528896529099,red,6,NaN,653.738008730483,808.883771293693,NaN,NaN,907.767656743878,831.108485694346,1054.0296480134,622.224714400653,946.261991269517,391.116228706307,692.232343256122,368.891514305654,545.970351986605,577.775285599347,653.738008730483,808.883771293693,3,5,3,0,0,4,vertical,horizontal,vertical,vertical,vertical,horizontal
1b,11,100196,3,31,159,22,F,NA,constant,heterogeneous,4,absent,0.738764047622681,1,vertical,vertical,1,1.03528458578833,red,4,NaN,554.878267535729,529.712474266665,NaN,NaN,729.712474266665,845.121732464271,1045.12173246427,670.287525733335,870.287525733335,354.878267535729,554.878267535729,529.712474266665,0,0,0,0,5,0,6,4,NaN,NaN,horizontal,vertical,vertical,vertical,none,none
1b,11,100196,3,32,160,22,F,NA,constant,heterogeneous,5,absent,1.17897701263428,1,vertical,vertical,1,0.658822241322748,red,2,NaN,1047.42541020038,661.690083377915,NaN,NaN,817.787900804752,854.378832816255,1047.42541020038,661.690083377915,935.129412379467,383.747735480111,636.089159529932,404.658667004661,563.568117085469,695.524681321058,0,0,3,4,5,0,0,NaN,horizontal,vertical,vertical,horizontal,horizontal,none
1b,11,100196,3,33,161,22,F,NA,constant,heterogeneous,5,absent,1.70552086830139,1,horizontal,horizontal,1,0.941168999671936,red,3,NaN,887.215136548046,360.378381699593,NaN,NaN,870.287525733335,845.121732464271,1054.84466088987,608.899371659138,887.215136548046,360.378381699593,599.057257830286,443.006323791957,588.595418998464,742.594190385041,0,0,3,3,4,6,5,NaN,vertical,horizontal,horizontal,vertical,vertical,none
1b,11,100196,3,34,162,22,F,NA,constant,heterogeneous,3,absent,1.17660403251648,1,vertical,vertical,1,0.635293344793649,red,3,NaN,545.155339110131,591.100628340862,NaN,NaN,919.715248510402,825.151636179026,935.129412379467,383.747735480111,545.155339110131,591.100628340862,0,0,0,0,0,0,3,3,4,NaN,NaN,NaN,horizontal,vertical,vertical,none,none,none
1b,11,100196,3,35,163,22,F,NA,constant,heterogeneous,4,present,0.747993230819702,1,vertical,vertical,1,0.776466723968243,red,3,1,883.019879386575,358.892763222174,716.980120613425,841.107236777826,716.980120613425,841.107236777826,1041.10723677783,683.019879386575,883.019879386575,358.892763222174,558.892763222174,516.980120613425,0,0,0,0,6,3,4,0,NaN,NaN,vertical,horizontal,vertical,horizontal,none,none
1b,11,100196,3,36,164,22,F,NA,constant,heterogeneous,6,present,0.729683876037598,1,vertical,vertical,1,0.929404551407387,red,2,1,1054.84466088987,608.899371659138,919.715248510402,825.151636179026,919.715248510402,825.151636179026,1054.84466088987,608.899371659138,935.129412379467,383.747735480111,680.284751489598,374.848363820974,545.155339110131,591.100628340862,664.870587620533,816.252264519889,0,4,0,6,5,5,vertical,vertical,horizontal,vertical,vertical,vertical
1b,11,100196,3,37,165,22,F,NA,constant,heterogeneous,4,present,1.51087784767151,1,horizontal,horizontal,1,0.717644482645495,red,1,3,938.882953928832,813.860994826083,661.117046071168,386.139005173917,938.882953928832,813.860994826083,1013.86099482608,461.117046071168,661.117046071168,386.139005173917,586.139005173917,738.882953928832,0,0,0,0,4,3,5,6,NaN,NaN,horizontal,horizontal,vertical,vertical,none,none
1b,11,100196,3,38,166,22,F,NA,constant,heterogeneous,6,absent,1.31258988380432,1,vertical,vertical,1,0.952933447936485,red,2,NaN,1036.43188291453,695.524681321058,NaN,NaN,835.489140744817,852.518357529101,1036.43188291453,695.524681321058,1000.94274216971,443.006323791957,764.510859255183,347.4816424709,563.568117085469,504.475318678942,599.057257830286,756.993676208043,3,4,6,5,3,0,horizontal,vertical,horizontal,vertical,horizontal,horizontal
1b,11,100196,3,39,167,22,F,NA,constant,heterogeneous,6,present,0.979723215103149,1,vertical,vertical,1,1.04704903405288,red,6,3,556.142287229426,674.554784704298,1043.85771277057,525.445215295702,742.637481142314,848.464366520235,986.495193912888,773.909581815937,1043.85771277057,525.445215295702,857.362518857686,351.535633479765,613.504806087112,426.090418184063,556.142287229426,674.554784704298,3,3,5,5,0,4,vertical,vertical,horizontal,vertical,horizontal,vertical
1b,11,100196,3,40,168,22,F,NA,constant,heterogeneous,3,absent,0.719496965408325,1,vertical,vertical,1,0.999991240994684,red,2,NaN,1027.20666366803,715.767577433584,NaN,NaN,586.139005173917,738.882953928832,1027.20666366803,715.767577433584,786.654331158049,345.349468637584,0,0,0,0,0,0,3,4,5,NaN,NaN,NaN,vertical,vertical,vertical,none,none,none
1b,11,100196,3,41,169,22,F,NA,constant,heterogeneous,3,present,0.6668541431427,1,vertical,vertical,1,0.635293344793649,red,1,3,700.363562235235,834.728737630372,646.537169096228,396.34794493794,700.363562235235,834.728737630372,1053.09926866854,568.923317431687,646.537169096228,396.34794493794,0,0,0,0,0,0,4,6,3,NaN,NaN,NaN,vertical,vertical,horizontal,none,none,none
1b,11,100196,3,42,170,22,F,NA,constant,heterogeneous,3,absent,1.15629100799561,1,vertical,vertical,1,0.6,red,3,NaN,786.654331158049,345.349468637584,NaN,NaN,586.139005173917,738.882953928832,1027.20666366803,715.767577433584,786.654331158049,345.349468637584,0,0,0,0,0,0,5,0,4,NaN,NaN,NaN,horizontal,horizontal,vertical,none,none,none
1b,11,100196,3,43,171,22,F,NA,constant,heterogeneous,5,present,0.77279806137085,1,horizontal,horizontal,1,0.658822241322748,red,2,5,1053.60308331891,626.654758133252,579.163522034968,727.5,853.017481158529,849.42763818712,1053.60308331891,626.654758133252,903.717843984329,367.045908301137,610.498069503264,429.371695378491,579.163522034968,727.5,0,0,0,4,6,0,5,NaN,vertical,horizontal,vertical,vertical,vertical,none
1b,11,100196,3,44,172,22,F,NA,constant,heterogeneous,3,present,0.714956045150757,1,vertical,vertical,1,0.929404551407387,red,2,1,804.450363641507,345.03883773512,1018.57766167904,731.334709102064,1018.57766167904,731.334709102064,804.450363641507,345.03883773512,576.971974679454,723.626453162816,0,0,0,0,0,0,5,4,0,NaN,NaN,NaN,vertical,vertical,vertical,none,none,none
1b,11,100196,3,45,173,22,F,NA,constant,heterogeneous,6,absent,1.81033205986023,0,horizontal,vertical,1,0.858817861820089,red,2,NaN,953.462830903772,803.65205506206,NaN,NaN,700.363562235235,834.728737630372,953.462830903772,803.65205506206,1053.09926866854,568.923317431687,899.636437764765,365.271262369628,646.537169096228,396.34794493794,546.900731331463,631.076682568313,6,4,5,5,6,3,horizontal,horizontal,vertical,vertical,horizontal,vertical
1b,11,100196,3,46,174,22,F,NA,constant,heterogeneous,4,present,0.681643962860107,1,vertical,vertical,1,0.729408930910045,red,2,1,1000.94274216971,756.993676208043,643.006323791957,800.942742169714,643.006323791957,800.942742169714,1000.94274216971,756.993676208043,956.993676208043,399.057257830286,599.057257830286,443.006323791957,0,0,0,0,6,4,0,0,NaN,NaN,horizontal,vertical,vertical,vertical,none,none
1b,11,100196,3,47,175,22,F,NA,constant,heterogeneous,4,absent,1.17158794403076,1,vertical,vertical,1,0.799995620497342,red,1,NaN,808.899371659138,854.844660889869,NaN,NaN,808.899371659138,854.844660889869,1054.84466088987,591.100628340862,791.100628340862,345.155339110131,545.155339110131,608.899371659138,0,0,0,0,4,0,6,3,NaN,NaN,vertical,horizontal,horizontal,horizontal,none,none
1b,11,100196,3,48,176,22,F,NA,constant,heterogeneous,3,absent,0.743318796157837,1,horizontal,horizontal,1,0.611764448264549,red,2,NaN,1011.40458100154,457.40580961496,NaN,NaN,817.787900804752,854.378832816255,1011.40458100154,457.40580961496,570.807518193712,488.215357568785,0,0,0,0,0,0,0,4,3,NaN,NaN,NaN,horizontal,horizontal,vertical,none,none,none
1b,11,100196,3,49,177,22,F,NA,constant,heterogeneous,4,present,1.05115509033203,1,horizontal,horizontal,1,1.03528458578833,red,2,1,1054.96116226488,604.450363641507,795.549636358493,854.96116226488,795.549636358493,854.96116226488,1054.96116226488,604.450363641507,804.450363641507,345.03883773512,545.03883773512,595.549636358493,0,0,0,0,0,4,6,5,NaN,NaN,horizontal,horizontal,vertical,horizontal,none,none
1b,11,100196,3,50,178,22,F,NA,constant,heterogeneous,6,absent,1.00876092910767,1,horizontal,horizontal,1,0.823524517026441,red,1,NaN,688.215357568785,829.192481806288,NaN,NaN,688.215357568785,829.192481806288,942.594190385041,811.404581001536,1054.37883281626,582.212099195248,911.784642431215,370.807518193712,657.405809614959,388.595418998464,545.621167183745,617.787900804752,4,3,6,0,3,5,horizontal,vertical,vertical,horizontal,vertical,horizontal
1b,11,100196,3,51,179,22,F,NA,constant,heterogeneous,6,present,0.785323858261108,1,horizontal,horizontal,1,0.811760068761891,red,1,6,676.373546837184,823.028025320546,545.03883773512,604.450363641507,676.373546837184,823.028025320546,931.334709102064,818.577661679039,1054.96116226488,595.549636358493,923.626453162816,376.971974679454,668.665290897936,381.422338320961,545.03883773512,604.450363641507,4,0,3,6,0,5,horizontal,vertical,horizontal,vertical,vertical,horizontal
1b,11,100196,3,52,180,22,F,NA,constant,heterogeneous,3,absent,0.88717794418335,1,horizontal,horizontal,1,0.694115586116396,red,2,NaN,1041.10723677783,516.980120613425,NaN,NaN,751.343706178981,850.314931779154,1041.10723677783,516.980120613425,607.549057043193,432.704947607421,0,0,0,0,0,0,0,4,5,NaN,NaN,NaN,vertical,horizontal,vertical,none,none,none
1b,11,100196,3,53,181,22,F,NA,constant,heterogeneous,3,present,0.604776859283447,1,vertical,vertical,1,0.988226792730134,red,2,1,1041.10723677783,516.980120613425,751.343706178981,850.314931779154,751.343706178981,850.314931779154,1041.10723677783,516.980120613425,607.549057043193,432.704947607421,0,0,0,0,0,0,3,4,0,NaN,NaN,NaN,vertical,vertical,vertical,none,none,none
1b,11,100196,3,54,182,22,F,NA,constant,heterogeneous,4,absent,1.17251801490784,1,vertical,vertical,1,0.964697896201035,red,3,NaN,729.712474266665,354.878267535729,NaN,NaN,870.287525733335,845.121732464271,1045.12173246427,529.712474266665,729.712474266665,354.878267535729,554.878267535729,670.287525733335,0,0,0,0,3,0,4,5,NaN,NaN,vertical,vertical,vertical,horizontal,none,none
1b,11,100196,3,55,183,22,F,NA,constant,heterogeneous,4,present,0.986362934112549,1,vertical,vertical,1,0.929404551407387,red,3,1,782.212099195248,345.621167183745,817.787900804752,854.378832816255,817.787900804752,854.378832816255,1054.37883281626,582.212099195248,782.212099195248,345.621167183745,545.621167183745,617.787900804752,0,0,0,0,0,5,4,6,NaN,NaN,horizontal,horizontal,vertical,horizontal,none,none
1b,11,100196,3,56,184,22,F,NA,constant,heterogeneous,4,present,0.7587890625,1,horizontal,horizontal,1,0.823524517026441,red,3,2,742.637481142314,351.535633479765,1048.46436652023,542.637481142314,857.362518857686,848.464366520235,1048.46436652023,542.637481142314,742.637481142314,351.535633479765,551.535633479765,657.362518857686,0,0,0,0,0,0,4,6,NaN,NaN,horizontal,horizontal,horizontal,vertical,none,none
1b,11,100196,3,57,185,22,F,NA,constant,heterogeneous,3,present,0.997858047485352,1,horizontal,horizontal,1,0.788231172232792,red,3,2,568.891514305654,492.232343256122,1008.88377129369,453.738008730483,822.224714400653,854.029648013395,1008.88377129369,453.738008730483,568.891514305654,492.232343256122,0,0,0,0,0,0,3,6,4,NaN,NaN,NaN,horizontal,horizontal,horizontal,none,none,none
1b,11,100196,3,58,186,22,F,NA,constant,heterogeneous,5,present,0.814589023590088,1,vertical,vertical,1,0.623528896529099,red,3,4,980.31222920257,419.68777079743,684.232422566416,372.793336331966,760.109211414741,851.86052685176,1027.20666366803,715.767577433584,980.31222920257,419.68777079743,684.232422566416,372.793336331966,548.13947314824,639.890788585259,0,0,0,6,4,3,5,NaN,vertical,horizontal,vertical,horizontal,horizontal,none
1b,11,100196,3,59,187,22,F,NA,constant,heterogeneous,4,absent,0.796448945999146,1,horizontal,horizontal,1,0.682351137851847,red,3,NaN,956.993676208043,399.057257830286,NaN,NaN,643.006323791957,800.942742169714,1000.94274216971,756.993676208043,956.993676208043,399.057257830286,599.057257830286,443.006323791957,0,0,0,0,5,0,4,6,NaN,NaN,vertical,horizontal,horizontal,horizontal,none,none
1b,11,100196,3,60,188,22,F,NA,constant,heterogeneous,3,absent,1.25916504859924,0,horizontal,vertical,1,0.929404551407387,red,3,NaN,746.982518841471,350.57236181288,NaN,NaN,610.498069503264,770.628304621509,1042.51941165526,678.799333565612,746.982518841471,350.57236181288,0,0,0,0,0,0,3,0,4,NaN,NaN,NaN,vertical,horizontal,horizontal,none,none,none
1b,11,100196,3,61,189,22,F,NA,constant,heterogeneous,5,absent,0.876784086227417,1,vertical,vertical,1,0.999991240994684,red,2,NaN,1043.85771277057,674.554784704298,NaN,NaN,804.450363641507,854.96116226488,1043.85771277057,674.554784704298,946.261991269517,391.116228706307,646.537169096228,396.34794493794,558.892763222174,683.019879386575,0,0,5,4,3,6,6,NaN,vertical,vertical,horizontal,horizontal,horizontal,none
1b,11,100196,3,62,190,22,F,NA,constant,heterogeneous,6,absent,1.61924910545349,1,horizontal,horizontal,1,0.647057793058198,red,5,NaN,650.114760665419,393.700666434388,NaN,NaN,696.282156015671,832.954091698863,949.885239334581,806.299333565612,1053.60308331891,573.345241866748,903.717843984329,367.045908301137,650.114760665419,393.700666434388,546.39691668109,626.654758133252,0,5,5,6,4,0,vertical,horizontal,vertical,vertical,horizontal,vertical
1b,11,100196,3,63,191,22,F,NA,constant,heterogeneous,5,absent,1.02921605110168,1,horizontal,horizontal,1,0.870582310084639,red,2,NaN,1020.83647796503,727.5,NaN,NaN,746.982518841471,849.42763818712,1020.83647796503,727.5,989.501930496736,429.371695378491,696.282156015671,367.045908301137,546.39691668109,626.654758133252,0,0,6,4,5,5,6,NaN,vertical,horizontal,vertical,horizontal,vertical,none
1b,11,100196,3,64,192,22,F,NA,constant,heterogeneous,6,absent,1.21549987792969,1,vertical,vertical,1,0.682351137851847,red,6,NaN,570.807518193712,711.784642431215,NaN,NaN,782.212099195248,854.378832816255,1011.40458100154,742.594190385041,1029.19248180629,488.215357568785,817.787900804752,345.621167183745,588.595418998464,457.40580961496,570.807518193712,711.784642431215,3,6,3,0,0,4,horizontal,vertical,horizontal,horizontal,vertical,vertical
1b,11,100196,4,1,193,22,F,NA,constant,heterogeneous,6,present,0.995490789413452,1,horizontal,horizontal,1,0.905875654878287,red,5,4,550.57236181288,546.982518841471,721.200666434388,357.480588344736,878.799333565612,842.519411655264,1049.42763818712,653.017481158529,970.628304621509,410.498069503264,721.200666434388,357.480588344736,550.57236181288,546.982518841471,629.371695378491,789.501930496736,0,5,6,0,4,3,horizontal,horizontal,horizontal,vertical,horizontal,horizontal
1b,11,100196,4,2,194,22,F,NA,constant,heterogeneous,3,absent,0.736028909683228,1,vertical,vertical,1,0.635293344793649,red,2,NaN,844.280285305067,348.874022981887,NaN,NaN,995.341332995339,763.910840470068,844.280285305067,348.874022981887,560.378381699593,687.215136548046,0,0,0,0,0,0,5,4,0,NaN,NaN,NaN,horizontal,vertical,vertical,none,none,none
1b,11,100196,4,3,195,22,F,NA,constant,heterogeneous,4,absent,0.813462018966675,1,vertical,vertical,1,0.717644482645495,red,1,NaN,949.885239334581,806.299333565612,NaN,NaN,949.885239334581,806.299333565612,1006.29933356561,450.114760665419,650.114760665419,393.700666434388,593.700666434388,749.885239334581,0,0,0,0,4,5,6,3,NaN,NaN,vertical,vertical,vertical,vertical,none,none
1b,11,100196,4,4,196,22,F,NA,constant,heterogeneous,3,present,0.60677695274353,1,vertical,vertical,1,0.647057793058198,red,1,3,1016.25226451989,735.129412379467,574.848363820974,719.715248510402,1016.25226451989,735.129412379467,808.899371659138,345.155339110131,574.848363820974,719.715248510402,0,0,0,0,0,0,4,3,6,NaN,NaN,NaN,vertical,vertical,horizontal,none,none,none
1b,11,100196,4,5,197,22,F,NA,constant,heterogeneous,4,absent,0.676873922348022,1,horizontal,horizontal,1,0.694115586116396,red,4,NaN,596.34794493794,446.537169096228,NaN,NaN,646.537169096228,803.65205506206,1003.65205506206,753.462830903772,953.462830903772,396.34794493794,596.34794493794,446.537169096228,0,0,0,0,0,5,6,4,NaN,NaN,horizontal,horizontal,vertical,horizontal,none,none
1b,11,100196,4,6,198,22,F,NA,constant,heterogeneous,6,absent,0.721024990081787,1,horizontal,horizontal,1,0.729408930910045,red,6,NaN,591.116228706307,746.261991269517,NaN,NaN,822.224714400653,854.029648013395,1031.10848569435,707.767656743878,1008.88377129369,453.738008730483,777.775285599347,345.970351986605,568.891514305654,492.232343256122,591.116228706307,746.261991269517,5,6,6,3,0,4,horizontal,horizontal,horizontal,vertical,vertical,horizontal
1b,11,100196,4,7,199,22,F,NA,constant,heterogeneous,5,absent,0.929122924804688,1,horizontal,horizontal,1,0.870582310084639,red,4,NaN,676.373546837184,376.971974679454,NaN,NaN,768.923317431687,853.099268668537,1031.10848569435,707.767656743878,973.909581815937,413.504806087112,676.373546837184,376.971974679454,549.685068220846,648.656293821019,0,0,6,5,3,4,0,NaN,horizontal,vertical,horizontal,horizontal,horizontal,none
1b,11,100196,4,8,200,22,F,NA,constant,heterogeneous,5,present,0.699142932891846,1,vertical,vertical,1,0.952933447936485,red,1,3,946.261991269517,808.883771293693,804.450363641507,345.03883773512,946.261991269517,808.883771293693,1043.85771277057,525.445215295702,804.450363641507,345.03883773512,558.892763222174,516.980120613425,646.537169096228,803.65205506206,0,0,4,0,3,6,5,NaN,vertical,vertical,horizontal,vertical,vertical,none
1b,11,100196,4,9,201,22,F,NA,constant,heterogeneous,5,present,0.749504089355469,1,horizontal,horizontal,1,0.811760068761891,red,2,3,1050.31493177915,551.343706178981,831.076682568313,346.900731331463,923.626453162816,823.028025320546,1050.31493177915,551.343706178981,831.076682568313,346.900731331463,568.891514305654,492.232343256122,626.090418184063,786.495193912888,0,0,5,4,6,0,0,NaN,horizontal,horizontal,horizontal,vertical,vertical,none
1b,11,100196,4,10,202,22,F,NA,constant,heterogeneous,3,absent,0.632528066635132,1,vertical,vertical,1,1.01175568925923,red,2,NaN,919.715248510402,374.848363820974,NaN,NaN,935.129412379467,816.252264519889,919.715248510402,374.848363820974,545.155339110131,608.899371659138,0,0,0,0,0,0,0,4,3,NaN,NaN,NaN,vertical,vertical,horizontal,none,none,none
1b,11,100196,4,11,203,22,F,NA,constant,heterogeneous,5,present,0.850064039230347,1,horizontal,horizontal,1,0.635293344793649,red,2,3,1032.95409169886,703.717843984329,970.628304621509,410.498069503264,773.345241866748,853.60308331891,1032.95409169886,703.717843984329,970.628304621509,410.498069503264,672.5,379.163522034968,550.57236181288,653.017481158529,0,0,5,4,5,3,0,NaN,horizontal,horizontal,horizontal,horizontal,vertical,none
1b,11,100196,4,12,204,22,F,NA,constant,heterogeneous,4,present,0.854568958282471,1,horizontal,horizontal,1,0.752937827439144,red,1,4,861.690083377915,847.425410200379,552.574589799621,661.690083377915,861.690083377915,847.425410200379,1047.42541020038,538.309916622085,738.309916622085,352.574589799621,552.574589799621,661.690083377915,0,0,0,0,4,0,5,3,NaN,NaN,horizontal,horizontal,horizontal,vertical,none,none
1b,11,100196,4,13,205,22,F,NA,constant,heterogeneous,4,absent,1.04571914672852,1,vertical,vertical,1,1.09410682711108,red,3,NaN,639.523300282292,401.827779828472,NaN,NaN,960.476699717708,798.172220171528,998.172220171528,439.523300282291,639.523300282292,401.827779828472,601.827779828472,760.476699717708,0,0,0,0,5,0,4,5,NaN,NaN,vertical,horizontal,vertical,vertical,none,none
1b,11,100196,4,14,206,22,F,NA,constant,heterogeneous,6,absent,1.12379598617554,1,horizontal,horizontal,1,0.84705341355554,red,5,NaN,632.704947607421,407.549057043193,NaN,NaN,716.980120613425,841.107236777826,967.295052392579,792.450942956807,1050.31493177915,551.343706178981,883.019879386575,358.892763222174,632.704947607421,407.549057043193,549.685068220846,648.656293821019,0,0,5,3,4,6,horizontal,horizontal,vertical,vertical,horizontal,horizontal
1b,11,100196,4,15,207,22,F,NA,constant,heterogeneous,5,absent,1.07248401641846,1,vertical,vertical,1,0.905875654878287,red,3,NaN,813.345668841951,345.349468637584,NaN,NaN,938.882953928832,813.860994826083,1046.31108570371,534.001143498857,813.345668841951,345.349468637584,561.936991243214,508.616172865948,639.523300282292,798.172220171528,0,0,3,5,4,0,3,NaN,vertical,vertical,vertical,vertical,vertical,none
1b,11,100196,4,16,208,22,F,NA,constant,heterogeneous,3,present,0.905083894729614,1,horizontal,horizontal,1,0.941168999671936,red,2,3,998.172220171528,439.523300282291,561.936991243214,508.616172865948,839.890788585259,851.86052685176,998.172220171528,439.523300282291,561.936991243214,508.616172865948,0,0,0,0,0,0,5,4,3,NaN,NaN,NaN,vertical,horizontal,vertical,none,none,none
1b,11,100196,4,17,209,22,F,NA,constant,heterogeneous,3,absent,0.918374061584473,1,vertical,vertical,1,0.941168999671936,red,3,NaN,558.892763222174,516.980120613425,NaN,NaN,848.656293821019,850.314931779154,992.450942956807,432.704947607421,558.892763222174,516.980120613425,0,0,0,0,0,0,3,0,4,NaN,NaN,NaN,vertical,vertical,vertical,none,none,none
1b,11,100196,4,18,210,22,F,NA,constant,heterogeneous,5,present,1.28259205818176,1,vertical,vertical,1,0.882346758349188,red,5,1,632.704947607421,792.450942956807,931.334709102064,818.577661679039,931.334709102064,818.577661679039,1048.46436652023,542.637481142314,822.224714400653,345.970351986605,565.271262369628,500.363562235235,632.704947607421,792.450942956807,0,0,6,0,5,3,4,NaN,vertical,horizontal,vertical,horizontal,vertical,none
1b,11,100196,4,19,211,22,F,NA,constant,heterogeneous,3,present,0.633263111114502,1,vertical,vertical,1,0.635293344793649,red,1,3,643.006323791957,800.942742169714,704.475318678942,363.568117085469,643.006323791957,800.942742169714,1052.5183575291,635.489140744817,704.475318678942,363.568117085469,0,0,0,0,0,0,4,6,6,NaN,NaN,NaN,vertical,horizontal,horizontal,none,none,none
1b,11,100196,4,20,212,22,F,NA,constant,heterogeneous,3,absent,0.74245810508728,1,horizontal,horizontal,1,0.823524517026441,red,2,NaN,1053.60308331891,573.345241866748,NaN,NaN,696.282156015671,832.954091698863,1053.60308331891,573.345241866748,650.114760665419,393.700666434388,0,0,0,0,0,0,5,4,0,NaN,NaN,NaN,vertical,horizontal,vertical,none,none,none
1b,11,100196,4,21,213,22,F,NA,constant,heterogeneous,3,present,0.612461090087891,1,vertical,vertical,1,0.752937827439144,red,3,2,545.03883773512,604.450363641507,923.626453162816,376.971974679454,931.334709102064,818.577661679039,923.626453162816,376.971974679454,545.03883773512,604.450363641507,0,0,0,0,0,0,3,6,4,NaN,NaN,NaN,vertical,horizontal,vertical,none,none,none
1b,11,100196,4,22,214,22,F,NA,constant,heterogeneous,6,present,0.768290996551514,1,horizontal,horizontal,1,0.964697896201035,red,2,3,995.341332995339,763.910840470068,1039.62161830041,512.784863451954,755.719714694933,851.125977018113,995.341332995339,763.910840470068,1039.62161830041,512.784863451954,844.280285305067,348.874022981887,604.658667004661,436.089159529932,560.378381699593,687.215136548046,0,4,5,5,3,6,vertical,horizontal,vertical,horizontal,vertical,horizontal
1b,11,100196,4,23,215,22,F,NA,constant,heterogeneous,3,present,0.960460901260376,1,horizontal,horizontal,1,0.823524517026441,red,2,1,822.224714400653,345.970351986605,1008.88377129369,746.261991269517,1008.88377129369,746.261991269517,822.224714400653,345.970351986605,568.891514305654,707.767656743878,0,0,0,0,0,0,5,4,3,NaN,NaN,NaN,vertical,horizontal,vertical,none,none,none
1b,11,100196,4,24,216,22,F,NA,constant,heterogeneous,5,absent,1.90027713775635,0,horizontal,vertical,1,0.623528896529099,red,3,NaN,822.224714400653,345.970351986605,NaN,NaN,931.334709102064,818.577661679039,1048.46436652023,542.637481142314,822.224714400653,345.970351986605,565.271262369628,500.363562235235,632.704947607421,792.450942956807,0,0,3,0,4,6,0,NaN,horizontal,horizontal,horizontal,vertical,horizontal,none
1b,11,100196,4,25,217,22,F,NA,constant,heterogeneous,4,present,1.41418194770813,1,vertical,vertical,1,0.788231172232792,red,4,3,549.685068220846,551.343706178981,848.656293821019,349.685068220846,751.343706178981,850.314931779154,1050.31493177915,648.656293821019,848.656293821019,349.685068220846,549.685068220846,551.343706178981,0,0,0,0,5,0,3,4,NaN,NaN,vertical,horizontal,horizontal,vertical,none,none
1b,11,100196,4,26,218,22,F,NA,constant,heterogeneous,4,absent,0.825523853302002,1,horizontal,horizontal,1,0.941168999671936,red,4,NaN,553.688914296288,665.998856501143,NaN,NaN,865.998856501143,846.311085703712,1046.31108570371,534.001143498857,734.001143498857,353.688914296288,553.688914296288,665.998856501143,0,0,0,0,6,0,5,4,NaN,NaN,vertical,vertical,horizontal,horizontal,none,none
1b,11,100196,4,27,219,22,F,NA,constant,heterogeneous,4,present,1.05898499488831,1,horizontal,horizontal,1,0.83528896529099,red,2,3,1031.10848569435,492.232343256122,692.232343256122,368.891514305654,907.767656743878,831.108485694346,1031.10848569435,492.232343256122,692.232343256122,368.891514305654,568.891514305654,707.767656743878,0,0,0,0,3,4,5,3,NaN,NaN,vertical,horizontal,horizontal,vertical,none,none
1b,11,100196,4,28,220,22,F,NA,constant,heterogeneous,3,absent,0.911141872406006,1,vertical,vertical,1,0.741173379174594,red,2,NaN,1054.0296480134,622.224714400653,NaN,NaN,653.738008730483,808.883771293693,1054.0296480134,622.224714400653,692.232343256122,368.891514305654,0,0,0,0,0,0,3,4,0,NaN,NaN,NaN,vertical,vertical,horizontal,none,none,none
1b,11,100196,4,29,221,22,F,NA,constant,heterogeneous,4,present,0.747039079666138,1,vertical,vertical,1,0.670586689587297,red,4,2,588.595418998464,457.40580961496,1011.40458100154,742.594190385041,657.405809614959,811.404581001536,1011.40458100154,742.594190385041,942.594190385041,388.595418998464,588.595418998464,457.40580961496,0,0,0,0,0,3,0,4,NaN,NaN,horizontal,vertical,vertical,vertical,none,none
1b,11,100196,4,30,222,22,F,NA,constant,heterogeneous,5,present,0.687351942062378,1,horizontal,horizontal,1,0.858817861820089,red,2,4,1018.57766167904,731.334709102064,700.363562235235,365.271262369628,742.637481142314,848.464366520235,1018.57766167904,731.334709102064,992.450942956807,432.704947607421,700.363562235235,365.271262369628,545.970351986605,622.224714400653,0,0,6,4,6,5,0,NaN,vertical,horizontal,horizontal,vertical,horizontal,none
1b,11,100196,4,31,223,22,F,NA,constant,heterogeneous,6,absent,1.44626212120056,0,vertical,horizontal,1,1.05881348231743,red,1,NaN,734.001143498857,846.311085703712,NaN,NaN,734.001143498857,846.311085703712,980.31222920257,780.31222920257,1046.31108570371,534.001143498857,865.998856501143,353.688914296288,619.68777079743,419.68777079743,553.688914296288,665.998856501143,4,6,5,0,3,5,vertical,vertical,vertical,vertical,vertical,horizontal
1b,11,100196,4,32,224,22,F,NA,constant,heterogeneous,6,present,1.86152100563049,1,vertical,vertical,1,0.894111206613738,red,5,2,650.114760665419,393.700666434388,949.885239334581,806.299333565612,696.282156015671,832.954091698863,949.885239334581,806.299333565612,1053.60308331891,573.345241866748,903.717843984329,367.045908301137,650.114760665419,393.700666434388,546.39691668109,626.654758133252,5,0,0,3,4,3,vertical,horizontal,vertical,vertical,vertical,horizontal
1b,11,100196,4,33,225,22,F,NA,constant,heterogeneous,6,present,0.906861066818237,1,vertical,vertical,1,0.988226792730134,red,3,2,995.341332995339,436.089159529932,1039.62161830041,687.215136548046,844.280285305067,851.125977018113,1039.62161830041,687.215136548046,995.341332995339,436.089159529932,755.719714694933,348.874022981887,560.378381699593,512.784863451954,604.658667004661,763.910840470068,5,0,4,5,3,6,vertical,horizontal,vertical,horizontal,horizontal,vertical
1b,11,100196,4,34,226,22,F,NA,constant,heterogeneous,3,present,0.689021110534668,1,horizontal,horizontal,1,0.788231172232792,red,2,1,903.717843984329,367.045908301137,949.885239334581,806.299333565612,949.885239334581,806.299333565612,903.717843984329,367.045908301137,546.39691668109,626.654758133252,0,0,0,0,0,0,3,4,0,NaN,NaN,NaN,vertical,horizontal,horizontal,none,none,none
1b,11,100196,4,35,227,22,F,NA,constant,heterogeneous,4,present,0.680022001266479,1,vertical,vertical,1,1.05881348231743,red,1,2,664.870587620533,816.252264519889,1016.25226451989,735.129412379467,664.870587620533,816.252264519889,1016.25226451989,735.129412379467,935.129412379467,383.747735480111,583.747735480111,464.870587620533,0,0,0,0,4,5,3,5,NaN,NaN,vertical,horizontal,horizontal,horizontal,none,none
1b,11,100196,4,36,228,22,F,NA,constant,heterogeneous,4,absent,0.712993860244751,1,vertical,vertical,1,0.964697896201035,red,4,NaN,588.595418998464,742.594190385041,NaN,NaN,942.594190385041,811.404581001536,1011.40458100154,457.40580961496,657.405809614959,388.595418998464,588.595418998464,742.594190385041,0,0,0,0,3,0,0,4,NaN,NaN,vertical,horizontal,vertical,vertical,none,none
1b,11,100196,4,37,229,22,F,NA,constant,heterogeneous,6,absent,1.06008696556091,1,horizontal,horizontal,1,0.823524517026441,red,1,NaN,684.232422566416,827.206663668034,NaN,NaN,684.232422566416,827.206663668034,938.882953928832,813.860994826083,1054.65053136242,586.654331158049,915.767577433584,372.793336331966,661.117046071168,386.139005173917,545.349468637584,613.345668841951,4,6,5,3,0,6,horizontal,vertical,horizontal,horizontal,horizontal,horizontal
1b,11,100196,4,38,230,22,F,NA,constant,heterogeneous,6,absent,1.0599730014801,1,horizontal,horizontal,1,0.929404551407387,red,5,NaN,550.57236181288,546.982518841471,NaN,NaN,878.799333565612,842.519411655264,1049.42763818712,653.017481158529,970.628304621509,410.498069503264,721.200666434388,357.480588344736,550.57236181288,546.982518841471,629.371695378491,789.501930496736,3,0,6,0,4,6,horizontal,vertical,vertical,horizontal,horizontal,horizontal
1b,11,100196,4,39,231,22,F,NA,constant,heterogeneous,4,present,1.0750789642334,1,horizontal,horizontal,1,0.882346758349188,red,3,4,927.5,379.163522034968,579.163522034968,472.5,672.5,820.836477965032,1020.83647796503,727.5,927.5,379.163522034968,579.163522034968,472.5,0,0,0,0,3,0,4,6,NaN,NaN,vertical,horizontal,horizontal,vertical,none,none
1b,11,100196,4,40,232,22,F,NA,constant,heterogeneous,4,absent,0.753399848937988,1,vertical,vertical,1,0.823524517026441,red,4,NaN,552.574589799621,661.690083377915,NaN,NaN,861.690083377915,847.425410200379,1047.42541020038,538.309916622085,738.309916622085,352.574589799621,552.574589799621,661.690083377915,0,0,0,0,0,5,5,4,NaN,NaN,horizontal,horizontal,horizontal,vertical,none,none
1b,11,100196,4,41,233,22,F,NA,constant,heterogeneous,5,absent,1.1127769947052,1,horizontal,horizontal,1,0.811760068761891,red,3,NaN,831.076682568313,346.900731331463,NaN,NaN,923.626453162816,823.028025320546,1050.31493177915,551.343706178981,831.076682568313,346.900731331463,568.891514305654,492.232343256122,626.090418184063,786.495193912888,0,0,6,6,4,0,3,NaN,vertical,horizontal,horizontal,vertical,vertical,none
1b,11,100196,4,42,234,22,F,NA,constant,heterogeneous,3,absent,1.06187796592712,1,horizontal,horizontal,1,0.741173379174594,red,2,NaN,989.501930496736,429.371695378491,NaN,NaN,853.017481158529,849.42763818712,989.501930496736,429.371695378491,557.480588344736,521.200666434388,0,0,0,0,0,0,6,4,5,NaN,NaN,NaN,horizontal,horizontal,horizontal,none,none,none
1b,11,100196,4,43,235,22,F,NA,constant,heterogeneous,6,present,1.26022887229919,1,horizontal,horizontal,1,1.03528458578833,red,6,4,664.870587620533,816.252264519889,680.284751489598,374.848363820974,919.715248510402,825.151636179026,1054.84466088987,608.899371659138,935.129412379467,383.747735480111,680.284751489598,374.848363820974,545.155339110131,591.100628340862,664.870587620533,816.252264519889,3,3,5,0,0,4,horizontal,vertical,horizontal,vertical,horizontal,horizontal
1b,11,100196,4,44,236,22,F,NA,constant,heterogeneous,5,present,0.906351089477539,1,vertical,vertical,1,1.03528458578833,red,2,4,1016.25226451989,735.129412379467,704.475318678942,363.568117085469,738.309916622085,847.425410200379,1016.25226451989,735.129412379467,995.341332995339,436.089159529932,704.475318678942,363.568117085469,545.621167183745,617.787900804752,0,0,5,4,6,5,0,NaN,vertical,vertical,horizontal,vertical,horizontal,none
1b,11,100196,4,45,237,22,F,NA,constant,heterogeneous,3,present,0.788225173950195,1,horizontal,horizontal,1,0.976462344465585,red,3,2,545.621167183745,617.787900804752,911.784642431215,370.807518193712,942.594190385041,811.404581001536,911.784642431215,370.807518193712,545.621167183745,617.787900804752,0,0,0,0,0,0,3,3,4,NaN,NaN,NaN,vertical,vertical,horizontal,none,none,none
1b,11,100196,4,46,238,22,F,NA,constant,heterogeneous,4,present,1.00375485420227,1,horizontal,horizontal,1,0.776466723968243,red,1,4,672.5,820.836477965032,579.163522034968,472.5,672.5,820.836477965032,1020.83647796503,727.5,927.5,379.163522034968,579.163522034968,472.5,0,0,0,0,4,3,5,6,NaN,NaN,horizontal,horizontal,vertical,horizontal,none,none
1b,11,100196,4,47,239,22,F,NA,constant,heterogeneous,3,absent,0.946440935134888,1,horizontal,horizontal,1,0.917640103142837,red,2,NaN,1043.85771277057,525.445215295702,NaN,NaN,742.637481142314,848.464366520235,1043.85771277057,525.445215295702,613.504806087112,426.090418184063,0,0,0,0,0,0,5,4,5,NaN,NaN,NaN,vertical,horizontal,horizontal,none,none,none
1b,11,100196,4,48,240,22,F,NA,constant,heterogeneous,5,absent,0.983720064163208,1,vertical,vertical,1,0.705880034380946,red,5,NaN,548.874022981887,555.719714694933,NaN,NaN,680.284751489598,825.151636179026,977.137884467044,783.431649086356,1029.19248180629,488.215357568785,764.510859255183,347.4816424709,548.874022981887,555.719714694933,0,0,0,6,3,5,4,NaN,vertical,vertical,vertical,horizontal,vertical,none
1b,11,100196,4,49,241,22,F,NA,constant,heterogeneous,6,present,1.89436197280884,1,vertical,vertical,1,0.741173379174594,red,3,6,967.295052392579,407.549057043193,632.704947607421,792.450942956807,883.019879386575,841.107236777826,1050.31493177915,648.656293821019,967.295052392579,407.549057043193,716.980120613425,358.892763222174,549.685068220846,551.343706178981,632.704947607421,792.450942956807,3,5,4,5,3,0,vertical,horizontal,vertical,horizontal,vertical,vertical
1b,11,100196,4,50,242,22,F,NA,constant,heterogeneous,3,present,0.667112112045288,1,vertical,vertical,1,0.729408930910045,red,3,1,554.878267535729,670.287525733335,983.431649086356,777.137884467044,983.431649086356,777.137884467044,861.690083377915,352.574589799621,554.878267535729,670.287525733335,0,0,0,0,0,0,3,5,4,NaN,NaN,NaN,vertical,horizontal,vertical,none,none,none
1b,11,100196,4,51,243,22,F,NA,constant,heterogeneous,5,present,1.70439100265503,1,vertical,vertical,1,1.01175568925923,red,1,3,865.998856501143,846.311085703712,891.383827134052,361.936991243214,865.998856501143,846.311085703712,1054.65053136242,613.345668841951,891.383827134052,361.936991243214,601.827779828472,439.523300282291,586.139005173917,738.882953928832,0,0,4,6,6,0,3,NaN,vertical,vertical,vertical,horizontal,horizontal,none
1b,11,100196,4,52,244,22,F,NA,constant,heterogeneous,5,present,1.4671938419342,1,horizontal,horizontal,1,0.999991240994684,red,5,2,557.480588344736,678.799333565612,1042.51941165526,678.799333565612,800,855,1042.51941165526,678.799333565612,949.885239334581,393.700666434388,650.114760665419,393.700666434388,557.480588344736,678.799333565612,0,0,5,6,3,6,4,NaN,horizontal,horizontal,horizontal,vertical,horizontal,none
