experiment,subject,uniqueID,block,trial,trial_cumulative,age,gender,color_cond_blocking,color_history,shape_type,set_size,distractor,rt,acc,target_orient,response_key,response_made,iti,target_color,target_item,distractor_item,target_X,target_Y,distractor_X,distractor_Y,item1_X,item1_Y,item2_X,item2_Y,item3_X,item3_Y,item4_X,item4_Y,item5_X,item5_Y,item6_X,item6_Y,item1_shape,item2_shape,item3_shape,item4_shape,item5_shape,item6_shape,item1_line,item2_line,item3_line,item4_line,item5_line,item6_line
1b,12,100198,1,1,1,23,M,NA,constant,heterogeneous,5,present,NaN,0,horizontal,none,0,0.776469526792827,green,1,3,895.524681321058,836.431882914531,861.690083377915,352.574589799621,895.524681321058,836.431882914531,1054.37883281626,582.212099195248,861.690083377915,352.574589799621,583.747735480111,464.870587620533,604.658667004661,763.910840470068,0,0,4,0,3,3,6,NaN,horizontal,horizontal,vertical,horizontal,horizontal,none
1b,12,100198,1,2,2,23,M,NA,constant,heterogeneous,5,present,1.46243977546692,1,vertical,vertical,1,1.05882076966135,green,3,5,1016.25226451989,464.870587620533,545.621167183745,582.212099195248,704.475318678942,836.431882914531,995.341332995339,763.910840470068,1016.25226451989,464.870587620533,738.309916622085,352.574589799621,545.621167183745,582.212099195248,0,0,0,6,4,5,6,NaN,vertical,vertical,vertical,horizontal,vertical,none
1b,12,100198,1,3,3,23,M,NA,constant,heterogeneous,5,absent,1.79242706298828,1,horizontal,horizontal,1,0.647058540478087,green,1,NaN,899.636437764765,834.728737630372,NaN,NaN,899.636437764765,834.728737630372,1054.0296480134,577.775285599347,857.362518857686,351.535633479765,581.422338320961,468.665290897936,607.549057043193,767.295052392579,0,0,4,3,5,6,6,NaN,horizontal,vertical,vertical,vertical,vertical,none
1b,12,100198,1,4,4,23,M,NA,constant,heterogeneous,3,present,0.962547063827515,1,vertical,vertical,1,0.917645148227089,green,3,1,563.568117085469,504.475318678942,835.489140744817,852.518357529101,835.489140744817,852.518357529101,1000.94274216971,443.006323791957,563.568117085469,504.475318678942,0,0,0,0,0,0,0,0,4,NaN,NaN,NaN,horizontal,vertical,vertical,none,none,none
1b,12,100198,1,5,5,23,M,NA,constant,heterogeneous,3,present,1.45327591896057,1,vertical,vertical,1,0.976468323824699,green,3,1,676.373546837184,376.971974679454,668.665290897936,818.577661679039,668.665290897936,818.577661679039,1054.96116226488,604.450363641507,676.373546837184,376.971974679454,0,0,0,0,0,0,5,0,4,NaN,NaN,NaN,vertical,horizontal,vertical,none,none,none
1b,12,100198,1,6,6,23,M,NA,constant,heterogeneous,4,present,0.939550161361694,1,vertical,vertical,1,0.847057337509958,green,3,2,738.309916622085,352.574589799621,1047.42541020038,538.309916622085,861.690083377915,847.425410200379,1047.42541020038,538.309916622085,738.309916622085,352.574589799621,552.574589799621,661.690083377915,0,0,0,0,3,3,4,5,NaN,NaN,vertical,horizontal,vertical,vertical,none,none
1b,12,100198,1,7,7,23,M,NA,constant,heterogeneous,3,present,1.05879402160645,1,horizontal,horizontal,1,0.811763432151393,green,3,1,738.309916622085,352.574589799621,616.568350913644,777.137884467044,616.568350913644,777.137884467044,1045.12173246427,670.287525733335,738.309916622085,352.574589799621,0,0,0,0,0,0,3,6,4,NaN,NaN,NaN,vertical,horizontal,horizontal,none,none,none
1b,12,100198,1,8,8,23,M,NA,constant,heterogeneous,3,absent,1.47100687026978,0,horizontal,vertical,1,0.741175621434262,green,2,NaN,1038.06300875679,691.383827134052,NaN,NaN,601.827779828472,760.476699717708,1038.06300875679,691.383827134052,760.109211414741,348.13947314824,0,0,0,0,0,0,3,4,5,NaN,NaN,NaN,vertical,horizontal,horizontal,none,none,none
1b,12,100198,1,9,9,23,M,NA,constant,heterogeneous,6,absent,1.14374113082886,0,vertical,horizontal,1,0.764704891673306,green,1,NaN,725.445215295702,843.857712770574,NaN,NaN,725.445215295702,843.857712770574,973.909581815937,786.495193912888,1048.46436652023,542.637481142314,874.554784704298,356.142287229426,626.090418184063,413.504806087112,551.535633479765,657.362518857686,4,6,5,0,5,6,vertical,horizontal,vertical,vertical,horizontal,vertical
1b,12,100198,1,10,10,23,M,NA,constant,heterogeneous,6,present,NaN,0,horizontal,none,0,0.823528067270915,green,5,3,596.34794493794,446.537169096228,1034.72873763037,500.363562235235,768.923317431687,853.099268668537,1003.65205506206,753.462830903772,1034.72873763037,500.363562235235,831.076682568313,346.900731331463,596.34794493794,446.537169096228,565.271262369628,699.636437764765,6,0,5,3,4,5,vertical,horizontal,horizontal,horizontal,horizontal,horizontal
1b,12,100198,1,11,11,23,M,NA,constant,heterogeneous,6,present,NaN,0,vertical,none,0,0.717646351195218,green,3,2,989.501930496736,429.371695378491,1042.51941165526,678.799333565612,853.017481158529,849.42763818712,1042.51941165526,678.799333565612,989.501930496736,429.371695378491,746.982518841471,350.57236181288,557.480588344736,521.200666434388,610.498069503264,770.628304621509,5,6,4,6,3,5,horizontal,vertical,vertical,horizontal,horizontal,vertical
1b,12,100198,1,12,12,23,M,NA,constant,heterogeneous,6,present,NaN,0,vertical,none,0,0.917645148227089,green,2,3,935.129412379467,816.252264519889,1054.84466088987,591.100628340862,680.284751489598,825.151636179026,935.129412379467,816.252264519889,1054.84466088987,591.100628340862,919.715248510402,374.848363820974,664.870587620533,383.747735480111,545.155339110131,608.899371659138,3,4,0,3,0,6,horizontal,vertical,vertical,vertical,vertical,vertical
1b,12,100198,1,13,13,23,M,NA,constant,heterogeneous,4,present,1.67994284629822,1,horizontal,horizontal,1,0.952939053585655,green,2,3,992.450942956807,767.295052392579,967.295052392579,407.549057043193,632.704947607421,792.450942956807,992.450942956807,767.295052392579,967.295052392579,407.549057043193,607.549057043193,432.704947607421,0,0,0,0,3,4,5,0,NaN,NaN,vertical,horizontal,vertical,horizontal,none,none
1b,12,100198,1,14,14,23,M,NA,constant,heterogeneous,5,present,0.851038932800293,1,vertical,vertical,1,0.85882197262948,green,1,4,895.524681321058,836.431882914531,583.747735480111,464.870587620533,895.524681321058,836.431882914531,1054.37883281626,582.212099195248,861.690083377915,352.574589799621,583.747735480111,464.870587620533,604.658667004661,763.910840470068,0,0,4,0,6,5,5,NaN,vertical,vertical,vertical,horizontal,horizontal,none
1b,12,100198,1,15,15,23,M,NA,constant,heterogeneous,5,present,1.14035296440125,1,vertical,vertical,1,0.611764635119522,green,2,1,1054.37883281626,617.787900804752,861.690083377915,847.425410200379,861.690083377915,847.425410200379,1054.37883281626,617.787900804752,895.524681321058,363.568117085469,604.658667004661,436.089159529932,583.747735480111,735.129412379467,0,0,5,4,0,3,6,NaN,horizontal,vertical,vertical,horizontal,horizontal,none
1b,12,100198,1,16,16,23,M,NA,constant,heterogeneous,6,present,1.24468803405762,1,horizontal,horizontal,1,0.870586607749002,green,3,2,1051.12597701811,555.719714694933,963.910840470068,795.341332995339,712.784863451954,839.621618300407,963.910840470068,795.341332995339,1051.12597701811,555.719714694933,887.215136548046,360.378381699593,636.089159529932,404.658667004661,548.874022981887,644.280285305067,3,0,4,0,3,5,vertical,horizontal,horizontal,vertical,vertical,horizontal
1b,12,100198,1,17,17,23,M,NA,constant,heterogeneous,4,present,0.795974969863892,1,vertical,vertical,1,0.705881716075696,green,2,1,1042.51941165526,678.799333565612,721.200666434388,842.519411655264,721.200666434388,842.519411655264,1042.51941165526,678.799333565612,878.799333565612,357.480588344736,557.480588344736,521.200666434388,0,0,0,0,0,4,5,0,NaN,NaN,horizontal,vertical,vertical,vertical,none,none
1b,12,100198,1,18,18,23,M,NA,constant,heterogeneous,3,absent,1.11884498596191,1,vertical,vertical,1,0.941174418466133,green,1,NaN,643.006323791957,800.942742169714,NaN,NaN,643.006323791957,800.942742169714,1052.5183575291,635.489140744817,704.475318678942,363.568117085469,0,0,0,0,0,0,4,3,0,NaN,NaN,NaN,vertical,horizontal,vertical,none,none,none
1b,12,100198,1,19,19,23,M,NA,constant,heterogeneous,3,present,0.909469127655029,1,horizontal,horizontal,1,0.6,green,1,3,636.089159529932,795.341332995339,712.784863451954,360.378381699593,636.089159529932,795.341332995339,1051.12597701811,644.280285305067,712.784863451954,360.378381699593,0,0,0,0,0,0,4,3,6,NaN,NaN,NaN,horizontal,horizontal,vertical,none,none,none
1b,12,100198,1,20,20,23,M,NA,constant,heterogeneous,4,absent,1.09519100189209,1,vertical,vertical,1,0.752940256553784,green,2,NaN,980.31222920257,780.31222920257,NaN,NaN,619.68777079743,780.31222920257,980.31222920257,780.31222920257,980.31222920257,419.68777079743,619.68777079743,419.68777079743,0,0,0,0,3,4,6,0,NaN,NaN,vertical,vertical,vertical,vertical,none,none
1b,12,100198,1,21,21,23,M,NA,constant,heterogeneous,4,present,0.798291921615601,1,vertical,vertical,1,0.870586607749002,green,2,4,1008.88377129369,746.261991269517,591.116228706307,453.738008730483,653.738008730483,808.883771293693,1008.88377129369,746.261991269517,946.261991269517,391.116228706307,591.116228706307,453.738008730483,0,0,0,0,0,4,0,3,NaN,NaN,horizontal,vertical,vertical,vertical,none,none
1b,12,100198,1,22,22,23,M,NA,constant,heterogeneous,3,absent,1.22724509239197,1,horizontal,horizontal,1,0.835292702390437,green,1,NaN,760.109211414741,851.86052685176,NaN,NaN,760.109211414741,851.86052685176,1038.06300875679,508.616172865948,601.827779828472,439.523300282291,0,0,0,0,0,0,4,0,5,NaN,NaN,NaN,horizontal,horizontal,vertical,none,none,none
1b,12,100198,1,23,23,23,M,NA,constant,heterogeneous,3,present,1.03356003761292,1,vertical,vertical,1,0.670587810717131,green,3,1,777.775285599347,345.970351986605,591.116228706307,746.261991269517,591.116228706307,746.261991269517,1031.10848569435,707.767656743878,777.775285599347,345.970351986605,0,0,0,0,0,0,6,3,4,NaN,NaN,NaN,vertical,vertical,vertical,none,none,none
1b,12,100198,1,24,24,23,M,NA,constant,heterogeneous,3,absent,1.07471299171448,1,vertical,vertical,1,1.03529149942231,green,2,NaN,995.341332995339,436.089159529932,NaN,NaN,844.280285305067,851.125977018113,995.341332995339,436.089159529932,560.378381699593,512.784863451954,0,0,0,0,0,0,3,4,3,NaN,NaN,NaN,horizontal,vertical,vertical,none,none,none
1b,12,100198,1,25,25,23,M,NA,constant,heterogeneous,6,absent,1.16567397117615,1,horizontal,horizontal,1,0.85882197262948,green,2,NaN,1043.85771277057,674.554784704298,NaN,NaN,857.362518857686,848.464366520235,1043.85771277057,674.554784704298,986.495193912888,426.090418184063,742.637481142314,351.535633479765,556.142287229426,525.445215295702,613.504806087112,773.909581815937,5,4,0,3,5,3,vertical,horizontal,horizontal,vertical,horizontal,horizontal
1b,12,100198,1,26,26,23,M,NA,constant,heterogeneous,5,present,1.39682793617249,1,vertical,vertical,1,0.976468323824699,green,2,5,1006.29933356561,749.885239334581,545,600,721.200666434388,842.519411655264,1006.29933356561,749.885239334581,1006.29933356561,450.114760665419,721.200666434388,357.480588344736,545,600,0,0,0,4,0,6,3,NaN,horizontal,vertical,horizontal,vertical,vertical,none
1b,12,100198,1,27,27,23,M,NA,constant,heterogeneous,6,absent,NaN,0,horizontal,none,0,0.705881716075696,green,5,NaN,547.481642470899,564.510859255183,NaN,NaN,895.524681321058,836.431882914531,1052.5183575291,635.489140744817,956.993676208043,399.057257830286,704.475318678942,363.568117085469,547.481642470899,564.510859255183,643.006323791957,800.942742169714,3,5,0,0,4,5,vertical,horizontal,vertical,horizontal,horizontal,horizontal
1b,12,100198,1,28,28,23,M,NA,constant,heterogeneous,3,present,0.942281007766724,0,horizontal,vertical,1,0.976468323824699,green,2,1,919.715248510402,374.848363820974,935.129412379467,816.252264519889,935.129412379467,816.252264519889,919.715248510402,374.848363820974,545.155339110131,608.899371659138,0,0,0,0,0,0,3,4,0,NaN,NaN,NaN,horizontal,horizontal,horizontal,none,none,none
1b,12,100198,1,29,29,23,M,NA,constant,heterogeneous,5,present,1.43969583511353,1,horizontal,horizontal,1,0.694117080956175,green,5,2,548.13947314824,639.890788585259,1027.20666366803,715.767577433584,760.109211414741,851.86052685176,1027.20666366803,715.767577433584,980.31222920257,419.68777079743,684.232422566416,372.793336331966,548.13947314824,639.890788585259,0,0,0,5,3,6,4,NaN,horizontal,horizontal,vertical,vertical,horizontal,none
1b,12,100198,1,30,30,23,M,NA,constant,heterogeneous,4,present,0.707293033599854,1,horizontal,horizontal,1,0.741175621434262,green,4,2,545.03883773512,604.450363641507,1054.96116226488,595.549636358493,804.450363641507,854.96116226488,1054.96116226488,595.549636358493,795.549636358493,345.03883773512,545.03883773512,604.450363641507,0,0,0,0,6,5,0,4,NaN,NaN,vertical,vertical,vertical,horizontal,none,none
1b,12,100198,1,31,31,23,M,NA,constant,heterogeneous,4,absent,1.16679501533508,0,horizontal,vertical,1,1.04705613454183,green,2,NaN,1041.10723677783,683.019879386575,NaN,NaN,716.980120613425,841.107236777826,1041.10723677783,683.019879386575,883.019879386575,358.892763222174,558.892763222174,516.980120613425,0,0,0,0,0,4,5,6,NaN,NaN,horizontal,horizontal,vertical,vertical,none,none
1b,12,100198,1,32,32,23,M,NA,constant,heterogeneous,6,present,NaN,0,vertical,none,0,0.694117080956175,green,3,4,1023.02802532055,476.373546837184,804.450363641507,345.03883773512,795.549636358493,854.96116226488,1018.57766167904,731.334709102064,1023.02802532055,476.373546837184,804.450363641507,345.03883773512,581.422338320961,468.665290897936,576.971974679454,723.626453162816,3,5,4,5,3,0,vertical,vertical,vertical,vertical,horizontal,horizontal
1b,12,100198,1,33,33,23,M,NA,constant,heterogeneous,5,present,1.26109290122986,1,horizontal,horizontal,1,0.823528067270915,green,3,1,835.489140744817,347.4816424709,919.715248510402,825.151636179026,919.715248510402,825.151636179026,1051.12597701811,555.719714694933,835.489140744817,347.4816424709,570.807518193712,488.215357568785,622.862115532956,783.431649086356,0,0,3,0,4,5,0,NaN,horizontal,vertical,horizontal,horizontal,vertical,none
1b,12,100198,1,34,34,23,M,NA,constant,heterogeneous,4,absent,1.15993285179138,1,horizontal,horizontal,1,0.670587810717131,green,2,NaN,1023.02802532055,476.373546837184,NaN,NaN,923.626453162816,823.028025320546,1023.02802532055,476.373546837184,676.373546837184,376.971974679454,576.971974679454,723.626453162816,0,0,0,0,5,4,0,0,NaN,NaN,horizontal,horizontal,horizontal,horizontal,none,none
1b,12,100198,1,35,35,23,M,NA,constant,heterogeneous,6,absent,NaN,0,horizontal,none,0,1.04705613454183,green,6,NaN,646.537169096228,803.65205506206,NaN,NaN,899.636437764765,834.728737630372,1053.09926866854,631.076682568313,953.462830903772,396.34794493794,700.363562235235,365.271262369628,546.900731331463,568.923317431687,646.537169096228,803.65205506206,0,3,5,5,3,4,horizontal,vertical,vertical,horizontal,vertical,horizontal
1b,12,100198,1,36,36,23,M,NA,constant,heterogeneous,6,absent,1.66945195198059,1,vertical,vertical,1,1.05882076966135,green,6,NaN,545,600,NaN,NaN,672.5,820.836477965032,927.5,820.836477965032,1055,600,927.5,379.163522034968,672.5,379.163522034968,545,600,5,6,6,3,0,4,horizontal,vertical,vertical,vertical,horizontal,vertical
1b,12,100198,1,37,37,23,M,NA,constant,heterogeneous,3,present,1.10178589820862,0,horizontal,vertical,1,0.917645148227089,green,1,3,953.462830903772,803.65205506206,546.900731331463,631.076682568313,953.462830903772,803.65205506206,899.636437764765,365.271262369628,546.900731331463,631.076682568313,0,0,0,0,0,0,4,6,5,NaN,NaN,NaN,horizontal,vertical,vertical,none,none,none
1b,12,100198,1,38,38,23,M,NA,constant,heterogeneous,3,absent,1.39149785041809,1,vertical,vertical,1,0.98823295894422,green,2,NaN,1049.42763818712,546.982518841471,NaN,NaN,721.200666434388,842.519411655264,1049.42763818712,546.982518841471,629.371695378491,410.498069503264,0,0,0,0,0,0,6,4,5,NaN,NaN,NaN,vertical,vertical,vertical,none,none,none
1b,12,100198,1,39,39,23,M,NA,constant,heterogeneous,4,present,NaN,0,horizontal,none,0,0.635293905358565,green,4,1,574.848363820974,480.284751489598,680.284751489598,825.151636179026,680.284751489598,825.151636179026,1025.15163617903,719.715248510402,919.715248510402,374.848363820974,574.848363820974,480.284751489598,0,0,0,0,6,5,5,4,NaN,NaN,vertical,vertical,horizontal,horizontal,none,none
1b,12,100198,1,40,40,23,M,NA,constant,heterogeneous,5,absent,1.24313306808472,1,vertical,vertical,1,0.917645148227089,green,2,NaN,1053.60308331891,626.654758133252,NaN,NaN,853.017481158529,849.42763818712,1053.60308331891,626.654758133252,903.717843984329,367.045908301137,610.498069503264,429.371695378491,579.163522034968,727.5,0,0,0,4,0,5,6,NaN,horizontal,vertical,vertical,horizontal,horizontal,none
1b,12,100198,1,41,41,23,M,NA,constant,heterogeneous,4,absent,0.942070960998535,1,vertical,vertical,1,0.717646351195218,green,4,NaN,586.139005173917,461.117046071168,NaN,NaN,661.117046071168,813.860994826083,1013.86099482608,738.882953928832,938.882953928832,386.139005173917,586.139005173917,461.117046071168,0,0,0,0,6,3,0,4,NaN,NaN,horizontal,horizontal,vertical,vertical,none,none
1b,12,100198,1,42,42,23,M,NA,constant,heterogeneous,6,present,1.29857802391052,1,vertical,vertical,1,0.658823175597609,green,6,4,548.874022981887,644.280285305067,887.215136548046,360.378381699593,712.784863451954,839.621618300407,963.910840470068,795.341332995339,1051.12597701811,555.719714694933,887.215136548046,360.378381699593,636.089159529932,404.658667004661,548.874022981887,644.280285305067,0,5,0,5,3,4,vertical,horizontal,horizontal,vertical,horizontal,vertical
1b,12,100198,1,43,43,23,M,NA,constant,heterogeneous,5,absent,1.43374300003052,1,vertical,vertical,1,1.07058540478087,green,4,NaN,786.654331158049,345.349468637584,NaN,NaN,661.117046071168,813.860994826083,960.476699717708,798.172220171528,1038.06300875679,508.616172865948,786.654331158049,345.349468637584,553.688914296288,534.001143498857,0,0,0,0,3,4,6,NaN,vertical,vertical,vertical,vertical,horizontal,none
1b,12,100198,1,44,44,23,M,NA,constant,heterogeneous,6,absent,1.20816206932068,1,vertical,vertical,1,0.85882197262948,green,4,NaN,742.637481142314,351.535633479765,NaN,NaN,857.362518857686,848.464366520235,1043.85771277057,674.554784704298,986.495193912888,426.090418184063,742.637481142314,351.535633479765,556.142287229426,525.445215295702,613.504806087112,773.909581815937,3,3,5,4,0,6,vertical,vertical,horizontal,vertical,horizontal,vertical
1b,12,100198,1,45,45,23,M,NA,constant,heterogeneous,5,absent,1.03980088233948,1,horizontal,horizontal,1,0.764704891673306,green,5,NaN,545,600,NaN,NaN,721.200666434388,842.519411655264,1006.29933356561,749.885239334581,1006.29933356561,450.114760665419,721.200666434388,357.480588344736,545,600,0,0,5,6,0,0,4,NaN,horizontal,horizontal,horizontal,horizontal,horizontal,none
1b,12,100198,1,46,46,23,M,NA,constant,heterogeneous,5,absent,1.32719016075134,1,vertical,vertical,1,0.72941098631474,green,3,NaN,887.215136548046,360.378381699593,NaN,NaN,870.287525733335,845.121732464271,1054.84466088987,608.899371659138,887.215136548046,360.378381699593,599.057257830286,443.006323791957,588.595418998464,742.594190385041,0,0,3,0,4,3,6,NaN,vertical,vertical,vertical,vertical,horizontal,none
1b,12,100198,1,47,47,23,M,NA,constant,heterogeneous,5,absent,1.01226115226746,1,vertical,vertical,1,0.905880513107568,green,2,NaN,1052.5183575291,635.489140744817,NaN,NaN,844.280285305067,851.125977018113,1052.5183575291,635.489140744817,911.784642431215,370.807518193712,616.568350913644,422.862115532956,574.848363820974,719.715248510402,0,0,5,4,0,6,6,NaN,horizontal,vertical,vertical,horizontal,vertical,none
1b,12,100198,1,48,48,23,M,NA,constant,heterogeneous,4,absent,0.954781055450439,1,vertical,vertical,1,0.905880513107568,green,1,NaN,865.998856501143,846.311085703712,NaN,NaN,865.998856501143,846.311085703712,1046.31108570371,534.001143498857,734.001143498857,353.688914296288,553.688914296288,665.998856501143,0,0,0,0,4,5,0,3,NaN,NaN,vertical,horizontal,vertical,horizontal,none,none
1b,12,100198,1,49,49,23,M,NA,constant,heterogeneous,3,absent,1.75873994827271,1,horizontal,horizontal,1,1.04705613454183,green,3,NaN,565.271262369628,699.636437764765,NaN,NaN,1003.65205506206,753.462830903772,831.076682568313,346.900731331463,565.271262369628,699.636437764765,0,0,0,0,0,0,5,3,4,NaN,NaN,NaN,vertical,horizontal,horizontal,none,none,none
1b,12,100198,1,50,50,23,M,NA,constant,heterogeneous,6,absent,0.811280965805054,1,vertical,vertical,1,0.847057337509958,green,4,NaN,746.982518841471,350.57236181288,NaN,NaN,853.017481158529,849.42763818712,1042.51941165526,678.799333565612,989.501930496736,429.371695378491,746.982518841471,350.57236181288,557.480588344736,521.200666434388,610.498069503264,770.628304621509,6,3,0,4,6,5,horizontal,horizontal,horizontal,vertical,vertical,horizontal
1b,12,100198,1,51,51,23,M,NA,constant,heterogeneous,3,present,0.910092115402222,1,vertical,vertical,1,0.917645148227089,green,3,2,545.621167183745,582.212099195248,942.594190385041,388.595418998464,911.784642431215,829.192481806288,942.594190385041,388.595418998464,545.621167183745,582.212099195248,0,0,0,0,0,0,5,3,4,NaN,NaN,NaN,vertical,vertical,vertical,none,none,none
1b,12,100198,1,52,52,23,M,NA,constant,heterogeneous,6,absent,NaN,0,horizontal,none,0,0.976468323824699,green,1,NaN,676.373546837184,823.028025320546,NaN,NaN,676.373546837184,823.028025320546,931.334709102064,818.577661679039,1054.96116226488,595.549636358493,923.626453162816,376.971974679454,668.665290897936,381.422338320961,545.03883773512,604.450363641507,4,0,0,5,6,3,horizontal,vertical,vertical,vertical,vertical,horizontal
1b,12,100198,1,53,53,23,M,NA,constant,heterogeneous,5,present,1.1741828918457,1,horizontal,horizontal,1,0.694117080956175,green,2,3,1053.60308331891,626.654758133252,903.717843984329,367.045908301137,853.017481158529,849.42763818712,1053.60308331891,626.654758133252,903.717843984329,367.045908301137,610.498069503264,429.371695378491,579.163522034968,727.5,0,0,6,4,0,0,6,NaN,vertical,horizontal,horizontal,vertical,horizontal,none
1b,12,100198,1,54,54,23,M,NA,constant,heterogeneous,6,present,0.926649808883667,1,horizontal,horizontal,1,0.847057337509958,green,4,5,870.287525733335,354.878267535729,622.862115532956,416.568350913644,729.712474266665,845.121732464271,977.137884467044,783.431649086356,1047.42541020038,538.309916622085,870.287525733335,354.878267535729,622.862115532956,416.568350913644,552.574589799621,661.690083377915,5,3,3,4,0,0,vertical,horizontal,vertical,horizontal,vertical,vertical
1b,12,100198,1,55,55,23,M,NA,constant,heterogeneous,5,absent,1.69517993927002,1,horizontal,horizontal,1,0.894115877988046,green,2,NaN,980.31222920257,780.31222920257,NaN,NaN,684.232422566416,827.206663668034,980.31222920257,780.31222920257,1027.20666366803,484.232422566416,760.109211414741,348.13947314824,548.13947314824,560.109211414741,0,0,3,4,3,5,6,NaN,horizontal,horizontal,horizontal,vertical,vertical,none
1b,12,100198,1,56,56,23,M,NA,constant,heterogeneous,6,present,1.33559918403625,1,horizontal,horizontal,1,0.717646351195218,green,6,3,552.574589799621,661.690083377915,1047.42541020038,538.309916622085,729.712474266665,845.121732464271,977.137884467044,783.431649086356,1047.42541020038,538.309916622085,870.287525733335,354.878267535729,622.862115532956,416.568350913644,552.574589799621,661.690083377915,0,6,0,5,6,4,vertical,vertical,vertical,vertical,vertical,horizontal
1b,12,100198,1,57,57,23,M,NA,constant,heterogeneous,4,absent,1.83483600616455,0,horizontal,vertical,1,1.02352686430279,green,3,NaN,861.690083377915,352.574589799621,NaN,NaN,738.309916622085,847.425410200379,1047.42541020038,661.690083377915,861.690083377915,352.574589799621,552.574589799621,538.309916622085,0,0,0,0,3,6,4,0,NaN,NaN,vertical,vertical,horizontal,horizontal,none,none
1b,12,100198,1,58,58,23,M,NA,constant,heterogeneous,4,absent,1.43692708015442,1,vertical,vertical,1,0.647058540478087,green,1,NaN,684.232422566416,827.206663668034,NaN,NaN,684.232422566416,827.206663668034,1027.20666366803,715.767577433584,915.767577433584,372.793336331966,572.793336331966,484.232422566416,0,0,0,0,4,6,0,3,NaN,NaN,vertical,vertical,vertical,vertical,none,none
1b,12,100198,1,59,59,23,M,NA,constant,heterogeneous,4,absent,1.74899578094482,1,horizontal,horizontal,1,0.752940256553784,green,3,NaN,870.287525733335,354.878267535729,NaN,NaN,729.712474266665,845.121732464271,1045.12173246427,670.287525733335,870.287525733335,354.878267535729,554.878267535729,529.712474266665,0,0,0,0,0,3,4,3,NaN,NaN,vertical,horizontal,horizontal,horizontal,none,none
1b,12,100198,1,60,60,23,M,NA,constant,heterogeneous,5,absent,NaN,0,horizontal,none,0,0.85882197262948,green,2,NaN,1054.37883281626,582.212099195248,NaN,NaN,895.524681321058,836.431882914531,1054.37883281626,582.212099195248,861.690083377915,352.574589799621,583.747735480111,464.870587620533,604.658667004661,763.910840470068,0,0,5,4,0,3,6,NaN,vertical,horizontal,horizontal,horizontal,vertical,none
1b,12,100198,1,61,61,23,M,NA,constant,heterogeneous,4,present,1.01061081886292,1,vertical,vertical,1,0.658823175597609,green,3,2,923.626453162816,376.971974679454,1023.02802532055,723.626453162816,676.373546837184,823.028025320546,1023.02802532055,723.626453162816,923.626453162816,376.971974679454,576.971974679454,476.373546837184,0,0,0,0,3,5,4,5,NaN,NaN,vertical,vertical,vertical,vertical,none,none
1b,12,100198,1,62,62,23,M,NA,constant,heterogeneous,3,absent,1.47848916053772,1,horizontal,horizontal,1,0.764704891673306,green,2,NaN,1025.15163617903,719.715248510402,NaN,NaN,583.747735480111,735.129412379467,1025.15163617903,719.715248510402,791.100628340862,345.155339110131,0,0,0,0,0,0,3,4,3,NaN,NaN,NaN,vertical,horizontal,vertical,none,none,none
1b,12,100198,1,63,63,23,M,NA,constant,heterogeneous,4,present,1.15383100509644,1,horizontal,horizontal,1,1.08235003990039,green,4,1,574.848363820974,719.715248510402,919.715248510402,825.151636179026,919.715248510402,825.151636179026,1025.15163617903,480.284751489598,680.284751489598,374.848363820974,574.848363820974,719.715248510402,0,0,0,0,6,0,3,4,NaN,NaN,vertical,vertical,vertical,horizontal,none,none
1b,12,100198,1,64,64,23,M,NA,constant,heterogeneous,3,absent,1.11093401908875,1,vertical,vertical,1,0.894115877988046,green,2,NaN,1043.85771277057,525.445215295702,NaN,NaN,742.637481142314,848.464366520235,1043.85771277057,525.445215295702,613.504806087112,426.090418184063,0,0,0,0,0,0,6,4,3,NaN,NaN,NaN,horizontal,vertical,vertical,none,none,none
1b,12,100198,2,1,65,23,M,NA,constant,heterogeneous,6,present,1.54918193817139,1,vertical,vertical,1,0.670587810717131,green,5,4,613.504806087112,426.090418184063,857.362518857686,351.535633479765,742.637481142314,848.464366520235,986.495193912888,773.909581815937,1043.85771277057,525.445215295702,857.362518857686,351.535633479765,613.504806087112,426.090418184063,556.142287229426,674.554784704298,0,5,6,6,4,3,horizontal,vertical,horizontal,horizontal,vertical,vertical
1b,12,100198,2,2,66,23,M,NA,constant,heterogeneous,5,absent,NaN,0,horizontal,none,0,0.835292702390437,green,1,NaN,848.656293821019,850.314931779154,NaN,NaN,848.656293821019,850.314931779154,1053.09926866854,631.076682568313,907.767656743878,368.891514305654,613.504806087112,426.090418184063,576.971974679454,723.626453162816,0,0,4,0,6,6,3,NaN,horizontal,vertical,vertical,horizontal,horizontal,none
1b,12,100198,2,3,67,23,M,NA,constant,heterogeneous,4,absent,1.7029709815979,1,vertical,vertical,1,0.870586607749002,green,3,NaN,853.017481158529,350.57236181288,NaN,NaN,746.982518841471,849.42763818712,1049.42763818712,653.017481158529,853.017481158529,350.57236181288,550.57236181288,546.982518841471,0,0,0,0,6,6,4,3,NaN,NaN,horizontal,horizontal,vertical,horizontal,none,none
1b,12,100198,2,4,68,23,M,NA,constant,heterogeneous,5,absent,1.08773612976074,1,vertical,vertical,1,0.941174418466133,green,2,NaN,986.495193912888,773.909581815937,NaN,NaN,692.232343256122,831.108485694346,986.495193912888,773.909581815937,1023.02802532055,476.373546837184,751.343706178981,349.685068220846,546.900731331463,568.923317431687,0,0,0,4,3,3,0,NaN,vertical,vertical,horizontal,vertical,horizontal,none
1b,12,100198,2,5,69,23,M,NA,constant,heterogeneous,6,absent,NaN,0,horizontal,none,0,0.952939053585655,green,5,NaN,672.5,379.163522034968,NaN,NaN,672.5,820.836477965032,927.5,820.836477965032,1055,600,927.5,379.163522034968,672.5,379.163522034968,545,600,0,5,3,6,4,0,vertical,vertical,vertical,horizontal,horizontal,vertical
1b,12,100198,2,6,70,23,M,NA,constant,heterogeneous,4,absent,1.47275805473328,1,horizontal,horizontal,1,0.788234161912349,green,2,NaN,1034.72873763037,699.636437764765,NaN,NaN,700.363562235235,834.728737630372,1034.72873763037,699.636437764765,899.636437764765,365.271262369628,565.271262369628,500.363562235235,0,0,0,0,3,4,3,6,NaN,NaN,horizontal,horizontal,vertical,horizontal,none,none
1b,12,100198,2,7,71,23,M,NA,constant,heterogeneous,6,absent,1.4531238079071,1,vertical,vertical,1,0.72941098631474,green,3,NaN,1046.31108570371,534.001143498857,NaN,NaN,734.001143498857,846.311085703712,980.31222920257,780.31222920257,1046.31108570371,534.001143498857,865.998856501143,353.688914296288,619.68777079743,419.68777079743,553.688914296288,665.998856501143,6,5,4,3,6,5,vertical,horizontal,vertical,vertical,horizontal,vertical
1b,12,100198,2,8,72,23,M,NA,constant,heterogeneous,3,present,1.2379162311554,1,horizontal,horizontal,1,0.788234161912349,green,2,3,1042.51941165526,678.799333565612,746.982518841471,350.57236181288,610.498069503264,770.628304621509,1042.51941165526,678.799333565612,746.982518841471,350.57236181288,0,0,0,0,0,0,3,4,5,NaN,NaN,NaN,horizontal,horizontal,vertical,none,none,none
1b,12,100198,2,9,73,23,M,NA,constant,heterogeneous,3,present,0.835200071334839,1,vertical,vertical,1,0.611764635119522,green,3,1,545.03883773512,595.549636358493,923.626453162816,823.028025320546,923.626453162816,823.028025320546,931.334709102064,381.422338320961,545.03883773512,595.549636358493,0,0,0,0,0,0,0,6,4,NaN,NaN,NaN,vertical,vertical,vertical,none,none,none
1b,12,100198,2,10,74,23,M,NA,constant,heterogeneous,4,present,1.66752004623413,1,horizontal,horizontal,1,0.976468323824699,green,2,3,1047.42541020038,538.309916622085,738.309916622085,352.574589799621,861.690083377915,847.425410200379,1047.42541020038,538.309916622085,738.309916622085,352.574589799621,552.574589799621,661.690083377915,0,0,0,0,3,4,3,0,NaN,NaN,vertical,horizontal,horizontal,vertical,none,none
1b,12,100198,2,11,75,23,M,NA,constant,heterogeneous,3,present,0.622484922409058,1,vertical,vertical,1,1.07058540478087,green,3,1,616.568350913644,422.862115532956,738.309916622085,847.425410200379,738.309916622085,847.425410200379,1045.12173246427,529.712474266665,616.568350913644,422.862115532956,0,0,0,0,0,0,0,5,4,NaN,NaN,NaN,vertical,horizontal,vertical,none,none,none
1b,12,100198,2,12,76,23,M,NA,constant,heterogeneous,3,absent,0.690846920013428,1,vertical,vertical,1,0.976468323824699,green,2,NaN,1020.83647796503,472.5,NaN,NaN,800,855,1020.83647796503,472.5,579.163522034968,472.5,0,0,0,0,0,0,5,4,6,NaN,NaN,NaN,horizontal,vertical,vertical,none,none,none
1b,12,100198,2,13,77,23,M,NA,constant,heterogeneous,3,absent,1.01783108711243,1,horizontal,horizontal,1,0.658823175597609,green,1,NaN,601.827779828472,760.476699717708,NaN,NaN,601.827779828472,760.476699717708,1038.06300875679,691.383827134052,760.109211414741,348.13947314824,0,0,0,0,0,0,4,6,6,NaN,NaN,NaN,horizontal,horizontal,vertical,none,none,none
1b,12,100198,2,14,78,23,M,NA,constant,heterogeneous,6,absent,0.871898889541626,1,horizontal,horizontal,1,0.882351242868524,green,2,NaN,1053.09926866854,631.076682568313,NaN,NaN,899.636437764765,834.728737630372,1053.09926866854,631.076682568313,953.462830903772,396.34794493794,700.363562235235,365.271262369628,546.900731331463,568.923317431687,646.537169096228,803.65205506206,5,4,0,5,3,6,horizontal,horizontal,vertical,horizontal,vertical,vertical
1b,12,100198,2,15,79,23,M,NA,constant,heterogeneous,3,absent,1.29795598983765,1,horizontal,horizontal,1,0.611764635119522,green,1,NaN,800,855,NaN,NaN,800,855,1020.83647796503,472.5,579.163522034968,472.5,0,0,0,0,0,0,4,3,0,NaN,NaN,NaN,horizontal,horizontal,horizontal,none,none,none
1b,12,100198,2,16,80,23,M,NA,constant,heterogeneous,6,present,1.45282506942749,0,horizontal,vertical,1,1.03529149942231,green,1,4,773.345241866748,853.60308331891,826.654758133252,346.39691668109,773.345241866748,853.60308331891,1006.29933356561,749.885239334581,1032.95409169886,496.282156015671,826.654758133252,346.39691668109,593.700666434388,450.114760665419,567.045908301137,703.717843984329,4,3,6,3,5,0,horizontal,horizontal,horizontal,horizontal,vertical,vertical
1b,12,100198,2,17,81,23,M,NA,constant,heterogeneous,6,absent,1.6281909942627,1,horizontal,horizontal,1,0.894115877988046,green,2,NaN,1011.40458100154,742.594190385041,NaN,NaN,782.212099195248,854.378832816255,1011.40458100154,742.594190385041,1029.19248180629,488.215357568785,817.787900804752,345.621167183745,588.595418998464,457.40580961496,570.807518193712,711.784642431215,6,4,3,0,0,5,horizontal,horizontal,vertical,vertical,vertical,vertical
1b,12,100198,2,18,82,23,M,NA,constant,heterogeneous,4,present,1.01765418052673,1,vertical,vertical,1,0.847057337509958,green,1,4,808.899371659138,854.844660889869,545.155339110131,608.899371659138,808.899371659138,854.844660889869,1054.84466088987,591.100628340862,791.100628340862,345.155339110131,545.155339110131,608.899371659138,0,0,0,0,4,6,0,3,NaN,NaN,vertical,vertical,vertical,horizontal,none,none
1b,12,100198,2,19,83,23,M,NA,constant,heterogeneous,3,absent,1.22851705551147,0,horizontal,vertical,1,0.717646351195218,green,2,NaN,1025.15163617903,719.715248510402,NaN,NaN,583.747735480111,735.129412379467,1025.15163617903,719.715248510402,791.100628340862,345.155339110131,0,0,0,0,0,0,5,4,6,NaN,NaN,NaN,horizontal,horizontal,horizontal,none,none,none
1b,12,100198,2,20,84,23,M,NA,constant,heterogeneous,3,absent,0.914669036865234,1,vertical,vertical,1,0.870586607749002,green,2,NaN,927.5,379.163522034968,NaN,NaN,927.5,820.836477965032,927.5,379.163522034968,545,600,0,0,0,0,0,0,6,4,5,NaN,NaN,NaN,horizontal,vertical,vertical,none,none,none
1b,12,100198,2,21,85,23,M,NA,constant,heterogeneous,5,absent,1.00738096237183,1,vertical,vertical,1,0.717646351195218,green,2,NaN,1008.88377129369,746.261991269517,NaN,NaN,725.445215295702,843.857712770574,1008.88377129369,746.261991269517,1003.65205506206,446.537169096228,716.980120613425,358.892763222174,545.03883773512,604.450363641507,0,0,5,4,3,3,6,NaN,horizontal,vertical,horizontal,vertical,vertical,none
1b,12,100198,2,22,86,23,M,NA,constant,heterogeneous,4,present,1.27029705047607,1,horizontal,horizontal,1,0.741175621434262,green,1,3,632.704947607421,792.450942956807,967.295052392579,407.549057043193,632.704947607421,792.450942956807,992.450942956807,767.295052392579,967.295052392579,407.549057043193,607.549057043193,432.704947607421,0,0,0,0,4,6,0,5,NaN,NaN,horizontal,vertical,horizontal,vertical,none,none
1b,12,100198,2,23,87,23,M,NA,constant,heterogeneous,5,absent,1.17221808433533,0,horizontal,vertical,1,0.799998797031871,green,1,NaN,835.489140744817,852.518357529101,NaN,NaN,835.489140744817,852.518357529101,1051.12597701811,644.280285305067,919.715248510402,374.848363820974,622.862115532956,416.568350913644,570.807518193712,711.784642431215,0,0,4,3,6,0,6,NaN,horizontal,horizontal,horizontal,vertical,horizontal,none
1b,12,100198,2,24,88,23,M,NA,constant,heterogeneous,6,absent,0.951430082321167,1,vertical,vertical,1,0.788234161912349,green,6,NaN,574.848363820974,719.715248510402,NaN,NaN,791.100628340862,854.844660889869,1016.25226451989,735.129412379467,1025.15163617903,480.284751489598,808.899371659138,345.155339110131,583.747735480111,464.870587620533,574.848363820974,719.715248510402,0,5,3,0,3,4,vertical,vertical,vertical,horizontal,horizontal,vertical
1b,12,100198,2,25,89,23,M,NA,constant,heterogeneous,4,present,0.805620193481445,1,vertical,vertical,1,0.941174418466133,green,4,2,551.535633479765,657.362518857686,1048.46436652023,542.637481142314,857.362518857686,848.464366520235,1048.46436652023,542.637481142314,742.637481142314,351.535633479765,551.535633479765,657.362518857686,0,0,0,0,0,0,3,4,NaN,NaN,vertical,vertical,horizontal,vertical,none,none
1b,12,100198,2,26,90,23,M,NA,constant,heterogeneous,6,absent,1.0978479385376,1,vertical,vertical,1,0.799998797031871,green,5,NaN,558.892763222174,516.980120613425,NaN,NaN,848.656293821019,850.314931779154,1041.10723677783,683.019879386575,992.450942956807,432.704947607421,751.343706178981,349.685068220846,558.892763222174,516.980120613425,607.549057043193,767.295052392579,3,6,5,0,4,0,vertical,vertical,horizontal,horizontal,vertical,horizontal
1b,12,100198,2,27,91,23,M,NA,constant,heterogeneous,5,present,0.897773027420044,1,vertical,vertical,1,0.694117080956175,green,2,5,1053.09926866854,631.076682568313,576.971974679454,723.626453162816,848.656293821019,850.314931779154,1053.09926866854,631.076682568313,907.767656743878,368.891514305654,613.504806087112,426.090418184063,576.971974679454,723.626453162816,0,0,3,4,5,0,3,NaN,horizontal,vertical,horizontal,horizontal,horizontal,none
1b,12,100198,2,28,92,23,M,NA,constant,heterogeneous,5,present,0.738206148147583,1,vertical,vertical,1,0.917645148227089,green,2,3,963.910840470068,795.341332995339,1036.43188291453,504.475318678942,664.870587620533,816.252264519889,963.910840470068,795.341332995339,1036.43188291453,504.475318678942,782.212099195248,345.621167183745,552.574589799621,538.309916622085,0,0,0,4,6,3,5,NaN,vertical,vertical,vertical,vertical,horizontal,none
1b,12,100198,2,29,93,23,M,NA,constant,heterogeneous,4,present,0.867384910583496,1,vertical,vertical,1,0.905880513107568,green,1,2,927.5,820.836477965032,1020.83647796503,472.5,927.5,820.836477965032,1020.83647796503,472.5,672.5,379.163522034968,579.163522034968,727.5,0,0,0,0,4,5,3,6,NaN,NaN,vertical,vertical,horizontal,horizontal,none,none
1b,12,100198,2,30,94,23,M,NA,constant,heterogeneous,4,present,0.914572954177856,1,vertical,vertical,1,0.682352445836653,green,4,2,619.68777079743,419.68777079743,980.31222920257,780.31222920257,619.68777079743,780.31222920257,980.31222920257,780.31222920257,980.31222920257,419.68777079743,619.68777079743,419.68777079743,0,0,0,0,3,6,0,4,NaN,NaN,vertical,vertical,horizontal,vertical,none,none
1b,12,100198,2,31,95,23,M,NA,constant,heterogeneous,3,absent,0.894949913024902,1,vertical,vertical,1,0.894115877988046,green,3,NaN,552.574589799621,661.690083377915,NaN,NaN,977.137884467044,783.431649086356,870.287525733335,354.878267535729,552.574589799621,661.690083377915,0,0,0,0,0,0,5,3,4,NaN,NaN,NaN,horizontal,vertical,vertical,none,none,none
1b,12,100198,2,32,96,23,M,NA,constant,heterogeneous,5,present,1.06701993942261,1,vertical,vertical,1,0.905880513107568,green,2,4,1054.84466088987,608.899371659138,599.057257830286,443.006323791957,870.287525733335,845.121732464271,1054.84466088987,608.899371659138,887.215136548046,360.378381699593,599.057257830286,443.006323791957,588.595418998464,742.594190385041,0,0,3,4,5,0,3,NaN,horizontal,vertical,vertical,vertical,vertical,none
1b,12,100198,2,33,97,23,M,NA,constant,heterogeneous,5,present,0.769227027893066,0,vertical,horizontal,1,1.03529149942231,green,5,1,545.155339110131,591.100628340862,712.784863451954,839.621618300407,712.784863451954,839.621618300407,1000.94274216971,756.993676208043,1011.40458100154,457.40580961496,729.712474266665,354.878267535729,545.155339110131,591.100628340862,0,0,5,0,6,5,4,NaN,horizontal,vertical,horizontal,horizontal,vertical,none
1b,12,100198,2,34,98,23,M,NA,constant,heterogeneous,4,absent,1.00100111961365,1,vertical,vertical,1,0.623529270239044,green,3,NaN,746.982518841471,350.57236181288,NaN,NaN,853.017481158529,849.42763818712,1049.42763818712,546.982518841471,746.982518841471,350.57236181288,550.57236181288,653.017481158529,0,0,0,0,5,0,4,3,NaN,NaN,vertical,horizontal,vertical,vertical,none,none
1b,12,100198,2,35,99,23,M,NA,constant,heterogeneous,6,present,0.683604955673218,1,vertical,vertical,1,0.905880513107568,green,2,4,963.910840470068,795.341332995339,887.215136548046,360.378381699593,712.784863451954,839.621618300407,963.910840470068,795.341332995339,1051.12597701811,555.719714694933,887.215136548046,360.378381699593,636.089159529932,404.658667004661,548.874022981887,644.280285305067,5,4,0,5,3,6,vertical,vertical,vertical,vertical,horizontal,vertical
1b,12,100198,2,36,100,23,M,NA,constant,heterogeneous,3,absent,1.43513011932373,1,horizontal,horizontal,1,0.682352445836653,green,2,NaN,1036.43188291453,695.524681321058,NaN,NaN,599.057257830286,756.993676208043,1036.43188291453,695.524681321058,764.510859255183,347.4816424709,0,0,0,0,0,0,3,4,6,NaN,NaN,NaN,vertical,horizontal,horizontal,none,none,none
1b,12,100198,2,37,101,23,M,NA,constant,heterogeneous,3,present,0.805136203765869,1,horizontal,horizontal,1,0.847057337509958,green,2,3,1054.84466088987,591.100628340862,664.870587620533,383.747735480111,680.284751489598,825.151636179026,1054.84466088987,591.100628340862,664.870587620533,383.747735480111,0,0,0,0,0,0,0,4,6,NaN,NaN,NaN,vertical,horizontal,vertical,none,none,none
1b,12,100198,2,38,102,23,M,NA,constant,heterogeneous,5,absent,NaN,0,horizontal,none,0,0.847057337509958,green,2,NaN,1049.42763818712,653.017481158529,NaN,NaN,826.654758133252,853.60308331891,1049.42763818712,653.017481158529,927.5,379.163522034968,629.371695378491,410.498069503264,567.045908301137,703.717843984329,0,0,5,4,3,0,6,NaN,vertical,horizontal,horizontal,vertical,horizontal,none
1b,12,100198,2,39,103,23,M,NA,constant,heterogeneous,5,absent,1.25404906272888,1,vertical,vertical,1,0.776469526792827,green,5,NaN,549.685068220846,648.656293821019,NaN,NaN,768.923317431687,853.099268668537,1031.10848569435,707.767656743878,973.909581815937,413.504806087112,676.373546837184,376.971974679454,549.685068220846,648.656293821019,0,0,6,3,0,5,4,NaN,vertical,vertical,vertical,horizontal,vertical,none
1b,12,100198,2,40,104,23,M,NA,constant,heterogeneous,5,present,1.28365087509155,1,horizontal,horizontal,1,0.823528067270915,green,1,4,650.114760665419,806.299333565612,800,345,650.114760665419,806.299333565612,949.885239334581,806.299333565612,1042.51941165526,521.200666434388,800,345,557.480588344736,521.200666434388,0,0,4,6,3,5,5,NaN,horizontal,horizontal,horizontal,horizontal,vertical,none
1b,12,100198,2,41,105,23,M,NA,constant,heterogeneous,3,present,1.05124998092651,0,horizontal,vertical,1,1.08235003990039,green,1,3,696.282156015671,832.954091698863,650.114760665419,393.700666434388,696.282156015671,832.954091698863,1053.60308331891,573.345241866748,650.114760665419,393.700666434388,0,0,0,0,0,0,4,3,0,NaN,NaN,NaN,horizontal,vertical,horizontal,none,none,none
1b,12,100198,2,42,106,23,M,NA,constant,heterogeneous,4,present,1.47244191169739,1,horizontal,horizontal,1,0.999997594063742,green,1,2,970.628304621509,789.501930496736,989.501930496736,429.371695378491,970.628304621509,789.501930496736,989.501930496736,429.371695378491,629.371695378491,410.498069503264,610.498069503264,770.628304621509,0,0,0,0,4,3,0,6,NaN,NaN,horizontal,horizontal,horizontal,horizontal,none,none
1b,12,100198,2,43,107,23,M,NA,constant,heterogeneous,5,present,1.86992001533508,1,horizontal,horizontal,1,0.776469526792827,green,4,1,791.100628340862,345.155339110131,657.405809614959,811.404581001536,657.405809614959,811.404581001536,956.993676208043,800.942742169714,1039.62161830041,512.784863451954,791.100628340862,345.155339110131,554.878267535729,529.712474266665,0,0,5,3,0,4,6,NaN,horizontal,vertical,vertical,horizontal,vertical,none
1b,12,100198,2,44,108,23,M,NA,constant,heterogeneous,4,absent,1.04905605316162,1,vertical,vertical,1,0.682352445836653,green,2,NaN,1052.5183575291,635.489140744817,NaN,NaN,764.510859255183,852.518357529101,1052.5183575291,635.489140744817,835.489140744817,347.4816424709,547.481642470899,564.510859255183,0,0,0,0,0,4,3,5,NaN,NaN,horizontal,vertical,horizontal,horizontal,none,none
1b,12,100198,2,45,109,23,M,NA,constant,heterogeneous,6,present,0.762930870056152,1,vertical,vertical,1,1.03529149942231,green,6,3,545.621167183745,617.787900804752,1054.37883281626,582.212099195248,688.215357568785,829.192481806288,942.594190385041,811.404581001536,1054.37883281626,582.212099195248,911.784642431215,370.807518193712,657.405809614959,388.595418998464,545.621167183745,617.787900804752,6,6,5,5,3,4,horizontal,vertical,vertical,vertical,vertical,vertical
1b,12,100198,2,46,110,23,M,NA,constant,heterogeneous,6,absent,1.57596611976624,1,horizontal,horizontal,1,0.682352445836653,green,5,NaN,613.504806087112,426.090418184063,NaN,NaN,742.637481142314,848.464366520235,986.495193912888,773.909581815937,1043.85771277057,525.445215295702,857.362518857686,351.535633479765,613.504806087112,426.090418184063,556.142287229426,674.554784704298,6,6,0,5,4,3,vertical,vertical,horizontal,horizontal,horizontal,vertical
1b,12,100198,2,47,111,23,M,NA,constant,heterogeneous,3,absent,0.764504909515381,1,vertical,vertical,1,0.823528067270915,green,3,NaN,688.215357568785,370.807518193712,NaN,NaN,657.405809614959,811.404581001536,1054.37883281626,617.787900804752,688.215357568785,370.807518193712,0,0,0,0,0,0,3,0,4,NaN,NaN,NaN,horizontal,horizontal,vertical,none,none,none
1b,12,100198,2,48,112,23,M,NA,constant,heterogeneous,5,present,1.44123291969299,1,horizontal,horizontal,1,0.658823175597609,green,5,3,574.848363820974,719.715248510402,911.784642431215,370.807518193712,844.280285305067,851.125977018113,1052.5183575291,635.489140744817,911.784642431215,370.807518193712,616.568350913644,422.862115532956,574.848363820974,719.715248510402,0,0,0,5,0,3,4,NaN,horizontal,vertical,vertical,vertical,horizontal,none
1b,12,100198,2,49,113,23,M,NA,constant,heterogeneous,6,present,NaN,0,horizontal,none,0,0.776469526792827,green,1,6,874.554784704298,843.857712770574,626.090418184063,786.495193912888,874.554784704298,843.857712770574,1048.46436652023,657.362518857686,973.909581815937,413.504806087112,725.445215295702,356.142287229426,551.535633479765,542.637481142314,626.090418184063,786.495193912888,4,3,6,0,0,5,horizontal,horizontal,horizontal,vertical,horizontal,horizontal
1b,12,100198,2,50,114,23,M,NA,constant,heterogeneous,6,present,1.86100697517395,0,horizontal,vertical,1,0.752940256553784,green,4,5,923.626453162816,376.971974679454,668.665290897936,381.422338320961,676.373546837184,823.028025320546,931.334709102064,818.577661679039,1054.96116226488,595.549636358493,923.626453162816,376.971974679454,668.665290897936,381.422338320961,545.03883773512,604.450363641507,3,0,6,4,5,3,vertical,horizontal,vertical,horizontal,vertical,vertical
1b,12,100198,2,51,115,23,M,NA,constant,heterogeneous,5,absent,0.931828022003174,1,horizontal,horizontal,1,0.658823175597609,green,3,NaN,919.715248510402,374.848363820974,NaN,NaN,835.489140744817,852.518357529101,1051.12597701811,644.280285305067,919.715248510402,374.848363820974,622.862115532956,416.568350913644,570.807518193712,711.784642431215,0,0,6,0,4,5,3,NaN,horizontal,vertical,horizontal,vertical,horizontal,none
1b,12,100198,2,52,116,23,M,NA,constant,heterogeneous,3,present,1.20312714576721,1,vertical,vertical,1,0.835292702390437,green,2,3,1054.96116226488,604.450363641507,676.373546837184,376.971974679454,668.665290897936,818.577661679039,1054.96116226488,604.450363641507,676.373546837184,376.971974679454,0,0,0,0,0,0,0,4,6,NaN,NaN,NaN,vertical,vertical,vertical,none,none,none
1b,12,100198,2,53,117,23,M,NA,constant,heterogeneous,6,absent,1.01350593566895,1,vertical,vertical,1,0.705881716075696,green,3,NaN,1018.57766167904,468.665290897936,NaN,NaN,804.450363641507,854.96116226488,1023.02802532055,723.626453162816,1018.57766167904,468.665290897936,795.549636358493,345.03883773512,576.971974679454,476.373546837184,581.422338320961,731.334709102064,6,5,4,0,3,5,vertical,vertical,vertical,horizontal,vertical,horizontal
1b,12,100198,2,54,118,23,M,NA,constant,heterogeneous,6,present,1.59858083724976,1,horizontal,horizontal,1,0.823528067270915,green,2,5,1051.86052685176,639.890788585259,548.13947314824,560.109211414741,891.383827134052,838.063008756786,1051.86052685176,639.890788585259,960.476699717708,401.827779828472,708.616172865948,361.936991243214,548.13947314824,560.109211414741,639.523300282292,798.172220171528,3,4,3,5,6,0,horizontal,horizontal,vertical,horizontal,vertical,horizontal
1b,12,100198,2,55,119,23,M,NA,constant,heterogeneous,4,absent,1.79063415527344,1,horizontal,horizontal,1,0.788234161912349,green,2,NaN,1029.19248180629,488.215357568785,NaN,NaN,911.784642431215,829.192481806288,1029.19248180629,488.215357568785,688.215357568785,370.807518193712,570.807518193712,711.784642431215,0,0,0,0,5,4,3,3,NaN,NaN,vertical,horizontal,horizontal,vertical,none,none
1b,12,100198,2,56,120,23,M,NA,constant,heterogeneous,4,absent,0.9778151512146,1,horizontal,horizontal,1,0.964703688705177,green,3,NaN,619.68777079743,419.68777079743,NaN,NaN,980.31222920257,780.31222920257,980.31222920257,419.68777079743,619.68777079743,419.68777079743,619.68777079743,780.31222920257,0,0,0,0,3,6,4,0,NaN,NaN,horizontal,vertical,horizontal,vertical,none,none
1b,12,100198,2,57,121,23,M,NA,constant,heterogeneous,6,present,1.23164200782776,0,vertical,horizontal,1,0.694117080956175,green,1,2,919.715248510402,825.151636179026,1054.84466088987,608.899371659138,919.715248510402,825.151636179026,1054.84466088987,608.899371659138,935.129412379467,383.747735480111,680.284751489598,374.848363820974,545.155339110131,591.100628340862,664.870587620533,816.252264519889,4,6,6,0,3,0,vertical,vertical,horizontal,horizontal,horizontal,vertical
1b,12,100198,2,58,122,23,M,NA,constant,heterogeneous,4,present,0.981328010559082,1,horizontal,horizontal,1,1.04705613454183,green,3,1,639.523300282292,401.827779828472,960.476699717708,798.172220171528,960.476699717708,798.172220171528,998.172220171528,439.523300282291,639.523300282292,401.827779828472,601.827779828472,760.476699717708,0,0,0,0,6,0,4,6,NaN,NaN,horizontal,vertical,horizontal,vertical,none,none
1b,12,100198,2,59,123,23,M,NA,constant,heterogeneous,3,present,1.26695799827576,1,horizontal,horizontal,1,1.09411467501992,green,2,3,980.31222920257,419.68777079743,553.688914296288,534.001143498857,865.998856501143,846.311085703712,980.31222920257,419.68777079743,553.688914296288,534.001143498857,0,0,0,0,0,0,6,4,5,NaN,NaN,NaN,vertical,horizontal,horizontal,none,none,none
1b,12,100198,2,60,124,23,M,NA,constant,heterogeneous,5,present,1.65055084228516,1,horizontal,horizontal,1,0.905880513107568,green,5,3,596.34794493794,753.462830903772,874.554784704298,356.142287229426,883.019879386575,841.107236777826,1054.96116226488,595.549636358493,874.554784704298,356.142287229426,591.116228706307,453.738008730483,596.34794493794,753.462830903772,0,0,0,5,0,5,4,NaN,horizontal,vertical,vertical,vertical,horizontal,none
1b,12,100198,2,61,125,23,M,NA,constant,heterogeneous,3,present,0.660942077636719,1,vertical,vertical,1,0.658823175597609,green,3,1,613.504806087112,426.090418184063,742.637481142314,848.464366520235,742.637481142314,848.464366520235,1043.85771277057,525.445215295702,613.504806087112,426.090418184063,0,0,0,0,0,0,3,5,4,NaN,NaN,NaN,horizontal,horizontal,vertical,none,none,none
1b,12,100198,2,62,126,23,M,NA,constant,heterogeneous,5,absent,1.4125440120697,1,vertical,vertical,1,0.705881716075696,green,5,NaN,639.523300282292,798.172220171528,NaN,NaN,938.882953928832,813.860994826083,1046.31108570371,534.001143498857,813.345668841951,345.349468637584,561.936991243214,508.616172865948,639.523300282292,798.172220171528,0,0,3,3,0,5,4,NaN,vertical,vertical,vertical,vertical,vertical,none
1b,12,100198,2,63,127,23,M,NA,constant,heterogeneous,4,absent,0.773499011993408,1,vertical,vertical,1,0.623529270239044,green,2,NaN,1020.83647796503,472.5,NaN,NaN,927.5,820.836477965032,1020.83647796503,472.5,672.5,379.163522034968,579.163522034968,727.5,0,0,0,0,3,4,3,0,NaN,NaN,horizontal,vertical,vertical,horizontal,none,none
1b,12,100198,2,64,128,23,M,NA,constant,heterogeneous,4,absent,1.13822507858276,1,horizontal,horizontal,1,0.85882197262948,green,1,NaN,919.715248510402,825.151636179026,NaN,NaN,919.715248510402,825.151636179026,1025.15163617903,480.284751489598,680.284751489598,374.848363820974,574.848363820974,719.715248510402,0,0,0,0,4,3,0,6,NaN,NaN,horizontal,horizontal,vertical,horizontal,none,none
1b,12,100198,3,1,129,23,M,NA,constant,heterogeneous,4,present,0.969704866409302,1,horizontal,horizontal,1,0.976468323824699,green,1,3,935.129412379467,816.252264519889,664.870587620533,383.747735480111,935.129412379467,816.252264519889,1016.25226451989,464.870587620533,664.870587620533,383.747735480111,583.747735480111,735.129412379467,0,0,0,0,4,0,3,0,NaN,NaN,horizontal,horizontal,horizontal,horizontal,none,none
1b,12,100198,3,2,130,23,M,NA,constant,heterogeneous,5,present,1.34726691246033,1,horizontal,horizontal,1,0.694117080956175,green,4,5,570.807518193712,488.215357568785,622.862115532956,783.431649086356,919.715248510402,825.151636179026,1051.12597701811,555.719714694933,835.489140744817,347.4816424709,570.807518193712,488.215357568785,622.862115532956,783.431649086356,0,0,5,6,5,4,0,NaN,vertical,vertical,vertical,horizontal,vertical,none
1b,12,100198,3,3,131,23,M,NA,constant,heterogeneous,6,absent,1.28330087661743,1,vertical,vertical,1,0.647058540478087,green,1,NaN,865.998856501143,846.311085703712,NaN,NaN,865.998856501143,846.311085703712,1046.31108570371,665.998856501143,980.31222920257,419.68777079743,734.001143498857,353.688914296288,553.688914296288,534.001143498857,619.68777079743,780.31222920257,4,6,0,3,5,0,vertical,horizontal,vertical,vertical,vertical,horizontal
1b,12,100198,3,4,132,23,M,NA,constant,heterogeneous,5,absent,0.711887121200562,1,vertical,vertical,1,0.941174418466133,green,3,NaN,874.554784704298,356.142287229426,NaN,NaN,883.019879386575,841.107236777826,1054.96116226488,595.549636358493,874.554784704298,356.142287229426,591.116228706307,453.738008730483,596.34794493794,753.462830903772,0,0,0,0,4,3,3,NaN,vertical,vertical,vertical,vertical,vertical,none
1b,12,100198,3,5,133,23,M,NA,constant,heterogeneous,6,absent,1.77234482765198,1,vertical,vertical,1,0.894115877988046,green,3,NaN,989.501930496736,429.371695378491,NaN,NaN,853.017481158529,849.42763818712,1042.51941165526,678.799333565612,989.501930496736,429.371695378491,746.982518841471,350.57236181288,557.480588344736,521.200666434388,610.498069503264,770.628304621509,3,6,4,6,3,0,vertical,horizontal,vertical,vertical,vertical,vertical
1b,12,100198,3,6,134,23,M,NA,constant,heterogeneous,3,absent,0.889052867889404,1,vertical,vertical,1,1.05882076966135,green,3,NaN,547.481642470899,635.489140744817,NaN,NaN,956.993676208043,800.942742169714,895.524681321058,363.568117085469,547.481642470899,635.489140744817,0,0,0,0,0,0,6,6,4,NaN,NaN,NaN,vertical,vertical,vertical,none,none,none
1b,12,100198,3,7,135,23,M,NA,constant,heterogeneous,6,absent,1.46178579330444,1,horizontal,horizontal,1,0.741175621434262,green,5,NaN,545,600,NaN,NaN,927.5,820.836477965032,1055,600,927.5,379.163522034968,672.5,379.163522034968,545,600,672.5,820.836477965032,6,5,3,3,4,5,horizontal,horizontal,horizontal,vertical,horizontal,horizontal
1b,12,100198,3,8,136,23,M,NA,constant,heterogeneous,5,present,1.42321705818176,0,vertical,horizontal,1,0.6,green,5,4,616.568350913644,777.137884467044,574.848363820974,480.284751489598,911.784642431215,829.192481806288,1052.5183575291,564.510859255183,844.280285305067,348.874022981887,574.848363820974,480.284751489598,616.568350913644,777.137884467044,0,0,3,6,3,0,4,NaN,vertical,vertical,horizontal,vertical,vertical,none
1b,12,100198,3,9,137,23,M,NA,constant,heterogeneous,4,present,0.988942861557007,1,vertical,vertical,1,1.04705613454183,green,4,3,591.116228706307,453.738008730483,946.261991269517,391.116228706307,653.738008730483,808.883771293693,1008.88377129369,746.261991269517,946.261991269517,391.116228706307,591.116228706307,453.738008730483,0,0,0,0,6,5,0,4,NaN,NaN,vertical,vertical,horizontal,vertical,none,none
1b,12,100198,3,10,138,23,M,NA,constant,heterogeneous,6,absent,0.946038961410522,1,horizontal,horizontal,1,1.05882076966135,green,3,NaN,1016.25226451989,464.870587620533,NaN,NaN,808.899371659138,854.844660889869,1025.15163617903,719.715248510402,1016.25226451989,464.870587620533,791.100628340862,345.155339110131,574.848363820974,480.284751489598,583.747735480111,735.129412379467,0,0,4,6,6,5,horizontal,vertical,horizontal,vertical,vertical,vertical
1b,12,100198,3,11,139,23,M,NA,constant,heterogeneous,6,absent,0.871333837509155,1,vertical,vertical,1,0.705881716075696,green,4,NaN,734.001143498857,353.688914296288,NaN,NaN,865.998856501143,846.311085703712,1046.31108570371,665.998856501143,980.31222920257,419.68777079743,734.001143498857,353.688914296288,553.688914296288,534.001143498857,619.68777079743,780.31222920257,0,6,5,4,6,5,horizontal,vertical,vertical,vertical,horizontal,horizontal
1b,12,100198,3,12,140,23,M,NA,constant,heterogeneous,4,present,1.07087111473083,1,horizontal,horizontal,1,0.694117080956175,green,4,3,619.68777079743,419.68777079743,980.31222920257,419.68777079743,619.68777079743,780.31222920257,980.31222920257,780.31222920257,980.31222920257,419.68777079743,619.68777079743,419.68777079743,0,0,0,0,5,6,0,4,NaN,NaN,vertical,horizontal,horizontal,horizontal,none,none
1b,12,100198,3,13,141,23,M,NA,constant,heterogeneous,5,present,1.33412909507751,1,horizontal,horizontal,1,1.07058540478087,green,2,1,960.476699717708,798.172220171528,661.117046071168,813.860994826083,661.117046071168,813.860994826083,960.476699717708,798.172220171528,1038.06300875679,508.616172865948,786.654331158049,345.349468637584,553.688914296288,534.001143498857,0,0,6,4,3,0,5,NaN,vertical,horizontal,vertical,horizontal,horizontal,none
1b,12,100198,3,14,142,23,M,NA,constant,heterogeneous,3,absent,1.13912105560303,1,vertical,vertical,1,0.917645148227089,green,3,NaN,657.405809614959,388.595418998464,NaN,NaN,688.215357568785,829.192481806288,1054.37883281626,582.212099195248,657.405809614959,388.595418998464,0,0,0,0,0,0,5,6,4,NaN,NaN,NaN,vertical,horizontal,vertical,none,none,none
1b,12,100198,3,15,143,23,M,NA,constant,heterogeneous,5,absent,1.21549987792969,1,horizontal,horizontal,1,0.670587810717131,green,5,NaN,545.03883773512,595.549636358493,NaN,NaN,716.980120613425,841.107236777826,1003.65205506206,753.462830903772,1008.88377129369,453.738008730483,725.445215295702,356.142287229426,545.03883773512,595.549636358493,0,0,6,3,3,0,4,NaN,horizontal,horizontal,horizontal,vertical,horizontal,none
1b,12,100198,3,16,144,23,M,NA,constant,heterogeneous,4,absent,1.29240202903748,1,horizontal,horizontal,1,1.03529149942231,green,4,NaN,601.827779828472,760.476699717708,NaN,NaN,960.476699717708,798.172220171528,998.172220171528,439.523300282291,639.523300282292,401.827779828472,601.827779828472,760.476699717708,0,0,0,0,5,0,3,4,NaN,NaN,vertical,horizontal,vertical,horizontal,none,none
1b,12,100198,3,17,145,23,M,NA,constant,heterogeneous,3,present,0.965223073959351,1,horizontal,horizontal,1,0.72941098631474,green,2,3,826.654758133252,346.39691668109,567.045908301137,703.717843984329,1006.29933356561,749.885239334581,826.654758133252,346.39691668109,567.045908301137,703.717843984329,0,0,0,0,0,0,3,4,5,NaN,NaN,NaN,vertical,horizontal,vertical,none,none,none
1b,12,100198,3,18,146,23,M,NA,constant,heterogeneous,4,absent,1.23435592651367,1,vertical,vertical,1,0.882351242868524,green,1,NaN,646.537169096228,803.65205506206,NaN,NaN,646.537169096228,803.65205506206,1003.65205506206,753.462830903772,953.462830903772,396.34794493794,596.34794493794,446.537169096228,0,0,0,0,4,5,5,3,NaN,NaN,vertical,vertical,horizontal,horizontal,none,none
1b,12,100198,3,19,147,23,M,NA,constant,heterogeneous,3,present,0.930905818939209,0,vertical,horizontal,1,0.976468323824699,green,1,2,804.450363641507,854.96116226488,1018.57766167904,468.665290897936,804.450363641507,854.96116226488,1018.57766167904,468.665290897936,576.971974679454,476.373546837184,0,0,0,0,0,0,4,5,0,NaN,NaN,NaN,vertical,vertical,horizontal,none,none,none
1b,12,100198,3,20,148,23,M,NA,constant,heterogeneous,6,absent,1.24760293960571,1,horizontal,horizontal,1,1.09411467501992,green,3,NaN,1034.72873763037,500.363562235235,NaN,NaN,768.923317431687,853.099268668537,1003.65205506206,753.462830903772,1034.72873763037,500.363562235235,831.076682568313,346.900731331463,596.34794493794,446.537169096228,565.271262369628,699.636437764765,0,6,4,5,3,6,vertical,horizontal,horizontal,vertical,horizontal,horizontal
1b,12,100198,3,21,149,23,M,NA,constant,heterogeneous,3,absent,1.4423770904541,1,horizontal,horizontal,1,0.882351242868524,green,3,NaN,721.200666434388,357.480588344736,NaN,NaN,629.371695378491,789.501930496736,1049.42763818712,653.017481158529,721.200666434388,357.480588344736,0,0,0,0,0,0,3,0,4,NaN,NaN,NaN,horizontal,vertical,horizontal,none,none,none
1b,12,100198,3,22,150,23,M,NA,constant,heterogeneous,4,present,1.26941609382629,1,horizontal,horizontal,1,1.09411467501992,green,1,2,619.68777079743,780.31222920257,980.31222920257,780.31222920257,619.68777079743,780.31222920257,980.31222920257,780.31222920257,980.31222920257,419.68777079743,619.68777079743,419.68777079743,0,0,0,0,4,0,5,3,NaN,NaN,horizontal,vertical,horizontal,vertical,none,none
1b,12,100198,3,23,151,23,M,NA,constant,heterogeneous,4,present,0.702569007873535,1,vertical,vertical,1,0.788234161912349,green,2,3,1013.86099482608,738.882953928832,938.882953928832,386.139005173917,661.117046071168,813.860994826083,1013.86099482608,738.882953928832,938.882953928832,386.139005173917,586.139005173917,461.117046071168,0,0,0,0,5,4,0,0,NaN,NaN,horizontal,vertical,vertical,vertical,none,none
1b,12,100198,3,24,152,23,M,NA,constant,heterogeneous,5,absent,1.28228211402893,1,horizontal,horizontal,1,0.85882197262948,green,1,NaN,755.719714694933,851.125977018113,NaN,NaN,755.719714694933,851.125977018113,1025.15163617903,719.715248510402,983.431649086356,422.862115532956,688.215357568785,370.807518193712,547.481642470899,635.489140744817,0,0,4,0,3,6,5,NaN,horizontal,vertical,vertical,vertical,horizontal,none
1b,12,100198,3,25,153,23,M,NA,constant,heterogeneous,3,absent,0.750977993011475,1,vertical,vertical,1,0.741175621434262,green,2,NaN,1003.65205506206,446.537169096228,NaN,NaN,831.076682568313,853.099268668537,1003.65205506206,446.537169096228,565.271262369628,500.363562235235,0,0,0,0,0,0,6,4,0,NaN,NaN,NaN,vertical,vertical,vertical,none,none,none
1b,12,100198,3,26,154,23,M,NA,constant,heterogeneous,3,present,0.787164926528931,1,horizontal,horizontal,1,0.85882197262948,green,1,3,848.656293821019,850.314931779154,558.892763222174,516.980120613425,848.656293821019,850.314931779154,992.450942956807,432.704947607421,558.892763222174,516.980120613425,0,0,0,0,0,0,4,6,5,NaN,NaN,NaN,horizontal,horizontal,vertical,none,none,none
1b,12,100198,3,27,155,23,M,NA,constant,heterogeneous,3,present,0.833542108535767,1,horizontal,horizontal,1,0.929409783346611,green,1,2,831.076682568313,853.099268668537,1003.65205506206,446.537169096228,831.076682568313,853.099268668537,1003.65205506206,446.537169096228,565.271262369628,500.363562235235,0,0,0,0,0,0,4,5,5,NaN,NaN,NaN,horizontal,horizontal,horizontal,none,none,none
1b,12,100198,3,28,156,23,M,NA,constant,heterogeneous,3,present,0.78109884262085,1,vertical,vertical,1,0.929409783346611,green,1,3,629.371695378491,789.501930496736,721.200666434388,357.480588344736,629.371695378491,789.501930496736,1049.42763818712,653.017481158529,721.200666434388,357.480588344736,0,0,0,0,0,0,4,5,6,NaN,NaN,NaN,vertical,vertical,vertical,none,none,none
1b,12,100198,3,29,157,23,M,NA,constant,heterogeneous,5,present,1.77112817764282,1,horizontal,horizontal,1,0.717646351195218,green,5,1,557.480588344736,521.200666434388,650.114760665419,806.299333565612,650.114760665419,806.299333565612,949.885239334581,806.299333565612,1042.51941165526,521.200666434388,800,345,557.480588344736,521.200666434388,0,0,0,0,5,3,4,NaN,horizontal,horizontal,vertical,horizontal,horizontal,none
1b,12,100198,3,30,158,23,M,NA,constant,heterogeneous,4,present,1.28209805488586,1,horizontal,horizontal,1,0.952939053585655,green,4,3,596.34794493794,753.462830903772,646.537169096228,396.34794493794,953.462830903772,803.65205506206,1003.65205506206,446.537169096228,646.537169096228,396.34794493794,596.34794493794,753.462830903772,0,0,0,0,5,5,6,4,NaN,NaN,horizontal,horizontal,horizontal,horizontal,none,none
1b,12,100198,3,31,159,23,M,NA,constant,heterogeneous,6,present,1.41410303115845,1,horizontal,horizontal,1,0.717646351195218,green,1,5,700.363562235235,834.728737630372,646.537169096228,396.34794493794,700.363562235235,834.728737630372,953.462830903772,803.65205506206,1053.09926866854,568.923317431687,899.636437764765,365.271262369628,646.537169096228,396.34794493794,546.900731331463,631.076682568313,4,0,5,0,6,5,horizontal,horizontal,vertical,vertical,vertical,horizontal
1b,12,100198,3,32,160,23,M,NA,constant,heterogeneous,6,present,1.22306609153748,1,horizontal,horizontal,1,1.02352686430279,green,2,3,953.462830903772,803.65205506206,1053.09926866854,568.923317431687,700.363562235235,834.728737630372,953.462830903772,803.65205506206,1053.09926866854,568.923317431687,899.636437764765,365.271262369628,646.537169096228,396.34794493794,546.900731331463,631.076682568313,6,4,5,0,3,0,vertical,horizontal,vertical,vertical,horizontal,horizontal
1b,12,100198,3,33,161,23,M,NA,constant,heterogeneous,3,present,0.776224136352539,0,horizontal,vertical,1,0.811763432151393,green,1,3,751.343706178981,850.314931779154,607.549057043193,432.704947607421,751.343706178981,850.314931779154,1041.10723677783,516.980120613425,607.549057043193,432.704947607421,0,0,0,0,0,0,4,5,0,NaN,NaN,NaN,horizontal,vertical,horizontal,none,none,none
1b,12,100198,3,34,162,23,M,NA,constant,heterogeneous,5,present,0.990680932998657,0,vertical,horizontal,1,0.741175621434262,green,2,1,1025.15163617903,719.715248510402,755.719714694933,851.125977018113,755.719714694933,851.125977018113,1025.15163617903,719.715248510402,983.431649086356,422.862115532956,688.215357568785,370.807518193712,547.481642470899,635.489140744817,0,0,0,4,3,6,0,NaN,horizontal,vertical,horizontal,horizontal,horizontal,none
1b,12,100198,3,35,163,23,M,NA,constant,heterogeneous,3,absent,0.931797027587891,1,horizontal,horizontal,1,1.05882076966135,green,2,NaN,986.495193912888,426.090418184063,NaN,NaN,857.362518857686,848.464366520235,986.495193912888,426.090418184063,556.142287229426,525.445215295702,0,0,0,0,0,0,6,4,5,NaN,NaN,NaN,horizontal,horizontal,horizontal,none,none,none
1b,12,100198,3,36,164,23,M,NA,constant,heterogeneous,5,present,1.41900396347046,1,vertical,vertical,1,0.811763432151393,green,1,4,716.980120613425,841.107236777826,725.445215295702,356.142287229426,716.980120613425,841.107236777826,1003.65205506206,753.462830903772,1008.88377129369,453.738008730483,725.445215295702,356.142287229426,545.03883773512,595.549636358493,0,0,4,5,6,5,3,NaN,vertical,horizontal,vertical,horizontal,vertical,none
1b,12,100198,3,37,165,23,M,NA,constant,heterogeneous,5,absent,1.41696214675903,1,horizontal,horizontal,1,1.05882076966135,green,2,NaN,1053.09926866854,568.923317431687,NaN,NaN,907.767656743878,831.108485694346,1053.09926866854,568.923317431687,848.656293821019,349.685068220846,576.971974679454,476.373546837184,613.504806087112,773.909581815937,0,0,3,4,6,0,5,NaN,vertical,horizontal,horizontal,horizontal,horizontal,none
1b,12,100198,3,38,166,23,M,NA,constant,heterogeneous,3,absent,1.23086285591125,1,horizontal,horizontal,1,0.682352445836653,green,2,NaN,1018.57766167904,468.665290897936,NaN,NaN,804.450363641507,854.96116226488,1018.57766167904,468.665290897936,576.971974679454,476.373546837184,0,0,0,0,0,0,3,4,3,NaN,NaN,NaN,horizontal,horizontal,horizontal,none,none,none
1b,12,100198,3,39,167,23,M,NA,constant,heterogeneous,6,present,1.37250900268555,1,vertical,vertical,1,0.847057337509958,green,1,5,857.362518857686,848.464366520235,556.142287229426,525.445215295702,857.362518857686,848.464366520235,1043.85771277057,674.554784704298,986.495193912888,426.090418184063,742.637481142314,351.535633479765,556.142287229426,525.445215295702,613.504806087112,773.909581815937,4,3,6,6,0,0,vertical,horizontal,horizontal,vertical,vertical,vertical
1b,12,100198,3,40,168,23,M,NA,constant,heterogeneous,6,absent,NaN,0,horizontal,none,0,0.941174418466133,green,1,NaN,878.799333565612,842.519411655264,NaN,NaN,878.799333565612,842.519411655264,1049.42763818712,653.017481158529,970.628304621509,410.498069503264,721.200666434388,357.480588344736,550.57236181288,546.982518841471,629.371695378491,789.501930496736,4,5,3,0,3,6,horizontal,vertical,vertical,vertical,horizontal,horizontal
1b,12,100198,3,41,169,23,M,NA,constant,heterogeneous,5,absent,1.32411193847656,1,vertical,vertical,1,0.647058540478087,green,4,NaN,588.595418998464,457.40580961496,NaN,NaN,887.215136548046,839.621618300407,1054.84466088987,591.100628340862,870.287525733335,354.878267535729,588.595418998464,457.40580961496,599.057257830286,756.993676208043,0,0,3,0,5,4,0,NaN,horizontal,vertical,vertical,vertical,vertical,none
1b,12,100198,3,42,170,23,M,NA,constant,heterogeneous,6,absent,1.60325121879578,1,vertical,vertical,1,0.823528067270915,green,2,NaN,1020.83647796503,727.5,NaN,NaN,800,855,1020.83647796503,727.5,1020.83647796503,472.5,800,345,579.163522034968,472.5,579.163522034968,727.5,3,4,5,6,0,5,vertical,vertical,horizontal,vertical,vertical,horizontal
1b,12,100198,3,43,171,23,M,NA,constant,heterogeneous,6,present,0.824897050857544,1,vertical,vertical,1,1.07058540478087,green,4,2,915.767577433584,372.793336331966,938.882953928832,813.860994826083,684.232422566416,827.206663668034,938.882953928832,813.860994826083,1054.65053136242,586.654331158049,915.767577433584,372.793336331966,661.117046071168,386.139005173917,545.349468637584,613.345668841951,5,0,0,4,5,6,horizontal,horizontal,vertical,vertical,horizontal,horizontal
1b,12,100198,3,44,172,23,M,NA,constant,heterogeneous,6,present,1.36732196807861,1,horizontal,horizontal,1,1.07058540478087,green,5,2,599.057257830286,443.006323791957,1000.94274216971,756.993676208043,764.510859255183,852.518357529101,1000.94274216971,756.993676208043,1036.43188291453,504.475318678942,835.489140744817,347.4816424709,599.057257830286,443.006323791957,563.568117085469,695.524681321058,0,6,5,6,4,3,horizontal,horizontal,vertical,vertical,horizontal,vertical
1b,12,100198,3,45,173,23,M,NA,constant,heterogeneous,5,absent,0.824999809265137,1,vertical,vertical,1,0.717646351195218,green,5,NaN,546.39691668109,626.654758133252,NaN,NaN,746.982518841471,849.42763818712,1020.83647796503,727.5,989.501930496736,429.371695378491,696.282156015671,367.045908301137,546.39691668109,626.654758133252,0,0,3,6,5,0,4,NaN,vertical,vertical,horizontal,horizontal,vertical,none
1b,12,100198,3,46,174,23,M,NA,constant,heterogeneous,3,absent,1.00938606262207,1,horizontal,horizontal,1,0.788234161912349,green,1,NaN,870.287525733335,845.121732464271,NaN,NaN,870.287525733335,845.121732464271,977.137884467044,416.568350913644,552.574589799621,538.309916622085,0,0,0,0,0,0,4,0,3,NaN,NaN,NaN,horizontal,vertical,horizontal,none,none,none
1b,12,100198,3,47,175,23,M,NA,constant,heterogeneous,4,absent,1.22164797782898,1,horizontal,horizontal,1,0.999997594063742,green,4,NaN,545.349468637584,586.654331158049,NaN,NaN,786.654331158049,854.650531362416,1054.65053136242,613.345668841951,813.345668841951,345.349468637584,545.349468637584,586.654331158049,0,0,0,0,0,6,0,4,NaN,NaN,horizontal,horizontal,horizontal,horizontal,none,none
1b,12,100198,3,48,176,23,M,NA,constant,heterogeneous,5,absent,1.55605316162109,1,horizontal,horizontal,1,0.682352445836653,green,2,NaN,1053.60308331891,626.654758133252,NaN,NaN,853.017481158529,849.42763818712,1053.60308331891,626.654758133252,903.717843984329,367.045908301137,610.498069503264,429.371695378491,579.163522034968,727.5,0,0,3,4,0,5,6,NaN,horizontal,horizontal,vertical,vertical,horizontal,none
1b,12,100198,3,49,177,23,M,NA,constant,heterogeneous,6,present,1.05238890647888,0,vertical,horizontal,1,0.85882197262948,green,1,4,700.363562235235,834.728737630372,899.636437764765,365.271262369628,700.363562235235,834.728737630372,953.462830903772,803.65205506206,1053.09926866854,568.923317431687,899.636437764765,365.271262369628,646.537169096228,396.34794493794,546.900731331463,631.076682568313,4,6,6,3,0,5,vertical,horizontal,vertical,horizontal,vertical,horizontal
1b,12,100198,3,50,178,23,M,NA,constant,heterogeneous,3,present,0.859486818313599,1,vertical,vertical,1,0.894115877988046,green,3,1,777.775285599347,345.970351986605,591.116228706307,746.261991269517,591.116228706307,746.261991269517,1031.10848569435,707.767656743878,777.775285599347,345.970351986605,0,0,0,0,0,0,0,5,4,NaN,NaN,NaN,vertical,horizontal,vertical,none,none,none
1b,12,100198,3,51,179,23,M,NA,constant,heterogeneous,6,present,1.06220197677612,1,vertical,vertical,1,0.670587810717131,green,5,1,549.685068220846,551.343706178981,883.019879386575,841.107236777826,883.019879386575,841.107236777826,1050.31493177915,648.656293821019,967.295052392579,407.549057043193,716.980120613425,358.892763222174,549.685068220846,551.343706178981,632.704947607421,792.450942956807,6,5,6,5,4,0,horizontal,vertical,horizontal,vertical,vertical,vertical
1b,12,100198,3,52,180,23,M,NA,constant,heterogeneous,3,present,0.703327894210815,1,vertical,vertical,1,0.776469526792827,green,3,1,596.34794493794,446.537169096228,768.923317431687,853.099268668537,768.923317431687,853.099268668537,1034.72873763037,500.363562235235,596.34794493794,446.537169096228,0,0,0,0,0,0,0,6,4,NaN,NaN,NaN,vertical,horizontal,vertical,none,none,none
1b,12,100198,3,53,181,23,M,NA,constant,heterogeneous,3,absent,0.838409900665283,1,vertical,vertical,1,1.04705613454183,green,1,NaN,835.489140744817,852.518357529101,NaN,NaN,835.489140744817,852.518357529101,1000.94274216971,443.006323791957,563.568117085469,504.475318678942,0,0,0,0,0,0,4,0,3,NaN,NaN,NaN,vertical,vertical,horizontal,none,none,none
1b,12,100198,3,54,182,23,M,NA,constant,heterogeneous,4,absent,1.3313090801239,1,vertical,vertical,1,1.01176222918326,green,3,NaN,764.510859255183,347.4816424709,NaN,NaN,835.489140744817,852.518357529101,1052.5183575291,564.510859255183,764.510859255183,347.4816424709,547.481642470899,635.489140744817,0,0,0,0,6,3,4,3,NaN,NaN,horizontal,vertical,vertical,horizontal,none,none
1b,12,100198,3,55,183,23,M,NA,constant,heterogeneous,5,present,0.715620994567871,1,vertical,vertical,1,0.85882197262948,green,3,5,853.017481158529,350.57236181288,610.498069503264,770.628304621509,903.717843984329,832.954091698863,1053.60308331891,573.345241866748,853.017481158529,350.57236181288,579.163522034968,472.5,610.498069503264,770.628304621509,0,0,0,5,4,6,0,NaN,horizontal,horizontal,vertical,vertical,horizontal,none
1b,12,100198,3,56,184,23,M,NA,constant,heterogeneous,4,absent,0.975894927978516,1,horizontal,horizontal,1,0.894115877988046,green,1,NaN,891.383827134052,838.063008756786,NaN,NaN,891.383827134052,838.063008756786,1038.06300875679,508.616172865948,708.616172865948,361.936991243214,561.936991243214,691.383827134052,0,0,0,0,4,0,0,6,NaN,NaN,horizontal,horizontal,vertical,horizontal,none,none
1b,12,100198,3,57,185,23,M,NA,constant,heterogeneous,4,absent,0.963308095932007,1,horizontal,horizontal,1,0.976468323824699,green,3,NaN,661.117046071168,386.139005173917,NaN,NaN,938.882953928832,813.860994826083,1013.86099482608,461.117046071168,661.117046071168,386.139005173917,586.139005173917,738.882953928832,0,0,0,0,5,0,4,0,NaN,NaN,horizontal,horizontal,horizontal,horizontal,none,none
1b,12,100198,3,58,186,23,M,NA,constant,heterogeneous,4,absent,0.794769048690796,1,vertical,vertical,1,0.999997594063742,green,3,NaN,786.654331158049,345.349468637584,NaN,NaN,813.345668841951,854.650531362416,1054.65053136242,586.654331158049,786.654331158049,345.349468637584,545.349468637584,613.345668841951,0,0,0,0,5,3,4,6,NaN,NaN,vertical,horizontal,vertical,vertical,none,none
1b,12,100198,3,59,187,23,M,NA,constant,heterogeneous,5,present,1.38058686256409,1,horizontal,horizontal,1,0.694117080956175,green,5,2,607.549057043193,767.295052392579,1054.0296480134,577.775285599347,899.636437764765,834.728737630372,1054.0296480134,577.775285599347,857.362518857686,351.535633479765,581.422338320961,468.665290897936,607.549057043193,767.295052392579,0,0,3,6,0,5,4,NaN,horizontal,horizontal,vertical,horizontal,horizontal,none
1b,12,100198,3,60,188,23,M,NA,constant,heterogeneous,4,present,1.03704214096069,1,vertical,vertical,1,0.635293905358565,green,3,2,960.476699717708,401.827779828472,998.172220171528,760.476699717708,639.523300282292,798.172220171528,998.172220171528,760.476699717708,960.476699717708,401.827779828472,601.827779828472,439.523300282291,0,0,0,0,3,0,4,5,NaN,NaN,horizontal,vertical,vertical,vertical,none,none
1b,12,100198,3,61,189,23,M,NA,constant,heterogeneous,5,absent,1.13637113571167,1,vertical,vertical,1,0.917645148227089,green,2,NaN,1027.20666366803,715.767577433584,NaN,NaN,760.109211414741,851.86052685176,1027.20666366803,715.767577433584,980.31222920257,419.68777079743,684.232422566416,372.793336331966,548.13947314824,639.890788585259,0,0,6,4,0,5,6,NaN,vertical,vertical,horizontal,horizontal,vertical,none
1b,12,100198,3,62,190,23,M,NA,constant,heterogeneous,4,present,0.655191898345947,1,vertical,vertical,1,0.98823295894422,green,4,1,583.747735480111,735.129412379467,935.129412379467,816.252264519889,935.129412379467,816.252264519889,1016.25226451989,464.870587620533,664.870587620533,383.747735480111,583.747735480111,735.129412379467,0,0,0,0,3,6,5,4,NaN,NaN,vertical,vertical,vertical,vertical,none,none
1b,12,100198,3,63,191,23,M,NA,constant,heterogeneous,6,present,NaN,0,horizontal,none,0,0.85882197262948,green,5,6,545.155339110131,591.100628340862,664.870587620533,816.252264519889,919.715248510402,825.151636179026,1054.84466088987,608.899371659138,935.129412379467,383.747735480111,680.284751489598,374.848363820974,545.155339110131,591.100628340862,664.870587620533,816.252264519889,0,3,5,6,4,5,horizontal,horizontal,vertical,horizontal,horizontal,horizontal
1b,12,100198,3,64,192,23,M,NA,constant,heterogeneous,4,absent,1.91973185539246,1,vertical,vertical,1,0.694117080956175,green,1,NaN,980.31222920257,780.31222920257,NaN,NaN,980.31222920257,780.31222920257,980.31222920257,419.68777079743,619.68777079743,419.68777079743,619.68777079743,780.31222920257,0,0,0,0,4,3,3,0,NaN,NaN,vertical,vertical,horizontal,horizontal,none,none
1b,12,100198,4,1,193,23,M,NA,constant,heterogeneous,5,absent,0.885945081710815,1,vertical,vertical,1,0.917645148227089,green,3,NaN,1003.65205506206,446.537169096228,NaN,NaN,725.445215295702,843.857712770574,1008.88377129369,746.261991269517,1003.65205506206,446.537169096228,716.980120613425,358.892763222174,545.03883773512,604.450363641507,0,0,3,5,4,6,0,NaN,vertical,vertical,vertical,vertical,vertical,none
1b,12,100198,4,2,194,23,M,NA,constant,heterogeneous,5,present,0.704329967498779,1,vertical,vertical,1,0.823528067270915,green,1,5,822.224714400653,854.029648013395,565.271262369628,699.636437764765,822.224714400653,854.029648013395,1048.46436652023,657.362518857686,931.334709102064,381.422338320961,632.704947607421,407.549057043193,565.271262369628,699.636437764765,0,0,4,3,6,0,3,NaN,vertical,horizontal,horizontal,vertical,horizontal,none
1b,12,100198,4,3,195,23,M,NA,constant,heterogeneous,5,present,0.680310964584351,1,vertical,vertical,1,1.09411467501992,green,5,4,596.34794493794,753.462830903772,591.116228706307,453.738008730483,883.019879386575,841.107236777826,1054.96116226488,595.549636358493,874.554784704298,356.142287229426,591.116228706307,453.738008730483,596.34794493794,753.462830903772,0,0,5,6,0,3,4,NaN,vertical,horizontal,vertical,horizontal,vertical,none
1b,12,100198,4,4,196,23,M,NA,constant,heterogeneous,3,present,0.574475049972534,1,vertical,vertical,1,1.02352686430279,green,3,1,561.936991243214,508.616172865948,839.890788585259,851.86052685176,839.890788585259,851.86052685176,998.172220171528,439.523300282291,561.936991243214,508.616172865948,0,0,0,0,0,0,6,0,4,NaN,NaN,NaN,horizontal,vertical,vertical,none,none,none
1b,12,100198,4,5,197,23,M,NA,constant,heterogeneous,6,present,1.8489031791687,1,horizontal,horizontal,1,0.741175621434262,green,1,6,704.475318678942,836.431882914531,547.481642470899,635.489140744817,704.475318678942,836.431882914531,956.993676208043,800.942742169714,1052.5183575291,564.510859255183,895.524681321058,363.568117085469,643.006323791957,399.057257830286,547.481642470899,635.489140744817,4,3,5,0,6,5,horizontal,vertical,horizontal,vertical,horizontal,vertical
1b,12,100198,4,6,198,23,M,NA,constant,heterogeneous,3,present,1.04327392578125,1,horizontal,horizontal,1,0.658823175597609,green,2,1,998.172220171528,439.523300282291,839.890788585259,851.86052685176,839.890788585259,851.86052685176,998.172220171528,439.523300282291,561.936991243214,508.616172865948,0,0,0,0,0,0,6,4,0,NaN,NaN,NaN,vertical,horizontal,vertical,none,none,none
1b,12,100198,4,7,199,23,M,NA,constant,heterogeneous,6,present,1.42169499397278,1,horizontal,horizontal,1,0.670587810717131,green,4,6,822.224714400653,345.970351986605,568.891514305654,707.767656743878,777.775285599347,854.029648013395,1008.88377129369,746.261991269517,1031.10848569435,492.232343256122,822.224714400653,345.970351986605,591.116228706307,453.738008730483,568.891514305654,707.767656743878,3,6,0,4,5,6,horizontal,horizontal,vertical,horizontal,horizontal,horizontal
1b,12,100198,4,8,200,23,M,NA,constant,heterogeneous,5,present,1.56563687324524,1,horizontal,horizontal,1,0.976468323824699,green,2,4,1047.42541020038,661.690083377915,636.089159529932,404.658667004661,817.787900804752,854.378832816255,1047.42541020038,661.690083377915,935.129412379467,383.747735480111,636.089159529932,404.658667004661,563.568117085469,695.524681321058,0,0,0,4,5,6,5,NaN,vertical,horizontal,vertical,vertical,vertical,none
1b,12,100198,4,9,201,23,M,NA,constant,heterogeneous,4,absent,0.677743911743164,1,vertical,vertical,1,1.02352686430279,green,4,NaN,619.68777079743,780.31222920257,NaN,NaN,980.31222920257,780.31222920257,980.31222920257,419.68777079743,619.68777079743,419.68777079743,619.68777079743,780.31222920257,0,0,0,0,0,6,5,4,NaN,NaN,vertical,vertical,vertical,vertical,none,none
1b,12,100198,4,10,202,23,M,NA,constant,heterogeneous,6,absent,1.97785711288452,0,horizontal,vertical,1,0.929409783346611,green,2,NaN,977.137884467044,783.431649086356,NaN,NaN,729.712474266665,845.121732464271,977.137884467044,783.431649086356,1047.42541020038,538.309916622085,870.287525733335,354.878267535729,622.862115532956,416.568350913644,552.574589799621,661.690083377915,5,4,5,3,6,0,horizontal,horizontal,horizontal,vertical,vertical,vertical
1b,12,100198,4,11,203,23,M,NA,constant,heterogeneous,6,absent,1.28908586502075,1,vertical,vertical,1,0.764704891673306,green,3,NaN,963.910840470068,404.658667004661,NaN,NaN,887.215136548046,839.621618300407,1051.12597701811,644.280285305067,963.910840470068,404.658667004661,712.784863451954,360.378381699593,548.874022981887,555.719714694933,636.089159529932,795.341332995339,6,0,4,3,6,0,vertical,vertical,vertical,vertical,vertical,vertical
1b,12,100198,4,12,204,23,M,NA,constant,heterogeneous,4,present,1.18155908584595,1,horizontal,horizontal,1,0.717646351195218,green,2,1,986.495193912888,426.090418184063,973.909581815937,786.495193912888,973.909581815937,786.495193912888,986.495193912888,426.090418184063,626.090418184063,413.504806087112,613.504806087112,773.909581815937,0,0,0,0,0,4,3,5,NaN,NaN,horizontal,horizontal,horizontal,horizontal,none,none
1b,12,100198,4,13,205,23,M,NA,constant,heterogeneous,4,absent,1.58915019035339,0,horizontal,vertical,1,1.01176222918326,green,1,NaN,791.100628340862,854.844660889869,NaN,NaN,791.100628340862,854.844660889869,1054.84466088987,608.899371659138,808.899371659138,345.155339110131,545.155339110131,591.100628340862,0,0,0,0,4,0,5,0,NaN,NaN,horizontal,vertical,horizontal,vertical,none,none
1b,12,100198,4,14,206,23,M,NA,constant,heterogeneous,4,present,1.36999297142029,1,horizontal,horizontal,1,1.03529149942231,green,4,2,545.03883773512,604.450363641507,1054.96116226488,595.549636358493,804.450363641507,854.96116226488,1054.96116226488,595.549636358493,795.549636358493,345.03883773512,545.03883773512,604.450363641507,0,0,0,0,3,3,6,4,NaN,NaN,vertical,horizontal,horizontal,horizontal,none,none
1b,12,100198,4,15,207,23,M,NA,constant,heterogeneous,4,present,0.787631034851074,0,vertical,horizontal,1,1.09411467501992,green,4,3,601.827779828472,439.523300282291,960.476699717708,401.827779828472,639.523300282292,798.172220171528,998.172220171528,760.476699717708,960.476699717708,401.827779828472,601.827779828472,439.523300282291,0,0,0,0,5,3,0,4,NaN,NaN,horizontal,horizontal,vertical,vertical,none,none
1b,12,100198,4,16,208,23,M,NA,constant,heterogeneous,5,absent,1.10910296440125,1,vertical,vertical,1,0.670587810717131,green,1,NaN,804.450363641507,854.96116226488,NaN,NaN,804.450363641507,854.96116226488,1043.85771277057,674.554784704298,946.261991269517,391.116228706307,646.537169096228,396.34794493794,558.892763222174,683.019879386575,0,0,4,6,0,3,5,NaN,vertical,vertical,vertical,vertical,horizontal,none
1b,12,100198,4,17,209,23,M,NA,constant,heterogeneous,5,present,1.54979300498962,1,horizontal,horizontal,1,0.72941098631474,green,1,4,844.280285305067,851.125977018113,616.568350913644,422.862115532956,844.280285305067,851.125977018113,1052.5183575291,635.489140744817,911.784642431215,370.807518193712,616.568350913644,422.862115532956,574.848363820974,719.715248510402,0,0,4,5,6,5,0,NaN,horizontal,vertical,vertical,vertical,horizontal,none
1b,12,100198,4,18,210,23,M,NA,constant,heterogeneous,3,absent,0.880742073059082,1,vertical,vertical,1,0.98823295894422,green,2,NaN,883.019879386575,358.892763222174,NaN,NaN,967.295052392579,792.450942956807,883.019879386575,358.892763222174,549.685068220846,648.656293821019,0,0,0,0,0,0,0,4,3,NaN,NaN,NaN,horizontal,vertical,vertical,none,none,none
1b,12,100198,4,19,211,23,M,NA,constant,heterogeneous,4,present,1.41655611991882,1,vertical,vertical,1,1.09411467501992,green,1,4,664.870587620533,816.252264519889,583.747735480111,464.870587620533,664.870587620533,816.252264519889,1016.25226451989,735.129412379467,935.129412379467,383.747735480111,583.747735480111,464.870587620533,0,0,0,0,4,0,6,5,NaN,NaN,vertical,horizontal,horizontal,horizontal,none,none
1b,12,100198,4,20,212,23,M,NA,constant,heterogeneous,6,present,1.42484784126282,0,vertical,horizontal,1,0.6,green,4,5,791.100628340862,345.155339110131,574.848363820974,480.284751489598,808.899371659138,854.844660889869,1025.15163617903,719.715248510402,1016.25226451989,464.870587620533,791.100628340862,345.155339110131,574.848363820974,480.284751489598,583.747735480111,735.129412379467,3,5,0,4,5,3,horizontal,vertical,vertical,vertical,horizontal,horizontal
1b,12,100198,4,21,213,23,M,NA,constant,heterogeneous,6,present,1.42831707000732,1,horizontal,horizontal,1,0.929409783346611,green,2,1,960.476699717708,798.172220171528,708.616172865948,838.063008756786,708.616172865948,838.063008756786,960.476699717708,798.172220171528,1051.86052685176,560.109211414741,891.383827134052,361.936991243214,639.523300282292,401.827779828472,548.13947314824,639.890788585259,3,4,6,5,6,3,horizontal,horizontal,horizontal,horizontal,horizontal,horizontal
1b,12,100198,4,22,214,23,M,NA,constant,heterogeneous,4,absent,0.758218050003052,1,vertical,vertical,1,1.05882076966135,green,3,NaN,768.923317431687,346.900731331463,NaN,NaN,831.076682568313,853.099268668537,1053.09926866854,568.923317431687,768.923317431687,346.900731331463,546.900731331463,631.076682568313,0,0,0,0,3,5,4,6,NaN,NaN,vertical,vertical,vertical,vertical,none,none
1b,12,100198,4,23,215,23,M,NA,constant,heterogeneous,4,present,0.993003129959106,1,vertical,vertical,1,0.776469526792827,green,3,2,629.371695378491,410.498069503264,989.501930496736,429.371695378491,970.628304621509,789.501930496736,989.501930496736,429.371695378491,629.371695378491,410.498069503264,610.498069503264,770.628304621509,0,0,0,0,5,0,4,3,NaN,NaN,horizontal,vertical,vertical,vertical,none,none
1b,12,100198,4,24,216,23,M,NA,constant,heterogeneous,3,absent,1.14981293678284,1,vertical,vertical,1,0.635293905358565,green,1,NaN,1008.88377129369,746.261991269517,NaN,NaN,1008.88377129369,746.261991269517,822.224714400653,345.970351986605,568.891514305654,707.767656743878,0,0,0,0,0,0,4,3,3,NaN,NaN,NaN,vertical,vertical,vertical,none,none,none
1b,12,100198,4,25,217,23,M,NA,constant,heterogeneous,3,present,0.856823921203613,1,horizontal,horizontal,1,0.788234161912349,green,2,3,1011.40458100154,457.40580961496,570.807518193712,488.215357568785,817.787900804752,854.378832816255,1011.40458100154,457.40580961496,570.807518193712,488.215357568785,0,0,0,0,0,0,0,4,5,NaN,NaN,NaN,horizontal,horizontal,horizontal,none,none,none
1b,12,100198,4,26,218,23,M,NA,constant,heterogeneous,4,absent,1.52015900611877,1,vertical,vertical,1,0.717646351195218,green,3,NaN,712.784863451954,360.378381699593,NaN,NaN,887.215136548046,839.621618300407,1039.62161830041,512.784863451954,712.784863451954,360.378381699593,560.378381699593,687.215136548046,0,0,0,0,3,6,4,5,NaN,NaN,vertical,horizontal,vertical,vertical,none,none
1b,12,100198,4,27,219,23,M,NA,constant,heterogeneous,6,absent,1.54227089881897,0,vertical,horizontal,1,0.976468323824699,green,2,NaN,995.341332995339,763.910840470068,NaN,NaN,755.719714694933,851.125977018113,995.341332995339,763.910840470068,1039.62161830041,512.784863451954,844.280285305067,348.874022981887,604.658667004661,436.089159529932,560.378381699593,687.215136548046,0,4,3,3,6,5,horizontal,vertical,horizontal,vertical,horizontal,vertical
1b,12,100198,4,28,220,23,M,NA,constant,heterogeneous,3,present,0.936259984970093,1,horizontal,horizontal,1,0.941174418466133,green,2,3,1052.5183575291,635.489140744817,704.475318678942,363.568117085469,643.006323791957,800.942742169714,1052.5183575291,635.489140744817,704.475318678942,363.568117085469,0,0,0,0,0,0,6,4,3,NaN,NaN,NaN,horizontal,horizontal,horizontal,none,none,none
1b,12,100198,4,29,221,23,M,NA,constant,heterogeneous,3,present,1.32408785820007,1,vertical,vertical,1,0.847057337509958,green,3,1,551.535633479765,542.637481142314,874.554784704298,843.857712770574,874.554784704298,843.857712770574,973.909581815937,413.504806087112,551.535633479765,542.637481142314,0,0,0,0,0,0,0,3,4,NaN,NaN,NaN,horizontal,vertical,vertical,none,none,none
1b,12,100198,4,30,222,23,M,NA,constant,heterogeneous,6,present,1.27892994880676,1,vertical,vertical,1,0.811763432151393,green,2,5,938.882953928832,813.860994826083,661.117046071168,386.139005173917,684.232422566416,827.206663668034,938.882953928832,813.860994826083,1054.65053136242,586.654331158049,915.767577433584,372.793336331966,661.117046071168,386.139005173917,545.349468637584,613.345668841951,3,4,5,5,3,6,vertical,vertical,horizontal,vertical,vertical,vertical
1b,12,100198,4,31,223,23,M,NA,constant,heterogeneous,6,absent,1.75188684463501,1,horizontal,horizontal,1,0.964703688705177,green,3,NaN,1006.29933356561,450.114760665419,NaN,NaN,826.654758133252,853.60308331891,1032.95409169886,703.717843984329,1006.29933356561,450.114760665419,773.345241866748,346.39691668109,567.045908301137,496.282156015671,593.700666434388,749.885239334581,0,5,4,5,6,0,vertical,vertical,horizontal,vertical,vertical,horizontal
1b,12,100198,4,32,224,23,M,NA,constant,heterogeneous,6,absent,1.56404995918274,0,horizontal,vertical,1,0.647058540478087,green,6,NaN,672.5,820.836477965032,NaN,NaN,927.5,820.836477965032,1055,600,927.5,379.163522034968,672.5,379.163522034968,545,600,672.5,820.836477965032,5,3,0,0,5,4,vertical,horizontal,vertical,vertical,horizontal,horizontal
1b,12,100198,4,33,225,23,M,NA,constant,heterogeneous,4,absent,1.26394391059875,1,horizontal,horizontal,1,0.611764635119522,green,1,NaN,795.549636358493,854.96116226488,NaN,NaN,795.549636358493,854.96116226488,1054.96116226488,604.450363641507,804.450363641507,345.03883773512,545.03883773512,595.549636358493,0,0,0,0,4,6,0,5,NaN,NaN,horizontal,vertical,vertical,horizontal,none,none
1b,12,100198,4,34,226,23,M,NA,constant,heterogeneous,5,present,1.52272605895996,1,vertical,vertical,1,0.870586607749002,green,5,4,546.900731331463,631.076682568313,692.232343256122,368.891514305654,751.343706178981,850.314931779154,1023.02802532055,723.626453162816,986.495193912888,426.090418184063,692.232343256122,368.891514305654,546.900731331463,631.076682568313,0,0,3,0,6,3,4,NaN,horizontal,vertical,horizontal,vertical,vertical,none
1b,12,100198,4,35,227,23,M,NA,constant,heterogeneous,5,absent,0.96489691734314,1,vertical,vertical,1,0.964703688705177,green,3,NaN,826.654758133252,346.39691668109,NaN,NaN,927.5,820.836477965032,1049.42763818712,546.982518841471,826.654758133252,346.39691668109,567.045908301137,496.282156015671,629.371695378491,789.501930496736,0,0,6,0,4,0,3,NaN,vertical,horizontal,vertical,vertical,horizontal,none
1b,12,100198,4,36,228,23,M,NA,constant,heterogeneous,4,present,1.52894902229309,1,horizontal,horizontal,1,1.03529149942231,green,2,4,1023.02802532055,476.373546837184,576.971974679454,723.626453162816,923.626453162816,823.028025320546,1023.02802532055,476.373546837184,676.373546837184,376.971974679454,576.971974679454,723.626453162816,0,0,0,0,6,4,0,6,NaN,NaN,vertical,horizontal,vertical,horizontal,none,none
1b,12,100198,4,37,229,23,M,NA,constant,heterogeneous,6,absent,NaN,0,horizontal,none,0,0.611764635119522,green,3,NaN,1016.25226451989,464.870587620533,NaN,NaN,808.899371659138,854.844660889869,1025.15163617903,719.715248510402,1016.25226451989,464.870587620533,791.100628340862,345.155339110131,574.848363820974,480.284751489598,583.747735480111,735.129412379467,5,3,4,0,5,6,horizontal,horizontal,horizontal,vertical,vertical,vertical
1b,12,100198,4,38,230,23,M,NA,constant,heterogeneous,3,absent,0.797255039215088,1,vertical,vertical,1,0.647058540478087,green,1,NaN,777.775285599347,854.029648013395,NaN,NaN,777.775285599347,854.029648013395,1031.10848569435,492.232343256122,591.116228706307,453.738008730483,0,0,0,0,0,0,4,5,3,NaN,NaN,NaN,vertical,vertical,horizontal,none,none,none
1b,12,100198,4,39,231,23,M,NA,constant,heterogeneous,6,absent,1.33527016639709,1,vertical,vertical,1,1.09411467501992,green,4,NaN,725.445215295702,356.142287229426,NaN,NaN,874.554784704298,843.857712770574,1048.46436652023,657.362518857686,973.909581815937,413.504806087112,725.445215295702,356.142287229426,551.535633479765,542.637481142314,626.090418184063,786.495193912888,0,6,6,4,3,3,vertical,vertical,horizontal,vertical,horizontal,horizontal
1b,12,100198,4,40,232,23,M,NA,constant,heterogeneous,6,present,0.853736877441406,1,vertical,vertical,1,0.788234161912349,green,1,3,853.017481158529,849.42763818712,989.501930496736,429.371695378491,853.017481158529,849.42763818712,1042.51941165526,678.799333565612,989.501930496736,429.371695378491,746.982518841471,350.57236181288,557.480588344736,521.200666434388,610.498069503264,770.628304621509,4,3,0,5,0,3,vertical,horizontal,horizontal,horizontal,vertical,horizontal
1b,12,100198,4,41,233,23,M,NA,constant,heterogeneous,3,absent,1.43458890914917,1,horizontal,horizontal,1,0.976468323824699,green,2,NaN,986.495193912888,426.090418184063,NaN,NaN,857.362518857686,848.464366520235,986.495193912888,426.090418184063,556.142287229426,525.445215295702,0,0,0,0,0,0,3,4,5,NaN,NaN,NaN,horizontal,horizontal,vertical,none,none,none
1b,12,100198,4,42,234,23,M,NA,constant,heterogeneous,6,present,1.64548587799072,1,horizontal,horizontal,1,0.694117080956175,green,2,4,1042.51941165526,678.799333565612,746.982518841471,350.57236181288,853.017481158529,849.42763818712,1042.51941165526,678.799333565612,989.501930496736,429.371695378491,746.982518841471,350.57236181288,557.480588344736,521.200666434388,610.498069503264,770.628304621509,3,4,3,6,0,6,vertical,horizontal,horizontal,vertical,vertical,horizontal
1b,12,100198,4,43,235,23,M,NA,constant,heterogeneous,5,present,1.52459692955017,0,horizontal,vertical,1,0.905880513107568,green,5,4,636.089159529932,795.341332995339,563.568117085469,504.475318678942,935.129412379467,816.252264519889,1047.42541020038,538.309916622085,817.787900804752,345.621167183745,563.568117085469,504.475318678942,636.089159529932,795.341332995339,0,0,5,0,3,3,4,NaN,horizontal,horizontal,horizontal,horizontal,horizontal,none
1b,12,100198,4,44,236,23,M,NA,constant,heterogeneous,4,present,1.63631510734558,1,horizontal,horizontal,1,1.04705613454183,green,4,1,553.688914296288,665.998856501143,865.998856501143,846.311085703712,865.998856501143,846.311085703712,1046.31108570371,534.001143498857,734.001143498857,353.688914296288,553.688914296288,665.998856501143,0,0,0,0,5,6,3,4,NaN,NaN,horizontal,vertical,vertical,horizontal,none,none
1b,12,100198,4,45,237,23,M,NA,constant,heterogeneous,5,present,0.743036031723022,1,vertical,vertical,1,0.894115877988046,green,1,5,835.489140744817,852.518357529101,570.807518193712,711.784642431215,835.489140744817,852.518357529101,1051.12597701811,644.280285305067,919.715248510402,374.848363820974,622.862115532956,416.568350913644,570.807518193712,711.784642431215,0,0,4,3,6,0,6,NaN,vertical,horizontal,horizontal,horizontal,horizontal,none
1b,12,100198,4,46,238,23,M,NA,constant,heterogeneous,3,absent,1.13615608215332,1,horizontal,horizontal,1,0.694117080956175,green,2,NaN,1053.09926866854,631.076682568313,NaN,NaN,646.537169096228,803.65205506206,1053.09926866854,631.076682568313,700.363562235235,365.271262369628,0,0,0,0,0,0,0,4,6,NaN,NaN,NaN,vertical,horizontal,vertical,none,none,none
1b,12,100198,4,47,239,23,M,NA,constant,heterogeneous,4,absent,1.23060297966003,1,vertical,vertical,1,0.98823295894422,green,4,NaN,545.155339110131,591.100628340862,NaN,NaN,791.100628340862,854.844660889869,1054.84466088987,608.899371659138,808.899371659138,345.155339110131,545.155339110131,591.100628340862,0,0,0,0,6,3,0,4,NaN,NaN,vertical,horizontal,horizontal,vertical,none,none
1b,12,100198,4,48,240,23,M,NA,constant,heterogeneous,3,absent,1.23230004310608,1,horizontal,horizontal,1,0.635293905358565,green,1,NaN,963.910840470068,795.341332995339,NaN,NaN,963.910840470068,795.341332995339,887.215136548046,360.378381699593,548.874022981887,644.280285305067,0,0,0,0,0,0,4,0,6,NaN,NaN,NaN,horizontal,vertical,vertical,none,none,none
1b,12,100198,4,49,241,23,M,NA,constant,heterogeneous,6,absent,1.94686889648438,1,vertical,vertical,1,0.705881716075696,green,2,NaN,1054.0296480134,622.224714400653,NaN,NaN,907.767656743878,831.108485694346,1054.0296480134,622.224714400653,946.261991269517,391.116228706307,692.232343256122,368.891514305654,545.970351986605,577.775285599347,653.738008730483,808.883771293693,6,4,3,5,5,0,vertical,vertical,vertical,horizontal,vertical,horizontal
1b,12,100198,4,50,242,23,M,NA,constant,heterogeneous,3,present,0.768180847167969,1,vertical,vertical,1,0.905880513107568,green,2,1,903.717843984329,367.045908301137,949.885239334581,806.299333565612,949.885239334581,806.299333565612,903.717843984329,367.045908301137,546.39691668109,626.654758133252,0,0,0,0,0,0,6,4,5,NaN,NaN,NaN,horizontal,vertical,vertical,none,none,none
1b,12,100198,4,51,243,23,M,NA,constant,heterogeneous,5,absent,1.91805481910706,1,horizontal,horizontal,1,0.905880513107568,green,3,NaN,967.295052392579,407.549057043193,NaN,NaN,777.775285599347,854.029648013395,1034.72873763037,699.636437764765,967.295052392579,407.549057043193,668.665290897936,381.422338320961,551.535633479765,657.362518857686,0,0,3,0,4,6,5,NaN,vertical,vertical,horizontal,vertical,vertical,none
1b,12,100198,4,52,244,23,M,NA,constant,heterogeneous,5,present,1.06612300872803,1,horizontal,horizontal,1,1.08235003990039,green,3,4,942.594190385041,388.595418998464,643.006323791957,399.057257830286,808.899371659138,854.844660889869,1045.12173246427,670.287525733335,942.594190385041,388.595418998464,643.006323791957,399.057257830286,560.378381699593,687.215136548046,0,0,3,0,4,3,5,NaN,vertical,horizontal,horizontal,horizontal,horizontal,none
