experiment,subject,uniqueID,block,trial,trial_cumulative,age,gender,color_cond_blocking,color_history,shape_type,set_size,distractor,rt,acc,target_orient,response_key,response_made,iti,target_color,target_item,distractor_item,target_X,target_Y,distractor_X,distractor_Y,item1_X,item1_Y,item2_X,item2_Y,item3_X,item3_Y,item4_X,item4_Y,item5_X,item5_Y,item6_X,item6_Y,item1_shape,item2_shape,item3_shape,item4_shape,item5_shape,item6_shape,item1_line,item2_line,item3_line,item4_line,item5_line,item6_line
1b,13,100200,1,1,1,21,F,NA,constant,heterogeneous,4,present,1.96946907043457,1,vertical,vertical,1,0.776469326019287,red,2,4,1054.96116226488,604.450363641507,545.03883773512,595.549636358493,795.549636358493,854.96116226488,1054.96116226488,604.450363641507,804.450363641507,345.03883773512,545.03883773512,595.549636358493,0,0,0,0,3,4,0,5,NaN,NaN,horizontal,vertical,horizontal,horizontal,none,none
1b,13,100200,1,2,2,21,F,NA,constant,heterogeneous,3,absent,1.35811686515808,1,vertical,vertical,1,0.682352352142334,red,3,NaN,800,345,NaN,NaN,579.163522034968,727.5,1020.83647796503,727.5,800,345,0,0,0,0,0,0,5,0,4,NaN,NaN,NaN,vertical,vertical,vertical,none,none,none
1b,13,100200,1,3,3,21,F,NA,constant,heterogeneous,3,present,1.66714811325073,1,horizontal,horizontal,1,0.87058629989624,red,3,1,639.523300282292,401.827779828472,708.616172865948,838.063008756786,708.616172865948,838.063008756786,1051.86052685176,560.109211414741,639.523300282292,401.827779828472,0,0,0,0,0,0,5,3,4,NaN,NaN,NaN,horizontal,horizontal,horizontal,none,none,none
1b,13,100200,1,4,4,21,F,NA,constant,heterogeneous,5,present,1.207927942276,1,vertical,vertical,1,0.988232517242432,red,5,2,545.970351986605,577.775285599347,992.450942956807,767.295052392579,700.363562235235,834.728737630372,992.450942956807,767.295052392579,1018.57766167904,468.665290897936,742.637481142314,351.535633479765,545.970351986605,577.775285599347,0,0,3,6,3,5,4,NaN,horizontal,vertical,horizontal,horizontal,vertical,none
1b,13,100200,1,5,5,21,F,NA,constant,heterogeneous,3,absent,0.896569013595581,1,vertical,vertical,1,0.611764621734619,red,3,NaN,551.535633479765,542.637481142314,NaN,NaN,874.554784704298,843.857712770574,973.909581815937,413.504806087112,551.535633479765,542.637481142314,0,0,0,0,0,0,6,3,4,NaN,NaN,NaN,vertical,vertical,vertical,none,none,none
1b,13,100200,1,6,6,21,F,NA,constant,heterogeneous,6,absent,1.51168012619019,1,vertical,vertical,1,0.847057056427002,red,3,NaN,938.882953928832,386.139005173917,NaN,NaN,915.767577433584,827.206663668034,1054.65053136242,613.345668841951,938.882953928832,386.139005173917,684.232422566416,372.793336331966,545.349468637584,586.654331158049,661.117046071168,813.860994826083,0,3,4,6,0,6,vertical,vertical,vertical,vertical,vertical,horizontal
1b,13,100200,1,7,7,21,F,NA,constant,heterogeneous,6,absent,1.02977919578552,1,vertical,vertical,1,0.988232517242432,red,5,NaN,588.595418998464,457.40580961496,NaN,NaN,782.212099195248,854.378832816255,1011.40458100154,742.594190385041,1029.19248180629,488.215357568785,817.787900804752,345.621167183745,588.595418998464,457.40580961496,570.807518193712,711.784642431215,5,3,0,6,4,3,vertical,horizontal,horizontal,vertical,vertical,vertical
1b,13,100200,1,8,8,21,F,NA,constant,heterogeneous,4,absent,1.46505498886108,1,vertical,vertical,1,0.929409408569336,red,1,NaN,668.665290897936,818.577661679039,NaN,NaN,668.665290897936,818.577661679039,1018.57766167904,731.334709102064,931.334709102064,381.422338320961,581.422338320961,468.665290897936,0,0,0,0,4,0,0,5,NaN,NaN,vertical,vertical,horizontal,horizontal,none,none
1b,13,100200,1,9,9,21,F,NA,constant,heterogeneous,6,absent,NaN,0,horizontal,none,0,0.858821678161621,red,3,NaN,1027.20666366803,484.232422566416,NaN,NaN,786.654331158049,854.650531362416,1013.86099482608,738.882953928832,1027.20666366803,484.232422566416,813.345668841951,345.349468637584,586.139005173917,461.117046071168,572.793336331966,715.767577433584,3,0,4,5,5,0,horizontal,vertical,horizontal,vertical,vertical,horizontal
1b,13,100200,1,10,10,21,F,NA,constant,heterogeneous,4,absent,0.918967008590698,1,horizontal,horizontal,1,0.941174030303955,red,4,NaN,579.163522034968,472.5,NaN,NaN,672.5,820.836477965032,1020.83647796503,727.5,927.5,379.163522034968,579.163522034968,472.5,0,0,0,0,5,5,6,4,NaN,NaN,horizontal,horizontal,vertical,horizontal,none,none
1b,13,100200,1,11,11,21,F,NA,constant,heterogeneous,4,absent,0.947661876678467,1,vertical,vertical,1,0.705881595611572,red,4,NaN,586.139005173917,461.117046071168,NaN,NaN,661.117046071168,813.860994826083,1013.86099482608,738.882953928832,938.882953928832,386.139005173917,586.139005173917,461.117046071168,0,0,0,0,3,6,3,4,NaN,NaN,vertical,vertical,vertical,vertical,none,none
1b,13,100200,1,12,12,21,F,NA,constant,heterogeneous,3,present,0.824404001235962,1,horizontal,horizontal,1,1.08234949111938,red,2,3,870.287525733335,354.878267535729,552.574589799621,661.690083377915,977.137884467044,783.431649086356,870.287525733335,354.878267535729,552.574589799621,661.690083377915,0,0,0,0,0,0,5,4,5,NaN,NaN,NaN,horizontal,horizontal,vertical,none,none,none
1b,13,100200,1,13,13,21,F,NA,constant,heterogeneous,6,present,1.97500991821289,1,horizontal,horizontal,1,1.094114112854,red,3,5,949.885239334581,393.700666434388,546.39691668109,573.345241866748,903.717843984329,832.954091698863,1053.60308331891,626.654758133252,949.885239334581,393.700666434388,696.282156015671,367.045908301137,546.39691668109,573.345241866748,650.114760665419,806.299333565612,6,3,4,5,0,3,horizontal,vertical,horizontal,vertical,horizontal,horizontal
1b,13,100200,1,14,14,21,F,NA,constant,heterogeneous,3,present,0.785855054855347,1,vertical,vertical,1,0.752940082550049,red,2,3,931.334709102064,381.422338320961,545.03883773512,595.549636358493,923.626453162816,823.028025320546,931.334709102064,381.422338320961,545.03883773512,595.549636358493,0,0,0,0,0,0,0,4,3,NaN,NaN,NaN,horizontal,vertical,vertical,none,none,none
1b,13,100200,1,15,15,21,F,NA,constant,heterogeneous,3,absent,1.18399810791016,1,horizontal,horizontal,1,0.917644786834717,red,3,NaN,570.807518193712,711.784642431215,NaN,NaN,1011.40458100154,742.594190385041,817.787900804752,345.621167183745,570.807518193712,711.784642431215,0,0,0,0,0,0,3,6,4,NaN,NaN,NaN,vertical,horizontal,horizontal,none,none,none
1b,13,100200,1,16,16,21,F,NA,constant,heterogeneous,4,absent,0.620328903198242,1,horizontal,horizontal,1,1.02352638244629,red,4,NaN,567.045908301137,496.282156015671,NaN,NaN,696.282156015671,832.954091698863,1032.95409169886,703.717843984329,903.717843984329,367.045908301137,567.045908301137,496.282156015671,0,0,0,0,3,5,3,4,NaN,NaN,horizontal,vertical,horizontal,horizontal,none,none
1b,13,100200,1,17,17,21,F,NA,constant,heterogeneous,6,absent,0.7849440574646,1,vertical,vertical,1,0.611764621734619,red,5,NaN,550.57236181288,546.982518841471,NaN,NaN,878.799333565612,842.519411655264,1049.42763818712,653.017481158529,970.628304621509,410.498069503264,721.200666434388,357.480588344736,550.57236181288,546.982518841471,629.371695378491,789.501930496736,6,0,0,6,4,3,vertical,horizontal,vertical,horizontal,vertical,vertical
1b,13,100200,1,18,18,21,F,NA,constant,heterogeneous,6,present,0.999705076217651,1,horizontal,horizontal,1,0.941174030303955,red,4,6,760.109211414741,348.13947314824,601.827779828472,760.476699717708,839.890788585259,851.86052685176,1038.06300875679,691.383827134052,998.172220171528,439.523300282291,760.109211414741,348.13947314824,561.936991243214,508.616172865948,601.827779828472,760.476699717708,6,0,3,4,5,0,horizontal,horizontal,vertical,horizontal,horizontal,vertical
1b,13,100200,1,19,19,21,F,NA,constant,heterogeneous,5,absent,0.893831968307495,1,vertical,vertical,1,1.094114112854,red,4,NaN,704.475318678942,363.568117085469,NaN,NaN,738.309916622085,847.425410200379,1016.25226451989,735.129412379467,995.341332995339,436.089159529932,704.475318678942,363.568117085469,545.621167183745,617.787900804752,0,0,0,6,6,4,5,NaN,horizontal,horizontal,horizontal,vertical,vertical,none
1b,13,100200,1,20,20,21,F,NA,constant,heterogeneous,4,present,1.41850304603577,1,vertical,vertical,1,0.929409408569336,red,1,3,684.232422566416,827.206663668034,915.767577433584,372.793336331966,684.232422566416,827.206663668034,1027.20666366803,715.767577433584,915.767577433584,372.793336331966,572.793336331966,484.232422566416,0,0,0,0,4,5,5,0,NaN,NaN,vertical,vertical,horizontal,horizontal,none,none
1b,13,100200,1,21,21,21,F,NA,constant,heterogeneous,6,absent,1.21766591072083,1,horizontal,horizontal,1,0.929409408569336,red,3,NaN,970.628304621509,410.498069503264,NaN,NaN,878.799333565612,842.519411655264,1049.42763818712,653.017481158529,970.628304621509,410.498069503264,721.200666434388,357.480588344736,550.57236181288,546.982518841471,629.371695378491,789.501930496736,5,6,4,3,0,6,horizontal,horizontal,horizontal,vertical,vertical,horizontal
1b,13,100200,1,22,22,21,F,NA,constant,heterogeneous,5,present,1.08499097824097,1,vertical,vertical,1,0.941174030303955,red,4,1,725.445215295702,356.142287229426,716.980120613425,841.107236777826,716.980120613425,841.107236777826,1003.65205506206,753.462830903772,1008.88377129369,453.738008730483,725.445215295702,356.142287229426,545.03883773512,595.549636358493,0,0,5,5,6,4,3,NaN,vertical,horizontal,horizontal,vertical,vertical,none
1b,13,100200,1,23,23,21,F,NA,constant,heterogeneous,4,absent,1.36452317237854,1,vertical,vertical,1,1.08234949111938,red,4,NaN,563.568117085469,695.524681321058,NaN,NaN,895.524681321058,836.431882914531,1036.43188291453,504.475318678942,704.475318678942,363.568117085469,563.568117085469,695.524681321058,0,0,0,0,3,6,5,4,NaN,NaN,vertical,horizontal,vertical,vertical,none,none
1b,13,100200,1,24,24,21,F,NA,constant,heterogeneous,4,present,1.50102591514587,1,horizontal,horizontal,1,0.647058486938477,red,3,2,676.373546837184,376.971974679454,1023.02802532055,476.373546837184,923.626453162816,823.028025320546,1023.02802532055,476.373546837184,676.373546837184,376.971974679454,576.971974679454,723.626453162816,0,0,0,0,5,0,4,6,NaN,NaN,vertical,horizontal,horizontal,vertical,none,none
1b,13,100200,1,25,25,21,F,NA,constant,heterogeneous,4,absent,1.48665499687195,1,horizontal,horizontal,1,1.01176176071167,red,3,NaN,907.767656743878,368.891514305654,NaN,NaN,692.232343256122,831.108485694346,1031.10848569435,707.767656743878,907.767656743878,368.891514305654,568.891514305654,492.232343256122,0,0,0,0,5,3,4,0,NaN,NaN,horizontal,horizontal,horizontal,horizontal,none,none
1b,13,100200,1,26,26,21,F,NA,constant,heterogeneous,4,absent,0.917140960693359,1,horizontal,horizontal,1,0.788233947753906,red,4,NaN,570.807518193712,488.215357568785,NaN,NaN,688.215357568785,829.192481806288,1029.19248180629,711.784642431215,911.784642431215,370.807518193712,570.807518193712,488.215357568785,0,0,0,0,0,5,3,4,NaN,NaN,horizontal,vertical,vertical,horizontal,none,none
1b,13,100200,1,27,27,21,F,NA,constant,heterogeneous,4,present,0.771704912185669,1,vertical,vertical,1,0.6,red,4,1,545.155339110131,608.899371659138,808.899371659138,854.844660889869,808.899371659138,854.844660889869,1054.84466088987,591.100628340862,791.100628340862,345.155339110131,545.155339110131,608.899371659138,0,0,0,0,0,5,0,4,NaN,NaN,horizontal,vertical,vertical,vertical,none,none
1b,13,100200,1,28,28,21,F,NA,constant,heterogeneous,4,present,1.35106801986694,1,horizontal,horizontal,1,0.988232517242432,red,3,4,751.343706178981,349.685068220846,549.685068220846,648.656293821019,848.656293821019,850.314931779154,1050.31493177915,551.343706178981,751.343706178981,349.685068220846,549.685068220846,648.656293821019,0,0,0,0,0,3,4,0,NaN,NaN,vertical,horizontal,horizontal,vertical,none,none
1b,13,100200,1,29,29,21,F,NA,constant,heterogeneous,6,present,0.747774839401245,1,vertical,vertical,1,1.08234949111938,red,4,5,712.784863451954,360.378381699593,548.874022981887,555.719714694933,887.215136548046,839.621618300407,1051.12597701811,644.280285305067,963.910840470068,404.658667004661,712.784863451954,360.378381699593,548.874022981887,555.719714694933,636.089159529932,795.341332995339,0,5,0,4,6,3,vertical,vertical,vertical,vertical,horizontal,horizontal
1b,13,100200,1,30,30,21,F,NA,constant,heterogeneous,3,absent,1.07961177825928,1,horizontal,horizontal,1,1.03529100418091,red,3,NaN,591.116228706307,453.738008730483,NaN,NaN,777.775285599347,854.029648013395,1031.10848569435,492.232343256122,591.116228706307,453.738008730483,0,0,0,0,0,0,6,0,4,NaN,NaN,NaN,vertical,horizontal,horizontal,none,none,none
1b,13,100200,1,31,31,21,F,NA,constant,heterogeneous,3,present,1.04531002044678,1,vertical,vertical,1,0.799998569488525,red,2,3,1053.09926866854,568.923317431687,646.537169096228,396.34794493794,700.363562235235,834.728737630372,1053.09926866854,568.923317431687,646.537169096228,396.34794493794,0,0,0,0,0,0,0,4,5,NaN,NaN,NaN,vertical,vertical,horizontal,none,none,none
1b,13,100200,1,32,32,21,F,NA,constant,heterogeneous,5,absent,NaN,0,vertical,none,0,0.905880165100098,red,2,NaN,1023.02802532055,723.626453162816,NaN,NaN,751.343706178981,850.314931779154,1023.02802532055,723.626453162816,986.495193912888,426.090418184063,692.232343256122,368.891514305654,546.900731331463,631.076682568313,0,0,3,4,5,6,6,NaN,vertical,vertical,vertical,vertical,horizontal,none
1b,13,100200,1,33,33,21,F,NA,constant,heterogeneous,6,absent,NaN,0,vertical,none,0,1.05882024765015,red,2,NaN,1025.15163617903,719.715248510402,NaN,NaN,808.899371659138,854.844660889869,1025.15163617903,719.715248510402,1016.25226451989,464.870587620533,791.100628340862,345.155339110131,574.848363820974,480.284751489598,583.747735480111,735.129412379467,0,4,3,0,5,5,vertical,vertical,horizontal,vertical,vertical,horizontal
1b,13,100200,1,34,34,21,F,NA,constant,heterogeneous,3,present,0.725775003433228,1,horizontal,horizontal,1,0.988232517242432,red,3,1,657.405809614959,388.595418998464,688.215357568785,829.192481806288,688.215357568785,829.192481806288,1054.37883281626,582.212099195248,657.405809614959,388.595418998464,0,0,0,0,0,0,5,5,4,NaN,NaN,NaN,horizontal,vertical,horizontal,none,none,none
1b,13,100200,1,35,35,21,F,NA,constant,heterogeneous,4,present,1.85018515586853,0,horizontal,vertical,1,1.08234949111938,red,2,4,1041.10723677783,683.019879386575,558.892763222174,516.980120613425,716.980120613425,841.107236777826,1041.10723677783,683.019879386575,883.019879386575,358.892763222174,558.892763222174,516.980120613425,0,0,0,0,0,4,5,3,NaN,NaN,vertical,horizontal,horizontal,horizontal,none,none
1b,13,100200,1,36,36,21,F,NA,constant,heterogeneous,6,present,0.976372003555298,1,horizontal,horizontal,1,0.647058486938477,red,4,1,883.019879386575,358.892763222174,716.980120613425,841.107236777826,716.980120613425,841.107236777826,967.295052392579,792.450942956807,1050.31493177915,551.343706178981,883.019879386575,358.892763222174,632.704947607421,407.549057043193,549.685068220846,648.656293821019,3,3,6,4,5,5,vertical,horizontal,horizontal,horizontal,horizontal,vertical
1b,13,100200,1,37,37,21,F,NA,constant,heterogeneous,5,absent,1.3175208568573,1,vertical,vertical,1,1.07058486938477,red,2,NaN,967.295052392579,792.450942956807,NaN,NaN,668.665290897936,818.577661679039,967.295052392579,792.450942956807,1034.72873763037,500.363562235235,777.775285599347,345.970351986605,551.535633479765,542.637481142314,0,0,6,4,6,3,5,NaN,horizontal,vertical,horizontal,vertical,vertical,none
1b,13,100200,1,38,38,21,F,NA,constant,heterogeneous,6,present,0.569779872894287,1,vertical,vertical,1,0.882350921630859,red,4,5,878.799333565612,357.480588344736,629.371695378491,410.498069503264,721.200666434388,842.519411655264,970.628304621509,789.501930496736,1049.42763818712,546.982518841471,878.799333565612,357.480588344736,629.371695378491,410.498069503264,550.57236181288,653.017481158529,3,3,5,4,6,0,horizontal,vertical,vertical,vertical,vertical,vertical
1b,13,100200,1,39,39,21,F,NA,constant,heterogeneous,4,present,1.18960380554199,1,vertical,vertical,1,0.811763191223145,red,2,1,1048.46436652023,542.637481142314,857.362518857686,848.464366520235,857.362518857686,848.464366520235,1048.46436652023,542.637481142314,742.637481142314,351.535633479765,551.535633479765,657.362518857686,0,0,0,0,6,4,6,3,NaN,NaN,horizontal,vertical,vertical,horizontal,none,none
1b,13,100200,1,40,40,21,F,NA,constant,heterogeneous,6,absent,1.40519404411316,1,horizontal,horizontal,1,0.776469326019287,red,4,NaN,835.489140744817,347.4816424709,NaN,NaN,764.510859255183,852.518357529101,1000.94274216971,756.993676208043,1036.43188291453,504.475318678942,835.489140744817,347.4816424709,599.057257830286,443.006323791957,563.568117085469,695.524681321058,5,0,6,4,3,5,vertical,horizontal,horizontal,horizontal,horizontal,horizontal
1b,13,100200,1,41,41,21,F,NA,constant,heterogeneous,5,present,NaN,0,horizontal,none,0,0.764704704284668,red,1,2,887.215136548046,839.621618300407,1054.84466088987,591.100628340862,887.215136548046,839.621618300407,1054.84466088987,591.100628340862,870.287525733335,354.878267535729,588.595418998464,457.40580961496,599.057257830286,756.993676208043,0,0,4,5,6,3,0,NaN,horizontal,horizontal,horizontal,vertical,horizontal,none
1b,13,100200,1,42,42,21,F,NA,constant,heterogeneous,3,absent,0.711120843887329,1,horizontal,horizontal,1,0.705881595611572,red,3,NaN,546.39691668109,626.654758133252,NaN,NaN,949.885239334581,806.299333565612,903.717843984329,367.045908301137,546.39691668109,626.654758133252,0,0,0,0,0,0,3,5,4,NaN,NaN,NaN,vertical,vertical,horizontal,none,none,none
1b,13,100200,1,43,43,21,F,NA,constant,heterogeneous,6,absent,1.19429206848145,1,horizontal,horizontal,1,0.647058486938477,red,6,NaN,588.595418998464,742.594190385041,NaN,NaN,817.787900804752,854.378832816255,1029.19248180629,711.784642431215,1011.40458100154,457.40580961496,782.212099195248,345.621167183745,570.807518193712,488.215357568785,588.595418998464,742.594190385041,0,6,3,3,0,4,horizontal,horizontal,vertical,horizontal,vertical,horizontal
1b,13,100200,1,44,44,21,F,NA,constant,heterogeneous,6,present,0.653831005096436,1,vertical,vertical,1,0.964703273773193,red,4,5,700.363562235235,365.271262369628,546.900731331463,568.923317431687,899.636437764765,834.728737630372,1053.09926866854,631.076682568313,953.462830903772,396.34794493794,700.363562235235,365.271262369628,546.900731331463,568.923317431687,646.537169096228,803.65205506206,0,6,5,4,3,0,horizontal,horizontal,horizontal,vertical,horizontal,horizontal
1b,13,100200,1,45,45,21,F,NA,constant,heterogeneous,5,absent,1.30609703063965,1,vertical,vertical,1,0.752940082550049,red,5,NaN,563.568117085469,695.524681321058,NaN,NaN,817.787900804752,854.378832816255,1047.42541020038,661.690083377915,935.129412379467,383.747735480111,636.089159529932,404.658667004661,563.568117085469,695.524681321058,0,0,5,6,3,3,4,NaN,horizontal,horizontal,horizontal,vertical,vertical,none
1b,13,100200,1,46,46,21,F,NA,constant,heterogeneous,5,absent,1.17715907096863,1,horizontal,horizontal,1,0.635293865203857,red,3,NaN,853.017481158529,350.57236181288,NaN,NaN,903.717843984329,832.954091698863,1053.60308331891,573.345241866748,853.017481158529,350.57236181288,579.163522034968,472.5,610.498069503264,770.628304621509,0,0,5,3,4,0,6,NaN,horizontal,vertical,horizontal,horizontal,horizontal,none
1b,13,100200,1,47,47,21,F,NA,constant,heterogeneous,5,absent,1.36777305603027,1,horizontal,horizontal,1,0.941174030303955,red,5,NaN,601.827779828472,760.476699717708,NaN,NaN,891.383827134052,838.063008756786,1054.65053136242,586.654331158049,865.998856501143,353.688914296288,586.139005173917,461.117046071168,601.827779828472,760.476699717708,0,0,3,5,6,6,4,NaN,vertical,vertical,horizontal,horizontal,horizontal,none
1b,13,100200,1,48,48,21,F,NA,constant,heterogeneous,5,present,NaN,0,horizontal,none,0,0.999997138977051,red,2,3,1045.12173246427,670.287525733335,942.594190385041,388.595418998464,808.899371659138,854.844660889869,1045.12173246427,670.287525733335,942.594190385041,388.595418998464,643.006323791957,399.057257830286,560.378381699593,687.215136548046,0,0,6,4,3,3,5,NaN,horizontal,horizontal,horizontal,horizontal,vertical,none
1b,13,100200,1,49,49,21,F,NA,constant,heterogeneous,6,present,0.885431051254272,1,vertical,vertical,1,1.094114112854,red,3,4,960.476699717708,401.827779828472,708.616172865948,361.936991243214,891.383827134052,838.063008756786,1051.86052685176,639.890788585259,960.476699717708,401.827779828472,708.616172865948,361.936991243214,548.13947314824,560.109211414741,639.523300282292,798.172220171528,5,3,4,6,5,0,horizontal,horizontal,vertical,horizontal,horizontal,horizontal
1b,13,100200,1,50,50,21,F,NA,constant,heterogeneous,5,absent,1.48068022727966,1,horizontal,horizontal,1,0.87058629989624,red,4,NaN,586.139005173917,461.117046071168,NaN,NaN,891.383827134052,838.063008756786,1054.65053136242,586.654331158049,865.998856501143,353.688914296288,586.139005173917,461.117046071168,601.827779828472,760.476699717708,0,0,0,5,6,4,0,NaN,vertical,vertical,vertical,horizontal,horizontal,none
1b,13,100200,1,51,51,21,F,NA,constant,heterogeneous,5,present,1.41587901115417,1,vertical,vertical,1,0.670587730407715,red,2,4,1054.84466088987,591.100628340862,588.595418998464,457.40580961496,887.215136548046,839.621618300407,1054.84466088987,591.100628340862,870.287525733335,354.878267535729,588.595418998464,457.40580961496,599.057257830286,756.993676208043,0,0,5,4,3,6,0,NaN,horizontal,vertical,horizontal,horizontal,horizontal,none
1b,13,100200,1,52,52,21,F,NA,constant,heterogeneous,5,present,0.93636417388916,1,horizontal,horizontal,1,0.799998569488525,red,4,1,768.923317431687,346.900731331463,676.373546837184,823.028025320546,676.373546837184,823.028025320546,973.909581815937,786.495193912888,1031.10848569435,492.232343256122,768.923317431687,346.900731331463,549.685068220846,551.343706178981,0,0,0,0,6,4,6,NaN,vertical,vertical,horizontal,horizontal,horizontal,none
1b,13,100200,1,53,53,21,F,NA,constant,heterogeneous,3,absent,1.7207510471344,1,horizontal,horizontal,1,0.682352352142334,red,3,NaN,551.535633479765,542.637481142314,NaN,NaN,874.554784704298,843.857712770574,973.909581815937,413.504806087112,551.535633479765,542.637481142314,0,0,0,0,0,0,0,6,4,NaN,NaN,NaN,horizontal,horizontal,horizontal,none,none,none
1b,13,100200,1,54,54,21,F,NA,constant,heterogeneous,5,absent,1.28888511657715,1,horizontal,horizontal,1,0.87058629989624,red,5,NaN,546.900731331463,631.076682568313,NaN,NaN,751.343706178981,850.314931779154,1023.02802532055,723.626453162816,986.495193912888,426.090418184063,692.232343256122,368.891514305654,546.900731331463,631.076682568313,0,0,5,0,0,3,4,NaN,vertical,vertical,vertical,vertical,horizontal,none
1b,13,100200,1,55,55,21,F,NA,constant,heterogeneous,3,absent,0.715627908706665,1,vertical,vertical,1,1.02352638244629,red,2,NaN,1054.96116226488,604.450363641507,NaN,NaN,668.665290897936,818.577661679039,1054.96116226488,604.450363641507,676.373546837184,376.971974679454,0,0,0,0,0,0,6,4,5,NaN,NaN,NaN,vertical,vertical,vertical,none,none,none
1b,13,100200,1,56,56,21,F,NA,constant,heterogeneous,3,present,0.708444118499756,1,vertical,vertical,1,0.929409408569336,red,3,2,657.405809614959,388.595418998464,1054.37883281626,582.212099195248,688.215357568785,829.192481806288,1054.37883281626,582.212099195248,657.405809614959,388.595418998464,0,0,0,0,0,0,6,3,4,NaN,NaN,NaN,vertical,horizontal,vertical,none,none,none
1b,13,100200,1,57,57,21,F,NA,constant,heterogeneous,3,present,1.0515661239624,1,vertical,vertical,1,1.03529100418091,red,2,1,1039.62161830041,512.784863451954,755.719714694933,851.125977018113,755.719714694933,851.125977018113,1039.62161830041,512.784863451954,604.658667004661,436.089159529932,0,0,0,0,0,0,0,4,6,NaN,NaN,NaN,vertical,vertical,horizontal,none,none,none
1b,13,100200,1,58,58,21,F,NA,constant,heterogeneous,5,present,1.5586850643158,1,vertical,vertical,1,0.905880165100098,red,1,5,768.923317431687,853.099268668537,549.685068220846,648.656293821019,768.923317431687,853.099268668537,1031.10848569435,707.767656743878,973.909581815937,413.504806087112,676.373546837184,376.971974679454,549.685068220846,648.656293821019,0,0,4,3,6,0,3,NaN,vertical,vertical,horizontal,vertical,horizontal,none
1b,13,100200,1,59,59,21,F,NA,constant,heterogeneous,4,absent,0.708022117614746,1,vertical,vertical,1,0.894115543365478,red,3,NaN,751.343706178981,349.685068220846,NaN,NaN,848.656293821019,850.314931779154,1050.31493177915,551.343706178981,751.343706178981,349.685068220846,549.685068220846,648.656293821019,0,0,0,0,3,6,4,5,NaN,NaN,vertical,vertical,vertical,horizontal,none,none
1b,13,100200,1,60,60,21,F,NA,constant,heterogeneous,4,present,1.11176204681396,1,horizontal,horizontal,1,0.670587730407715,red,2,4,1013.86099482608,738.882953928832,586.139005173917,461.117046071168,661.117046071168,813.860994826083,1013.86099482608,738.882953928832,938.882953928832,386.139005173917,586.139005173917,461.117046071168,0,0,0,0,3,4,0,6,NaN,NaN,vertical,horizontal,horizontal,vertical,none,none
1b,13,100200,1,61,61,21,F,NA,constant,heterogeneous,3,present,0.746610879898071,1,horizontal,horizontal,1,0.623529243469238,red,2,1,1046.31108570371,534.001143498857,734.001143498857,846.311085703712,734.001143498857,846.311085703712,1046.31108570371,534.001143498857,619.68777079743,419.68777079743,0,0,0,0,0,0,0,4,5,NaN,NaN,NaN,horizontal,horizontal,horizontal,none,none,none
1b,13,100200,1,62,62,21,F,NA,constant,heterogeneous,5,present,1.09333205223083,1,horizontal,horizontal,1,0.988232517242432,red,2,3,1054.84466088987,591.100628340862,870.287525733335,354.878267535729,887.215136548046,839.621618300407,1054.84466088987,591.100628340862,870.287525733335,354.878267535729,588.595418998464,457.40580961496,599.057257830286,756.993676208043,0,0,5,4,3,0,0,NaN,vertical,horizontal,vertical,vertical,vertical,none
1b,13,100200,1,63,63,21,F,NA,constant,heterogeneous,6,present,1.28457903862,1,horizontal,horizontal,1,1.04705562591553,red,3,4,1053.09926866854,568.923317431687,899.636437764765,365.271262369628,700.363562235235,834.728737630372,953.462830903772,803.65205506206,1053.09926866854,568.923317431687,899.636437764765,365.271262369628,646.537169096228,396.34794493794,546.900731331463,631.076682568313,0,6,4,5,5,3,horizontal,vertical,horizontal,vertical,horizontal,horizontal
1b,13,100200,1,64,64,21,F,NA,constant,heterogeneous,3,absent,0.917425870895386,1,vertical,vertical,1,0.952938652038574,red,1,NaN,967.295052392579,792.450942956807,NaN,NaN,967.295052392579,792.450942956807,883.019879386575,358.892763222174,549.685068220846,648.656293821019,0,0,0,0,0,0,4,5,0,NaN,NaN,NaN,vertical,horizontal,horizontal,none,none,none
1b,13,100200,2,1,65,21,F,NA,constant,heterogeneous,3,absent,1.46177005767822,1,horizontal,horizontal,1,0.647058486938477,red,2,NaN,1020.83647796503,727.5,NaN,NaN,579.163522034968,727.5,1020.83647796503,727.5,800,345,0,0,0,0,0,0,0,4,5,NaN,NaN,NaN,vertical,horizontal,horizontal,none,none,none
1b,13,100200,2,2,66,21,F,NA,constant,heterogeneous,6,present,1.11320805549622,1,vertical,vertical,1,1.094114112854,red,5,1,576.971974679454,476.373546837184,804.450363641507,854.96116226488,804.450363641507,854.96116226488,1023.02802532055,723.626453162816,1018.57766167904,468.665290897936,795.549636358493,345.03883773512,576.971974679454,476.373546837184,581.422338320961,731.334709102064,3,3,5,6,4,5,horizontal,vertical,vertical,vertical,vertical,vertical
1b,13,100200,2,3,67,21,F,NA,constant,heterogeneous,3,present,0.791606903076172,1,horizontal,horizontal,1,0.611764621734619,red,2,1,1011.40458100154,457.40580961496,817.787900804752,854.378832816255,817.787900804752,854.378832816255,1011.40458100154,457.40580961496,570.807518193712,488.215357568785,0,0,0,0,0,0,5,4,6,NaN,NaN,NaN,vertical,horizontal,vertical,none,none,none
1b,13,100200,2,4,68,21,F,NA,constant,heterogeneous,3,present,1.25787210464478,1,horizontal,horizontal,1,0.717646217346191,red,2,1,1042.51941165526,521.200666434388,746.982518841471,849.42763818712,746.982518841471,849.42763818712,1042.51941165526,521.200666434388,610.498069503264,429.371695378491,0,0,0,0,0,0,3,4,5,NaN,NaN,NaN,vertical,horizontal,horizontal,none,none,none
1b,13,100200,2,5,69,21,F,NA,constant,heterogeneous,4,absent,0.611073970794678,1,vertical,vertical,1,0.776469326019287,red,4,NaN,560.378381699593,512.784863451954,NaN,NaN,712.784863451954,839.621618300407,1039.62161830041,687.215136548046,887.215136548046,360.378381699593,560.378381699593,512.784863451954,0,0,0,0,5,3,6,4,NaN,NaN,vertical,horizontal,vertical,vertical,none,none
1b,13,100200,2,6,70,21,F,NA,constant,heterogeneous,5,absent,1.80063104629517,0,horizontal,vertical,1,0.658823108673096,red,4,NaN,558.892763222174,516.980120613425,NaN,NaN,946.261991269517,808.883771293693,1043.85771277057,525.445215295702,804.450363641507,345.03883773512,558.892763222174,516.980120613425,646.537169096228,803.65205506206,0,0,6,6,3,4,0,NaN,vertical,horizontal,horizontal,horizontal,vertical,none
1b,13,100200,2,7,71,21,F,NA,constant,heterogeneous,3,present,1.2110641002655,1,vertical,vertical,1,0.705881595611572,red,3,1,563.568117085469,504.475318678942,835.489140744817,852.518357529101,835.489140744817,852.518357529101,1000.94274216971,443.006323791957,563.568117085469,504.475318678942,0,0,0,0,0,0,0,6,4,NaN,NaN,NaN,vertical,vertical,vertical,none,none,none
1b,13,100200,2,8,72,21,F,NA,constant,heterogeneous,3,present,1.31353211402893,1,vertical,vertical,1,0.705881595611572,red,2,1,963.910840470068,404.658667004661,887.215136548046,839.621618300407,887.215136548046,839.621618300407,963.910840470068,404.658667004661,548.874022981887,555.719714694933,0,0,0,0,0,0,3,4,0,NaN,NaN,NaN,horizontal,vertical,horizontal,none,none,none
1b,13,100200,2,9,73,21,F,NA,constant,heterogeneous,4,present,0.86798095703125,1,horizontal,horizontal,1,0.999997138977051,red,2,3,1048.46436652023,657.362518857686,857.362518857686,351.535633479765,742.637481142314,848.464366520235,1048.46436652023,657.362518857686,857.362518857686,351.535633479765,551.535633479765,542.637481142314,0,0,0,0,6,4,5,3,NaN,NaN,vertical,horizontal,vertical,vertical,none,none
1b,13,100200,2,10,74,21,F,NA,constant,heterogeneous,5,absent,0.784289121627808,1,horizontal,horizontal,1,0.74117546081543,red,3,NaN,963.910840470068,404.658667004661,NaN,NaN,782.212099195248,854.378832816255,1036.43188291453,695.524681321058,963.910840470068,404.658667004661,664.870587620533,383.747735480111,552.574589799621,661.690083377915,0,0,6,3,4,0,0,NaN,vertical,horizontal,horizontal,horizontal,horizontal,none
1b,13,100200,2,11,75,21,F,NA,constant,heterogeneous,6,present,0.869927883148193,1,horizontal,horizontal,1,0.694116973876953,red,6,3,545,600,1055,600,672.5,820.836477965032,927.5,820.836477965032,1055,600,927.5,379.163522034968,672.5,379.163522034968,545,600,3,6,5,0,3,4,horizontal,horizontal,horizontal,vertical,horizontal,horizontal
1b,13,100200,2,12,76,21,F,NA,constant,heterogeneous,4,present,1.08282589912415,1,vertical,vertical,1,0.752940082550049,red,1,2,831.076682568313,853.099268668537,1053.09926866854,568.923317431687,831.076682568313,853.099268668537,1053.09926866854,568.923317431687,768.923317431687,346.900731331463,546.900731331463,631.076682568313,0,0,0,0,4,3,0,3,NaN,NaN,vertical,horizontal,vertical,horizontal,none,none
1b,13,100200,2,13,77,21,F,NA,constant,heterogeneous,6,present,1.22163200378418,1,horizontal,horizontal,1,0.847057056427002,red,4,1,692.232343256122,368.891514305654,907.767656743878,831.108485694346,907.767656743878,831.108485694346,1054.0296480134,622.224714400653,946.261991269517,391.116228706307,692.232343256122,368.891514305654,545.970351986605,577.775285599347,653.738008730483,808.883771293693,6,5,3,4,0,0,vertical,vertical,vertical,horizontal,vertical,horizontal
1b,13,100200,2,14,78,21,F,NA,constant,heterogeneous,4,present,0.98399806022644,1,horizontal,horizontal,1,0.694116973876953,red,2,1,1050.31493177915,551.343706178981,848.656293821019,850.314931779154,848.656293821019,850.314931779154,1050.31493177915,551.343706178981,751.343706178981,349.685068220846,549.685068220846,648.656293821019,0,0,0,0,3,4,6,6,NaN,NaN,horizontal,horizontal,vertical,vertical,none,none
1b,13,100200,2,15,79,21,F,NA,constant,heterogeneous,3,absent,0.610899209976196,1,vertical,vertical,1,0.952938652038574,red,3,NaN,546.900731331463,568.923317431687,NaN,NaN,899.636437764765,834.728737630372,953.462830903772,396.34794493794,546.900731331463,568.923317431687,0,0,0,0,0,0,5,6,4,NaN,NaN,NaN,vertical,vertical,vertical,none,none,none
1b,13,100200,2,16,80,21,F,NA,constant,heterogeneous,5,absent,NaN,0,vertical,none,0,1.07058486938477,red,2,NaN,1039.62161830041,687.215136548046,NaN,NaN,791.100628340862,854.844660889869,1039.62161830041,687.215136548046,956.993676208043,399.057257830286,657.405809614959,388.595418998464,554.878267535729,670.287525733335,0,0,0,4,3,0,6,NaN,horizontal,vertical,vertical,vertical,vertical,none
1b,13,100200,2,17,81,21,F,NA,constant,heterogeneous,3,absent,1.19317412376404,1,vertical,vertical,1,0.999997138977051,red,3,NaN,556.142287229426,674.554784704298,NaN,NaN,986.495193912888,773.909581815937,857.362518857686,351.535633479765,556.142287229426,674.554784704298,0,0,0,0,0,0,5,3,4,NaN,NaN,NaN,horizontal,vertical,vertical,none,none,none
1b,13,100200,2,18,82,21,F,NA,constant,heterogeneous,6,absent,0.877247095108032,1,vertical,vertical,1,0.611764621734619,red,5,NaN,553.688914296288,534.001143498857,NaN,NaN,865.998856501143,846.311085703712,1046.31108570371,665.998856501143,980.31222920257,419.68777079743,734.001143498857,353.688914296288,553.688914296288,534.001143498857,619.68777079743,780.31222920257,3,0,0,5,4,3,vertical,vertical,horizontal,horizontal,vertical,horizontal
1b,13,100200,2,19,83,21,F,NA,constant,heterogeneous,5,present,0.601218938827515,1,vertical,vertical,1,0.705881595611572,red,4,2,599.057257830286,443.006323791957,1054.84466088987,608.899371659138,870.287525733335,845.121732464271,1054.84466088987,608.899371659138,887.215136548046,360.378381699593,599.057257830286,443.006323791957,588.595418998464,742.594190385041,0,0,6,6,0,4,3,NaN,horizontal,vertical,horizontal,vertical,vertical,none
1b,13,100200,2,20,84,21,F,NA,constant,heterogeneous,4,present,0.75444507598877,1,horizontal,horizontal,1,0.858821678161621,red,4,3,558.892763222174,516.980120613425,883.019879386575,358.892763222174,716.980120613425,841.107236777826,1041.10723677783,683.019879386575,883.019879386575,358.892763222174,558.892763222174,516.980120613425,0,0,0,0,5,3,6,4,NaN,NaN,vertical,vertical,vertical,horizontal,none,none
1b,13,100200,2,21,85,21,F,NA,constant,heterogeneous,5,present,1.68302798271179,1,horizontal,horizontal,1,1.05882024765015,red,1,5,919.715248510402,825.151636179026,622.862115532956,783.431649086356,919.715248510402,825.151636179026,1051.12597701811,555.719714694933,835.489140744817,347.4816424709,570.807518193712,488.215357568785,622.862115532956,783.431649086356,0,0,4,6,5,5,6,NaN,horizontal,vertical,horizontal,vertical,horizontal,none
1b,13,100200,2,22,86,21,F,NA,constant,heterogeneous,6,present,1.66943287849426,1,vertical,vertical,1,0.623529243469238,red,2,4,1051.12597701811,644.280285305067,712.784863451954,360.378381699593,887.215136548046,839.621618300407,1051.12597701811,644.280285305067,963.910840470068,404.658667004661,712.784863451954,360.378381699593,548.874022981887,555.719714694933,636.089159529932,795.341332995339,0,4,6,5,3,3,vertical,vertical,horizontal,horizontal,horizontal,horizontal
1b,13,100200,2,23,87,21,F,NA,constant,heterogeneous,5,absent,0.722617864608765,1,horizontal,horizontal,1,0.776469326019287,red,5,NaN,553.688914296288,534.001143498857,NaN,NaN,661.117046071168,813.860994826083,960.476699717708,798.172220171528,1038.06300875679,508.616172865948,786.654331158049,345.349468637584,553.688914296288,534.001143498857,0,0,3,6,5,6,4,NaN,vertical,vertical,horizontal,horizontal,horizontal,none
1b,13,100200,2,24,88,21,F,NA,constant,heterogeneous,6,present,NaN,0,horizontal,none,0,0.764704704284668,red,3,2,1054.0296480134,577.775285599347,946.261991269517,808.883771293693,692.232343256122,831.108485694346,946.261991269517,808.883771293693,1054.0296480134,577.775285599347,907.767656743878,368.891514305654,653.738008730483,391.116228706307,545.970351986605,622.224714400653,0,6,4,3,6,3,horizontal,vertical,horizontal,horizontal,vertical,vertical
1b,13,100200,2,25,89,21,F,NA,constant,heterogeneous,6,absent,0.929842948913574,1,horizontal,horizontal,1,1.04705562591553,red,6,NaN,554.878267535729,670.287525733335,NaN,NaN,738.309916622085,847.425410200379,983.431649086356,777.137884467044,1045.12173246427,529.712474266665,861.690083377915,352.574589799621,616.568350913644,422.862115532956,554.878267535729,670.287525733335,5,5,3,6,0,4,vertical,horizontal,horizontal,horizontal,vertical,horizontal
1b,13,100200,2,26,90,21,F,NA,constant,heterogeneous,4,present,0.7779860496521,1,vertical,vertical,1,0.858821678161621,red,4,1,568.891514305654,707.767656743878,907.767656743878,831.108485694346,907.767656743878,831.108485694346,1031.10848569435,492.232343256122,692.232343256122,368.891514305654,568.891514305654,707.767656743878,0,0,0,0,0,3,6,4,NaN,NaN,vertical,vertical,vertical,vertical,none,none
1b,13,100200,2,27,91,21,F,NA,constant,heterogeneous,5,absent,1.18498516082764,1,horizontal,horizontal,1,0.764704704284668,red,5,NaN,549.685068220846,551.343706178981,NaN,NaN,676.373546837184,823.028025320546,973.909581815937,786.495193912888,1031.10848569435,492.232343256122,768.923317431687,346.900731331463,549.685068220846,551.343706178981,0,0,5,0,6,3,4,NaN,horizontal,horizontal,vertical,vertical,horizontal,none
1b,13,100200,2,28,92,21,F,NA,constant,heterogeneous,4,present,1.32963895797729,1,horizontal,horizontal,1,1.03529100418091,red,2,1,1006.29933356561,749.885239334581,650.114760665419,806.299333565612,650.114760665419,806.299333565612,1006.29933356561,749.885239334581,949.885239334581,393.700666434388,593.700666434388,450.114760665419,0,0,0,0,6,4,6,5,NaN,NaN,vertical,horizontal,vertical,horizontal,none,none
1b,13,100200,2,29,93,21,F,NA,constant,heterogeneous,5,absent,NaN,0,vertical,none,0,0.941174030303955,red,2,NaN,1054.84466088987,608.899371659138,NaN,NaN,870.287525733335,845.121732464271,1054.84466088987,608.899371659138,887.215136548046,360.378381699593,599.057257830286,443.006323791957,588.595418998464,742.594190385041,0,0,5,4,3,0,6,NaN,horizontal,vertical,vertical,horizontal,vertical,none
1b,13,100200,2,30,94,21,F,NA,constant,heterogeneous,6,absent,1.12731313705444,1,vertical,vertical,1,1.01176176071167,red,6,NaN,626.090418184063,786.495193912888,NaN,NaN,874.554784704298,843.857712770574,1048.46436652023,657.362518857686,973.909581815937,413.504806087112,725.445215295702,356.142287229426,551.535633479765,542.637481142314,626.090418184063,786.495193912888,6,5,5,6,3,4,vertical,vertical,horizontal,horizontal,horizontal,vertical
1b,13,100200,2,31,95,21,F,NA,constant,heterogeneous,5,present,1.29118680953979,1,horizontal,horizontal,1,0.635293865203857,red,4,2,696.282156015671,367.045908301137,1020.83647796503,727.5,746.982518841471,849.42763818712,1020.83647796503,727.5,989.501930496736,429.371695378491,696.282156015671,367.045908301137,546.39691668109,626.654758133252,0,0,6,0,6,4,0,NaN,vertical,horizontal,horizontal,horizontal,vertical,none
1b,13,100200,2,32,96,21,F,NA,constant,heterogeneous,6,absent,1.4276819229126,1,horizontal,horizontal,1,0.952938652038574,red,3,NaN,980.31222920257,419.68777079743,NaN,NaN,865.998856501143,846.311085703712,1046.31108570371,665.998856501143,980.31222920257,419.68777079743,734.001143498857,353.688914296288,553.688914296288,534.001143498857,619.68777079743,780.31222920257,6,3,4,5,0,0,vertical,vertical,horizontal,horizontal,horizontal,horizontal
1b,13,100200,2,33,97,21,F,NA,constant,heterogeneous,4,absent,0.872286081314087,1,horizontal,horizontal,1,0.976467895507813,red,1,NaN,729.712474266665,845.121732464271,NaN,NaN,729.712474266665,845.121732464271,1045.12173246427,670.287525733335,870.287525733335,354.878267535729,554.878267535729,529.712474266665,0,0,0,0,4,3,6,0,NaN,NaN,horizontal,horizontal,horizontal,vertical,none,none
1b,13,100200,2,34,98,21,F,NA,constant,heterogeneous,3,present,1.25259685516357,1,horizontal,horizontal,1,0.729410839080811,red,1,2,970.628304621509,789.501930496736,878.799333565612,357.480588344736,970.628304621509,789.501930496736,878.799333565612,357.480588344736,550.57236181288,653.017481158529,0,0,0,0,0,0,4,6,3,NaN,NaN,NaN,horizontal,horizontal,horizontal,none,none,none
1b,13,100200,2,35,99,21,F,NA,constant,heterogeneous,5,present,0.832813024520874,1,horizontal,horizontal,1,0.952938652038574,red,5,4,545.349468637584,586.654331158049,734.001143498857,353.688914296288,708.616172865948,838.063008756786,998.172220171528,760.476699717708,1013.86099482608,461.117046071168,734.001143498857,353.688914296288,545.349468637584,586.654331158049,0,0,3,6,6,5,4,NaN,horizontal,vertical,horizontal,vertical,horizontal,none
1b,13,100200,2,36,100,21,F,NA,constant,heterogeneous,3,absent,1.37762594223022,1,vertical,vertical,1,1.01176176071167,red,2,NaN,923.626453162816,376.971974679454,NaN,NaN,931.334709102064,818.577661679039,923.626453162816,376.971974679454,545.03883773512,604.450363641507,0,0,0,0,0,0,6,4,5,NaN,NaN,NaN,vertical,vertical,horizontal,none,none,none
1b,13,100200,2,37,101,21,F,NA,constant,heterogeneous,3,present,1.67473196983337,1,vertical,vertical,1,0.858821678161621,red,1,2,764.510859255183,852.518357529101,1036.43188291453,504.475318678942,764.510859255183,852.518357529101,1036.43188291453,504.475318678942,599.057257830286,443.006323791957,0,0,0,0,0,0,4,5,3,NaN,NaN,NaN,vertical,vertical,horizontal,none,none,none
1b,13,100200,2,38,102,21,F,NA,constant,heterogeneous,5,absent,0.616862058639526,1,vertical,vertical,1,0.823527812957764,red,4,NaN,601.827779828472,439.523300282291,NaN,NaN,865.998856501143,846.311085703712,1054.65053136242,613.345668841951,891.383827134052,361.936991243214,601.827779828472,439.523300282291,586.139005173917,738.882953928832,0,0,0,5,0,4,6,NaN,vertical,horizontal,vertical,vertical,horizontal,none
1b,13,100200,2,39,103,21,F,NA,constant,heterogeneous,6,absent,1.04949498176575,1,horizontal,horizontal,1,0.999997138977051,red,3,NaN,1003.65205506206,446.537169096228,NaN,NaN,831.076682568313,853.099268668537,1034.72873763037,699.636437764765,1003.65205506206,446.537169096228,768.923317431687,346.900731331463,565.271262369628,500.363562235235,596.34794493794,753.462830903772,6,6,4,0,0,5,vertical,vertical,horizontal,horizontal,horizontal,horizontal
1b,13,100200,2,40,104,21,F,NA,constant,heterogeneous,4,present,1.02464389801025,1,vertical,vertical,1,1.094114112854,red,2,1,1032.95409169886,496.282156015671,903.717843984329,832.954091698863,903.717843984329,832.954091698863,1032.95409169886,496.282156015671,696.282156015671,367.045908301137,567.045908301137,703.717843984329,0,0,0,0,6,4,5,6,NaN,NaN,horizontal,vertical,vertical,vertical,none,none
1b,13,100200,2,41,105,21,F,NA,constant,heterogeneous,5,present,0.920480012893677,1,vertical,vertical,1,0.764704704284668,red,2,1,1042.51941165526,521.200666434388,949.885239334581,806.299333565612,949.885239334581,806.299333565612,1042.51941165526,521.200666434388,800,345,557.480588344736,521.200666434388,650.114760665419,806.299333565612,0,0,0,4,3,3,6,NaN,vertical,vertical,vertical,vertical,vertical,none
1b,13,100200,2,42,106,21,F,NA,constant,heterogeneous,4,absent,0.6355299949646,0,horizontal,vertical,1,0.811763191223145,red,4,NaN,607.549057043193,767.295052392579,NaN,NaN,967.295052392579,792.450942956807,992.450942956807,432.704947607421,632.704947607421,407.549057043193,607.549057043193,767.295052392579,0,0,0,0,3,6,5,4,NaN,NaN,vertical,vertical,vertical,horizontal,none,none
1b,13,100200,2,43,107,21,F,NA,constant,heterogeneous,5,absent,NaN,0,vertical,none,0,1.04705562591553,red,2,NaN,1047.42541020038,538.309916622085,NaN,NaN,935.129412379467,816.252264519889,1047.42541020038,538.309916622085,817.787900804752,345.621167183745,563.568117085469,504.475318678942,636.089159529932,795.341332995339,0,0,5,4,0,6,6,NaN,vertical,vertical,horizontal,vertical,vertical,none
1b,13,100200,2,44,108,21,F,NA,constant,heterogeneous,4,present,1.47796392440796,1,vertical,vertical,1,0.611764621734619,red,2,4,1027.20666366803,484.232422566416,572.793336331966,715.767577433584,915.767577433584,827.206663668034,1027.20666366803,484.232422566416,684.232422566416,372.793336331966,572.793336331966,715.767577433584,0,0,0,0,3,4,0,5,NaN,NaN,horizontal,vertical,horizontal,vertical,none,none
1b,13,100200,2,45,109,21,F,NA,constant,heterogeneous,3,absent,0.980066061019897,1,horizontal,horizontal,1,1.02352638244629,red,1,NaN,1020.83647796503,727.5,NaN,NaN,1020.83647796503,727.5,800,345,579.163522034968,727.5,0,0,0,0,0,0,4,3,0,NaN,NaN,NaN,horizontal,horizontal,horizontal,none,none,none
1b,13,100200,2,46,110,21,F,NA,constant,heterogeneous,4,absent,1.41212797164917,1,vertical,vertical,1,0.835292434692383,red,3,NaN,661.117046071168,386.139005173917,NaN,NaN,938.882953928832,813.860994826083,1013.86099482608,461.117046071168,661.117046071168,386.139005173917,586.139005173917,738.882953928832,0,0,0,0,0,6,4,3,NaN,NaN,vertical,horizontal,vertical,horizontal,none,none
1b,13,100200,2,47,111,21,F,NA,constant,heterogeneous,6,present,1.68263721466064,1,vertical,vertical,1,0.882350921630859,red,6,3,610.498069503264,770.628304621509,989.501930496736,429.371695378491,853.017481158529,849.42763818712,1042.51941165526,678.799333565612,989.501930496736,429.371695378491,746.982518841471,350.57236181288,557.480588344736,521.200666434388,610.498069503264,770.628304621509,0,6,6,5,3,4,vertical,horizontal,horizontal,vertical,vertical,vertical
1b,13,100200,2,48,112,21,F,NA,constant,heterogeneous,6,absent,1.96592998504639,0,horizontal,vertical,1,0.670587730407715,red,1,NaN,768.923317431687,853.099268668537,NaN,NaN,768.923317431687,853.099268668537,1003.65205506206,753.462830903772,1034.72873763037,500.363562235235,831.076682568313,346.900731331463,596.34794493794,446.537169096228,565.271262369628,699.636437764765,4,6,0,0,3,3,horizontal,vertical,vertical,vertical,vertical,horizontal
1b,13,100200,2,49,113,21,F,NA,constant,heterogeneous,3,absent,0.969328165054321,1,horizontal,horizontal,1,0.788233947753906,red,2,NaN,998.172220171528,439.523300282291,NaN,NaN,839.890788585259,851.86052685176,998.172220171528,439.523300282291,561.936991243214,508.616172865948,0,0,0,0,0,0,0,4,6,NaN,NaN,NaN,vertical,horizontal,vertical,none,none,none
1b,13,100200,2,50,114,21,F,NA,constant,heterogeneous,4,absent,1.66626906394958,1,vertical,vertical,1,0.670587730407715,red,1,NaN,903.717843984329,832.954091698863,NaN,NaN,903.717843984329,832.954091698863,1032.95409169886,496.282156015671,696.282156015671,367.045908301137,567.045908301137,703.717843984329,0,0,0,0,4,5,3,6,NaN,NaN,vertical,horizontal,vertical,vertical,none,none
1b,13,100200,2,51,115,21,F,NA,constant,heterogeneous,3,present,1.81183195114136,1,horizontal,horizontal,1,0.6,red,2,3,853.017481158529,350.57236181288,557.480588344736,678.799333565612,989.501930496736,770.628304621509,853.017481158529,350.57236181288,557.480588344736,678.799333565612,0,0,0,0,0,0,5,4,5,NaN,NaN,NaN,vertical,horizontal,horizontal,none,none,none
1b,13,100200,2,52,116,21,F,NA,constant,heterogeneous,4,absent,0.712202072143555,1,horizontal,horizontal,1,1.01176176071167,red,4,NaN,560.378381699593,512.784863451954,NaN,NaN,712.784863451954,839.621618300407,1039.62161830041,687.215136548046,887.215136548046,360.378381699593,560.378381699593,512.784863451954,0,0,0,0,5,0,0,4,NaN,NaN,horizontal,vertical,vertical,horizontal,none,none
1b,13,100200,2,53,117,21,F,NA,constant,heterogeneous,4,absent,0.961799144744873,1,vertical,vertical,1,0.952938652038574,red,2,NaN,1016.25226451989,735.129412379467,NaN,NaN,664.870587620533,816.252264519889,1016.25226451989,735.129412379467,935.129412379467,383.747735480111,583.747735480111,464.870587620533,0,0,0,0,0,4,0,6,NaN,NaN,horizontal,vertical,vertical,vertical,none,none
1b,13,100200,2,54,118,21,F,NA,constant,heterogeneous,4,absent,NaN,0,horizontal,none,0,1.05882024765015,red,2,NaN,1048.46436652023,657.362518857686,NaN,NaN,742.637481142314,848.464366520235,1048.46436652023,657.362518857686,857.362518857686,351.535633479765,551.535633479765,542.637481142314,0,0,0,0,3,4,5,5,NaN,NaN,horizontal,horizontal,horizontal,vertical,none,none
1b,13,100200,2,55,119,21,F,NA,constant,heterogeneous,5,present,1.31404590606689,1,horizontal,horizontal,1,0.964703273773193,red,5,4,545.03883773512,604.450363641507,716.980120613425,358.892763222174,725.445215295702,843.857712770574,1008.88377129369,746.261991269517,1003.65205506206,446.537169096228,716.980120613425,358.892763222174,545.03883773512,604.450363641507,0,0,3,5,3,6,4,NaN,horizontal,vertical,horizontal,horizontal,horizontal,none
1b,13,100200,2,56,120,21,F,NA,constant,heterogeneous,6,absent,1.16501498222351,1,vertical,vertical,1,0.823527812957764,red,1,NaN,696.282156015671,832.954091698863,NaN,NaN,696.282156015671,832.954091698863,949.885239334581,806.299333565612,1053.60308331891,573.345241866748,903.717843984329,367.045908301137,650.114760665419,393.700666434388,546.39691668109,626.654758133252,4,3,3,6,5,5,vertical,vertical,vertical,vertical,vertical,vertical
1b,13,100200,2,57,121,21,F,NA,constant,heterogeneous,3,absent,0.853023052215576,1,vertical,vertical,1,0.823527812957764,red,3,NaN,688.215357568785,370.807518193712,NaN,NaN,657.405809614959,811.404581001536,1054.37883281626,617.787900804752,688.215357568785,370.807518193712,0,0,0,0,0,0,5,6,4,NaN,NaN,NaN,horizontal,horizontal,vertical,none,none,none
1b,13,100200,2,58,122,21,F,NA,constant,heterogeneous,6,present,NaN,0,vertical,none,0,1.04705562591553,red,2,4,1054.65053136242,613.345668841951,684.232422566416,372.793336331966,915.767577433584,827.206663668034,1054.65053136242,613.345668841951,938.882953928832,386.139005173917,684.232422566416,372.793336331966,545.349468637584,586.654331158049,661.117046071168,813.860994826083,3,4,6,0,5,3,vertical,vertical,vertical,vertical,horizontal,horizontal
1b,13,100200,2,59,123,21,F,NA,constant,heterogeneous,5,present,1.63849806785583,1,vertical,vertical,1,0.952938652038574,red,4,5,568.891514305654,492.232343256122,626.090418184063,786.495193912888,923.626453162816,823.028025320546,1050.31493177915,551.343706178981,831.076682568313,346.900731331463,568.891514305654,492.232343256122,626.090418184063,786.495193912888,0,0,0,3,6,4,3,NaN,horizontal,horizontal,horizontal,vertical,vertical,none
1b,13,100200,2,60,124,21,F,NA,constant,heterogeneous,3,absent,0.972327947616577,1,horizontal,horizontal,1,1.03529100418091,red,1,NaN,963.910840470068,795.341332995339,NaN,NaN,963.910840470068,795.341332995339,887.215136548046,360.378381699593,548.874022981887,644.280285305067,0,0,0,0,0,0,4,0,3,NaN,NaN,NaN,horizontal,horizontal,horizontal,none,none,none
1b,13,100200,2,61,125,21,F,NA,constant,heterogeneous,6,present,1.40313696861267,1,horizontal,horizontal,1,0.976467895507813,red,1,3,891.383827134052,838.063008756786,960.476699717708,401.827779828472,891.383827134052,838.063008756786,1051.86052685176,639.890788585259,960.476699717708,401.827779828472,708.616172865948,361.936991243214,548.13947314824,560.109211414741,639.523300282292,798.172220171528,4,6,0,0,6,3,horizontal,horizontal,horizontal,horizontal,horizontal,vertical
1b,13,100200,2,62,126,21,F,NA,constant,heterogeneous,6,absent,1.18065786361694,1,vertical,vertical,1,0.858821678161621,red,1,NaN,746.982518841471,849.42763818712,NaN,NaN,746.982518841471,849.42763818712,989.501930496736,770.628304621509,1042.51941165526,521.200666434388,853.017481158529,350.57236181288,610.498069503264,429.371695378491,557.480588344736,678.799333565612,4,5,0,5,3,6,vertical,horizontal,vertical,vertical,horizontal,horizontal
1b,13,100200,2,63,127,21,F,NA,constant,heterogeneous,5,present,0.899338960647583,1,vertical,vertical,1,0.74117546081543,red,1,2,891.383827134052,838.063008756786,1054.65053136242,586.654331158049,891.383827134052,838.063008756786,1054.65053136242,586.654331158049,865.998856501143,353.688914296288,586.139005173917,461.117046071168,601.827779828472,760.476699717708,0,0,4,6,0,5,0,NaN,vertical,horizontal,horizontal,horizontal,vertical,none
1b,13,100200,2,64,128,21,F,NA,constant,heterogeneous,3,present,1.0848240852356,1,vertical,vertical,1,0.964703273773193,red,3,1,721.200666434388,357.480588344736,629.371695378491,789.501930496736,629.371695378491,789.501930496736,1049.42763818712,653.017481158529,721.200666434388,357.480588344736,0,0,0,0,0,0,6,0,4,NaN,NaN,NaN,vertical,horizontal,vertical,none,none,none
1b,13,100200,3,1,129,21,F,NA,constant,heterogeneous,5,present,0.89015793800354,1,vertical,vertical,1,0.776469326019287,red,5,3,551.535633479765,542.637481142314,1034.72873763037,500.363562235235,668.665290897936,818.577661679039,967.295052392579,792.450942956807,1034.72873763037,500.363562235235,777.775285599347,345.970351986605,551.535633479765,542.637481142314,0,0,6,0,0,5,4,NaN,horizontal,vertical,horizontal,horizontal,vertical,none
1b,13,100200,3,2,130,21,F,NA,constant,heterogeneous,6,absent,NaN,0,horizontal,none,0,0.623529243469238,red,1,NaN,813.345668841951,854.650531362416,NaN,NaN,813.345668841951,854.650531362416,1027.20666366803,715.767577433584,1013.86099482608,461.117046071168,786.654331158049,345.349468637584,572.793336331966,484.232422566416,586.139005173917,738.882953928832,4,5,6,0,5,3,horizontal,vertical,vertical,vertical,vertical,vertical
1b,13,100200,3,3,131,21,F,NA,constant,heterogeneous,5,absent,1.34518098831177,1,vertical,vertical,1,0.623529243469238,red,5,NaN,636.089159529932,795.341332995339,NaN,NaN,935.129412379467,816.252264519889,1047.42541020038,538.309916622085,817.787900804752,345.621167183745,563.568117085469,504.475318678942,636.089159529932,795.341332995339,0,0,6,0,0,6,4,NaN,horizontal,horizontal,vertical,vertical,vertical,none
1b,13,100200,3,4,132,21,F,NA,constant,heterogeneous,3,absent,1.33681106567383,1,horizontal,horizontal,1,1.02352638244629,red,1,NaN,684.232422566416,827.206663668034,NaN,NaN,684.232422566416,827.206663668034,1054.65053136242,586.654331158049,661.117046071168,386.139005173917,0,0,0,0,0,0,4,5,0,NaN,NaN,NaN,horizontal,vertical,horizontal,none,none,none
1b,13,100200,3,5,133,21,F,NA,constant,heterogeneous,4,present,1.34948682785034,1,vertical,vertical,1,0.894115543365478,red,2,3,1011.40458100154,742.594190385041,942.594190385041,388.595418998464,657.405809614959,811.404581001536,1011.40458100154,742.594190385041,942.594190385041,388.595418998464,588.595418998464,457.40580961496,0,0,0,0,6,4,3,3,NaN,NaN,horizontal,vertical,vertical,horizontal,none,none
1b,13,100200,3,6,134,21,F,NA,constant,heterogeneous,4,present,0.896029949188232,1,horizontal,horizontal,1,0.764704704284668,red,3,1,970.628304621509,410.498069503264,629.371695378491,789.501930496736,629.371695378491,789.501930496736,989.501930496736,770.628304621509,970.628304621509,410.498069503264,610.498069503264,429.371695378491,0,0,0,0,3,5,4,0,NaN,NaN,horizontal,vertical,horizontal,vertical,none,none
1b,13,100200,3,7,135,21,F,NA,constant,heterogeneous,6,present,1.2818660736084,1,horizontal,horizontal,1,0.788233947753906,red,2,6,946.261991269517,808.883771293693,545.970351986605,622.224714400653,692.232343256122,831.108485694346,946.261991269517,808.883771293693,1054.0296480134,577.775285599347,907.767656743878,368.891514305654,653.738008730483,391.116228706307,545.970351986605,622.224714400653,0,4,6,0,5,3,horizontal,horizontal,horizontal,horizontal,horizontal,horizontal
1b,13,100200,3,8,136,21,F,NA,constant,heterogeneous,3,absent,0.869265079498291,1,horizontal,horizontal,1,0.87058629989624,red,3,NaN,768.923317431687,346.900731331463,NaN,NaN,596.34794493794,753.462830903772,1034.72873763037,699.636437764765,768.923317431687,346.900731331463,0,0,0,0,0,0,6,6,4,NaN,NaN,NaN,horizontal,horizontal,horizontal,none,none,none
1b,13,100200,3,9,137,21,F,NA,constant,heterogeneous,4,present,1.54730486869812,1,horizontal,horizontal,1,0.823527812957764,red,1,4,887.215136548046,839.621618300407,560.378381699593,687.215136548046,887.215136548046,839.621618300407,1039.62161830041,512.784863451954,712.784863451954,360.378381699593,560.378381699593,687.215136548046,0,0,0,0,4,3,0,0,NaN,NaN,horizontal,horizontal,vertical,vertical,none,none
1b,13,100200,3,10,138,21,F,NA,constant,heterogeneous,3,present,0.729154825210571,1,horizontal,horizontal,1,0.929409408569336,red,1,3,586.139005173917,738.882953928832,786.654331158049,345.349468637584,586.139005173917,738.882953928832,1027.20666366803,715.767577433584,786.654331158049,345.349468637584,0,0,0,0,0,0,4,6,0,NaN,NaN,NaN,horizontal,vertical,vertical,none,none,none
1b,13,100200,3,11,139,21,F,NA,constant,heterogeneous,4,present,0.859004020690918,1,horizontal,horizontal,1,0.952938652038574,red,2,3,995.341332995339,436.089159529932,636.089159529932,404.658667004661,963.910840470068,795.341332995339,995.341332995339,436.089159529932,636.089159529932,404.658667004661,604.658667004661,763.910840470068,0,0,0,0,5,4,0,6,NaN,NaN,horizontal,horizontal,vertical,vertical,none,none
1b,13,100200,3,12,140,21,F,NA,constant,heterogeneous,4,absent,0.890076160430908,1,vertical,vertical,1,0.682352352142334,red,3,NaN,639.523300282292,401.827779828472,NaN,NaN,960.476699717708,798.172220171528,998.172220171528,439.523300282291,639.523300282292,401.827779828472,601.827779828472,760.476699717708,0,0,0,0,5,0,4,6,NaN,NaN,horizontal,horizontal,vertical,vertical,none,none
1b,13,100200,3,13,141,21,F,NA,constant,heterogeneous,4,present,0.848551034927368,1,vertical,vertical,1,1.03529100418091,red,2,1,1046.31108570371,665.998856501143,734.001143498857,846.311085703712,734.001143498857,846.311085703712,1046.31108570371,665.998856501143,865.998856501143,353.688914296288,553.688914296288,534.001143498857,0,0,0,0,3,4,0,0,NaN,NaN,horizontal,vertical,vertical,horizontal,none,none
1b,13,100200,3,14,142,21,F,NA,constant,heterogeneous,5,present,0.68417501449585,1,horizontal,horizontal,1,0.705881595611572,red,4,3,560.378381699593,512.784863451954,808.899371659138,345.155339110131,942.594190385041,811.404581001536,1045.12173246427,529.712474266665,808.899371659138,345.155339110131,560.378381699593,512.784863451954,643.006323791957,800.942742169714,0,0,5,6,0,4,0,NaN,vertical,horizontal,horizontal,horizontal,horizontal,none
1b,13,100200,3,15,143,21,F,NA,constant,heterogeneous,5,absent,1.39010810852051,1,horizontal,horizontal,1,0.999997138977051,red,2,NaN,1047.42541020038,538.309916622085,NaN,NaN,935.129412379467,816.252264519889,1047.42541020038,538.309916622085,817.787900804752,345.621167183745,563.568117085469,504.475318678942,636.089159529932,795.341332995339,0,0,6,4,6,0,5,NaN,vertical,horizontal,vertical,horizontal,vertical,none
1b,13,100200,3,16,144,21,F,NA,constant,heterogeneous,4,absent,1.4454391002655,1,vertical,vertical,1,0.776469326019287,red,2,NaN,1054.84466088987,608.899371659138,NaN,NaN,791.100628340862,854.844660889869,1054.84466088987,608.899371659138,808.899371659138,345.155339110131,545.155339110131,591.100628340862,0,0,0,0,3,4,6,5,NaN,NaN,horizontal,vertical,horizontal,vertical,none,none
1b,13,100200,3,17,145,21,F,NA,constant,heterogeneous,3,absent,0.997399806976318,1,vertical,vertical,1,0.952938652038574,red,2,NaN,907.767656743878,368.891514305654,NaN,NaN,946.261991269517,808.883771293693,907.767656743878,368.891514305654,545.970351986605,622.224714400653,0,0,0,0,0,0,0,4,5,NaN,NaN,NaN,vertical,vertical,vertical,none,none,none
1b,13,100200,3,18,146,21,F,NA,constant,heterogeneous,6,absent,1.09493494033813,1,vertical,vertical,1,0.670587730407715,red,1,NaN,899.636437764765,834.728737630372,NaN,NaN,899.636437764765,834.728737630372,1053.09926866854,631.076682568313,953.462830903772,396.34794493794,700.363562235235,365.271262369628,546.900731331463,568.923317431687,646.537169096228,803.65205506206,4,5,5,6,6,0,vertical,horizontal,horizontal,horizontal,vertical,vertical
1b,13,100200,3,19,147,21,F,NA,constant,heterogeneous,6,present,1.46805906295776,1,horizontal,horizontal,1,0.952938652038574,red,2,3,1042.51941165526,678.799333565612,989.501930496736,429.371695378491,853.017481158529,849.42763818712,1042.51941165526,678.799333565612,989.501930496736,429.371695378491,746.982518841471,350.57236181288,557.480588344736,521.200666434388,610.498069503264,770.628304621509,3,4,6,6,5,0,vertical,horizontal,horizontal,horizontal,vertical,horizontal
1b,13,100200,3,20,148,21,F,NA,constant,heterogeneous,5,absent,1.04982304573059,1,horizontal,horizontal,1,0.611764621734619,red,5,NaN,545.970351986605,622.224714400653,NaN,NaN,742.637481142314,848.464366520235,1018.57766167904,731.334709102064,992.450942956807,432.704947607421,700.363562235235,365.271262369628,545.970351986605,622.224714400653,0,0,0,0,6,5,4,NaN,vertical,horizontal,vertical,horizontal,horizontal,none
1b,13,100200,3,21,149,21,F,NA,constant,heterogeneous,5,absent,NaN,0,vertical,none,0,0.847057056427002,red,4,NaN,570.807518193712,488.215357568785,NaN,NaN,919.715248510402,825.151636179026,1051.12597701811,555.719714694933,835.489140744817,347.4816424709,570.807518193712,488.215357568785,622.862115532956,783.431649086356,0,0,3,0,6,4,6,NaN,horizontal,horizontal,vertical,vertical,horizontal,none
1b,13,100200,3,22,150,21,F,NA,constant,heterogeneous,4,absent,1.03203296661377,1,vertical,vertical,1,0.788233947753906,red,1,NaN,721.200666434388,842.519411655264,NaN,NaN,721.200666434388,842.519411655264,1042.51941165526,678.799333565612,878.799333565612,357.480588344736,557.480588344736,521.200666434388,0,0,0,0,4,6,0,3,NaN,NaN,vertical,horizontal,horizontal,horizontal,none,none
1b,13,100200,3,23,151,21,F,NA,constant,heterogeneous,6,absent,0.870208024978638,1,vertical,vertical,1,1.07058486938477,red,4,NaN,826.654758133252,346.39691668109,NaN,NaN,773.345241866748,853.60308331891,1006.29933356561,749.885239334581,1032.95409169886,496.282156015671,826.654758133252,346.39691668109,593.700666434388,450.114760665419,567.045908301137,703.717843984329,5,6,0,4,6,3,horizontal,vertical,horizontal,vertical,vertical,horizontal
1b,13,100200,3,24,152,21,F,NA,constant,heterogeneous,4,absent,1.11086010932922,1,horizontal,horizontal,1,0.74117546081543,red,1,NaN,742.637481142314,848.464366520235,NaN,NaN,742.637481142314,848.464366520235,1048.46436652023,657.362518857686,857.362518857686,351.535633479765,551.535633479765,542.637481142314,0,0,0,0,4,5,0,3,NaN,NaN,horizontal,horizontal,vertical,horizontal,none,none
1b,13,100200,3,25,153,21,F,NA,constant,heterogeneous,3,present,0.59874701499939,1,horizontal,horizontal,1,0.682352352142334,red,3,2,545.621167183745,617.787900804752,911.784642431215,370.807518193712,942.594190385041,811.404581001536,911.784642431215,370.807518193712,545.621167183745,617.787900804752,0,0,0,0,0,0,0,5,4,NaN,NaN,NaN,vertical,vertical,horizontal,none,none,none
1b,13,100200,3,26,154,21,F,NA,constant,heterogeneous,3,absent,1.12161302566528,1,vertical,vertical,1,0.729410839080811,red,3,NaN,591.116228706307,453.738008730483,NaN,NaN,777.775285599347,854.029648013395,1031.10848569435,492.232343256122,591.116228706307,453.738008730483,0,0,0,0,0,0,3,6,4,NaN,NaN,NaN,horizontal,horizontal,vertical,none,none,none
1b,13,100200,3,27,155,21,F,NA,constant,heterogeneous,4,present,1.04120016098022,1,horizontal,horizontal,1,0.847057056427002,red,4,3,568.891514305654,707.767656743878,692.232343256122,368.891514305654,907.767656743878,831.108485694346,1031.10848569435,492.232343256122,692.232343256122,368.891514305654,568.891514305654,707.767656743878,0,0,0,0,0,3,5,4,NaN,NaN,vertical,horizontal,horizontal,horizontal,none,none
1b,13,100200,3,28,156,21,F,NA,constant,heterogeneous,5,present,1.2404248714447,1,vertical,vertical,1,0.705881595611572,red,1,4,931.334709102064,818.577661679039,565.271262369628,500.363562235235,931.334709102064,818.577661679039,1048.46436652023,542.637481142314,822.224714400653,345.970351986605,565.271262369628,500.363562235235,632.704947607421,792.450942956807,0,0,4,6,0,3,5,NaN,vertical,vertical,horizontal,horizontal,horizontal,none
1b,13,100200,3,29,157,21,F,NA,constant,heterogeneous,3,absent,1.23555111885071,1,horizontal,horizontal,1,0.917644786834717,red,3,NaN,782.212099195248,345.621167183745,NaN,NaN,588.595418998464,742.594190385041,1029.19248180629,711.784642431215,782.212099195248,345.621167183745,0,0,0,0,0,0,3,5,4,NaN,NaN,NaN,horizontal,vertical,horizontal,none,none,none
1b,13,100200,3,30,158,21,F,NA,constant,heterogeneous,5,absent,1.00504302978516,1,vertical,vertical,1,1.02352638244629,red,5,NaN,549.685068220846,551.343706178981,NaN,NaN,676.373546837184,823.028025320546,973.909581815937,786.495193912888,1031.10848569435,492.232343256122,768.923317431687,346.900731331463,549.685068220846,551.343706178981,0,0,0,5,6,3,4,NaN,horizontal,horizontal,horizontal,vertical,vertical,none
1b,13,100200,3,31,159,21,F,NA,constant,heterogeneous,6,absent,1.95895504951477,0,vertical,horizontal,1,1.08234949111938,red,3,NaN,1045.12173246427,529.712474266665,NaN,NaN,738.309916622085,847.425410200379,983.431649086356,777.137884467044,1045.12173246427,529.712474266665,861.690083377915,352.574589799621,616.568350913644,422.862115532956,554.878267535729,670.287525733335,6,3,4,6,0,5,vertical,vertical,vertical,horizontal,horizontal,horizontal
1b,13,100200,3,32,160,21,F,NA,constant,heterogeneous,4,absent,1.53048706054688,1,horizontal,horizontal,1,0.823527812957764,red,3,NaN,629.371695378491,410.498069503264,NaN,NaN,970.628304621509,789.501930496736,989.501930496736,429.371695378491,629.371695378491,410.498069503264,610.498069503264,770.628304621509,0,0,0,0,6,5,4,3,NaN,NaN,vertical,vertical,horizontal,vertical,none,none
1b,13,100200,3,33,161,21,F,NA,constant,heterogeneous,6,present,0.995322942733765,1,vertical,vertical,1,0.682352352142334,red,1,6,777.775285599347,854.029648013395,568.891514305654,707.767656743878,777.775285599347,854.029648013395,1008.88377129369,746.261991269517,1031.10848569435,492.232343256122,822.224714400653,345.970351986605,591.116228706307,453.738008730483,568.891514305654,707.767656743878,4,3,6,3,0,6,vertical,horizontal,horizontal,vertical,vertical,vertical
1b,13,100200,3,34,162,21,F,NA,constant,heterogeneous,3,present,1.12437701225281,1,vertical,vertical,1,0.670587730407715,red,2,3,986.495193912888,426.090418184063,556.142287229426,525.445215295702,857.362518857686,848.464366520235,986.495193912888,426.090418184063,556.142287229426,525.445215295702,0,0,0,0,0,0,5,4,3,NaN,NaN,NaN,horizontal,vertical,vertical,none,none,none
1b,13,100200,3,35,163,21,F,NA,constant,heterogeneous,6,absent,1.81136918067932,0,horizontal,vertical,1,0.6,red,6,NaN,601.827779828472,760.476699717708,NaN,NaN,839.890788585259,851.86052685176,1038.06300875679,691.383827134052,998.172220171528,439.523300282291,760.109211414741,348.13947314824,561.936991243214,508.616172865948,601.827779828472,760.476699717708,0,5,3,5,6,4,horizontal,vertical,vertical,vertical,vertical,horizontal
1b,13,100200,3,36,164,21,F,NA,constant,heterogeneous,6,absent,1.70978617668152,1,vertical,vertical,1,0.694116973876953,red,5,NaN,554.878267535729,529.712474266665,NaN,NaN,861.690083377915,847.425410200379,1045.12173246427,670.287525733335,983.431649086356,422.862115532956,738.309916622085,352.574589799621,554.878267535729,529.712474266665,616.568350913644,777.137884467044,6,3,6,5,4,3,horizontal,vertical,vertical,horizontal,vertical,vertical
1b,13,100200,3,37,165,21,F,NA,constant,heterogeneous,3,present,0.674987077713013,1,vertical,vertical,1,0.74117546081543,red,3,2,653.738008730483,391.116228706307,1054.0296480134,577.775285599347,692.232343256122,831.108485694346,1054.0296480134,577.775285599347,653.738008730483,391.116228706307,0,0,0,0,0,0,3,3,4,NaN,NaN,NaN,horizontal,vertical,vertical,none,none,none
1b,13,100200,3,38,166,21,F,NA,constant,heterogeneous,4,present,1.22746396064758,1,vertical,vertical,1,0.941174030303955,red,2,1,1054.37883281626,617.787900804752,782.212099195248,854.378832816255,782.212099195248,854.378832816255,1054.37883281626,617.787900804752,817.787900804752,345.621167183745,545.621167183745,582.212099195248,0,0,0,0,5,4,5,6,NaN,NaN,horizontal,vertical,horizontal,horizontal,none,none
1b,13,100200,3,39,167,21,F,NA,constant,heterogeneous,5,present,1.0482280254364,1,vertical,vertical,1,0.6,red,2,3,1018.57766167904,731.334709102064,992.450942956807,432.704947607421,742.637481142314,848.464366520235,1018.57766167904,731.334709102064,992.450942956807,432.704947607421,700.363562235235,365.271262369628,545.970351986605,622.224714400653,0,0,3,4,5,6,6,NaN,horizontal,vertical,horizontal,vertical,horizontal,none
1b,13,100200,3,40,168,21,F,NA,constant,heterogeneous,5,present,0.583055973052979,1,vertical,vertical,1,0.894115543365478,red,4,5,672.5,379.163522034968,550.57236181288,653.017481158529,773.345241866748,853.60308331891,1032.95409169886,703.717843984329,970.628304621509,410.498069503264,672.5,379.163522034968,550.57236181288,653.017481158529,0,0,3,5,3,4,5,NaN,vertical,vertical,vertical,vertical,vertical,none
1b,13,100200,3,41,169,21,F,NA,constant,heterogeneous,5,absent,0.582824945449829,1,vertical,vertical,1,0.788233947753906,red,4,NaN,561.936991243214,508.616172865948,NaN,NaN,938.882953928832,813.860994826083,1046.31108570371,534.001143498857,813.345668841951,345.349468637584,561.936991243214,508.616172865948,639.523300282292,798.172220171528,0,0,5,3,5,4,6,NaN,vertical,vertical,horizontal,vertical,vertical,none
1b,13,100200,3,42,170,21,F,NA,constant,heterogeneous,6,present,1.26334500312805,1,horizontal,horizontal,1,0.835292434692383,red,6,1,579.163522034968,727.5,800,855,800,855,1020.83647796503,727.5,1020.83647796503,472.5,800,345,579.163522034968,472.5,579.163522034968,727.5,3,3,6,5,0,4,vertical,vertical,horizontal,vertical,horizontal,horizontal
1b,13,100200,3,43,171,21,F,NA,constant,heterogeneous,3,absent,0.926914930343628,1,vertical,vertical,1,0.705881595611572,red,1,NaN,636.089159529932,795.341332995339,NaN,NaN,636.089159529932,795.341332995339,1051.12597701811,644.280285305067,712.784863451954,360.378381699593,0,0,0,0,0,0,4,5,0,NaN,NaN,NaN,vertical,vertical,vertical,none,none,none
1b,13,100200,3,44,172,21,F,NA,constant,heterogeneous,6,present,0.978171110153198,1,vertical,vertical,1,0.635293865203857,red,1,2,676.373546837184,823.028025320546,931.334709102064,818.577661679039,676.373546837184,823.028025320546,931.334709102064,818.577661679039,1054.96116226488,595.549636358493,923.626453162816,376.971974679454,668.665290897936,381.422338320961,545.03883773512,604.450363641507,4,3,6,6,3,5,vertical,horizontal,vertical,vertical,vertical,horizontal
1b,13,100200,3,45,173,21,F,NA,constant,heterogeneous,3,absent,1.22683882713318,1,vertical,vertical,1,0.835292434692383,red,2,NaN,1049.42763818712,546.982518841471,NaN,NaN,721.200666434388,842.519411655264,1049.42763818712,546.982518841471,629.371695378491,410.498069503264,0,0,0,0,0,0,0,4,3,NaN,NaN,NaN,vertical,vertical,horizontal,none,none,none
1b,13,100200,3,46,174,21,F,NA,constant,heterogeneous,6,present,0.691157817840576,1,vertical,vertical,1,0.788233947753906,red,5,2,672.5,379.163522034968,927.5,820.836477965032,672.5,820.836477965032,927.5,820.836477965032,1055,600,927.5,379.163522034968,672.5,379.163522034968,545,600,0,6,3,6,4,0,horizontal,vertical,horizontal,horizontal,vertical,horizontal
1b,13,100200,3,47,175,21,F,NA,constant,heterogeneous,6,absent,1.31619715690613,1,horizontal,horizontal,1,0.952938652038574,red,2,NaN,1042.51941165526,678.799333565612,NaN,NaN,853.017481158529,849.42763818712,1042.51941165526,678.799333565612,989.501930496736,429.371695378491,746.982518841471,350.57236181288,557.480588344736,521.200666434388,610.498069503264,770.628304621509,5,4,3,3,0,0,vertical,horizontal,horizontal,horizontal,horizontal,vertical
1b,13,100200,3,48,176,21,F,NA,constant,heterogeneous,5,absent,1.05877113342285,1,horizontal,horizontal,1,0.999997138977051,red,5,NaN,558.892763222174,683.019879386575,NaN,NaN,804.450363641507,854.96116226488,1043.85771277057,674.554784704298,946.261991269517,391.116228706307,646.537169096228,396.34794493794,558.892763222174,683.019879386575,0,0,6,5,0,5,4,NaN,horizontal,vertical,horizontal,vertical,horizontal,none
1b,13,100200,3,49,177,21,F,NA,constant,heterogeneous,3,present,0.843433141708374,1,vertical,vertical,1,0.752940082550049,red,3,2,646.537169096228,396.34794493794,1053.09926866854,568.923317431687,700.363562235235,834.728737630372,1053.09926866854,568.923317431687,646.537169096228,396.34794493794,0,0,0,0,0,0,5,3,4,NaN,NaN,NaN,vertical,horizontal,vertical,none,none,none
1b,13,100200,3,50,178,21,F,NA,constant,heterogeneous,5,present,1.35681509971619,1,horizontal,horizontal,1,0.623529243469238,red,1,5,782.212099195248,854.378832816255,552.574589799621,661.690083377915,782.212099195248,854.378832816255,1036.43188291453,695.524681321058,963.910840470068,404.658667004661,664.870587620533,383.747735480111,552.574589799621,661.690083377915,0,0,4,6,0,5,3,NaN,horizontal,horizontal,vertical,horizontal,horizontal,none
1b,13,100200,3,51,179,21,F,NA,constant,heterogeneous,5,present,1.90695905685425,1,horizontal,horizontal,1,0.74117546081543,red,4,2,751.343706178981,349.685068220846,986.495193912888,773.909581815937,692.232343256122,831.108485694346,986.495193912888,773.909581815937,1023.02802532055,476.373546837184,751.343706178981,349.685068220846,546.900731331463,568.923317431687,0,0,6,5,3,4,6,NaN,vertical,horizontal,horizontal,horizontal,vertical,none
1b,13,100200,3,52,180,21,F,NA,constant,heterogeneous,3,present,1.04907894134521,1,horizontal,horizontal,1,0.988232517242432,red,2,1,1054.0296480134,622.224714400653,653.738008730483,808.883771293693,653.738008730483,808.883771293693,1054.0296480134,622.224714400653,692.232343256122,368.891514305654,0,0,0,0,0,0,6,4,3,NaN,NaN,NaN,vertical,horizontal,horizontal,none,none,none
1b,13,100200,3,53,181,21,F,NA,constant,heterogeneous,6,present,1.44317388534546,1,vertical,vertical,1,1.05882024765015,red,2,1,1013.86099482608,738.882953928832,786.654331158049,854.650531362416,786.654331158049,854.650531362416,1013.86099482608,738.882953928832,1027.20666366803,484.232422566416,813.345668841951,345.349468637584,586.139005173917,461.117046071168,572.793336331966,715.767577433584,5,4,3,0,5,3,horizontal,vertical,horizontal,horizontal,vertical,vertical
1b,13,100200,3,54,182,21,F,NA,constant,heterogeneous,3,absent,1.30097198486328,1,horizontal,horizontal,1,0.823527812957764,red,2,NaN,1050.31493177915,551.343706178981,NaN,NaN,716.980120613425,841.107236777826,1050.31493177915,551.343706178981,632.704947607421,407.549057043193,0,0,0,0,0,0,5,4,6,NaN,NaN,NaN,vertical,horizontal,vertical,none,none,none
1b,13,100200,3,55,183,21,F,NA,constant,heterogeneous,4,present,1.05537796020508,1,vertical,vertical,1,0.611764621734619,red,2,4,980.31222920257,419.68777079743,619.68777079743,780.31222920257,980.31222920257,780.31222920257,980.31222920257,419.68777079743,619.68777079743,419.68777079743,619.68777079743,780.31222920257,0,0,0,0,0,4,3,6,NaN,NaN,horizontal,vertical,horizontal,vertical,none,none
1b,13,100200,3,56,184,21,F,NA,constant,heterogeneous,5,present,1.30504083633423,1,horizontal,horizontal,1,0.635293865203857,red,4,1,613.504806087112,426.090418184063,848.656293821019,850.314931779154,848.656293821019,850.314931779154,1053.09926866854,631.076682568313,907.767656743878,368.891514305654,613.504806087112,426.090418184063,576.971974679454,723.626453162816,0,0,3,5,5,4,0,NaN,horizontal,vertical,vertical,horizontal,vertical,none
1b,13,100200,3,57,185,21,F,NA,constant,heterogeneous,3,present,1.18991613388062,1,vertical,vertical,1,0.717646217346191,red,3,1,591.116228706307,453.738008730483,777.775285599347,854.029648013395,777.775285599347,854.029648013395,1031.10848569435,492.232343256122,591.116228706307,453.738008730483,0,0,0,0,0,0,3,6,4,NaN,NaN,NaN,vertical,vertical,vertical,none,none,none
1b,13,100200,3,58,186,21,F,NA,constant,heterogeneous,6,present,NaN,0,horizontal,none,0,0.905880165100098,red,2,1,1054.96116226488,604.450363641507,923.626453162816,823.028025320546,923.626453162816,823.028025320546,1054.96116226488,604.450363641507,931.334709102064,381.422338320961,676.373546837184,376.971974679454,545.03883773512,595.549636358493,668.665290897936,818.577661679039,3,4,5,0,6,0,horizontal,horizontal,horizontal,horizontal,horizontal,vertical
1b,13,100200,3,59,187,21,F,NA,constant,heterogeneous,3,present,0.827291965484619,1,horizontal,horizontal,1,0.941174030303955,red,2,1,1052.5183575291,635.489140744817,643.006323791957,800.942742169714,643.006323791957,800.942742169714,1052.5183575291,635.489140744817,704.475318678942,363.568117085469,0,0,0,0,0,0,3,4,6,NaN,NaN,NaN,horizontal,horizontal,horizontal,none,none,none
1b,13,100200,3,60,188,21,F,NA,constant,heterogeneous,4,absent,0.557589054107666,1,horizontal,horizontal,1,1.08234949111938,red,4,NaN,545.970351986605,577.775285599347,NaN,NaN,777.775285599347,854.029648013395,1054.0296480134,622.224714400653,822.224714400653,345.970351986605,545.970351986605,577.775285599347,0,0,0,0,3,3,5,4,NaN,NaN,vertical,vertical,horizontal,horizontal,none,none
1b,13,100200,3,61,189,21,F,NA,constant,heterogeneous,6,absent,1.6357638835907,1,horizontal,horizontal,1,0.941174030303955,red,2,NaN,1053.09926866854,631.076682568313,NaN,NaN,899.636437764765,834.728737630372,1053.09926866854,631.076682568313,953.462830903772,396.34794493794,700.363562235235,365.271262369628,546.900731331463,568.923317431687,646.537169096228,803.65205506206,5,4,5,0,3,3,vertical,horizontal,vertical,horizontal,vertical,vertical
1b,13,100200,3,62,190,21,F,NA,constant,heterogeneous,5,absent,1.23723292350769,1,horizontal,horizontal,1,1.02352638244629,red,5,NaN,576.971974679454,723.626453162816,NaN,NaN,848.656293821019,850.314931779154,1053.09926866854,631.076682568313,907.767656743878,368.891514305654,613.504806087112,426.090418184063,576.971974679454,723.626453162816,0,0,6,6,5,5,4,NaN,horizontal,horizontal,horizontal,horizontal,horizontal,none
1b,13,100200,3,63,191,21,F,NA,constant,heterogeneous,4,absent,0.580313920974731,1,horizontal,horizontal,1,0.905880165100098,red,4,NaN,574.848363820974,480.284751489598,NaN,NaN,680.284751489598,825.151636179026,1025.15163617903,719.715248510402,919.715248510402,374.848363820974,574.848363820974,480.284751489598,0,0,0,0,6,0,6,4,NaN,NaN,horizontal,vertical,horizontal,horizontal,none,none
1b,13,100200,3,64,192,21,F,NA,constant,heterogeneous,4,absent,0.724284887313843,1,vertical,vertical,1,1.01176176071167,red,3,NaN,887.215136548046,360.378381699593,NaN,NaN,712.784863451954,839.621618300407,1039.62161830041,687.215136548046,887.215136548046,360.378381699593,560.378381699593,512.784863451954,0,0,0,0,0,5,4,6,NaN,NaN,vertical,vertical,vertical,vertical,none,none
1b,13,100200,4,1,193,21,F,NA,constant,heterogeneous,4,absent,0.980350971221924,1,vertical,vertical,1,0.847057056427002,red,2,NaN,989.501930496736,429.371695378491,NaN,NaN,970.628304621509,789.501930496736,989.501930496736,429.371695378491,629.371695378491,410.498069503264,610.498069503264,770.628304621509,0,0,0,0,6,4,5,0,NaN,NaN,vertical,vertical,vertical,horizontal,none,none
1b,13,100200,4,2,194,21,F,NA,constant,heterogeneous,4,absent,0.939171075820923,1,vertical,vertical,1,0.74117546081543,red,3,NaN,907.767656743878,368.891514305654,NaN,NaN,692.232343256122,831.108485694346,1031.10848569435,707.767656743878,907.767656743878,368.891514305654,568.891514305654,492.232343256122,0,0,0,0,6,3,4,5,NaN,NaN,horizontal,vertical,vertical,horizontal,none,none
1b,13,100200,4,3,195,21,F,NA,constant,heterogeneous,4,absent,1.3194260597229,1,horizontal,horizontal,1,0.670587730407715,red,1,NaN,980.31222920257,780.31222920257,NaN,NaN,980.31222920257,780.31222920257,980.31222920257,419.68777079743,619.68777079743,419.68777079743,619.68777079743,780.31222920257,0,0,0,0,4,0,5,5,NaN,NaN,horizontal,horizontal,vertical,vertical,none,none
1b,13,100200,4,4,196,21,F,NA,constant,heterogeneous,6,absent,1.79031991958618,1,horizontal,horizontal,1,1.02352638244629,red,6,NaN,572.793336331966,715.767577433584,NaN,NaN,786.654331158049,854.650531362416,1013.86099482608,738.882953928832,1027.20666366803,484.232422566416,813.345668841951,345.349468637584,586.139005173917,461.117046071168,572.793336331966,715.767577433584,0,0,3,6,6,4,horizontal,vertical,horizontal,horizontal,vertical,horizontal
1b,13,100200,4,5,197,21,F,NA,constant,heterogeneous,6,present,1.02726697921753,1,vertical,vertical,1,1.03529100418091,red,6,3,657.405809614959,811.404581001536,942.594190385041,388.595418998464,911.784642431215,829.192481806288,1054.37883281626,617.787900804752,942.594190385041,388.595418998464,688.215357568785,370.807518193712,545.621167183745,582.212099195248,657.405809614959,811.404581001536,5,6,6,3,5,4,vertical,vertical,horizontal,vertical,horizontal,vertical
1b,13,100200,4,6,198,21,F,NA,constant,heterogeneous,3,present,0.664050102233887,1,vertical,vertical,1,0.799998569488525,red,3,2,551.535633479765,657.362518857686,874.554784704298,356.142287229426,973.909581815937,786.495193912888,874.554784704298,356.142287229426,551.535633479765,657.362518857686,0,0,0,0,0,0,3,0,4,NaN,NaN,NaN,vertical,horizontal,vertical,none,none,none
1b,13,100200,4,7,199,21,F,NA,constant,heterogeneous,5,present,1.28421998023987,1,horizontal,horizontal,1,0.74117546081543,red,2,3,1043.85771277057,674.554784704298,946.261991269517,391.116228706307,804.450363641507,854.96116226488,1043.85771277057,674.554784704298,946.261991269517,391.116228706307,646.537169096228,396.34794493794,558.892763222174,683.019879386575,0,0,6,4,3,0,6,NaN,vertical,horizontal,horizontal,horizontal,horizontal,none
1b,13,100200,4,8,200,21,F,NA,constant,heterogeneous,3,absent,1.08663296699524,1,horizontal,horizontal,1,0.623529243469238,red,1,NaN,835.489140744817,852.518357529101,NaN,NaN,835.489140744817,852.518357529101,1000.94274216971,443.006323791957,563.568117085469,504.475318678942,0,0,0,0,0,0,4,3,6,NaN,NaN,NaN,horizontal,vertical,horizontal,none,none,none
1b,13,100200,4,9,201,21,F,NA,constant,heterogeneous,5,absent,0.787904977798462,1,horizontal,horizontal,1,0.764704704284668,red,4,NaN,558.892763222174,516.980120613425,NaN,NaN,946.261991269517,808.883771293693,1043.85771277057,525.445215295702,804.450363641507,345.03883773512,558.892763222174,516.980120613425,646.537169096228,803.65205506206,0,0,5,6,6,4,0,NaN,vertical,vertical,vertical,horizontal,horizontal,none
1b,13,100200,4,10,202,21,F,NA,constant,heterogeneous,5,present,1.15909504890442,1,horizontal,horizontal,1,0.964703273773193,red,2,5,1042.51941165526,678.799333565612,557.480588344736,678.799333565612,800,855,1042.51941165526,678.799333565612,949.885239334581,393.700666434388,650.114760665419,393.700666434388,557.480588344736,678.799333565612,0,0,0,4,5,3,5,NaN,vertical,horizontal,horizontal,vertical,vertical,none
1b,13,100200,4,11,203,21,F,NA,constant,heterogeneous,4,present,1.38230180740356,1,vertical,vertical,1,0.988232517242432,red,3,4,960.476699717708,401.827779828472,601.827779828472,439.523300282291,639.523300282292,798.172220171528,998.172220171528,760.476699717708,960.476699717708,401.827779828472,601.827779828472,439.523300282291,0,0,0,0,3,6,4,5,NaN,NaN,vertical,vertical,vertical,vertical,none,none
1b,13,100200,4,12,204,21,F,NA,constant,heterogeneous,4,present,0.609628915786743,1,vertical,vertical,1,0.976467895507813,red,2,4,1036.43188291453,504.475318678942,563.568117085469,695.524681321058,895.524681321058,836.431882914531,1036.43188291453,504.475318678942,704.475318678942,363.568117085469,563.568117085469,695.524681321058,0,0,0,0,0,4,5,3,NaN,NaN,horizontal,vertical,vertical,horizontal,none,none
1b,13,100200,4,13,205,21,F,NA,constant,heterogeneous,6,absent,1.34047985076904,1,vertical,vertical,1,0.929409408569336,red,2,NaN,1034.72873763037,699.636437764765,NaN,NaN,831.076682568313,853.099268668537,1034.72873763037,699.636437764765,1003.65205506206,446.537169096228,768.923317431687,346.900731331463,565.271262369628,500.363562235235,596.34794493794,753.462830903772,0,4,0,3,5,3,horizontal,vertical,horizontal,vertical,vertical,horizontal
1b,13,100200,4,14,206,21,F,NA,constant,heterogeneous,5,absent,0.984798908233643,1,horizontal,horizontal,1,0.658823108673096,red,2,NaN,1046.31108570371,665.998856501143,NaN,NaN,813.345668841951,854.650531362416,1046.31108570371,665.998856501143,938.882953928832,386.139005173917,639.523300282292,401.827779828472,561.936991243214,691.383827134052,0,0,0,4,6,6,3,NaN,vertical,horizontal,vertical,horizontal,vertical,none
1b,13,100200,4,15,207,21,F,NA,constant,heterogeneous,4,present,0.849638938903809,1,vertical,vertical,1,0.858821678161621,red,4,1,601.827779828472,439.523300282291,639.523300282292,798.172220171528,639.523300282292,798.172220171528,998.172220171528,760.476699717708,960.476699717708,401.827779828472,601.827779828472,439.523300282291,0,0,0,0,3,0,0,4,NaN,NaN,vertical,vertical,vertical,vertical,none,none
1b,13,100200,4,16,208,21,F,NA,constant,heterogeneous,6,present,0.557533979415894,1,vertical,vertical,1,0.929409408569336,red,5,3,619.68777079743,419.68777079743,1046.31108570371,534.001143498857,734.001143498857,846.311085703712,980.31222920257,780.31222920257,1046.31108570371,534.001143498857,865.998856501143,353.688914296288,619.68777079743,419.68777079743,553.688914296288,665.998856501143,6,0,6,0,4,5,horizontal,horizontal,vertical,vertical,vertical,horizontal
1b,13,100200,4,17,209,21,F,NA,constant,heterogeneous,4,absent,0.900676965713501,1,horizontal,horizontal,1,1.01176176071167,red,2,NaN,980.31222920257,780.31222920257,NaN,NaN,619.68777079743,780.31222920257,980.31222920257,780.31222920257,980.31222920257,419.68777079743,619.68777079743,419.68777079743,0,0,0,0,0,4,6,3,NaN,NaN,vertical,horizontal,horizontal,horizontal,none,none
1b,13,100200,4,18,210,21,F,NA,constant,heterogeneous,3,absent,1.00977897644043,1,vertical,vertical,1,0.729410839080811,red,2,NaN,1027.20666366803,715.767577433584,NaN,NaN,586.139005173917,738.882953928832,1027.20666366803,715.767577433584,786.654331158049,345.349468637584,0,0,0,0,0,0,6,4,3,NaN,NaN,NaN,horizontal,vertical,horizontal,none,none,none
1b,13,100200,4,19,211,21,F,NA,constant,heterogeneous,5,absent,1.53360390663147,1,horizontal,horizontal,1,0.776469326019287,red,5,NaN,629.371695378491,789.501930496736,NaN,NaN,927.5,820.836477965032,1049.42763818712,546.982518841471,826.654758133252,346.39691668109,567.045908301137,496.282156015671,629.371695378491,789.501930496736,0,0,3,5,6,0,4,NaN,vertical,vertical,vertical,vertical,horizontal,none
1b,13,100200,4,20,212,21,F,NA,constant,heterogeneous,3,absent,0.905795097351074,1,vertical,vertical,1,0.87058629989624,red,1,NaN,963.910840470068,795.341332995339,NaN,NaN,963.910840470068,795.341332995339,887.215136548046,360.378381699593,548.874022981887,644.280285305067,0,0,0,0,0,0,4,5,5,NaN,NaN,NaN,vertical,horizontal,horizontal,none,none,none
1b,13,100200,4,21,213,21,F,NA,constant,heterogeneous,6,present,1.056960105896,1,horizontal,horizontal,1,0.835292434692383,red,2,3,1006.29933356561,749.885239334581,1032.95409169886,496.282156015671,773.345241866748,853.60308331891,1006.29933356561,749.885239334581,1032.95409169886,496.282156015671,826.654758133252,346.39691668109,593.700666434388,450.114760665419,567.045908301137,703.717843984329,5,4,0,3,3,6,vertical,horizontal,horizontal,horizontal,horizontal,vertical
1b,13,100200,4,22,214,21,F,NA,constant,heterogeneous,6,present,1.06024098396301,1,vertical,vertical,1,0.905880165100098,red,6,1,545,600,672.5,820.836477965032,672.5,820.836477965032,927.5,820.836477965032,1055,600,927.5,379.163522034968,672.5,379.163522034968,545,600,0,3,3,0,6,4,vertical,horizontal,horizontal,horizontal,horizontal,vertical
1b,13,100200,4,23,215,21,F,NA,constant,heterogeneous,6,present,1.63204407691956,1,horizontal,horizontal,1,0.717646217346191,red,3,1,1054.96116226488,595.549636358493,676.373546837184,823.028025320546,676.373546837184,823.028025320546,931.334709102064,818.577661679039,1054.96116226488,595.549636358493,923.626453162816,376.971974679454,668.665290897936,381.422338320961,545.03883773512,604.450363641507,0,3,4,3,6,5,vertical,vertical,horizontal,vertical,horizontal,vertical
1b,13,100200,4,24,216,21,F,NA,constant,heterogeneous,3,present,0.875414848327637,1,horizontal,horizontal,1,0.729410839080811,red,3,1,581.422338320961,468.665290897936,795.549636358493,854.96116226488,795.549636358493,854.96116226488,1023.02802532055,476.373546837184,581.422338320961,468.665290897936,0,0,0,0,0,0,3,0,4,NaN,NaN,NaN,vertical,horizontal,horizontal,none,none,none
1b,13,100200,4,25,217,21,F,NA,constant,heterogeneous,5,absent,1.79536485671997,1,vertical,vertical,1,0.917644786834717,red,1,NaN,822.224714400653,854.029648013395,NaN,NaN,822.224714400653,854.029648013395,1048.46436652023,657.362518857686,931.334709102064,381.422338320961,632.704947607421,407.549057043193,565.271262369628,699.636437764765,0,0,4,6,5,3,6,NaN,vertical,horizontal,vertical,vertical,horizontal,none
1b,13,100200,4,26,218,21,F,NA,constant,heterogeneous,6,absent,1.75983309745789,1,horizontal,horizontal,1,0.611764621734619,red,3,NaN,1053.09926866854,568.923317431687,NaN,NaN,700.363562235235,834.728737630372,953.462830903772,803.65205506206,1053.09926866854,568.923317431687,899.636437764765,365.271262369628,646.537169096228,396.34794493794,546.900731331463,631.076682568313,5,3,4,6,0,0,horizontal,horizontal,horizontal,vertical,vertical,vertical
1b,13,100200,4,27,219,21,F,NA,constant,heterogeneous,5,present,1.35096907615662,1,vertical,vertical,1,0.988232517242432,red,4,1,760.109211414741,348.13947314824,684.232422566416,827.206663668034,684.232422566416,827.206663668034,980.31222920257,780.31222920257,1027.20666366803,484.232422566416,760.109211414741,348.13947314824,548.13947314824,560.109211414741,0,0,0,5,6,4,5,NaN,vertical,horizontal,horizontal,vertical,horizontal,none
1b,13,100200,4,28,220,21,F,NA,constant,heterogeneous,6,present,1.17207384109497,1,vertical,vertical,1,0.705881595611572,red,6,1,636.089159529932,795.341332995339,887.215136548046,839.621618300407,887.215136548046,839.621618300407,1051.12597701811,644.280285305067,963.910840470068,404.658667004661,712.784863451954,360.378381699593,548.874022981887,555.719714694933,636.089159529932,795.341332995339,6,0,5,6,0,4,vertical,vertical,vertical,vertical,vertical,vertical
1b,13,100200,4,29,221,21,F,NA,constant,heterogeneous,4,absent,0.806895971298218,1,vertical,vertical,1,0.964703273773193,red,2,NaN,1029.19248180629,711.784642431215,NaN,NaN,688.215357568785,829.192481806288,1029.19248180629,711.784642431215,911.784642431215,370.807518193712,570.807518193712,488.215357568785,0,0,0,0,0,4,3,5,NaN,NaN,vertical,vertical,vertical,vertical,none,none
1b,13,100200,4,30,222,21,F,NA,constant,heterogeneous,6,present,0.960332155227661,1,horizontal,horizontal,1,1.05882024765015,red,4,2,760.109211414741,348.13947314824,1038.06300875679,691.383827134052,839.890788585259,851.86052685176,1038.06300875679,691.383827134052,998.172220171528,439.523300282291,760.109211414741,348.13947314824,561.936991243214,508.616172865948,601.827779828472,760.476699717708,6,3,5,4,3,0,vertical,vertical,horizontal,horizontal,horizontal,vertical
1b,13,100200,4,31,223,21,F,NA,constant,heterogeneous,4,present,0.777377128601074,1,horizontal,horizontal,1,0.882350921630859,red,4,3,554.878267535729,529.712474266665,870.287525733335,354.878267535729,729.712474266665,845.121732464271,1045.12173246427,670.287525733335,870.287525733335,354.878267535729,554.878267535729,529.712474266665,0,0,0,0,5,0,3,4,NaN,NaN,vertical,vertical,vertical,horizontal,none,none
1b,13,100200,4,32,224,21,F,NA,constant,heterogeneous,3,present,0.891152143478394,1,horizontal,horizontal,1,0.905880165100098,red,2,3,949.885239334581,393.700666434388,546.39691668109,573.345241866748,903.717843984329,832.954091698863,949.885239334581,393.700666434388,546.39691668109,573.345241866748,0,0,0,0,0,0,3,4,3,NaN,NaN,NaN,vertical,horizontal,horizontal,none,none,none
1b,13,100200,4,33,225,21,F,NA,constant,heterogeneous,4,absent,1.63946008682251,1,vertical,vertical,1,0.717646217346191,red,3,NaN,696.282156015671,367.045908301137,NaN,NaN,903.717843984329,832.954091698863,1032.95409169886,496.282156015671,696.282156015671,367.045908301137,567.045908301137,703.717843984329,0,0,0,0,3,3,4,5,NaN,NaN,horizontal,horizontal,vertical,vertical,none,none
1b,13,100200,4,34,226,21,F,NA,constant,heterogeneous,3,absent,0.619925022125244,1,vertical,vertical,1,0.964703273773193,red,3,NaN,545.349468637584,586.654331158049,NaN,NaN,915.767577433584,827.206663668034,938.882953928832,386.139005173917,545.349468637584,586.654331158049,0,0,0,0,0,0,5,0,4,NaN,NaN,NaN,horizontal,horizontal,vertical,none,none,none
1b,13,100200,4,35,227,21,F,NA,constant,heterogeneous,5,absent,1.19365000724792,1,horizontal,horizontal,1,0.882350921630859,red,1,NaN,839.890788585259,851.86052685176,NaN,NaN,839.890788585259,851.86052685176,1051.86052685176,639.890788585259,915.767577433584,372.793336331966,619.68777079743,419.68777079743,572.793336331966,715.767577433584,0,0,4,6,5,3,6,NaN,horizontal,horizontal,vertical,vertical,vertical,none
1b,13,100200,4,36,228,21,F,NA,constant,heterogeneous,3,absent,1.29834794998169,1,horizontal,horizontal,1,0.623529243469238,red,2,NaN,1031.10848569435,492.232343256122,NaN,NaN,777.775285599347,854.029648013395,1031.10848569435,492.232343256122,591.116228706307,453.738008730483,0,0,0,0,0,0,3,4,0,NaN,NaN,NaN,vertical,horizontal,vertical,none,none,none
1b,13,100200,4,37,229,21,F,NA,constant,heterogeneous,3,present,0.825583934783936,1,vertical,vertical,1,1.04705562591553,red,2,3,986.495193912888,426.090418184063,556.142287229426,525.445215295702,857.362518857686,848.464366520235,986.495193912888,426.090418184063,556.142287229426,525.445215295702,0,0,0,0,0,0,0,4,3,NaN,NaN,NaN,vertical,vertical,vertical,none,none,none
1b,13,100200,4,38,230,21,F,NA,constant,heterogeneous,4,present,1.20866894721985,1,horizontal,horizontal,1,0.917644786834717,red,2,1,986.495193912888,773.909581815937,626.090418184063,786.495193912888,626.090418184063,786.495193912888,986.495193912888,773.909581815937,973.909581815937,413.504806087112,613.504806087112,426.090418184063,0,0,0,0,0,4,6,6,NaN,NaN,horizontal,horizontal,horizontal,horizontal,none,none
1b,13,100200,4,39,231,21,F,NA,constant,heterogeneous,4,present,1.17461895942688,1,horizontal,horizontal,1,1.094114112854,red,3,1,967.295052392579,407.549057043193,632.704947607421,792.450942956807,632.704947607421,792.450942956807,992.450942956807,767.295052392579,967.295052392579,407.549057043193,607.549057043193,432.704947607421,0,0,0,0,3,6,4,5,NaN,NaN,horizontal,vertical,horizontal,horizontal,none,none
1b,13,100200,4,40,232,21,F,NA,constant,heterogeneous,6,absent,1.27880215644836,1,vertical,vertical,1,1.02352638244629,red,6,NaN,551.535633479765,657.362518857686,NaN,NaN,725.445215295702,843.857712770574,973.909581815937,786.495193912888,1048.46436652023,542.637481142314,874.554784704298,356.142287229426,626.090418184063,413.504806087112,551.535633479765,657.362518857686,0,6,6,5,5,4,vertical,horizontal,horizontal,vertical,horizontal,vertical
1b,13,100200,4,41,233,21,F,NA,constant,heterogeneous,5,present,0.774905920028687,1,vertical,vertical,1,0.917644786834717,red,2,3,1050.31493177915,551.343706178981,831.076682568313,346.900731331463,923.626453162816,823.028025320546,1050.31493177915,551.343706178981,831.076682568313,346.900731331463,568.891514305654,492.232343256122,626.090418184063,786.495193912888,0,0,6,4,0,0,6,NaN,vertical,vertical,horizontal,horizontal,horizontal,none
1b,13,100200,4,42,234,21,F,NA,constant,heterogeneous,5,present,1.03560614585876,1,horizontal,horizontal,1,1.05882024765015,red,2,5,1032.95409169886,703.717843984329,550.57236181288,653.017481158529,773.345241866748,853.60308331891,1032.95409169886,703.717843984329,970.628304621509,410.498069503264,672.5,379.163522034968,550.57236181288,653.017481158529,0,0,5,4,0,3,6,NaN,horizontal,horizontal,vertical,vertical,vertical,none
1b,13,100200,4,43,235,21,F,NA,constant,heterogeneous,3,present,1.19563412666321,1,vertical,vertical,1,0.752940082550049,red,2,1,1025.15163617903,719.715248510402,583.747735480111,735.129412379467,583.747735480111,735.129412379467,1025.15163617903,719.715248510402,791.100628340862,345.155339110131,0,0,0,0,0,0,6,4,3,NaN,NaN,NaN,horizontal,vertical,vertical,none,none,none
1b,13,100200,4,44,236,21,F,NA,constant,heterogeneous,5,present,NaN,0,horizontal,none,0,0.905880165100098,red,2,5,1054.65053136242,613.345668841951,586.139005173917,738.882953928832,865.998856501143,846.311085703712,1054.65053136242,613.345668841951,891.383827134052,361.936991243214,601.827779828472,439.523300282291,586.139005173917,738.882953928832,0,0,3,4,3,5,0,NaN,vertical,horizontal,horizontal,horizontal,horizontal,none
1b,13,100200,4,45,237,21,F,NA,constant,heterogeneous,4,present,1.0679759979248,1,vertical,vertical,1,0.705881595611572,red,2,3,1011.40458100154,457.40580961496,657.405809614959,388.595418998464,942.594190385041,811.404581001536,1011.40458100154,457.40580961496,657.405809614959,388.595418998464,588.595418998464,742.594190385041,0,0,0,0,0,4,5,6,NaN,NaN,horizontal,vertical,horizontal,vertical,none,none
1b,13,100200,4,46,238,21,F,NA,constant,heterogeneous,3,present,1.26282787322998,1,vertical,vertical,1,0.670587730407715,red,1,3,970.628304621509,789.501930496736,550.57236181288,653.017481158529,970.628304621509,789.501930496736,878.799333565612,357.480588344736,550.57236181288,653.017481158529,0,0,0,0,0,0,4,0,5,NaN,NaN,NaN,vertical,horizontal,vertical,none,none,none
1b,13,100200,4,47,239,21,F,NA,constant,heterogeneous,3,present,0.912332057952881,1,horizontal,horizontal,1,0.799998569488525,red,1,2,696.282156015671,832.954091698863,1053.60308331891,573.345241866748,696.282156015671,832.954091698863,1053.60308331891,573.345241866748,650.114760665419,393.700666434388,0,0,0,0,0,0,4,3,3,NaN,NaN,NaN,horizontal,horizontal,vertical,none,none,none
1b,13,100200,4,48,240,21,F,NA,constant,heterogeneous,3,absent,1.32508301734924,1,horizontal,horizontal,1,0.917644786834717,red,3,NaN,610.498069503264,429.371695378491,NaN,NaN,746.982518841471,849.42763818712,1042.51941165526,521.200666434388,610.498069503264,429.371695378491,0,0,0,0,0,0,0,3,4,NaN,NaN,NaN,vertical,horizontal,horizontal,none,none,none
1b,13,100200,4,49,241,21,F,NA,constant,heterogeneous,3,absent,0.868252992630005,1,vertical,vertical,1,1.02352638244629,red,3,NaN,712.784863451954,360.378381699593,NaN,NaN,636.089159529932,795.341332995339,1051.12597701811,644.280285305067,712.784863451954,360.378381699593,0,0,0,0,0,0,0,5,4,NaN,NaN,NaN,vertical,horizontal,vertical,none,none,none
1b,13,100200,4,50,242,21,F,NA,constant,heterogeneous,6,absent,1.76857018470764,1,vertical,vertical,1,0.74117546081543,red,6,NaN,619.68777079743,780.31222920257,NaN,NaN,865.998856501143,846.311085703712,1046.31108570371,665.998856501143,980.31222920257,419.68777079743,734.001143498857,353.688914296288,553.688914296288,534.001143498857,619.68777079743,780.31222920257,6,3,0,0,5,4,horizontal,horizontal,horizontal,horizontal,vertical,vertical
1b,13,100200,4,51,243,21,F,NA,constant,heterogeneous,6,absent,0.760970830917358,1,vertical,vertical,1,0.847057056427002,red,5,NaN,545.155339110131,591.100628340862,NaN,NaN,919.715248510402,825.151636179026,1054.84466088987,608.899371659138,935.129412379467,383.747735480111,680.284751489598,374.848363820974,545.155339110131,591.100628340862,664.870587620533,816.252264519889,0,5,5,3,4,0,horizontal,horizontal,horizontal,vertical,vertical,vertical
1b,13,100200,4,52,244,21,F,NA,constant,heterogeneous,4,absent,1.33524703979492,1,horizontal,horizontal,1,0.941174030303955,red,2,NaN,1047.42541020038,661.690083377915,NaN,NaN,738.309916622085,847.425410200379,1047.42541020038,661.690083377915,861.690083377915,352.574589799621,552.574589799621,538.309916622085,0,0,0,0,0,4,6,5,NaN,NaN,horizontal,horizontal,vertical,vertical,none,none
1b,13,100200,4,53,245,21,F,NA,constant,heterogeneous,6,absent,1.20685410499573,1,horizontal,horizontal,1,1.03529100418091,red,6,NaN,554.878267535729,670.287525733335,NaN,NaN,738.309916622085,847.425410200379,983.431649086356,777.137884467044,1045.12173246427,529.712474266665,861.690083377915,352.574589799621,616.568350913644,422.862115532956,554.878267535729,670.287525733335,6,0,6,3,5,4,vertical,vertical,horizontal,vertical,horizontal,horizontal
