experiment,subject,uniqueID,block,trial,trial_cumulative,age,gender,color_cond_blocking,color_history,shape_type,set_size,distractor,rt,acc,target_orient,response_key,response_made,iti,target_color,target_item,distractor_item,target_X,target_Y,distractor_X,distractor_Y,item1_X,item1_Y,item2_X,item2_Y,item3_X,item3_Y,item4_X,item4_Y,item5_X,item5_Y,item6_X,item6_Y,item1_shape,item2_shape,item3_shape,item4_shape,item5_shape,item6_shape,item1_line,item2_line,item3_line,item4_line,item5_line,item6_line
1b,14,100199,1,1,1,20,F,NA,constant,heterogeneous,5,present,0.825358867645264,1,vertical,vertical,1,0.670587262240323,green,2,1,1047.42541020038,661.690083377915,817.787900804752,854.378832816255,817.787900804752,854.378832816255,1047.42541020038,661.690083377915,935.129412379467,383.747735480111,636.089159529932,404.658667004661,563.568117085469,695.524681321058,0,0,6,4,5,3,5,NaN,horizontal,vertical,horizontal,vertical,horizontal,none
1b,14,100199,1,2,2,20,F,NA,constant,heterogeneous,4,absent,1.13594484329224,1,horizontal,horizontal,1,0.694116349653764,green,1,NaN,915.767577433584,827.206663668034,NaN,NaN,915.767577433584,827.206663668034,1027.20666366803,484.232422566416,684.232422566416,372.793336331966,572.793336331966,715.767577433584,0,0,0,0,4,3,3,5,NaN,NaN,horizontal,vertical,horizontal,vertical,none,none
1b,14,100199,1,3,3,20,F,NA,constant,heterogeneous,6,present,1.38736319541931,1,horizontal,horizontal,1,0.623529087413441,green,5,6,596.34794493794,446.537169096228,565.271262369628,699.636437764765,768.923317431687,853.099268668537,1003.65205506206,753.462830903772,1034.72873763037,500.363562235235,831.076682568313,346.900731331463,596.34794493794,446.537169096228,565.271262369628,699.636437764765,3,3,0,6,4,0,vertical,horizontal,vertical,vertical,horizontal,vertical
1b,14,100199,1,4,4,20,F,NA,constant,heterogeneous,6,absent,0.975157976150513,1,vertical,vertical,1,0.788232699307528,green,3,NaN,1051.86052685176,560.109211414741,NaN,NaN,708.616172865948,838.063008756786,960.476699717708,798.172220171528,1051.86052685176,560.109211414741,891.383827134052,361.936991243214,639.523300282292,401.827779828472,548.13947314824,639.890788585259,3,6,4,5,0,6,horizontal,vertical,vertical,horizontal,vertical,vertical
1b,14,100199,1,5,5,20,F,NA,constant,heterogeneous,4,absent,1.14255690574646,0,vertical,horizontal,1,0.988229942321777,green,4,NaN,567.045908301137,703.717843984329,NaN,NaN,903.717843984329,832.954091698863,1032.95409169886,496.282156015671,696.282156015671,367.045908301137,567.045908301137,703.717843984329,0,0,0,0,6,3,6,4,NaN,NaN,vertical,vertical,vertical,vertical,none,none
1b,14,100199,1,6,6,20,F,NA,constant,heterogeneous,5,absent,1.21882915496826,1,vertical,vertical,1,0.658822718533603,green,1,NaN,751.343706178981,850.314931779154,NaN,NaN,751.343706178981,850.314931779154,1023.02802532055,723.626453162816,986.495193912888,426.090418184063,692.232343256122,368.891514305654,546.900731331463,631.076682568313,0,0,4,3,6,5,5,NaN,vertical,horizontal,vertical,horizontal,vertical,none
1b,14,100199,1,7,7,20,F,NA,constant,heterogeneous,5,present,1.42917203903198,1,horizontal,horizontal,1,0.694116349653764,green,2,4,1003.65205506206,753.462830903772,725.445215295702,356.142287229426,716.980120613425,841.107236777826,1003.65205506206,753.462830903772,1008.88377129369,453.738008730483,725.445215295702,356.142287229426,545.03883773512,595.549636358493,0,0,6,4,0,0,3,NaN,horizontal,horizontal,horizontal,horizontal,vertical,none
1b,14,100199,1,8,8,20,F,NA,constant,heterogeneous,3,present,1.00668287277222,1,horizontal,horizontal,1,0.635293631120162,green,3,2,712.784863451954,360.378381699593,1051.12597701811,644.280285305067,636.089159529932,795.341332995339,1051.12597701811,644.280285305067,712.784863451954,360.378381699593,0,0,0,0,0,0,6,6,4,NaN,NaN,NaN,horizontal,horizontal,horizontal,none,none,none
1b,14,100199,1,9,9,20,F,NA,constant,heterogeneous,5,absent,1.81505084037781,1,horizontal,horizontal,1,0.611764543706721,green,2,NaN,992.450942956807,767.295052392579,NaN,NaN,700.363562235235,834.728737630372,992.450942956807,767.295052392579,1018.57766167904,468.665290897936,742.637481142314,351.535633479765,545.970351986605,577.775285599347,0,0,0,4,0,5,3,NaN,horizontal,horizontal,horizontal,horizontal,horizontal,none
1b,14,100199,1,10,10,20,F,NA,constant,heterogeneous,3,present,1.27780795097351,1,vertical,vertical,1,0.905878136374734,green,3,2,616.568350913644,422.862115532956,1045.12173246427,529.712474266665,738.309916622085,847.425410200379,1045.12173246427,529.712474266665,616.568350913644,422.862115532956,0,0,0,0,0,0,5,3,4,NaN,NaN,NaN,vertical,vertical,vertical,none,none,none
1b,14,100199,1,11,11,20,F,NA,constant,heterogeneous,3,present,1.62795400619507,1,horizontal,horizontal,1,1.02352357344194,green,3,2,676.373546837184,376.971974679454,1054.96116226488,604.450363641507,668.665290897936,818.577661679039,1054.96116226488,604.450363641507,676.373546837184,376.971974679454,0,0,0,0,0,0,5,6,4,NaN,NaN,NaN,vertical,vertical,horizontal,none,none,none
1b,14,100199,1,12,12,20,F,NA,constant,heterogeneous,3,absent,1.27590394020081,1,horizontal,horizontal,1,0.764703611894087,green,3,NaN,557.480588344736,521.200666434388,NaN,NaN,853.017481158529,849.42763818712,989.501930496736,429.371695378491,557.480588344736,521.200666434388,0,0,0,0,0,0,3,3,4,NaN,NaN,NaN,horizontal,vertical,horizontal,none,none,none
1b,14,100199,1,13,13,20,F,NA,constant,heterogeneous,4,absent,0.962013006210327,1,vertical,vertical,1,0.82352633042769,green,3,NaN,696.282156015671,367.045908301137,NaN,NaN,903.717843984329,832.954091698863,1032.95409169886,496.282156015671,696.282156015671,367.045908301137,567.045908301137,703.717843984329,0,0,0,0,5,3,4,5,NaN,NaN,horizontal,horizontal,vertical,horizontal,none,none
1b,14,100199,1,14,14,20,F,NA,constant,heterogeneous,3,absent,NaN,0,horizontal,none,0,0.999994486028498,green,2,NaN,1006.29933356561,450.114760665419,NaN,NaN,826.654758133252,853.60308331891,1006.29933356561,450.114760665419,567.045908301137,496.282156015671,0,0,0,0,0,0,3,4,5,NaN,NaN,NaN,vertical,horizontal,horizontal,none,none,none
1b,14,100199,1,15,15,20,F,NA,constant,heterogeneous,6,absent,1.74083209037781,1,horizontal,horizontal,1,0.764703611894087,green,6,NaN,657.405809614959,811.404581001536,NaN,NaN,911.784642431215,829.192481806288,1054.37883281626,617.787900804752,942.594190385041,388.595418998464,688.215357568785,370.807518193712,545.621167183745,582.212099195248,657.405809614959,811.404581001536,0,5,3,6,3,4,vertical,horizontal,vertical,vertical,horizontal,horizontal
1b,14,100199,1,16,16,20,F,NA,constant,heterogeneous,3,absent,1.22052693367004,1,horizontal,horizontal,1,0.623529087413441,green,2,NaN,1053.60308331891,626.654758133252,NaN,NaN,650.114760665419,806.299333565612,1053.60308331891,626.654758133252,696.282156015671,367.045908301137,0,0,0,0,0,0,5,4,3,NaN,NaN,NaN,horizontal,horizontal,vertical,none,none,none
1b,14,100199,1,17,17,20,F,NA,constant,heterogeneous,5,absent,1.00039386749268,1,vertical,vertical,1,0.964700854908336,green,3,NaN,938.882953928832,386.139005173917,NaN,NaN,813.345668841951,854.650531362416,1046.31108570371,665.998856501143,938.882953928832,386.139005173917,639.523300282292,401.827779828472,561.936991243214,691.383827134052,0,0,3,5,4,3,0,NaN,vertical,vertical,vertical,horizontal,horizontal,none
1b,14,100199,1,18,18,20,F,NA,constant,heterogeneous,6,present,0.852136135101318,1,vertical,vertical,1,0.976465398615057,green,2,6,1029.19248180629,711.784642431215,588.595418998464,742.594190385041,817.787900804752,854.378832816255,1029.19248180629,711.784642431215,1011.40458100154,457.40580961496,782.212099195248,345.621167183745,570.807518193712,488.215357568785,588.595418998464,742.594190385041,0,4,0,6,3,5,vertical,vertical,horizontal,horizontal,horizontal,vertical
1b,14,100199,1,19,19,20,F,NA,constant,heterogeneous,5,present,1.18162298202515,1,horizontal,horizontal,1,0.811761786720969,green,4,1,567.045908301137,496.282156015671,927.5,820.836477965032,927.5,820.836477965032,1049.42763818712,546.982518841471,826.654758133252,346.39691668109,567.045908301137,496.282156015671,629.371695378491,789.501930496736,0,0,3,3,0,4,5,NaN,vertical,horizontal,vertical,horizontal,vertical,none
1b,14,100199,1,20,20,20,F,NA,constant,heterogeneous,3,present,0.947417020797729,1,vertical,vertical,1,1.09411083568226,green,1,3,942.594190385041,811.404581001536,545.621167183745,617.787900804752,942.594190385041,811.404581001536,911.784642431215,370.807518193712,545.621167183745,617.787900804752,0,0,0,0,0,0,4,6,5,NaN,NaN,NaN,vertical,vertical,vertical,none,none,none
1b,14,100199,1,21,21,20,F,NA,constant,heterogeneous,4,present,0.92811393737793,1,vertical,vertical,1,1.08234629197554,green,4,3,545.03883773512,595.549636358493,804.450363641507,345.03883773512,795.549636358493,854.96116226488,1054.96116226488,604.450363641507,804.450363641507,345.03883773512,545.03883773512,595.549636358493,0,0,0,0,3,0,6,4,NaN,NaN,vertical,vertical,vertical,vertical,none,none
1b,14,100199,1,22,22,20,F,NA,constant,heterogeneous,6,present,0.83539605140686,1,vertical,vertical,1,0.623529087413441,green,4,3,923.626453162816,376.971974679454,1054.96116226488,595.549636358493,676.373546837184,823.028025320546,931.334709102064,818.577661679039,1054.96116226488,595.549636358493,923.626453162816,376.971974679454,668.665290897936,381.422338320961,545.03883773512,604.450363641507,6,5,6,4,0,5,vertical,vertical,vertical,vertical,horizontal,horizontal
1b,14,100199,1,23,23,20,F,NA,constant,heterogeneous,4,present,0.884799957275391,1,horizontal,horizontal,1,0.623529087413441,green,4,3,607.549057043193,432.704947607421,967.295052392579,407.549057043193,632.704947607421,792.450942956807,992.450942956807,767.295052392579,967.295052392579,407.549057043193,607.549057043193,432.704947607421,0,0,0,0,5,3,0,4,NaN,NaN,vertical,vertical,vertical,horizontal,none,none
1b,14,100199,1,24,24,20,F,NA,constant,heterogeneous,3,present,0.880558967590332,1,vertical,vertical,1,0.694116349653764,green,3,2,639.523300282292,401.827779828472,1051.86052685176,560.109211414741,708.616172865948,838.063008756786,1051.86052685176,560.109211414741,639.523300282292,401.827779828472,0,0,0,0,0,0,6,0,4,NaN,NaN,NaN,horizontal,vertical,vertical,none,none,none
1b,14,100199,1,25,25,20,F,NA,constant,heterogeneous,5,present,0.743131875991821,1,vertical,vertical,1,0.647058174826882,green,4,2,768.923317431687,346.900731331463,973.909581815937,786.495193912888,676.373546837184,823.028025320546,973.909581815937,786.495193912888,1031.10848569435,492.232343256122,768.923317431687,346.900731331463,549.685068220846,551.343706178981,0,0,3,3,0,4,0,NaN,vertical,horizontal,horizontal,vertical,vertical,none
1b,14,100199,1,26,26,20,F,NA,constant,heterogeneous,6,present,1.35919308662415,1,vertical,vertical,1,0.647058174826882,green,1,5,721.200666434388,842.519411655264,629.371695378491,410.498069503264,721.200666434388,842.519411655264,970.628304621509,789.501930496736,1049.42763818712,546.982518841471,878.799333565612,357.480588344736,629.371695378491,410.498069503264,550.57236181288,653.017481158529,4,0,5,5,6,0,vertical,vertical,vertical,horizontal,horizontal,vertical
1b,14,100199,1,27,27,20,F,NA,constant,heterogeneous,6,absent,1.67725205421448,1,horizontal,horizontal,1,0.941171767494895,green,5,NaN,553.688914296288,534.001143498857,NaN,NaN,865.998856501143,846.311085703712,1046.31108570371,665.998856501143,980.31222920257,419.68777079743,734.001143498857,353.688914296288,553.688914296288,534.001143498857,619.68777079743,780.31222920257,3,5,0,3,4,0,horizontal,vertical,horizontal,vertical,horizontal,horizontal
1b,14,100199,1,28,28,20,F,NA,constant,heterogeneous,4,absent,1.61402010917664,1,horizontal,horizontal,1,0.941171767494895,green,1,NaN,680.284751489598,825.151636179026,NaN,NaN,680.284751489598,825.151636179026,1025.15163617903,719.715248510402,919.715248510402,374.848363820974,574.848363820974,480.284751489598,0,0,0,0,4,5,3,3,NaN,NaN,horizontal,vertical,horizontal,vertical,none,none
1b,14,100199,1,29,29,20,F,NA,constant,heterogeneous,6,absent,1.24211812019348,1,vertical,vertical,1,0.988229942321777,green,6,NaN,616.568350913644,777.137884467044,NaN,NaN,861.690083377915,847.425410200379,1045.12173246427,670.287525733335,983.431649086356,422.862115532956,738.309916622085,352.574589799621,554.878267535729,529.712474266665,616.568350913644,777.137884467044,3,3,5,0,6,4,horizontal,vertical,horizontal,horizontal,vertical,vertical
1b,14,100199,1,30,30,20,F,NA,constant,heterogeneous,4,present,1.00877499580383,1,horizontal,horizontal,1,1.08234629197554,green,2,1,1036.43188291453,695.524681321058,704.475318678942,836.431882914531,704.475318678942,836.431882914531,1036.43188291453,695.524681321058,895.524681321058,363.568117085469,563.568117085469,504.475318678942,0,0,0,0,0,4,6,3,NaN,NaN,horizontal,horizontal,vertical,vertical,none,none
1b,14,100199,1,31,31,20,F,NA,constant,heterogeneous,5,present,1.02924203872681,1,vertical,vertical,1,0.999994486028498,green,5,2,596.34794493794,753.462830903772,1054.96116226488,595.549636358493,883.019879386575,841.107236777826,1054.96116226488,595.549636358493,874.554784704298,356.142287229426,591.116228706307,453.738008730483,596.34794493794,753.462830903772,0,0,6,3,0,5,4,NaN,vertical,horizontal,horizontal,vertical,vertical,none
1b,14,100199,1,32,32,20,F,NA,constant,heterogeneous,5,absent,1.45072507858276,1,horizontal,horizontal,1,0.847055417841131,green,2,NaN,1045.12173246427,670.287525733335,NaN,NaN,808.899371659138,854.844660889869,1045.12173246427,670.287525733335,942.594190385041,388.595418998464,643.006323791957,399.057257830286,560.378381699593,687.215136548046,0,0,3,4,6,5,6,NaN,horizontal,horizontal,vertical,horizontal,horizontal,none
1b,14,100199,1,33,33,20,F,NA,constant,heterogeneous,4,present,1.08460307121277,1,vertical,vertical,1,1.03528811714866,green,1,2,915.767577433584,827.206663668034,1027.20666366803,484.232422566416,915.767577433584,827.206663668034,1027.20666366803,484.232422566416,684.232422566416,372.793336331966,572.793336331966,715.767577433584,0,0,0,0,4,6,5,3,NaN,NaN,vertical,horizontal,vertical,horizontal,none,none
1b,14,100199,1,34,34,20,F,NA,constant,heterogeneous,6,absent,1.07761693000793,1,horizontal,horizontal,1,0.752939068187367,green,3,NaN,1051.86052685176,560.109211414741,NaN,NaN,708.616172865948,838.063008756786,960.476699717708,798.172220171528,1051.86052685176,560.109211414741,891.383827134052,361.936991243214,639.523300282292,401.827779828472,548.13947314824,639.890788585259,3,5,4,0,5,6,horizontal,horizontal,horizontal,horizontal,vertical,vertical
1b,14,100199,1,35,35,20,F,NA,constant,heterogeneous,3,present,0.86205005645752,1,vertical,vertical,1,0.941171767494895,green,1,2,899.636437764765,834.728737630372,953.462830903772,396.34794493794,899.636437764765,834.728737630372,953.462830903772,396.34794493794,546.900731331463,568.923317431687,0,0,0,0,0,0,4,3,5,NaN,NaN,NaN,vertical,horizontal,horizontal,none,none,none
1b,14,100199,1,36,36,20,F,NA,constant,heterogeneous,3,absent,0.982111930847168,1,vertical,vertical,1,0.929407223788175,green,1,NaN,716.980120613425,841.107236777826,NaN,NaN,716.980120613425,841.107236777826,1050.31493177915,551.343706178981,632.704947607421,407.549057043193,0,0,0,0,0,0,4,6,5,NaN,NaN,NaN,vertical,horizontal,vertical,none,none,none
1b,14,100199,1,37,37,20,F,NA,constant,heterogeneous,5,present,0.72383713722229,1,vertical,vertical,1,1.09411083568226,green,1,5,899.636437764765,834.728737630372,607.549057043193,767.295052392579,899.636437764765,834.728737630372,1054.0296480134,577.775285599347,857.362518857686,351.535633479765,581.422338320961,468.665290897936,607.549057043193,767.295052392579,0,0,4,3,3,6,0,NaN,vertical,horizontal,horizontal,horizontal,horizontal,none
1b,14,100199,1,38,38,20,F,NA,constant,heterogeneous,6,present,1.02064609527588,1,vertical,vertical,1,0.717645437067205,green,2,4,1036.43188291453,695.524681321058,764.510859255183,347.4816424709,835.489140744817,852.518357529101,1036.43188291453,695.524681321058,1000.94274216971,443.006323791957,764.510859255183,347.4816424709,563.568117085469,504.475318678942,599.057257830286,756.993676208043,6,4,3,6,0,3,horizontal,vertical,vertical,vertical,vertical,vertical
1b,14,100199,1,39,39,20,F,NA,constant,heterogeneous,6,present,1.21668791770935,1,horizontal,horizontal,1,0.764703611894087,green,5,3,661.117046071168,386.139005173917,1054.65053136242,586.654331158049,684.232422566416,827.206663668034,938.882953928832,813.860994826083,1054.65053136242,586.654331158049,915.767577433584,372.793336331966,661.117046071168,386.139005173917,545.349468637584,613.345668841951,6,0,3,5,4,6,horizontal,vertical,horizontal,vertical,horizontal,vertical
1b,14,100199,1,40,40,20,F,NA,constant,heterogeneous,4,present,0.982764005661011,1,vertical,vertical,1,0.882349048961293,green,4,1,588.595418998464,742.594190385041,942.594190385041,811.404581001536,942.594190385041,811.404581001536,1011.40458100154,457.40580961496,657.405809614959,388.595418998464,588.595418998464,742.594190385041,0,0,0,0,3,0,5,4,NaN,NaN,vertical,vertical,horizontal,vertical,none,none
1b,14,100199,1,41,41,20,F,NA,constant,heterogeneous,4,absent,1.05525398254395,1,vertical,vertical,1,0.635293631120162,green,2,NaN,1003.65205506206,753.462830903772,NaN,NaN,646.537169096228,803.65205506206,1003.65205506206,753.462830903772,953.462830903772,396.34794493794,596.34794493794,446.537169096228,0,0,0,0,3,4,6,0,NaN,NaN,vertical,vertical,vertical,horizontal,none,none
1b,14,100199,1,42,42,20,F,NA,constant,heterogeneous,4,absent,0.864678144454956,1,vertical,vertical,1,0.811761786720969,green,2,NaN,980.31222920257,419.68777079743,NaN,NaN,980.31222920257,780.31222920257,980.31222920257,419.68777079743,619.68777079743,419.68777079743,619.68777079743,780.31222920257,0,0,0,0,0,4,3,3,NaN,NaN,horizontal,vertical,vertical,vertical,none,none
1b,14,100199,1,43,43,20,F,NA,constant,heterogeneous,6,absent,1.44304299354553,0,vertical,horizontal,1,0.647058174826882,green,5,NaN,568.891514305654,492.232343256122,NaN,NaN,822.224714400653,854.029648013395,1031.10848569435,707.767656743878,1008.88377129369,453.738008730483,777.775285599347,345.970351986605,568.891514305654,492.232343256122,591.116228706307,746.261991269517,3,6,3,0,4,5,horizontal,vertical,horizontal,horizontal,vertical,horizontal
1b,14,100199,1,44,44,20,F,NA,constant,heterogeneous,3,absent,0.720630168914795,1,vertical,vertical,1,1.03528811714866,green,2,NaN,1025.15163617903,719.715248510402,NaN,NaN,583.747735480111,735.129412379467,1025.15163617903,719.715248510402,791.100628340862,345.155339110131,0,0,0,0,0,0,3,4,3,NaN,NaN,NaN,vertical,vertical,horizontal,none,none,none
1b,14,100199,1,45,45,20,F,NA,constant,heterogeneous,4,present,0.897616147994995,1,horizontal,horizontal,1,0.917642680081454,green,1,3,960.476699717708,798.172220171528,639.523300282292,401.827779828472,960.476699717708,798.172220171528,998.172220171528,439.523300282291,639.523300282292,401.827779828472,601.827779828472,760.476699717708,0,0,0,0,4,0,3,6,NaN,NaN,horizontal,vertical,horizontal,vertical,none,none
1b,14,100199,1,46,46,20,F,NA,constant,heterogeneous,6,present,0.736533880233765,1,horizontal,horizontal,1,0.647058174826882,green,2,6,963.910840470068,795.341332995339,548.874022981887,644.280285305067,712.784863451954,839.621618300407,963.910840470068,795.341332995339,1051.12597701811,555.719714694933,887.215136548046,360.378381699593,636.089159529932,404.658667004661,548.874022981887,644.280285305067,3,4,6,5,0,5,horizontal,horizontal,horizontal,horizontal,horizontal,horizontal
1b,14,100199,1,47,47,20,F,NA,constant,heterogeneous,4,absent,1.35618209838867,1,horizontal,horizontal,1,0.623529087413441,green,3,NaN,848.656293821019,349.685068220846,NaN,NaN,751.343706178981,850.314931779154,1050.31493177915,648.656293821019,848.656293821019,349.685068220846,549.685068220846,551.343706178981,0,0,0,0,3,6,4,5,NaN,NaN,vertical,horizontal,horizontal,horizontal,none,none
1b,14,100199,1,48,48,20,F,NA,constant,heterogeneous,3,present,0.843816041946411,1,horizontal,horizontal,1,0.811761786720969,green,3,2,626.090418184063,413.504806087112,1048.46436652023,542.637481142314,725.445215295702,843.857712770574,1048.46436652023,542.637481142314,626.090418184063,413.504806087112,0,0,0,0,0,0,5,0,4,NaN,NaN,NaN,horizontal,horizontal,horizontal,none,none,none
1b,14,100199,1,49,49,20,F,NA,constant,heterogeneous,5,present,1.00965905189514,1,horizontal,horizontal,1,1.03528811714866,green,1,2,857.362518857686,848.464366520235,1054.0296480134,622.224714400653,857.362518857686,848.464366520235,1054.0296480134,622.224714400653,899.636437764765,365.271262369628,607.549057043193,432.704947607421,581.422338320961,731.334709102064,0,0,4,3,0,0,5,NaN,horizontal,vertical,horizontal,vertical,horizontal,none
1b,14,100199,1,50,50,20,F,NA,constant,heterogeneous,6,absent,0.892306089401245,1,vertical,vertical,1,0.929407223788175,green,3,NaN,1031.10848569435,492.232343256122,NaN,NaN,777.775285599347,854.029648013395,1008.88377129369,746.261991269517,1031.10848569435,492.232343256122,822.224714400653,345.970351986605,591.116228706307,453.738008730483,568.891514305654,707.767656743878,0,3,4,6,5,3,horizontal,vertical,vertical,horizontal,vertical,vertical
1b,14,100199,1,51,51,20,F,NA,constant,heterogeneous,4,present,0.779754161834717,1,vertical,vertical,1,0.882349048961293,green,1,4,911.784642431215,829.192481806288,570.807518193712,711.784642431215,911.784642431215,829.192481806288,1029.19248180629,488.215357568785,688.215357568785,370.807518193712,570.807518193712,711.784642431215,0,0,0,0,4,5,6,3,NaN,NaN,vertical,vertical,horizontal,vertical,none,none
1b,14,100199,1,52,52,20,F,NA,constant,heterogeneous,3,absent,0.924245119094849,1,vertical,vertical,1,0.635293631120162,green,3,NaN,791.100628340862,345.155339110131,NaN,NaN,583.747735480111,735.129412379467,1025.15163617903,719.715248510402,791.100628340862,345.155339110131,0,0,0,0,0,0,5,3,4,NaN,NaN,NaN,horizontal,horizontal,vertical,none,none,none
1b,14,100199,1,53,53,20,F,NA,constant,heterogeneous,5,absent,0.776114940643311,1,vertical,vertical,1,1.0588172045621,green,4,NaN,558.892763222174,516.980120613425,NaN,NaN,946.261991269517,808.883771293693,1043.85771277057,525.445215295702,804.450363641507,345.03883773512,558.892763222174,516.980120613425,646.537169096228,803.65205506206,0,0,0,5,6,4,3,NaN,vertical,horizontal,horizontal,vertical,horizontal,none
1b,14,100199,1,54,54,20,F,NA,constant,heterogeneous,6,absent,NaN,0,horizontal,none,0,0.729409980773926,green,2,NaN,1038.06300875679,691.383827134052,NaN,NaN,839.890788585259,851.86052685176,1038.06300875679,691.383827134052,998.172220171528,439.523300282291,760.109211414741,348.13947314824,561.936991243214,508.616172865948,601.827779828472,760.476699717708,5,4,6,6,5,3,horizontal,horizontal,vertical,vertical,vertical,horizontal
1b,14,100199,1,55,55,20,F,NA,constant,heterogeneous,4,present,1.02309513092041,1,horizontal,horizontal,1,0.623529087413441,green,1,3,835.489140744817,852.518357529101,764.510859255183,347.4816424709,835.489140744817,852.518357529101,1052.5183575291,564.510859255183,764.510859255183,347.4816424709,547.481642470899,635.489140744817,0,0,0,0,4,6,0,3,NaN,NaN,horizontal,horizontal,vertical,horizontal,none,none
1b,14,100199,1,56,56,20,F,NA,constant,heterogeneous,5,absent,0.863145112991333,1,vertical,vertical,1,0.964700854908336,green,1,NaN,887.215136548046,839.621618300407,NaN,NaN,887.215136548046,839.621618300407,1054.84466088987,591.100628340862,870.287525733335,354.878267535729,588.595418998464,457.40580961496,599.057257830286,756.993676208043,0,0,4,0,6,6,5,NaN,vertical,horizontal,vertical,horizontal,horizontal,none
1b,14,100199,1,57,57,20,F,NA,constant,heterogeneous,4,absent,1.4172260761261,1,horizontal,horizontal,1,0.623529087413441,green,4,NaN,616.568350913644,422.862115532956,NaN,NaN,622.862115532956,783.431649086356,983.431649086356,777.137884467044,977.137884467044,416.568350913644,616.568350913644,422.862115532956,0,0,0,0,6,3,6,4,NaN,NaN,horizontal,horizontal,vertical,horizontal,none,none
1b,14,100199,1,58,58,20,F,NA,constant,heterogeneous,5,absent,1.09500098228455,1,horizontal,horizontal,1,0.658822718533603,green,5,NaN,545.03883773512,595.549636358493,NaN,NaN,716.980120613425,841.107236777826,1003.65205506206,753.462830903772,1008.88377129369,453.738008730483,725.445215295702,356.142287229426,545.03883773512,595.549636358493,0,0,6,0,5,0,4,NaN,vertical,horizontal,horizontal,horizontal,horizontal,none
1b,14,100199,1,59,59,20,F,NA,constant,heterogeneous,3,absent,0.985623121261597,1,horizontal,horizontal,1,1.03528811714866,green,1,NaN,960.476699717708,798.172220171528,NaN,NaN,960.476699717708,798.172220171528,891.383827134052,361.936991243214,548.13947314824,639.890788585259,0,0,0,0,0,0,4,6,0,NaN,NaN,NaN,horizontal,horizontal,vertical,none,none,none
1b,14,100199,1,60,60,20,F,NA,constant,heterogeneous,6,present,1.50715112686157,1,horizontal,horizontal,1,0.682351805947044,green,4,2,848.656293821019,349.685068220846,992.450942956807,767.295052392579,751.343706178981,850.314931779154,992.450942956807,767.295052392579,1041.10723677783,516.980120613425,848.656293821019,349.685068220846,607.549057043193,432.704947607421,558.892763222174,683.019879386575,0,0,5,4,3,3,vertical,horizontal,horizontal,horizontal,vertical,vertical
1b,14,100199,1,61,61,20,F,NA,constant,heterogeneous,3,absent,1.05539703369141,1,vertical,vertical,1,0.694116349653764,green,2,NaN,1038.06300875679,691.383827134052,NaN,NaN,601.827779828472,760.476699717708,1038.06300875679,691.383827134052,760.109211414741,348.13947314824,0,0,0,0,0,0,0,4,6,NaN,NaN,NaN,horizontal,vertical,vertical,none,none,none
1b,14,100199,1,62,62,20,F,NA,constant,heterogeneous,3,present,0.843542098999023,1,horizontal,horizontal,1,0.752939068187367,green,3,2,568.891514305654,492.232343256122,1008.88377129369,453.738008730483,822.224714400653,854.029648013395,1008.88377129369,453.738008730483,568.891514305654,492.232343256122,0,0,0,0,0,0,5,6,4,NaN,NaN,NaN,horizontal,horizontal,horizontal,none,none,none
1b,14,100199,1,63,63,20,F,NA,constant,heterogeneous,5,absent,1.25869703292847,1,horizontal,horizontal,1,0.705880893360485,green,5,NaN,613.504806087112,773.909581815937,NaN,NaN,907.767656743878,831.108485694346,1053.09926866854,568.923317431687,848.656293821019,349.685068220846,576.971974679454,476.373546837184,613.504806087112,773.909581815937,0,0,0,0,5,6,4,NaN,vertical,horizontal,vertical,vertical,horizontal,none
1b,14,100199,1,64,64,20,F,NA,constant,heterogeneous,5,present,1.368408203125,1,horizontal,horizontal,1,0.811761786720969,green,1,4,712.784863451954,839.621618300407,729.712474266665,354.878267535729,712.784863451954,839.621618300407,1000.94274216971,756.993676208043,1011.40458100154,457.40580961496,729.712474266665,354.878267535729,545.155339110131,591.100628340862,0,0,4,3,5,6,3,NaN,horizontal,vertical,horizontal,vertical,horizontal,none
1b,14,100199,2,1,65,20,F,NA,constant,heterogeneous,4,present,1.01360487937927,1,vertical,vertical,1,0.941171767494895,green,2,4,1050.31493177915,648.656293821019,549.685068220846,551.343706178981,751.343706178981,850.314931779154,1050.31493177915,648.656293821019,848.656293821019,349.685068220846,549.685068220846,551.343706178981,0,0,0,0,0,4,6,5,NaN,NaN,vertical,vertical,vertical,horizontal,none,none
1b,14,100199,2,2,66,20,F,NA,constant,heterogeneous,3,present,0.681521892547607,1,vertical,vertical,1,0.764703611894087,green,2,1,1054.0296480134,577.775285599347,692.232343256122,831.108485694346,692.232343256122,831.108485694346,1054.0296480134,577.775285599347,653.738008730483,391.116228706307,0,0,0,0,0,0,3,4,0,NaN,NaN,NaN,horizontal,vertical,horizontal,none,none,none
1b,14,100199,2,3,67,20,F,NA,constant,heterogeneous,6,present,1.18476414680481,1,horizontal,horizontal,1,0.658822718533603,green,6,1,560.378381699593,687.215136548046,755.719714694933,851.125977018113,755.719714694933,851.125977018113,995.341332995339,763.910840470068,1039.62161830041,512.784863451954,844.280285305067,348.874022981887,604.658667004661,436.089159529932,560.378381699593,687.215136548046,5,3,0,5,6,4,vertical,horizontal,horizontal,horizontal,vertical,horizontal
1b,14,100199,2,4,68,20,F,NA,constant,heterogeneous,6,present,0.989714860916138,1,vertical,vertical,1,1.07058174826882,green,5,2,568.891514305654,492.232343256122,1031.10848569435,707.767656743878,822.224714400653,854.029648013395,1031.10848569435,707.767656743878,1008.88377129369,453.738008730483,777.775285599347,345.970351986605,568.891514305654,492.232343256122,591.116228706307,746.261991269517,6,5,0,6,4,5,horizontal,vertical,vertical,vertical,vertical,vertical
1b,14,100199,2,5,69,20,F,NA,constant,heterogeneous,5,present,1.19924902915955,1,horizontal,horizontal,1,0.694116349653764,green,4,3,712.784863451954,360.378381699593,1000.94274216971,443.006323791957,729.712474266665,845.121732464271,1011.40458100154,742.594190385041,1000.94274216971,443.006323791957,712.784863451954,360.378381699593,545.155339110131,608.899371659138,0,0,6,3,3,4,6,NaN,vertical,vertical,horizontal,horizontal,vertical,none
1b,14,100199,2,6,70,20,F,NA,constant,heterogeneous,4,absent,NaN,0,horizontal,none,0,0.999994486028498,green,4,NaN,607.549057043193,432.704947607421,NaN,NaN,632.704947607421,792.450942956807,992.450942956807,767.295052392579,967.295052392579,407.549057043193,607.549057043193,432.704947607421,0,0,0,0,6,5,6,4,NaN,NaN,horizontal,horizontal,vertical,horizontal,none,none
1b,14,100199,2,7,71,20,F,NA,constant,heterogeneous,6,absent,1.26983904838562,1,vertical,vertical,1,0.682351805947044,green,3,NaN,1054.84466088987,591.100628340862,NaN,NaN,680.284751489598,825.151636179026,935.129412379467,816.252264519889,1054.84466088987,591.100628340862,919.715248510402,374.848363820974,664.870587620533,383.747735480111,545.155339110131,608.899371659138,3,5,4,0,5,0,vertical,vertical,vertical,horizontal,horizontal,horizontal
1b,14,100199,2,8,72,20,F,NA,constant,heterogeneous,3,absent,0.982815027236938,1,horizontal,horizontal,1,0.764703611894087,green,3,NaN,661.117046071168,386.139005173917,NaN,NaN,684.232422566416,827.206663668034,1054.65053136242,586.654331158049,661.117046071168,386.139005173917,0,0,0,0,0,0,0,3,4,NaN,NaN,NaN,horizontal,vertical,horizontal,none,none,none
1b,14,100199,2,9,73,20,F,NA,constant,heterogeneous,5,absent,1.34014415740967,1,horizontal,horizontal,1,0.670587262240323,green,4,NaN,777.775285599347,345.970351986605,NaN,NaN,668.665290897936,818.577661679039,967.295052392579,792.450942956807,1034.72873763037,500.363562235235,777.775285599347,345.970351986605,551.535633479765,542.637481142314,0,0,6,0,3,4,3,NaN,horizontal,horizontal,vertical,horizontal,vertical,none
1b,14,100199,2,10,74,20,F,NA,constant,heterogeneous,3,absent,0.750100135803223,1,vertical,vertical,1,0.741174524480646,green,3,NaN,708.616172865948,361.936991243214,NaN,NaN,639.523300282292,798.172220171528,1051.86052685176,639.890788585259,708.616172865948,361.936991243214,0,0,0,0,0,0,5,0,4,NaN,NaN,NaN,vertical,horizontal,vertical,none,none,none
1b,14,100199,2,11,75,20,F,NA,constant,heterogeneous,5,present,1.0771210193634,1,horizontal,horizontal,1,0.999994486028498,green,2,1,1025.15163617903,719.715248510402,755.719714694933,851.125977018113,755.719714694933,851.125977018113,1025.15163617903,719.715248510402,983.431649086356,422.862115532956,688.215357568785,370.807518193712,547.481642470899,635.489140744817,0,0,3,4,5,0,6,NaN,vertical,horizontal,horizontal,horizontal,horizontal,none
1b,14,100199,2,12,76,20,F,NA,constant,heterogeneous,3,present,0.839120149612427,1,horizontal,horizontal,1,0.611764543706721,green,3,1,548.874022981887,555.719714694933,887.215136548046,839.621618300407,887.215136548046,839.621618300407,963.910840470068,404.658667004661,548.874022981887,555.719714694933,0,0,0,0,0,0,6,0,4,NaN,NaN,NaN,horizontal,horizontal,horizontal,none,none,none
1b,14,100199,2,13,77,20,F,NA,constant,heterogeneous,4,present,1.88215208053589,1,horizontal,horizontal,1,0.717645437067205,green,1,3,764.510859255183,852.518357529101,835.489140744817,347.4816424709,764.510859255183,852.518357529101,1052.5183575291,635.489140744817,835.489140744817,347.4816424709,547.481642470899,564.510859255183,0,0,0,0,4,5,0,3,NaN,NaN,horizontal,horizontal,vertical,horizontal,none,none
1b,14,100199,2,14,78,20,F,NA,constant,heterogeneous,6,present,0.813086032867432,1,vertical,vertical,1,1.04705266085538,green,1,6,742.637481142314,848.464366520235,556.142287229426,674.554784704298,742.637481142314,848.464366520235,986.495193912888,773.909581815937,1043.85771277057,525.445215295702,857.362518857686,351.535633479765,613.504806087112,426.090418184063,556.142287229426,674.554784704298,4,5,0,3,5,3,vertical,horizontal,horizontal,horizontal,horizontal,vertical
1b,14,100199,2,15,79,20,F,NA,constant,heterogeneous,5,absent,1.52179384231567,1,vertical,vertical,1,1.01175902973522,green,2,NaN,1000.94274216971,756.993676208043,NaN,NaN,712.784863451954,839.621618300407,1000.94274216971,756.993676208043,1011.40458100154,457.40580961496,729.712474266665,354.878267535729,545.155339110131,591.100628340862,0,0,6,4,3,0,6,NaN,horizontal,vertical,horizontal,horizontal,horizontal,none
1b,14,100199,2,16,80,20,F,NA,constant,heterogeneous,4,absent,0.904020071029663,1,vertical,vertical,1,0.976465398615057,green,3,NaN,721.200666434388,357.480588344736,NaN,NaN,878.799333565612,842.519411655264,1042.51941165526,521.200666434388,721.200666434388,357.480588344736,557.480588344736,678.799333565612,0,0,0,0,3,6,4,0,NaN,NaN,horizontal,horizontal,vertical,vertical,none,none
1b,14,100199,2,17,81,20,F,NA,constant,heterogeneous,5,present,0.829641103744507,1,vertical,vertical,1,0.976465398615057,green,5,1,545,600,721.200666434388,842.519411655264,721.200666434388,842.519411655264,1006.29933356561,749.885239334581,1006.29933356561,450.114760665419,721.200666434388,357.480588344736,545,600,0,0,3,3,0,0,4,NaN,horizontal,horizontal,vertical,horizontal,vertical,none
1b,14,100199,2,18,82,20,F,NA,constant,heterogeneous,6,present,1.15760207176208,1,horizontal,horizontal,1,0.964700854908336,green,2,4,967.295052392579,792.450942956807,883.019879386575,358.892763222174,716.980120613425,841.107236777826,967.295052392579,792.450942956807,1050.31493177915,551.343706178981,883.019879386575,358.892763222174,632.704947607421,407.549057043193,549.685068220846,648.656293821019,0,4,5,0,3,6,vertical,horizontal,horizontal,vertical,vertical,horizontal
1b,14,100199,2,19,83,20,F,NA,constant,heterogeneous,5,present,0.806272983551025,1,horizontal,horizontal,1,0.658822718533603,green,1,5,853.017481158529,849.42763818712,579.163522034968,727.5,853.017481158529,849.42763818712,1053.60308331891,626.654758133252,903.717843984329,367.045908301137,610.498069503264,429.371695378491,579.163522034968,727.5,0,0,4,0,6,6,3,NaN,horizontal,horizontal,vertical,vertical,vertical,none
1b,14,100199,2,20,84,20,F,NA,constant,heterogeneous,4,absent,1.05727887153625,1,vertical,vertical,1,0.729409980773926,green,3,NaN,650.114760665419,393.700666434388,NaN,NaN,949.885239334581,806.299333565612,1006.29933356561,450.114760665419,650.114760665419,393.700666434388,593.700666434388,749.885239334581,0,0,0,0,5,0,4,0,NaN,NaN,horizontal,horizontal,vertical,horizontal,none,none
1b,14,100199,2,21,85,20,F,NA,constant,heterogeneous,4,absent,1.3181848526001,1,horizontal,horizontal,1,0.988229942321777,green,2,NaN,986.495193912888,426.090418184063,NaN,NaN,973.909581815937,786.495193912888,986.495193912888,426.090418184063,626.090418184063,413.504806087112,613.504806087112,773.909581815937,0,0,0,0,5,4,5,6,NaN,NaN,vertical,horizontal,horizontal,horizontal,none,none
1b,14,100199,2,22,86,20,F,NA,constant,heterogeneous,5,absent,NaN,0,horizontal,none,0,0.623529087413441,green,3,NaN,848.656293821019,349.685068220846,NaN,NaN,907.767656743878,831.108485694346,1053.09926866854,568.923317431687,848.656293821019,349.685068220846,576.971974679454,476.373546837184,613.504806087112,773.909581815937,0,0,0,6,4,0,5,NaN,horizontal,horizontal,horizontal,vertical,vertical,none
1b,14,100199,2,23,87,20,F,NA,constant,heterogeneous,4,present,1.15553092956543,1,horizontal,horizontal,1,1.09411083568226,green,1,4,632.704947607421,792.450942956807,607.549057043193,432.704947607421,632.704947607421,792.450942956807,992.450942956807,767.295052392579,967.295052392579,407.549057043193,607.549057043193,432.704947607421,0,0,0,0,4,5,5,3,NaN,NaN,horizontal,horizontal,horizontal,vertical,none,none
1b,14,100199,2,24,88,20,F,NA,constant,heterogeneous,3,present,0.762206077575684,1,horizontal,horizontal,1,0.764703611894087,green,3,1,572.793336331966,484.232422566416,813.345668841951,854.650531362416,813.345668841951,854.650531362416,1013.86099482608,461.117046071168,572.793336331966,484.232422566416,0,0,0,0,0,0,0,6,4,NaN,NaN,NaN,vertical,horizontal,horizontal,none,none,none
1b,14,100199,2,25,89,20,F,NA,constant,heterogeneous,4,absent,0.857373952865601,1,vertical,vertical,1,1.01175902973522,green,4,NaN,604.658667004661,436.089159529932,NaN,NaN,636.089159529932,795.341332995339,995.341332995339,763.910840470068,963.910840470068,404.658667004661,604.658667004661,436.089159529932,0,0,0,0,6,3,0,4,NaN,NaN,horizontal,vertical,horizontal,vertical,none,none
1b,14,100199,2,26,90,20,F,NA,constant,heterogeneous,4,present,0.792718172073364,1,vertical,vertical,1,1.08234629197554,green,4,3,610.498069503264,770.628304621509,629.371695378491,410.498069503264,970.628304621509,789.501930496736,989.501930496736,429.371695378491,629.371695378491,410.498069503264,610.498069503264,770.628304621509,0,0,0,0,0,6,3,4,NaN,NaN,vertical,vertical,horizontal,vertical,none,none
1b,14,100199,2,27,91,20,F,NA,constant,heterogeneous,6,absent,1.70620489120483,1,vertical,vertical,1,0.670587262240323,green,2,NaN,1038.06300875679,691.383827134052,NaN,NaN,839.890788585259,851.86052685176,1038.06300875679,691.383827134052,998.172220171528,439.523300282291,760.109211414741,348.13947314824,561.936991243214,508.616172865948,601.827779828472,760.476699717708,5,4,3,0,0,3,horizontal,vertical,horizontal,vertical,vertical,vertical
1b,14,100199,2,28,92,20,F,NA,constant,heterogeneous,5,absent,1.21117782592773,1,horizontal,horizontal,1,0.729409980773926,green,1,NaN,887.215136548046,839.621618300407,NaN,NaN,887.215136548046,839.621618300407,1054.84466088987,591.100628340862,870.287525733335,354.878267535729,588.595418998464,457.40580961496,599.057257830286,756.993676208043,0,0,4,5,0,5,6,NaN,horizontal,horizontal,vertical,horizontal,horizontal,none
1b,14,100199,2,29,93,20,F,NA,constant,heterogeneous,4,present,0.956202030181885,1,horizontal,horizontal,1,0.82352633042769,green,4,1,583.747735480111,464.870587620533,664.870587620533,816.252264519889,664.870587620533,816.252264519889,1016.25226451989,735.129412379467,935.129412379467,383.747735480111,583.747735480111,464.870587620533,0,0,0,0,0,5,0,4,NaN,NaN,horizontal,vertical,horizontal,horizontal,none,none
1b,14,100199,2,30,94,20,F,NA,constant,heterogeneous,6,absent,1.57576394081116,1,horizontal,horizontal,1,0.799997243014249,green,2,NaN,927.5,820.836477965032,NaN,NaN,672.5,820.836477965032,927.5,820.836477965032,1055,600,927.5,379.163522034968,672.5,379.163522034968,545,600,5,4,0,3,0,5,vertical,horizontal,horizontal,vertical,horizontal,vertical
1b,14,100199,2,31,95,20,F,NA,constant,heterogeneous,6,absent,0.892511129379272,1,horizontal,horizontal,1,0.870584505254572,green,6,NaN,610.498069503264,770.628304621509,NaN,NaN,853.017481158529,849.42763818712,1042.51941165526,678.799333565612,989.501930496736,429.371695378491,746.982518841471,350.57236181288,557.480588344736,521.200666434388,610.498069503264,770.628304621509,0,5,3,6,6,4,vertical,horizontal,vertical,horizontal,vertical,horizontal
1b,14,100199,2,32,96,20,F,NA,constant,heterogeneous,3,absent,1.23950910568237,1,horizontal,horizontal,1,0.635293631120162,green,3,NaN,777.775285599347,345.970351986605,NaN,NaN,591.116228706307,746.261991269517,1031.10848569435,707.767656743878,777.775285599347,345.970351986605,0,0,0,0,0,0,5,0,4,NaN,NaN,NaN,vertical,horizontal,horizontal,none,none,none
1b,14,100199,2,33,97,20,F,NA,constant,heterogeneous,6,present,1.14577102661133,1,vertical,vertical,1,0.670587262240323,green,3,5,956.993676208043,399.057257830286,547.481642470899,564.510859255183,895.524681321058,836.431882914531,1052.5183575291,635.489140744817,956.993676208043,399.057257830286,704.475318678942,363.568117085469,547.481642470899,564.510859255183,643.006323791957,800.942742169714,5,5,4,3,6,0,horizontal,horizontal,vertical,horizontal,horizontal,vertical
1b,14,100199,2,34,98,20,F,NA,constant,heterogeneous,3,absent,0.966702938079834,1,vertical,vertical,1,0.882349048961293,green,3,NaN,746.982518841471,350.57236181288,NaN,NaN,610.498069503264,770.628304621509,1042.51941165526,678.799333565612,746.982518841471,350.57236181288,0,0,0,0,0,0,6,0,4,NaN,NaN,NaN,vertical,horizontal,vertical,none,none,none
1b,14,100199,2,35,99,20,F,NA,constant,heterogeneous,4,absent,1.28680801391602,1,horizontal,horizontal,1,1.02352357344194,green,1,NaN,822.224714400653,854.029648013395,NaN,NaN,822.224714400653,854.029648013395,1054.0296480134,577.775285599347,777.775285599347,345.970351986605,545.970351986605,622.224714400653,0,0,0,0,4,0,0,3,NaN,NaN,horizontal,vertical,vertical,vertical,none,none
1b,14,100199,2,36,100,20,F,NA,constant,heterogeneous,5,absent,1.69764995574951,1,horizontal,horizontal,1,0.647058174826882,green,4,NaN,700.363562235235,365.271262369628,NaN,NaN,742.637481142314,848.464366520235,1018.57766167904,731.334709102064,992.450942956807,432.704947607421,700.363562235235,365.271262369628,545.970351986605,622.224714400653,0,0,0,3,0,4,5,NaN,vertical,horizontal,vertical,horizontal,vertical,none
1b,14,100199,2,37,101,20,F,NA,constant,heterogeneous,5,present,1.16028881072998,1,vertical,vertical,1,0.623529087413441,green,2,1,1003.65205506206,753.462830903772,716.980120613425,841.107236777826,716.980120613425,841.107236777826,1003.65205506206,753.462830903772,1008.88377129369,453.738008730483,725.445215295702,356.142287229426,545.03883773512,595.549636358493,0,0,3,4,6,6,0,NaN,vertical,vertical,horizontal,horizontal,vertical,none
1b,14,100199,2,38,102,20,F,NA,constant,heterogeneous,3,present,0.977653980255127,1,vertical,vertical,1,0.905878136374734,green,1,3,708.616172865948,838.063008756786,639.523300282292,401.827779828472,708.616172865948,838.063008756786,1051.86052685176,560.109211414741,639.523300282292,401.827779828472,0,0,0,0,0,0,4,5,0,NaN,NaN,NaN,vertical,vertical,horizontal,none,none,none
1b,14,100199,2,39,103,20,F,NA,constant,heterogeneous,5,absent,1.37961483001709,0,vertical,horizontal,1,0.705880893360485,green,3,NaN,800,345,NaN,NaN,949.885239334581,806.299333565612,1042.51941165526,521.200666434388,800,345,557.480588344736,521.200666434388,650.114760665419,806.299333565612,0,0,5,3,4,6,0,NaN,vertical,vertical,vertical,vertical,vertical,none
1b,14,100199,2,40,104,20,F,NA,constant,heterogeneous,6,present,1.00308299064636,1,horizontal,horizontal,1,0.988229942321777,green,1,5,725.445215295702,843.857712770574,626.090418184063,413.504806087112,725.445215295702,843.857712770574,973.909581815937,786.495193912888,1048.46436652023,542.637481142314,874.554784704298,356.142287229426,626.090418184063,413.504806087112,551.535633479765,657.362518857686,4,3,5,6,0,0,horizontal,horizontal,horizontal,horizontal,horizontal,horizontal
1b,14,100199,2,41,105,20,F,NA,constant,heterogeneous,3,present,1.5173511505127,1,vertical,vertical,1,0.905878136374734,green,3,2,545.970351986605,622.224714400653,907.767656743878,368.891514305654,946.261991269517,808.883771293693,907.767656743878,368.891514305654,545.970351986605,622.224714400653,0,0,0,0,0,0,5,0,4,NaN,NaN,NaN,vertical,horizontal,vertical,none,none,none
1b,14,100199,2,42,106,20,F,NA,constant,heterogeneous,4,present,1.26203203201294,1,horizontal,horizontal,1,0.694116349653764,green,1,3,891.383827134052,838.063008756786,708.616172865948,361.936991243214,891.383827134052,838.063008756786,1038.06300875679,508.616172865948,708.616172865948,361.936991243214,561.936991243214,691.383827134052,0,0,0,0,4,6,6,5,NaN,NaN,horizontal,vertical,vertical,vertical,none,none
1b,14,100199,2,43,107,20,F,NA,constant,heterogeneous,5,absent,1.13373899459839,1,vertical,vertical,1,0.905878136374734,green,2,NaN,1038.06300875679,691.383827134052,NaN,NaN,786.654331158049,854.650531362416,1038.06300875679,691.383827134052,960.476699717708,401.827779828472,661.117046071168,386.139005173917,553.688914296288,665.998856501143,0,0,5,4,0,0,6,NaN,vertical,vertical,vertical,horizontal,vertical,none
1b,14,100199,2,44,108,20,F,NA,constant,heterogeneous,6,present,1.18632817268372,1,horizontal,horizontal,1,0.694116349653764,green,2,6,1034.72873763037,699.636437764765,596.34794493794,753.462830903772,831.076682568313,853.099268668537,1034.72873763037,699.636437764765,1003.65205506206,446.537169096228,768.923317431687,346.900731331463,565.271262369628,500.363562235235,596.34794493794,753.462830903772,0,4,0,5,6,6,vertical,horizontal,vertical,vertical,horizontal,horizontal
1b,14,100199,2,45,109,20,F,NA,constant,heterogeneous,6,absent,1.37980794906616,1,vertical,vertical,1,0.682351805947044,green,5,NaN,547.481642470899,564.510859255183,NaN,NaN,895.524681321058,836.431882914531,1052.5183575291,635.489140744817,956.993676208043,399.057257830286,704.475318678942,363.568117085469,547.481642470899,564.510859255183,643.006323791957,800.942742169714,3,3,0,0,4,5,vertical,vertical,vertical,vertical,vertical,horizontal
1b,14,100199,2,46,110,20,F,NA,constant,heterogeneous,3,absent,0.874373912811279,1,horizontal,horizontal,1,0.941171767494895,green,2,NaN,1025.15163617903,480.284751489598,NaN,NaN,791.100628340862,854.844660889869,1025.15163617903,480.284751489598,583.747735480111,464.870587620533,0,0,0,0,0,0,0,4,5,NaN,NaN,NaN,vertical,horizontal,horizontal,none,none,none
1b,14,100199,2,47,111,20,F,NA,constant,heterogeneous,3,present,0.961976051330566,1,horizontal,horizontal,1,0.694116349653764,green,1,3,764.510859255183,852.518357529101,599.057257830286,443.006323791957,764.510859255183,852.518357529101,1036.43188291453,504.475318678942,599.057257830286,443.006323791957,0,0,0,0,0,0,4,6,5,NaN,NaN,NaN,horizontal,horizontal,vertical,none,none,none
1b,14,100199,2,48,112,20,F,NA,constant,heterogeneous,3,absent,0.78600287437439,1,vertical,vertical,1,1.03528811714866,green,1,NaN,768.923317431687,853.099268668537,NaN,NaN,768.923317431687,853.099268668537,1034.72873763037,500.363562235235,596.34794493794,446.537169096228,0,0,0,0,0,0,4,0,5,NaN,NaN,NaN,vertical,horizontal,vertical,none,none,none
1b,14,100199,2,49,113,20,F,NA,constant,heterogeneous,3,present,0.812435865402222,1,vertical,vertical,1,0.929407223788175,green,1,3,581.422338320961,731.334709102064,795.549636358493,345.03883773512,581.422338320961,731.334709102064,1023.02802532055,723.626453162816,795.549636358493,345.03883773512,0,0,0,0,0,0,4,6,3,NaN,NaN,NaN,vertical,vertical,horizontal,none,none,none
1b,14,100199,2,50,114,20,F,NA,constant,heterogeneous,3,absent,1.13655996322632,1,vertical,vertical,1,0.788232699307528,green,2,NaN,835.489140744817,347.4816424709,NaN,NaN,1000.94274216971,756.993676208043,835.489140744817,347.4816424709,563.568117085469,695.524681321058,0,0,0,0,0,0,0,4,3,NaN,NaN,NaN,vertical,vertical,horizontal,none,none,none
1b,14,100199,2,51,115,20,F,NA,constant,heterogeneous,5,present,0.91364598274231,1,vertical,vertical,1,0.905878136374734,green,3,1,973.909581815937,413.504806087112,768.923317431687,853.099268668537,768.923317431687,853.099268668537,1031.10848569435,707.767656743878,973.909581815937,413.504806087112,676.373546837184,376.971974679454,549.685068220846,648.656293821019,0,0,0,3,4,3,0,NaN,horizontal,vertical,vertical,vertical,vertical,none
1b,14,100199,2,52,116,20,F,NA,constant,heterogeneous,4,absent,0.954102993011475,1,vertical,vertical,1,0.705880893360485,green,4,NaN,560.378381699593,687.215136548046,NaN,NaN,887.215136548046,839.621618300407,1039.62161830041,512.784863451954,712.784863451954,360.378381699593,560.378381699593,687.215136548046,0,0,0,0,0,6,5,4,NaN,NaN,horizontal,vertical,horizontal,vertical,none,none
1b,14,100199,2,53,117,20,F,NA,constant,heterogeneous,6,absent,1.13241291046143,1,vertical,vertical,1,0.952936311201616,green,4,NaN,861.690083377915,352.574589799621,NaN,NaN,738.309916622085,847.425410200379,983.431649086356,777.137884467044,1045.12173246427,529.712474266665,861.690083377915,352.574589799621,616.568350913644,422.862115532956,554.878267535729,670.287525733335,3,6,0,4,5,3,horizontal,horizontal,horizontal,vertical,vertical,vertical
1b,14,100199,2,54,118,20,F,NA,constant,heterogeneous,4,present,0.80271315574646,1,vertical,vertical,1,0.964700854908336,green,3,4,672.5,379.163522034968,579.163522034968,727.5,927.5,820.836477965032,1020.83647796503,472.5,672.5,379.163522034968,579.163522034968,727.5,0,0,0,0,6,0,4,5,NaN,NaN,vertical,vertical,vertical,vertical,none,none
1b,14,100199,2,55,119,20,F,NA,constant,heterogeneous,5,present,1.04932403564453,1,horizontal,horizontal,1,0.717645437067205,green,3,1,1020.83647796503,472.5,696.282156015671,832.954091698863,696.282156015671,832.954091698863,989.501930496736,770.628304621509,1020.83647796503,472.5,746.982518841471,350.57236181288,546.39691668109,573.345241866748,0,0,0,0,4,5,6,NaN,vertical,horizontal,horizontal,vertical,horizontal,none
1b,14,100199,2,56,120,20,F,NA,constant,heterogeneous,5,present,1.26286602020264,1,vertical,vertical,1,0.82352633042769,green,3,5,899.636437764765,365.271262369628,581.422338320961,731.334709102064,857.362518857686,848.464366520235,1054.0296480134,622.224714400653,899.636437764765,365.271262369628,607.549057043193,432.704947607421,581.422338320961,731.334709102064,0,0,5,3,4,0,5,NaN,vertical,horizontal,vertical,vertical,vertical,none
1b,14,100199,2,57,121,20,F,NA,constant,heterogeneous,6,absent,NaN,0,horizontal,none,0,0.682351805947044,green,2,NaN,1045.12173246427,670.287525733335,NaN,NaN,861.690083377915,847.425410200379,1045.12173246427,670.287525733335,983.431649086356,422.862115532956,738.309916622085,352.574589799621,554.878267535729,529.712474266665,616.568350913644,777.137884467044,3,4,5,0,6,3,horizontal,horizontal,vertical,vertical,vertical,horizontal
1b,14,100199,2,58,122,20,F,NA,constant,heterogeneous,3,present,0.000982046127319336,1,horizontal,horizontal,1,0.717645437067205,green,1,2,579.163522034968,727.5,1020.83647796503,727.5,579.163522034968,727.5,1020.83647796503,727.5,800,345,0,0,0,0,0,0,4,6,3,NaN,NaN,NaN,horizontal,vertical,vertical,none,none,none
1b,14,100199,2,59,123,20,F,NA,constant,heterogeneous,6,present,0.924689054489136,1,vertical,vertical,1,0.988229942321777,green,1,2,734.001143498857,846.311085703712,980.31222920257,780.31222920257,734.001143498857,846.311085703712,980.31222920257,780.31222920257,1046.31108570371,534.001143498857,865.998856501143,353.688914296288,619.68777079743,419.68777079743,553.688914296288,665.998856501143,4,0,5,6,5,6,vertical,horizontal,horizontal,horizontal,vertical,vertical
1b,14,100199,2,60,124,20,F,NA,constant,heterogeneous,4,present,0.782104015350342,1,vertical,vertical,1,0.941171767494895,green,4,1,548.13947314824,560.109211414741,760.109211414741,851.86052685176,760.109211414741,851.86052685176,1051.86052685176,639.890788585259,839.890788585259,348.13947314824,548.13947314824,560.109211414741,0,0,0,0,6,0,0,4,NaN,NaN,horizontal,vertical,vertical,vertical,none,none
1b,14,100199,2,61,125,20,F,NA,constant,heterogeneous,4,absent,1.50387811660767,1,horizontal,horizontal,1,0.905878136374734,green,3,NaN,734.001143498857,353.688914296288,NaN,NaN,865.998856501143,846.311085703712,1046.31108570371,534.001143498857,734.001143498857,353.688914296288,553.688914296288,665.998856501143,0,0,0,0,3,0,4,5,NaN,NaN,vertical,vertical,horizontal,vertical,none,none
1b,14,100199,2,62,126,20,F,NA,constant,heterogeneous,5,absent,1.54218888282776,1,vertical,vertical,1,0.999994486028498,green,2,NaN,1011.40458100154,742.594190385041,NaN,NaN,729.712474266665,845.121732464271,1011.40458100154,742.594190385041,1000.94274216971,443.006323791957,712.784863451954,360.378381699593,545.155339110131,608.899371659138,0,0,3,4,5,0,3,NaN,horizontal,vertical,horizontal,horizontal,vertical,none
1b,14,100199,2,63,127,20,F,NA,constant,heterogeneous,6,absent,1.92710518836975,1,horizontal,horizontal,1,0.894113592668013,green,4,NaN,696.282156015671,367.045908301137,NaN,NaN,903.717843984329,832.954091698863,1053.60308331891,626.654758133252,949.885239334581,393.700666434388,696.282156015671,367.045908301137,546.39691668109,573.345241866748,650.114760665419,806.299333565612,3,5,0,4,5,6,horizontal,horizontal,vertical,horizontal,vertical,horizontal
1b,14,100199,2,64,128,20,F,NA,constant,heterogeneous,3,absent,0.735183000564575,1,horizontal,horizontal,1,0.670587262240323,green,3,NaN,554.878267535729,529.712474266665,NaN,NaN,861.690083377915,847.425410200379,983.431649086356,422.862115532956,554.878267535729,529.712474266665,0,0,0,0,0,0,0,3,4,NaN,NaN,NaN,horizontal,horizontal,horizontal,none,none,none
1b,14,100199,3,1,129,20,F,NA,constant,heterogeneous,4,absent,0.956942081451416,1,vertical,vertical,1,0.894113592668013,green,3,NaN,708.616172865948,361.936991243214,NaN,NaN,891.383827134052,838.063008756786,1038.06300875679,508.616172865948,708.616172865948,361.936991243214,561.936991243214,691.383827134052,0,0,0,0,3,0,4,6,NaN,NaN,vertical,horizontal,vertical,horizontal,none,none
1b,14,100199,3,2,130,20,F,NA,constant,heterogeneous,4,absent,0.770073890686035,1,vertical,vertical,1,1.09411083568226,green,4,NaN,556.142287229426,525.445215295702,NaN,NaN,725.445215295702,843.857712770574,1043.85771277057,674.554784704298,874.554784704298,356.142287229426,556.142287229426,525.445215295702,0,0,0,0,5,3,6,4,NaN,NaN,horizontal,vertical,horizontal,vertical,none,none
1b,14,100199,3,3,131,20,F,NA,constant,heterogeneous,6,absent,1.33165311813354,1,horizontal,horizontal,1,0.694116349653764,green,3,NaN,1054.65053136242,586.654331158049,NaN,NaN,684.232422566416,827.206663668034,938.882953928832,813.860994826083,1054.65053136242,586.654331158049,915.767577433584,372.793336331966,661.117046071168,386.139005173917,545.349468637584,613.345668841951,0,5,4,3,6,0,vertical,vertical,horizontal,horizontal,vertical,vertical
1b,14,100199,3,4,132,20,F,NA,constant,heterogeneous,4,present,1.37116479873657,1,horizontal,horizontal,1,0.635293631120162,green,1,3,636.089159529932,795.341332995339,963.910840470068,404.658667004661,636.089159529932,795.341332995339,995.341332995339,763.910840470068,963.910840470068,404.658667004661,604.658667004661,436.089159529932,0,0,0,0,4,6,6,5,NaN,NaN,horizontal,vertical,vertical,horizontal,none,none
1b,14,100199,3,5,133,20,F,NA,constant,heterogeneous,3,present,0.854307889938354,1,vertical,vertical,1,0.788232699307528,green,2,1,923.626453162816,376.971974679454,931.334709102064,818.577661679039,931.334709102064,818.577661679039,923.626453162816,376.971974679454,545.03883773512,604.450363641507,0,0,0,0,0,0,6,4,0,NaN,NaN,NaN,vertical,vertical,vertical,none,none,none
1b,14,100199,3,6,134,20,F,NA,constant,heterogeneous,6,absent,0.785781145095825,1,vertical,vertical,1,0.905878136374734,green,4,NaN,786.654331158049,345.349468637584,NaN,NaN,813.345668841951,854.650531362416,1027.20666366803,715.767577433584,1013.86099482608,461.117046071168,786.654331158049,345.349468637584,572.793336331966,484.232422566416,586.139005173917,738.882953928832,0,0,6,4,5,5,vertical,vertical,vertical,vertical,horizontal,horizontal
1b,14,100199,3,7,135,20,F,NA,constant,heterogeneous,6,absent,1.15851306915283,1,horizontal,horizontal,1,0.647058174826882,green,1,NaN,684.232422566416,827.206663668034,NaN,NaN,684.232422566416,827.206663668034,938.882953928832,813.860994826083,1054.65053136242,586.654331158049,915.767577433584,372.793336331966,661.117046071168,386.139005173917,545.349468637584,613.345668841951,4,3,6,3,5,5,horizontal,vertical,vertical,vertical,vertical,horizontal
1b,14,100199,3,8,136,20,F,NA,constant,heterogeneous,4,absent,1.03761601448059,1,vertical,vertical,1,0.988229942321777,green,1,NaN,755.719714694933,851.125977018113,NaN,NaN,755.719714694933,851.125977018113,1051.12597701811,644.280285305067,844.280285305067,348.874022981887,548.874022981887,555.719714694933,0,0,0,0,4,6,0,0,NaN,NaN,vertical,horizontal,vertical,vertical,none,none
1b,14,100199,3,9,137,20,F,NA,constant,heterogeneous,5,present,0.938817024230957,1,horizontal,horizontal,1,0.811761786720969,green,2,4,1003.65205506206,753.462830903772,725.445215295702,356.142287229426,716.980120613425,841.107236777826,1003.65205506206,753.462830903772,1008.88377129369,453.738008730483,725.445215295702,356.142287229426,545.03883773512,595.549636358493,0,0,6,4,0,3,3,NaN,vertical,horizontal,horizontal,vertical,vertical,none
1b,14,100199,3,10,138,20,F,NA,constant,heterogeneous,3,present,1.22360682487488,1,vertical,vertical,1,1.09411083568226,green,3,1,791.100628340862,345.155339110131,583.747735480111,735.129412379467,583.747735480111,735.129412379467,1025.15163617903,719.715248510402,791.100628340862,345.155339110131,0,0,0,0,0,0,6,6,4,NaN,NaN,NaN,vertical,vertical,vertical,none,none,none
1b,14,100199,3,11,139,20,F,NA,constant,heterogeneous,5,absent,1.00623607635498,1,vertical,vertical,1,0.694116349653764,green,1,NaN,826.654758133252,853.60308331891,NaN,NaN,826.654758133252,853.60308331891,1049.42763818712,653.017481158529,927.5,379.163522034968,629.371695378491,410.498069503264,567.045908301137,703.717843984329,0,0,4,5,6,3,3,NaN,vertical,horizontal,vertical,vertical,vertical,none
1b,14,100199,3,12,140,20,F,NA,constant,heterogeneous,3,absent,0.788267850875854,1,horizontal,horizontal,1,1.09411083568226,green,2,NaN,1032.95409169886,496.282156015671,NaN,NaN,773.345241866748,853.60308331891,1032.95409169886,496.282156015671,593.700666434388,450.114760665419,0,0,0,0,0,0,3,4,5,NaN,NaN,NaN,vertical,horizontal,vertical,none,none,none
1b,14,100199,3,13,141,20,F,NA,constant,heterogeneous,5,present,1.15026307106018,1,horizontal,horizontal,1,0.694116349653764,green,1,4,729.712474266665,845.121732464271,712.784863451954,360.378381699593,729.712474266665,845.121732464271,1011.40458100154,742.594190385041,1000.94274216971,443.006323791957,712.784863451954,360.378381699593,545.155339110131,608.899371659138,0,0,4,5,6,0,5,NaN,horizontal,vertical,horizontal,horizontal,horizontal,none
1b,14,100199,3,14,142,20,F,NA,constant,heterogeneous,3,absent,1.54844999313354,1,horizontal,horizontal,1,0.752939068187367,green,3,NaN,565.271262369628,699.636437764765,NaN,NaN,1003.65205506206,753.462830903772,831.076682568313,346.900731331463,565.271262369628,699.636437764765,0,0,0,0,0,0,5,6,4,NaN,NaN,NaN,vertical,vertical,horizontal,none,none,none
1b,14,100199,3,15,143,20,F,NA,constant,heterogeneous,6,absent,NaN,0,horizontal,none,0,1.0588172045621,green,1,NaN,887.215136548046,839.621618300407,NaN,NaN,887.215136548046,839.621618300407,1051.12597701811,644.280285305067,963.910840470068,404.658667004661,712.784863451954,360.378381699593,548.874022981887,555.719714694933,636.089159529932,795.341332995339,4,6,3,5,0,0,horizontal,vertical,horizontal,vertical,horizontal,vertical
1b,14,100199,3,16,144,20,F,NA,constant,heterogeneous,6,present,0.762619018554688,1,vertical,vertical,1,0.882349048961293,green,6,3,672.5,820.836477965032,927.5,379.163522034968,927.5,820.836477965032,1055,600,927.5,379.163522034968,672.5,379.163522034968,545,600,672.5,820.836477965032,0,0,3,5,3,4,horizontal,vertical,horizontal,horizontal,horizontal,vertical
1b,14,100199,3,17,145,20,F,NA,constant,heterogeneous,3,absent,1.01243591308594,1,vertical,vertical,1,0.729409980773926,green,3,NaN,549.685068220846,551.343706178981,NaN,NaN,883.019879386575,841.107236777826,967.295052392579,407.549057043193,549.685068220846,551.343706178981,0,0,0,0,0,0,0,6,4,NaN,NaN,NaN,vertical,horizontal,vertical,none,none,none
1b,14,100199,3,18,146,20,F,NA,constant,heterogeneous,6,absent,0.924545049667358,1,vertical,vertical,1,0.776468155600808,green,6,NaN,576.971974679454,723.626453162816,NaN,NaN,795.549636358493,854.96116226488,1018.57766167904,731.334709102064,1023.02802532055,476.373546837184,804.450363641507,345.03883773512,581.422338320961,468.665290897936,576.971974679454,723.626453162816,6,3,0,0,3,4,vertical,horizontal,horizontal,horizontal,vertical,vertical
1b,14,100199,3,19,147,20,F,NA,constant,heterogeneous,6,present,1.3918981552124,1,horizontal,horizontal,1,1.03528811714866,green,2,5,1053.60308331891,626.654758133252,546.39691668109,573.345241866748,903.717843984329,832.954091698863,1053.60308331891,626.654758133252,949.885239334581,393.700666434388,696.282156015671,367.045908301137,546.39691668109,573.345241866748,650.114760665419,806.299333565612,0,4,0,3,5,6,horizontal,horizontal,vertical,vertical,horizontal,horizontal
1b,14,100199,3,20,148,20,F,NA,constant,heterogeneous,3,absent,0.876142978668213,1,vertical,vertical,1,0.811761786720969,green,1,NaN,725.445215295702,843.857712770574,NaN,NaN,725.445215295702,843.857712770574,1048.46436652023,542.637481142314,626.090418184063,413.504806087112,0,0,0,0,0,0,4,0,5,NaN,NaN,NaN,vertical,vertical,horizontal,none,none,none
1b,14,100199,3,21,149,20,F,NA,constant,heterogeneous,5,absent,0.961732149124146,0,horizontal,vertical,1,0.6,green,2,NaN,1051.86052685176,560.109211414741,NaN,NaN,915.767577433584,827.206663668034,1051.86052685176,560.109211414741,839.890788585259,348.13947314824,572.793336331966,484.232422566416,619.68777079743,780.31222920257,0,0,6,4,0,5,3,NaN,horizontal,horizontal,horizontal,vertical,horizontal,none
1b,14,100199,3,22,150,20,F,NA,constant,heterogeneous,6,present,1.18208408355713,1,horizontal,horizontal,1,0.847055417841131,green,4,1,911.784642431215,370.807518193712,688.215357568785,829.192481806288,688.215357568785,829.192481806288,942.594190385041,811.404581001536,1054.37883281626,582.212099195248,911.784642431215,370.807518193712,657.405809614959,388.595418998464,545.621167183745,617.787900804752,0,5,3,4,0,3,horizontal,horizontal,horizontal,horizontal,vertical,vertical
1b,14,100199,3,23,151,20,F,NA,constant,heterogeneous,4,absent,1.09080410003662,1,horizontal,horizontal,1,1.04705266085538,green,4,NaN,601.827779828472,439.523300282291,NaN,NaN,639.523300282292,798.172220171528,998.172220171528,760.476699717708,960.476699717708,401.827779828472,601.827779828472,439.523300282291,0,0,0,0,6,3,6,4,NaN,NaN,vertical,vertical,vertical,horizontal,none,none
1b,14,100199,3,24,152,20,F,NA,constant,heterogeneous,3,present,1.18272089958191,1,horizontal,horizontal,1,0.894113592668013,green,3,2,729.712474266665,354.878267535729,1047.42541020038,661.690083377915,622.862115532956,783.431649086356,1047.42541020038,661.690083377915,729.712474266665,354.878267535729,0,0,0,0,0,0,6,0,4,NaN,NaN,NaN,vertical,vertical,horizontal,none,none,none
1b,14,100199,3,25,153,20,F,NA,constant,heterogeneous,4,present,0.821224927902222,1,vertical,vertical,1,0.741174524480646,green,4,3,545.970351986605,622.224714400653,777.775285599347,345.970351986605,822.224714400653,854.029648013395,1054.0296480134,577.775285599347,777.775285599347,345.970351986605,545.970351986605,622.224714400653,0,0,0,0,0,3,6,4,NaN,NaN,horizontal,vertical,horizontal,vertical,none,none
1b,14,100199,3,26,154,20,F,NA,constant,heterogeneous,4,present,1.19571995735168,1,horizontal,horizontal,1,0.705880893360485,green,2,3,1045.12173246427,670.287525733335,870.287525733335,354.878267535729,729.712474266665,845.121732464271,1045.12173246427,670.287525733335,870.287525733335,354.878267535729,554.878267535729,529.712474266665,0,0,0,0,5,4,6,0,NaN,NaN,horizontal,horizontal,horizontal,vertical,none,none
1b,14,100199,3,27,155,20,F,NA,constant,heterogeneous,4,absent,1.01049399375916,0,vertical,horizontal,1,0.729409980773926,green,3,NaN,817.787900804752,345.621167183745,NaN,NaN,782.212099195248,854.378832816255,1054.37883281626,617.787900804752,817.787900804752,345.621167183745,545.621167183745,582.212099195248,0,0,0,0,3,5,4,6,NaN,NaN,horizontal,horizontal,vertical,vertical,none,none
1b,14,100199,3,28,156,20,F,NA,constant,heterogeneous,5,absent,1.08905696868896,1,horizontal,horizontal,1,0.705880893360485,green,5,NaN,568.891514305654,707.767656743878,NaN,NaN,831.076682568313,853.099268668537,1050.31493177915,648.656293821019,923.626453162816,376.971974679454,626.090418184063,413.504806087112,568.891514305654,707.767656743878,0,0,3,3,5,5,4,NaN,vertical,vertical,vertical,horizontal,horizontal,none
1b,14,100199,3,29,157,20,F,NA,constant,heterogeneous,4,present,1.36818695068359,1,horizontal,horizontal,1,0.658822718533603,green,3,2,963.910840470068,404.658667004661,995.341332995339,763.910840470068,636.089159529932,795.341332995339,995.341332995339,763.910840470068,963.910840470068,404.658667004661,604.658667004661,436.089159529932,0,0,0,0,3,6,4,6,NaN,NaN,horizontal,horizontal,horizontal,vertical,none,none
1b,14,100199,3,30,158,20,F,NA,constant,heterogeneous,3,present,0.936959981918335,1,horizontal,horizontal,1,0.670587262240323,green,3,2,622.862115532956,416.568350913644,1047.42541020038,538.309916622085,729.712474266665,845.121732464271,1047.42541020038,538.309916622085,622.862115532956,416.568350913644,0,0,0,0,0,0,3,3,4,NaN,NaN,NaN,vertical,horizontal,horizontal,none,none,none
1b,14,100199,3,31,159,20,F,NA,constant,heterogeneous,5,present,1.16223502159119,1,vertical,vertical,1,0.705880893360485,green,2,3,1006.29933356561,749.885239334581,1006.29933356561,450.114760665419,721.200666434388,842.519411655264,1006.29933356561,749.885239334581,1006.29933356561,450.114760665419,721.200666434388,357.480588344736,545,600,0,0,0,4,3,3,0,NaN,vertical,vertical,horizontal,horizontal,horizontal,none
1b,14,100199,3,32,160,20,F,NA,constant,heterogeneous,5,absent,1.3225212097168,1,horizontal,horizontal,1,0.658822718533603,green,5,NaN,547.481642470899,635.489140744817,NaN,NaN,755.719714694933,851.125977018113,1025.15163617903,719.715248510402,983.431649086356,422.862115532956,688.215357568785,370.807518193712,547.481642470899,635.489140744817,0,0,0,6,3,5,4,NaN,horizontal,horizontal,vertical,horizontal,horizontal,none
1b,14,100199,3,33,161,20,F,NA,constant,heterogeneous,4,present,0.844429016113281,1,vertical,vertical,1,0.764703611894087,green,2,1,1011.40458100154,457.40580961496,942.594190385041,811.404581001536,942.594190385041,811.404581001536,1011.40458100154,457.40580961496,657.405809614959,388.595418998464,588.595418998464,742.594190385041,0,0,0,0,6,4,0,0,NaN,NaN,vertical,vertical,vertical,vertical,none,none
1b,14,100199,3,34,162,20,F,NA,constant,heterogeneous,6,present,1.02714490890503,1,vertical,vertical,1,0.682351805947044,green,1,4,857.362518857686,848.464366520235,742.637481142314,351.535633479765,857.362518857686,848.464366520235,1043.85771277057,674.554784704298,986.495193912888,426.090418184063,742.637481142314,351.535633479765,556.142287229426,525.445215295702,613.504806087112,773.909581815937,4,6,6,3,0,3,vertical,horizontal,horizontal,vertical,horizontal,vertical
1b,14,100199,3,35,163,20,F,NA,constant,heterogeneous,4,absent,0.845010042190552,1,horizontal,horizontal,1,0.858819961547852,green,1,NaN,661.117046071168,813.860994826083,NaN,NaN,661.117046071168,813.860994826083,1013.86099482608,738.882953928832,938.882953928832,386.139005173917,586.139005173917,461.117046071168,0,0,0,0,4,3,5,0,NaN,NaN,horizontal,horizontal,horizontal,horizontal,none,none
1b,14,100199,3,36,164,20,F,NA,constant,heterogeneous,5,absent,NaN,0,vertical,none,0,0.611764543706721,green,4,NaN,629.371695378491,410.498069503264,NaN,NaN,826.654758133252,853.60308331891,1049.42763818712,653.017481158529,927.5,379.163522034968,629.371695378491,410.498069503264,567.045908301137,703.717843984329,0,0,6,3,6,4,5,NaN,horizontal,vertical,horizontal,vertical,vertical,none
1b,14,100199,3,37,165,20,F,NA,constant,heterogeneous,5,absent,1.22345995903015,1,horizontal,horizontal,1,0.647058174826882,green,2,NaN,967.295052392579,792.450942956807,NaN,NaN,668.665290897936,818.577661679039,967.295052392579,792.450942956807,1034.72873763037,500.363562235235,777.775285599347,345.970351986605,551.535633479765,542.637481142314,0,0,5,4,5,3,0,NaN,vertical,horizontal,vertical,vertical,vertical,none
1b,14,100199,3,38,166,20,F,NA,constant,heterogeneous,5,present,0.852566003799438,1,vertical,vertical,1,1.02352357344194,green,2,1,1049.42763818712,546.982518841471,927.5,820.836477965032,927.5,820.836477965032,1049.42763818712,546.982518841471,826.654758133252,346.39691668109,567.045908301137,496.282156015671,629.371695378491,789.501930496736,0,0,5,4,6,0,0,NaN,vertical,vertical,horizontal,vertical,vertical,none
1b,14,100199,3,39,167,20,F,NA,constant,heterogeneous,4,present,1.90702795982361,1,horizontal,horizontal,1,0.647058174826882,green,2,1,1006.29933356561,450.114760665419,949.885239334581,806.299333565612,949.885239334581,806.299333565612,1006.29933356561,450.114760665419,650.114760665419,393.700666434388,593.700666434388,749.885239334581,0,0,0,0,5,4,6,3,NaN,NaN,vertical,horizontal,vertical,horizontal,none,none
1b,14,100199,3,40,168,20,F,NA,constant,heterogeneous,3,present,0.965687990188599,1,horizontal,horizontal,1,1.02352357344194,green,3,1,547.481642470899,635.489140744817,956.993676208043,800.942742169714,956.993676208043,800.942742169714,895.524681321058,363.568117085469,547.481642470899,635.489140744817,0,0,0,0,0,0,6,6,4,NaN,NaN,NaN,vertical,horizontal,horizontal,none,none,none
1b,14,100199,3,41,169,20,F,NA,constant,heterogeneous,4,present,1.18206000328064,1,vertical,vertical,1,1.04705266085538,green,2,4,1008.88377129369,453.738008730483,591.116228706307,746.261991269517,946.261991269517,808.883771293693,1008.88377129369,453.738008730483,653.738008730483,391.116228706307,591.116228706307,746.261991269517,0,0,0,0,3,4,0,5,NaN,NaN,vertical,vertical,horizontal,vertical,none,none
1b,14,100199,3,42,170,20,F,NA,constant,heterogeneous,3,absent,0.869755983352661,1,vertical,vertical,1,0.788232699307528,green,2,NaN,938.882953928832,386.139005173917,NaN,NaN,915.767577433584,827.206663668034,938.882953928832,386.139005173917,545.349468637584,586.654331158049,0,0,0,0,0,0,3,4,0,NaN,NaN,NaN,vertical,vertical,vertical,none,none,none
1b,14,100199,3,43,171,20,F,NA,constant,heterogeneous,6,absent,1.25313091278076,1,horizontal,horizontal,1,0.894113592668013,green,6,NaN,572.793336331966,715.767577433584,NaN,NaN,786.654331158049,854.650531362416,1013.86099482608,738.882953928832,1027.20666366803,484.232422566416,813.345668841951,345.349468637584,586.139005173917,461.117046071168,572.793336331966,715.767577433584,3,0,0,6,6,4,horizontal,vertical,vertical,vertical,vertical,horizontal
1b,14,100199,3,44,172,20,F,NA,constant,heterogeneous,6,absent,NaN,0,vertical,none,0,0.929407223788175,green,4,NaN,760.109211414741,348.13947314824,NaN,NaN,839.890788585259,851.86052685176,1038.06300875679,691.383827134052,998.172220171528,439.523300282291,760.109211414741,348.13947314824,561.936991243214,508.616172865948,601.827779828472,760.476699717708,5,3,3,4,6,6,vertical,horizontal,vertical,vertical,vertical,vertical
1b,14,100199,3,45,173,20,F,NA,constant,heterogeneous,4,present,1.03245115280151,1,vertical,vertical,1,0.741174524480646,green,2,3,1023.02802532055,723.626453162816,923.626453162816,376.971974679454,676.373546837184,823.028025320546,1023.02802532055,723.626453162816,923.626453162816,376.971974679454,576.971974679454,476.373546837184,0,0,0,0,5,4,5,6,NaN,NaN,horizontal,vertical,vertical,vertical,none,none
1b,14,100199,3,46,174,20,F,NA,constant,heterogeneous,6,absent,0.913263082504272,1,vertical,vertical,1,0.811761786720969,green,2,NaN,1049.42763818712,653.017481158529,NaN,NaN,878.799333565612,842.519411655264,1049.42763818712,653.017481158529,970.628304621509,410.498069503264,721.200666434388,357.480588344736,550.57236181288,546.982518841471,629.371695378491,789.501930496736,0,4,0,6,3,5,vertical,vertical,horizontal,vertical,vertical,horizontal
1b,14,100199,3,47,175,20,F,NA,constant,heterogeneous,3,present,0.898192882537842,1,vertical,vertical,1,0.729409980773926,green,2,3,1054.65053136242,613.345668841951,684.232422566416,372.793336331966,661.117046071168,813.860994826083,1054.65053136242,613.345668841951,684.232422566416,372.793336331966,0,0,0,0,0,0,5,4,3,NaN,NaN,NaN,vertical,vertical,vertical,none,none,none
1b,14,100199,3,48,176,20,F,NA,constant,heterogeneous,6,present,1.18796515464783,1,horizontal,horizontal,1,0.788232699307528,green,1,5,817.787900804752,854.378832816255,570.807518193712,488.215357568785,817.787900804752,854.378832816255,1029.19248180629,711.784642431215,1011.40458100154,457.40580961496,782.212099195248,345.621167183745,570.807518193712,488.215357568785,588.595418998464,742.594190385041,4,3,5,0,6,5,horizontal,vertical,vertical,vertical,horizontal,vertical
1b,14,100199,3,49,177,20,F,NA,constant,heterogeneous,6,present,1.39330697059631,1,vertical,vertical,1,1.0588172045621,green,4,1,822.224714400653,345.970351986605,777.775285599347,854.029648013395,777.775285599347,854.029648013395,1008.88377129369,746.261991269517,1031.10848569435,492.232343256122,822.224714400653,345.970351986605,591.116228706307,453.738008730483,568.891514305654,707.767656743878,0,6,5,4,0,6,horizontal,horizontal,vertical,vertical,horizontal,vertical
1b,14,100199,3,50,178,20,F,NA,constant,heterogeneous,6,present,1.09691119194031,1,vertical,vertical,1,0.976465398615057,green,6,4,632.704947607421,792.450942956807,716.980120613425,358.892763222174,883.019879386575,841.107236777826,1050.31493177915,648.656293821019,967.295052392579,407.549057043193,716.980120613425,358.892763222174,549.685068220846,551.343706178981,632.704947607421,792.450942956807,5,0,6,0,3,4,horizontal,horizontal,vertical,vertical,horizontal,vertical
1b,14,100199,3,51,179,20,F,NA,constant,heterogeneous,3,absent,0.991008996963501,1,horizontal,horizontal,1,0.999994486028498,green,2,NaN,1047.42541020038,661.690083377915,NaN,NaN,622.862115532956,783.431649086356,1047.42541020038,661.690083377915,729.712474266665,354.878267535729,0,0,0,0,0,0,6,4,3,NaN,NaN,NaN,horizontal,horizontal,vertical,none,none,none
1b,14,100199,3,52,180,20,F,NA,constant,heterogeneous,5,absent,1.43765306472778,1,vertical,vertical,1,0.729409980773926,green,5,NaN,568.891514305654,707.767656743878,NaN,NaN,831.076682568313,853.099268668537,1050.31493177915,648.656293821019,923.626453162816,376.971974679454,626.090418184063,413.504806087112,568.891514305654,707.767656743878,0,0,0,3,0,3,4,NaN,vertical,vertical,vertical,vertical,vertical,none
1b,14,100199,3,53,181,20,F,NA,constant,heterogeneous,5,present,1.15157389640808,1,horizontal,horizontal,1,0.647058174826882,green,1,5,664.870587620533,816.252264519889,552.574589799621,538.309916622085,664.870587620533,816.252264519889,963.910840470068,795.341332995339,1036.43188291453,504.475318678942,782.212099195248,345.621167183745,552.574589799621,538.309916622085,0,0,4,6,3,5,6,NaN,horizontal,horizontal,vertical,vertical,horizontal,none
1b,14,100199,3,54,182,20,F,NA,constant,heterogeneous,3,absent,1.15302991867065,1,horizontal,horizontal,1,0.705880893360485,green,2,NaN,1054.65053136242,613.345668841951,NaN,NaN,661.117046071168,813.860994826083,1054.65053136242,613.345668841951,684.232422566416,372.793336331966,0,0,0,0,0,0,3,4,0,NaN,NaN,NaN,horizontal,horizontal,vertical,none,none,none
1b,14,100199,3,55,183,20,F,NA,constant,heterogeneous,5,present,1.62931704521179,1,horizontal,horizontal,1,1.04705266085538,green,5,2,545.970351986605,577.775285599347,992.450942956807,767.295052392579,700.363562235235,834.728737630372,992.450942956807,767.295052392579,1018.57766167904,468.665290897936,742.637481142314,351.535633479765,545.970351986605,577.775285599347,0,0,6,6,3,0,4,NaN,horizontal,vertical,vertical,horizontal,horizontal,none
1b,14,100199,3,56,184,20,F,NA,constant,heterogeneous,3,absent,1.05590891838074,1,vertical,vertical,1,1.08234629197554,green,2,NaN,980.31222920257,419.68777079743,NaN,NaN,865.998856501143,846.311085703712,980.31222920257,419.68777079743,553.688914296288,534.001143498857,0,0,0,0,0,0,6,4,0,NaN,NaN,NaN,vertical,vertical,horizontal,none,none,none
1b,14,100199,3,57,185,20,F,NA,constant,heterogeneous,4,absent,1.25312781333923,1,horizontal,horizontal,1,0.6,green,3,NaN,626.090418184063,413.504806087112,NaN,NaN,973.909581815937,786.495193912888,986.495193912888,426.090418184063,626.090418184063,413.504806087112,613.504806087112,773.909581815937,0,0,0,0,5,0,4,3,NaN,NaN,horizontal,horizontal,horizontal,vertical,none,none
1b,14,100199,3,58,186,20,F,NA,constant,heterogeneous,3,present,0.75396990776062,1,horizontal,horizontal,1,0.6,green,3,2,560.378381699593,512.784863451954,995.341332995339,436.089159529932,844.280285305067,851.125977018113,995.341332995339,436.089159529932,560.378381699593,512.784863451954,0,0,0,0,0,0,0,6,4,NaN,NaN,NaN,horizontal,horizontal,horizontal,none,none,none
1b,14,100199,3,59,187,20,F,NA,constant,heterogeneous,3,present,0.756515979766846,1,vertical,vertical,1,0.752939068187367,green,1,3,639.523300282292,798.172220171528,708.616172865948,361.936991243214,639.523300282292,798.172220171528,1051.86052685176,639.890788585259,708.616172865948,361.936991243214,0,0,0,0,0,0,4,0,0,NaN,NaN,NaN,vertical,horizontal,vertical,none,none,none
1b,14,100199,3,60,188,20,F,NA,constant,heterogeneous,6,present,NaN,0,horizontal,none,0,1.09411083568226,green,5,3,576.971974679454,476.373546837184,1018.57766167904,468.665290897936,804.450363641507,854.96116226488,1023.02802532055,723.626453162816,1018.57766167904,468.665290897936,795.549636358493,345.03883773512,576.971974679454,476.373546837184,581.422338320961,731.334709102064,5,6,0,5,4,3,vertical,vertical,horizontal,vertical,horizontal,horizontal
1b,14,100199,3,61,189,20,F,NA,constant,heterogeneous,5,present,0.868639945983887,1,vertical,vertical,1,0.929407223788175,green,3,5,822.224714400653,345.970351986605,632.704947607421,792.450942956807,931.334709102064,818.577661679039,1048.46436652023,542.637481142314,822.224714400653,345.970351986605,565.271262369628,500.363562235235,632.704947607421,792.450942956807,0,0,6,6,4,0,0,NaN,vertical,horizontal,vertical,vertical,horizontal,none
1b,14,100199,3,62,190,20,F,NA,constant,heterogeneous,5,present,0.889285087585449,0,vertical,horizontal,1,0.964700854908336,green,5,1,545.621167183745,582.212099195248,704.475318678942,836.431882914531,704.475318678942,836.431882914531,995.341332995339,763.910840470068,1016.25226451989,464.870587620533,738.309916622085,352.574589799621,545.621167183745,582.212099195248,0,0,3,3,6,6,4,NaN,vertical,vertical,vertical,horizontal,vertical,none
1b,14,100199,3,63,191,20,F,NA,constant,heterogeneous,4,absent,1.14785099029541,1,horizontal,horizontal,1,0.623529087413441,green,4,NaN,610.498069503264,770.628304621509,NaN,NaN,970.628304621509,789.501930496736,989.501930496736,429.371695378491,629.371695378491,410.498069503264,610.498069503264,770.628304621509,0,0,0,0,3,0,5,4,NaN,NaN,horizontal,horizontal,horizontal,horizontal,none,none
1b,14,100199,3,64,192,20,F,NA,constant,heterogeneous,5,absent,1.28857898712158,1,vertical,vertical,1,0.882349048961293,green,5,NaN,583.747735480111,735.129412379467,NaN,NaN,861.690083377915,847.425410200379,1054.37883281626,617.787900804752,895.524681321058,363.568117085469,604.658667004661,436.089159529932,583.747735480111,735.129412379467,0,0,3,6,5,6,4,NaN,horizontal,horizontal,vertical,vertical,vertical,none
1b,14,100199,4,1,193,20,F,NA,constant,heterogeneous,4,present,1.00455498695374,1,vertical,vertical,1,0.929407223788175,green,3,4,700.363562235235,365.271262369628,565.271262369628,699.636437764765,899.636437764765,834.728737630372,1034.72873763037,500.363562235235,700.363562235235,365.271262369628,565.271262369628,699.636437764765,0,0,0,0,0,3,4,3,NaN,NaN,horizontal,horizontal,vertical,vertical,none,none
1b,14,100199,4,2,194,20,F,NA,constant,heterogeneous,3,present,0.897455930709839,1,vertical,vertical,1,0.82352633042769,green,2,3,1049.42763818712,546.982518841471,629.371695378491,410.498069503264,721.200666434388,842.519411655264,1049.42763818712,546.982518841471,629.371695378491,410.498069503264,0,0,0,0,0,0,3,4,5,NaN,NaN,NaN,horizontal,vertical,vertical,none,none,none
1b,14,100199,4,3,195,20,F,NA,constant,heterogeneous,5,absent,0.876796007156372,1,horizontal,horizontal,1,0.858819961547852,green,1,NaN,755.719714694933,851.125977018113,NaN,NaN,755.719714694933,851.125977018113,1025.15163617903,719.715248510402,983.431649086356,422.862115532956,688.215357568785,370.807518193712,547.481642470899,635.489140744817,0,0,4,6,5,0,3,NaN,horizontal,horizontal,vertical,horizontal,vertical,none
1b,14,100199,4,4,196,20,F,NA,constant,heterogeneous,3,absent,0.996271848678589,1,vertical,vertical,1,0.694116349653764,green,2,NaN,1006.29933356561,450.114760665419,NaN,NaN,826.654758133252,853.60308331891,1006.29933356561,450.114760665419,567.045908301137,496.282156015671,0,0,0,0,0,0,0,4,3,NaN,NaN,NaN,horizontal,vertical,vertical,none,none,none
1b,14,100199,4,5,197,20,F,NA,constant,heterogeneous,6,absent,0.902082920074463,1,vertical,vertical,1,1.09411083568226,green,4,NaN,857.362518857686,351.535633479765,NaN,NaN,742.637481142314,848.464366520235,986.495193912888,773.909581815937,1043.85771277057,525.445215295702,857.362518857686,351.535633479765,613.504806087112,426.090418184063,556.142287229426,674.554784704298,6,0,3,4,5,6,horizontal,horizontal,vertical,vertical,vertical,horizontal
1b,14,100199,4,6,198,20,F,NA,constant,heterogeneous,4,present,1.12807488441467,1,horizontal,horizontal,1,0.788232699307528,green,3,2,861.690083377915,352.574589799621,1047.42541020038,661.690083377915,738.309916622085,847.425410200379,1047.42541020038,661.690083377915,861.690083377915,352.574589799621,552.574589799621,538.309916622085,0,0,0,0,3,3,4,5,NaN,NaN,vertical,vertical,horizontal,vertical,none,none
1b,14,100199,4,7,199,20,F,NA,constant,heterogeneous,5,absent,0.998425006866455,1,vertical,vertical,1,0.764703611894087,green,2,NaN,1041.10723677783,683.019879386575,NaN,NaN,795.549636358493,854.96116226488,1041.10723677783,683.019879386575,953.462830903772,396.34794493794,653.738008730483,391.116228706307,556.142287229426,674.554784704298,0,0,3,4,3,6,5,NaN,horizontal,vertical,vertical,horizontal,horizontal,none
1b,14,100199,4,8,200,20,F,NA,constant,heterogeneous,6,absent,1.15646600723267,1,horizontal,horizontal,1,0.905878136374734,green,2,NaN,980.31222920257,780.31222920257,NaN,NaN,734.001143498857,846.311085703712,980.31222920257,780.31222920257,1046.31108570371,534.001143498857,865.998856501143,353.688914296288,619.68777079743,419.68777079743,553.688914296288,665.998856501143,5,4,3,6,3,0,horizontal,horizontal,vertical,vertical,vertical,horizontal
1b,14,100199,4,9,201,20,F,NA,constant,heterogeneous,5,absent,0.974270820617676,1,vertical,vertical,1,0.729409980773926,green,1,NaN,808.899371659138,854.844660889869,NaN,NaN,808.899371659138,854.844660889869,1045.12173246427,670.287525733335,942.594190385041,388.595418998464,643.006323791957,399.057257830286,560.378381699593,687.215136548046,0,0,4,0,3,5,6,NaN,vertical,horizontal,horizontal,vertical,horizontal,none
1b,14,100199,4,10,202,20,F,NA,constant,heterogeneous,3,present,0.636510848999023,1,vertical,vertical,1,0.929407223788175,green,1,3,804.450363641507,854.96116226488,576.971974679454,476.373546837184,804.450363641507,854.96116226488,1018.57766167904,468.665290897936,576.971974679454,476.373546837184,0,0,0,0,0,0,4,6,6,NaN,NaN,NaN,vertical,horizontal,vertical,none,none,none
1b,14,100199,4,11,203,20,F,NA,constant,heterogeneous,3,present,0.865770101547241,1,horizontal,horizontal,1,0.611764543706721,green,1,2,883.019879386575,841.107236777826,967.295052392579,407.549057043193,883.019879386575,841.107236777826,967.295052392579,407.549057043193,549.685068220846,551.343706178981,0,0,0,0,0,0,4,3,6,NaN,NaN,NaN,horizontal,horizontal,horizontal,none,none,none
1b,14,100199,4,12,204,20,F,NA,constant,heterogeneous,3,present,0.98474907875061,1,horizontal,horizontal,1,0.882349048961293,green,3,2,550.57236181288,653.017481158529,878.799333565612,357.480588344736,970.628304621509,789.501930496736,878.799333565612,357.480588344736,550.57236181288,653.017481158529,0,0,0,0,0,0,5,3,4,NaN,NaN,NaN,horizontal,vertical,horizontal,none,none,none
1b,14,100199,4,13,205,20,F,NA,constant,heterogeneous,5,present,1.14009499549866,1,vertical,vertical,1,0.776468155600808,green,2,4,1008.88377129369,746.261991269517,716.980120613425,358.892763222174,725.445215295702,843.857712770574,1008.88377129369,746.261991269517,1003.65205506206,446.537169096228,716.980120613425,358.892763222174,545.03883773512,604.450363641507,0,0,3,4,0,5,6,NaN,vertical,vertical,vertical,vertical,horizontal,none
1b,14,100199,4,14,206,20,F,NA,constant,heterogeneous,4,absent,0.91987419128418,1,vertical,vertical,1,0.635293631120162,green,3,NaN,782.212099195248,345.621167183745,NaN,NaN,817.787900804752,854.378832816255,1054.37883281626,582.212099195248,782.212099195248,345.621167183745,545.621167183745,617.787900804752,0,0,0,0,5,6,4,3,NaN,NaN,vertical,vertical,vertical,horizontal,none,none
1b,14,100199,4,15,207,20,F,NA,constant,heterogeneous,5,absent,1.09475088119507,1,vertical,vertical,1,1.02352357344194,green,5,NaN,646.537169096228,803.65205506206,NaN,NaN,946.261991269517,808.883771293693,1043.85771277057,525.445215295702,804.450363641507,345.03883773512,558.892763222174,516.980120613425,646.537169096228,803.65205506206,0,0,3,3,0,0,4,NaN,vertical,horizontal,horizontal,horizontal,vertical,none
1b,14,100199,4,16,208,20,F,NA,constant,heterogeneous,3,present,0.806082010269165,1,vertical,vertical,1,0.847055417841131,green,1,3,946.261991269517,808.883771293693,545.970351986605,622.224714400653,946.261991269517,808.883771293693,907.767656743878,368.891514305654,545.970351986605,622.224714400653,0,0,0,0,0,0,4,6,6,NaN,NaN,NaN,vertical,horizontal,vertical,none,none,none
1b,14,100199,4,17,209,20,F,NA,constant,heterogeneous,6,present,0.875729084014893,1,horizontal,horizontal,1,0.670587262240323,green,1,6,742.637481142314,848.464366520235,556.142287229426,674.554784704298,742.637481142314,848.464366520235,986.495193912888,773.909581815937,1043.85771277057,525.445215295702,857.362518857686,351.535633479765,613.504806087112,426.090418184063,556.142287229426,674.554784704298,4,5,0,5,3,6,horizontal,vertical,vertical,horizontal,vertical,horizontal
1b,14,100199,4,18,210,20,F,NA,constant,heterogeneous,5,absent,1.25226998329163,1,horizontal,horizontal,1,0.741174524480646,green,4,NaN,629.371695378491,410.498069503264,NaN,NaN,826.654758133252,853.60308331891,1049.42763818712,653.017481158529,927.5,379.163522034968,629.371695378491,410.498069503264,567.045908301137,703.717843984329,0,0,5,3,0,4,0,NaN,vertical,horizontal,horizontal,horizontal,horizontal,none
1b,14,100199,4,19,211,20,F,NA,constant,heterogeneous,5,present,0.998762130737305,1,vertical,vertical,1,0.658822718533603,green,1,3,760.109211414741,851.86052685176,980.31222920257,419.68777079743,760.109211414741,851.86052685176,1027.20666366803,715.767577433584,980.31222920257,419.68777079743,684.232422566416,372.793336331966,548.13947314824,639.890788585259,0,0,4,5,0,6,5,NaN,vertical,vertical,vertical,horizontal,vertical,none
1b,14,100199,4,20,212,20,F,NA,constant,heterogeneous,3,present,0.686837911605835,1,vertical,vertical,1,1.01175902973522,green,1,3,826.654758133252,853.60308331891,567.045908301137,496.282156015671,826.654758133252,853.60308331891,1006.29933356561,450.114760665419,567.045908301137,496.282156015671,0,0,0,0,0,0,4,5,5,NaN,NaN,NaN,vertical,horizontal,vertical,none,none,none
1b,14,100199,4,21,213,20,F,NA,constant,heterogeneous,5,absent,1.3422999382019,1,vertical,vertical,1,0.858819961547852,green,4,NaN,657.405809614959,388.595418998464,NaN,NaN,791.100628340862,854.844660889869,1039.62161830041,687.215136548046,956.993676208043,399.057257830286,657.405809614959,388.595418998464,554.878267535729,670.287525733335,0,0,3,0,6,4,3,NaN,horizontal,horizontal,vertical,vertical,horizontal,none
1b,14,100199,4,22,214,20,F,NA,constant,heterogeneous,6,present,1.3596670627594,1,vertical,vertical,1,0.917642680081454,green,4,1,826.654758133252,346.39691668109,773.345241866748,853.60308331891,773.345241866748,853.60308331891,1006.29933356561,749.885239334581,1032.95409169886,496.282156015671,826.654758133252,346.39691668109,593.700666434388,450.114760665419,567.045908301137,703.717843984329,3,6,5,4,0,6,horizontal,horizontal,vertical,vertical,horizontal,vertical
1b,14,100199,4,23,215,20,F,NA,constant,heterogeneous,6,present,1.87599396705627,1,horizontal,horizontal,1,0.647058174826882,green,1,2,874.554784704298,843.857712770574,1048.46436652023,657.362518857686,874.554784704298,843.857712770574,1048.46436652023,657.362518857686,973.909581815937,413.504806087112,725.445215295702,356.142287229426,551.535633479765,542.637481142314,626.090418184063,786.495193912888,4,6,0,5,3,5,horizontal,vertical,vertical,horizontal,vertical,vertical
1b,14,100199,4,24,216,20,F,NA,constant,heterogeneous,4,absent,0.746302843093872,1,horizontal,horizontal,1,0.847055417841131,green,1,NaN,953.462830903772,803.65205506206,NaN,NaN,953.462830903772,803.65205506206,1003.65205506206,446.537169096228,646.537169096228,396.34794493794,596.34794493794,753.462830903772,0,0,0,0,4,6,6,0,NaN,NaN,horizontal,horizontal,vertical,vertical,none,none
1b,14,100199,4,25,217,20,F,NA,constant,heterogeneous,5,present,1.10657906532288,1,horizontal,horizontal,1,1.04705266085538,green,5,3,586.139005173917,738.882953928832,891.383827134052,361.936991243214,865.998856501143,846.311085703712,1054.65053136242,613.345668841951,891.383827134052,361.936991243214,601.827779828472,439.523300282291,586.139005173917,738.882953928832,0,0,0,3,3,5,4,NaN,vertical,horizontal,vertical,vertical,horizontal,none
1b,14,100199,4,26,218,20,F,NA,constant,heterogeneous,6,present,0.900536060333252,1,horizontal,horizontal,1,0.976465398615057,green,1,6,899.636437764765,834.728737630372,646.537169096228,803.65205506206,899.636437764765,834.728737630372,1053.09926866854,631.076682568313,953.462830903772,396.34794493794,700.363562235235,365.271262369628,546.900731331463,568.923317431687,646.537169096228,803.65205506206,4,6,0,3,0,5,horizontal,vertical,vertical,vertical,vertical,vertical
1b,14,100199,4,27,219,20,F,NA,constant,heterogeneous,5,present,1.53514099121094,1,horizontal,horizontal,1,0.811761786720969,green,3,2,963.910840470068,404.658667004661,1036.43188291453,695.524681321058,782.212099195248,854.378832816255,1036.43188291453,695.524681321058,963.910840470068,404.658667004661,664.870587620533,383.747735480111,552.574589799621,661.690083377915,0,0,0,6,4,3,6,NaN,vertical,vertical,horizontal,vertical,vertical,none
1b,14,100199,4,28,220,20,F,NA,constant,heterogeneous,3,absent,0.980082035064697,1,vertical,vertical,1,0.917642680081454,green,1,NaN,596.34794493794,753.462830903772,NaN,NaN,596.34794493794,753.462830903772,1034.72873763037,699.636437764765,768.923317431687,346.900731331463,0,0,0,0,0,0,4,3,6,NaN,NaN,NaN,vertical,horizontal,vertical,none,none,none
1b,14,100199,4,29,221,20,F,NA,constant,heterogeneous,6,absent,1.33734703063965,1,horizontal,horizontal,1,1.07058174826882,green,2,NaN,1045.12173246427,670.287525733335,NaN,NaN,861.690083377915,847.425410200379,1045.12173246427,670.287525733335,983.431649086356,422.862115532956,738.309916622085,352.574589799621,554.878267535729,529.712474266665,616.568350913644,777.137884467044,6,4,6,0,3,0,horizontal,horizontal,horizontal,vertical,vertical,vertical
1b,14,100199,4,30,222,20,F,NA,constant,heterogeneous,3,absent,0.958539962768555,1,vertical,vertical,1,0.717645437067205,green,1,NaN,923.626453162816,823.028025320546,NaN,NaN,923.626453162816,823.028025320546,931.334709102064,381.422338320961,545.03883773512,595.549636358493,0,0,0,0,0,0,4,0,6,NaN,NaN,NaN,vertical,vertical,horizontal,none,none,none
1b,14,100199,4,31,223,20,F,NA,constant,heterogeneous,3,present,1.32527279853821,1,horizontal,horizontal,1,0.764703611894087,green,2,1,1055,600,672.5,820.836477965032,672.5,820.836477965032,1055,600,672.5,379.163522034968,0,0,0,0,0,0,0,4,5,NaN,NaN,NaN,horizontal,horizontal,vertical,none,none,none
1b,14,100199,4,32,224,20,F,NA,constant,heterogeneous,6,absent,1.14118313789368,1,vertical,vertical,1,0.870584505254572,green,1,NaN,768.923317431687,853.099268668537,NaN,NaN,768.923317431687,853.099268668537,1003.65205506206,753.462830903772,1034.72873763037,500.363562235235,831.076682568313,346.900731331463,596.34794493794,446.537169096228,565.271262369628,699.636437764765,4,0,6,0,5,3,vertical,horizontal,vertical,horizontal,horizontal,vertical
1b,14,100199,4,33,225,20,F,NA,constant,heterogeneous,6,present,0.828764915466309,1,horizontal,horizontal,1,0.82352633042769,green,1,6,791.100628340862,854.844660889869,574.848363820974,719.715248510402,791.100628340862,854.844660889869,1016.25226451989,735.129412379467,1025.15163617903,480.284751489598,808.899371659138,345.155339110131,583.747735480111,464.870587620533,574.848363820974,719.715248510402,4,3,5,5,6,0,horizontal,horizontal,vertical,vertical,vertical,vertical
1b,14,100199,4,34,226,20,F,NA,constant,heterogeneous,6,present,1.31112194061279,1,vertical,vertical,1,0.682351805947044,green,4,1,712.784863451954,360.378381699593,887.215136548046,839.621618300407,887.215136548046,839.621618300407,1051.12597701811,644.280285305067,963.910840470068,404.658667004661,712.784863451954,360.378381699593,548.874022981887,555.719714694933,636.089159529932,795.341332995339,6,0,5,4,0,6,horizontal,horizontal,vertical,vertical,vertical,vertical
1b,14,100199,4,35,227,20,F,NA,constant,heterogeneous,6,absent,1.52861499786377,1,horizontal,horizontal,1,0.752939068187367,green,2,NaN,1047.42541020038,661.690083377915,NaN,NaN,870.287525733335,845.121732464271,1047.42541020038,661.690083377915,977.137884467044,416.568350913644,729.712474266665,354.878267535729,552.574589799621,538.309916622085,622.862115532956,783.431649086356,5,4,5,6,3,0,horizontal,horizontal,horizontal,vertical,vertical,vertical
1b,14,100199,4,36,228,20,F,NA,constant,heterogeneous,5,absent,0.979903936386108,1,horizontal,horizontal,1,0.623529087413441,green,2,NaN,1020.83647796503,727.5,NaN,NaN,746.982518841471,849.42763818712,1020.83647796503,727.5,989.501930496736,429.371695378491,696.282156015671,367.045908301137,546.39691668109,626.654758133252,0,0,5,4,3,6,3,NaN,vertical,horizontal,vertical,vertical,horizontal,none
1b,14,100199,4,37,229,20,F,NA,constant,heterogeneous,4,present,1.0619900226593,1,horizontal,horizontal,1,0.705880893360485,green,3,4,963.910840470068,404.658667004661,604.658667004661,436.089159529932,636.089159529932,795.341332995339,995.341332995339,763.910840470068,963.910840470068,404.658667004661,604.658667004661,436.089159529932,0,0,0,0,6,0,4,5,NaN,NaN,horizontal,vertical,horizontal,vertical,none,none
1b,14,100199,4,38,230,20,F,NA,constant,heterogeneous,6,present,1.06652617454529,1,vertical,vertical,1,0.764703611894087,green,6,4,616.568350913644,777.137884467044,738.309916622085,352.574589799621,861.690083377915,847.425410200379,1045.12173246427,670.287525733335,983.431649086356,422.862115532956,738.309916622085,352.574589799621,554.878267535729,529.712474266665,616.568350913644,777.137884467044,5,6,6,3,0,4,horizontal,horizontal,vertical,vertical,vertical,vertical
1b,14,100199,4,39,231,20,F,NA,constant,heterogeneous,5,absent,1.08451581001282,1,horizontal,horizontal,1,1.02352357344194,green,3,NaN,960.476699717708,401.827779828472,NaN,NaN,786.654331158049,854.650531362416,1038.06300875679,691.383827134052,960.476699717708,401.827779828472,661.117046071168,386.139005173917,553.688914296288,665.998856501143,0,0,3,5,4,5,6,NaN,horizontal,horizontal,horizontal,vertical,horizontal,none
1b,14,100199,4,40,232,20,F,NA,constant,heterogeneous,4,absent,1.16640186309814,1,vertical,vertical,1,0.999994486028498,green,1,NaN,668.665290897936,818.577661679039,NaN,NaN,668.665290897936,818.577661679039,1018.57766167904,731.334709102064,931.334709102064,381.422338320961,581.422338320961,468.665290897936,0,0,0,0,4,3,0,0,NaN,NaN,vertical,vertical,horizontal,horizontal,none,none
1b,14,100199,4,41,233,20,F,NA,constant,heterogeneous,5,present,1.25487112998962,1,horizontal,horizontal,1,0.847055417841131,green,4,1,583.747735480111,464.870587620533,895.524681321058,836.431882914531,895.524681321058,836.431882914531,1054.37883281626,582.212099195248,861.690083377915,352.574589799621,583.747735480111,464.870587620533,604.658667004661,763.910840470068,0,0,5,0,6,4,3,NaN,horizontal,horizontal,horizontal,horizontal,vertical,none
1b,14,100199,4,42,234,20,F,NA,constant,heterogeneous,3,absent,0.839868068695068,1,vertical,vertical,1,0.788232699307528,green,2,NaN,1053.60308331891,573.345241866748,NaN,NaN,696.282156015671,832.954091698863,1053.60308331891,573.345241866748,650.114760665419,393.700666434388,0,0,0,0,0,0,6,4,3,NaN,NaN,NaN,horizontal,vertical,vertical,none,none,none
1b,14,100199,4,43,235,20,F,NA,constant,heterogeneous,4,absent,1.20263600349426,1,vertical,vertical,1,0.694116349653764,green,3,NaN,688.215357568785,370.807518193712,NaN,NaN,911.784642431215,829.192481806288,1029.19248180629,488.215357568785,688.215357568785,370.807518193712,570.807518193712,711.784642431215,0,0,0,0,6,5,4,3,NaN,NaN,horizontal,vertical,vertical,horizontal,none,none
1b,14,100199,4,44,236,20,F,NA,constant,heterogeneous,3,absent,0.740554809570312,1,horizontal,horizontal,1,0.882349048961293,green,3,NaN,734.001143498857,353.688914296288,NaN,NaN,619.68777079743,780.31222920257,1046.31108570371,665.998856501143,734.001143498857,353.688914296288,0,0,0,0,0,0,6,3,4,NaN,NaN,NaN,horizontal,vertical,horizontal,none,none,none
1b,14,100199,4,45,237,20,F,NA,constant,heterogeneous,3,absent,1.01736903190613,1,horizontal,horizontal,1,0.682351805947044,green,1,NaN,755.719714694933,851.125977018113,NaN,NaN,755.719714694933,851.125977018113,1039.62161830041,512.784863451954,604.658667004661,436.089159529932,0,0,0,0,0,0,4,5,0,NaN,NaN,NaN,horizontal,horizontal,horizontal,none,none,none
1b,14,100199,4,46,238,20,F,NA,constant,heterogeneous,4,absent,0.995759010314941,1,vertical,vertical,1,0.694116349653764,green,3,NaN,672.5,379.163522034968,NaN,NaN,927.5,820.836477965032,1020.83647796503,472.5,672.5,379.163522034968,579.163522034968,727.5,0,0,0,0,3,5,4,6,NaN,NaN,vertical,vertical,vertical,horizontal,none,none
1b,14,100199,4,47,239,20,F,NA,constant,heterogeneous,5,present,1.2935209274292,1,vertical,vertical,1,0.894113592668013,green,5,3,607.549057043193,767.295052392579,857.362518857686,351.535633479765,899.636437764765,834.728737630372,1054.0296480134,577.775285599347,857.362518857686,351.535633479765,581.422338320961,468.665290897936,607.549057043193,767.295052392579,0,0,0,3,5,6,4,NaN,horizontal,vertical,vertical,vertical,vertical,none
1b,14,100199,4,48,240,20,F,NA,constant,heterogeneous,4,present,0.981174945831299,1,horizontal,horizontal,1,1.07058174826882,green,3,1,777.775285599347,345.970351986605,822.224714400653,854.029648013395,822.224714400653,854.029648013395,1054.0296480134,577.775285599347,777.775285599347,345.970351986605,545.970351986605,622.224714400653,0,0,0,0,5,0,4,3,NaN,NaN,vertical,horizontal,horizontal,vertical,none,none
1b,14,100199,4,49,241,20,F,NA,constant,heterogeneous,6,absent,0.992208957672119,1,vertical,vertical,1,0.952936311201616,green,2,NaN,1055,600,NaN,NaN,927.5,820.836477965032,1055,600,927.5,379.163522034968,672.5,379.163522034968,545,600,672.5,820.836477965032,6,4,0,5,5,3,horizontal,vertical,horizontal,horizontal,horizontal,vertical
1b,14,100199,4,50,242,20,F,NA,constant,heterogeneous,4,absent,1.25285315513611,1,horizontal,horizontal,1,0.83529087413441,green,3,NaN,777.775285599347,345.970351986605,NaN,NaN,822.224714400653,854.029648013395,1054.0296480134,577.775285599347,777.775285599347,345.970351986605,545.970351986605,622.224714400653,0,0,0,0,0,6,4,5,NaN,NaN,horizontal,vertical,horizontal,vertical,none,none
1b,14,100199,4,51,243,20,F,NA,constant,heterogeneous,4,absent,0.764669179916382,1,horizontal,horizontal,1,0.941171767494895,green,3,NaN,742.637481142314,351.535633479765,NaN,NaN,857.362518857686,848.464366520235,1048.46436652023,542.637481142314,742.637481142314,351.535633479765,551.535633479765,657.362518857686,0,0,0,0,0,3,4,0,NaN,NaN,horizontal,horizontal,horizontal,horizontal,none,none
