experiment,subject,uniqueID,block,trial,trial_cumulative,age,gender,color_cond_blocking,color_history,shape_type,set_size,distractor,rt,acc,target_orient,response_key,response_made,iti,target_color,target_item,distractor_item,target_X,target_Y,distractor_X,distractor_Y,item1_X,item1_Y,item2_X,item2_Y,item3_X,item3_Y,item4_X,item4_Y,item5_X,item5_Y,item6_X,item6_Y,item1_shape,item2_shape,item3_shape,item4_shape,item5_shape,item6_shape,item1_line,item2_line,item3_line,item4_line,item5_line,item6_line
1b,15,100201,1,1,1,20,F,NA,constant,heterogeneous,5,present,1.45988512039185,0,horizontal,vertical,1,1.04704908984048,red,3,4,923.626453162816,376.971974679454,626.090418184063,413.504806087112,831.076682568313,853.099268668537,1050.31493177915,648.656293821019,923.626453162816,376.971974679454,626.090418184063,413.504806087112,568.891514305654,707.767656743878,0,0,6,0,4,0,3,NaN,vertical,horizontal,horizontal,vertical,vertical,none
1b,15,100201,1,2,2,20,F,NA,constant,heterogeneous,5,absent,NaN,0,vertical,none,0,1.08234243903841,red,4,NaN,734.001143498857,353.688914296288,NaN,NaN,708.616172865948,838.063008756786,998.172220171528,760.476699717708,1013.86099482608,461.117046071168,734.001143498857,353.688914296288,545.349468637584,586.654331158049,0,0,3,5,0,4,0,NaN,vertical,vertical,horizontal,vertical,horizontal,none
1b,15,100201,1,3,3,20,F,NA,constant,heterogeneous,3,present,1.84159088134766,1,horizontal,horizontal,1,0.717644497326442,red,3,2,639.523300282292,401.827779828472,1051.86052685176,560.109211414741,708.616172865948,838.063008756786,1051.86052685176,560.109211414741,639.523300282292,401.827779828472,0,0,0,0,0,0,5,0,4,NaN,NaN,NaN,horizontal,horizontal,horizontal,none,none,none
1b,15,100201,1,4,4,20,F,NA,constant,heterogeneous,6,absent,1.87938499450684,1,horizontal,horizontal,1,1.05881353957312,red,1,NaN,777.775285599347,854.029648013395,NaN,NaN,777.775285599347,854.029648013395,1008.88377129369,746.261991269517,1031.10848569435,492.232343256122,822.224714400653,345.970351986605,591.116228706307,453.738008730483,568.891514305654,707.767656743878,4,0,5,3,0,6,horizontal,horizontal,horizontal,vertical,horizontal,horizontal
1b,15,100201,1,5,5,20,F,NA,constant,heterogeneous,6,absent,1.08799505233765,1,vertical,vertical,1,0.941169042246682,red,1,NaN,878.799333565612,842.519411655264,NaN,NaN,878.799333565612,842.519411655264,1049.42763818712,653.017481158529,970.628304621509,410.498069503264,721.200666434388,357.480588344736,550.57236181288,546.982518841471,629.371695378491,789.501930496736,4,0,0,6,5,3,vertical,vertical,horizontal,horizontal,horizontal,vertical
1b,15,100201,1,6,6,20,F,NA,constant,heterogeneous,3,present,NaN,0,vertical,none,0,0.917640142781394,red,2,1,1041.10723677783,516.980120613425,751.343706178981,850.314931779154,751.343706178981,850.314931779154,1041.10723677783,516.980120613425,607.549057043193,432.704947607421,0,0,0,0,0,0,5,4,6,NaN,NaN,NaN,horizontal,vertical,horizontal,none,none,none
1b,15,100201,1,7,7,20,F,NA,constant,heterogeneous,6,present,1.8761830329895,1,vertical,vertical,1,1.01175574064255,red,3,5,1031.10848569435,492.232343256122,591.116228706307,453.738008730483,777.775285599347,854.029648013395,1008.88377129369,746.261991269517,1031.10848569435,492.232343256122,822.224714400653,345.970351986605,591.116228706307,453.738008730483,568.891514305654,707.767656743878,6,6,4,5,5,0,horizontal,vertical,vertical,horizontal,vertical,horizontal
1b,15,100201,1,8,8,20,F,NA,constant,heterogeneous,5,present,1.29592704772949,1,vertical,vertical,1,0.682351148128509,red,5,2,604.658667004661,763.910840470068,1054.37883281626,582.212099195248,895.524681321058,836.431882914531,1054.37883281626,582.212099195248,861.690083377915,352.574589799621,583.747735480111,464.870587620533,604.658667004661,763.910840470068,0,0,0,5,6,3,4,NaN,horizontal,horizontal,vertical,horizontal,vertical,none
1b,15,100201,1,9,9,20,F,NA,constant,heterogeneous,3,absent,1.17505311965942,1,vertical,vertical,1,0.647057798930577,red,2,NaN,804.450363641507,345.03883773512,NaN,NaN,1018.57766167904,731.334709102064,804.450363641507,345.03883773512,576.971974679454,723.626453162816,0,0,0,0,0,0,3,4,6,NaN,NaN,NaN,horizontal,vertical,horizontal,none,none,none
1b,15,100201,1,10,10,20,F,NA,constant,heterogeneous,6,present,1.99722695350647,1,vertical,vertical,1,0.717644497326442,red,3,4,1053.60308331891,573.345241866748,903.717843984329,367.045908301137,696.282156015671,832.954091698863,949.885239334581,806.299333565612,1053.60308331891,573.345241866748,903.717843984329,367.045908301137,650.114760665419,393.700666434388,546.39691668109,626.654758133252,6,5,4,6,0,0,horizontal,horizontal,vertical,horizontal,horizontal,vertical
1b,15,100201,1,11,11,20,F,NA,constant,heterogeneous,3,absent,0.792656898498535,1,horizontal,horizontal,1,0.764702296257019,red,2,NaN,1047.42541020038,538.309916622085,NaN,NaN,729.712474266665,845.121732464271,1047.42541020038,538.309916622085,622.862115532956,416.568350913644,0,0,0,0,0,0,3,4,3,NaN,NaN,NaN,vertical,horizontal,horizontal,none,none,none
1b,15,100201,1,12,12,20,F,NA,constant,heterogeneous,5,absent,1.4749391078949,1,vertical,vertical,1,0.717644497326442,red,4,NaN,576.971974679454,476.373546837184,NaN,NaN,907.767656743878,831.108485694346,1053.09926866854,568.923317431687,848.656293821019,349.685068220846,576.971974679454,476.373546837184,613.504806087112,773.909581815937,0,0,6,5,6,4,0,NaN,vertical,vertical,vertical,vertical,vertical,none
1b,15,100201,1,13,13,20,F,NA,constant,heterogeneous,5,present,1.58849501609802,1,vertical,vertical,1,0.788231195722307,red,4,5,684.232422566416,372.793336331966,548.13947314824,639.890788585259,760.109211414741,851.86052685176,1027.20666366803,715.767577433584,980.31222920257,419.68777079743,684.232422566416,372.793336331966,548.13947314824,639.890788585259,0,0,5,0,6,4,5,NaN,horizontal,vertical,horizontal,vertical,horizontal,none
1b,15,100201,1,14,14,20,F,NA,constant,heterogeneous,6,present,NaN,0,horizontal,none,0,0.658822248663221,red,6,2,545.155339110131,608.899371659138,935.129412379467,816.252264519889,680.284751489598,825.151636179026,935.129412379467,816.252264519889,1054.84466088987,591.100628340862,919.715248510402,374.848363820974,664.870587620533,383.747735480111,545.155339110131,608.899371659138,5,6,3,6,3,4,horizontal,vertical,vertical,horizontal,vertical,horizontal
1b,15,100201,1,15,15,20,F,NA,constant,heterogeneous,4,present,1.65972685813904,1,horizontal,horizontal,1,0.882346793583461,red,1,2,870.287525733335,845.121732464271,1045.12173246427,529.712474266665,870.287525733335,845.121732464271,1045.12173246427,529.712474266665,729.712474266665,354.878267535729,554.878267535729,670.287525733335,0,0,0,0,4,3,6,0,NaN,NaN,horizontal,horizontal,vertical,horizontal,none,none
1b,15,100201,1,16,16,20,F,NA,constant,heterogeneous,3,absent,0.877007961273193,1,horizontal,horizontal,1,0.799995645454952,red,1,NaN,923.626453162816,823.028025320546,NaN,NaN,923.626453162816,823.028025320546,931.334709102064,381.422338320961,545.03883773512,595.549636358493,0,0,0,0,0,0,4,3,0,NaN,NaN,NaN,horizontal,horizontal,vertical,none,none,none
1b,15,100201,1,17,17,20,F,NA,constant,heterogeneous,3,absent,0.908588171005249,1,horizontal,horizontal,1,1.09410688877106,red,1,NaN,963.910840470068,795.341332995339,NaN,NaN,963.910840470068,795.341332995339,887.215136548046,360.378381699593,548.874022981887,644.280285305067,0,0,0,0,0,0,4,0,3,NaN,NaN,NaN,horizontal,vertical,vertical,none,none,none
1b,15,100201,1,18,18,20,F,NA,constant,heterogeneous,3,absent,1.23896408081055,1,vertical,vertical,1,0.799995645454952,red,2,NaN,883.019879386575,358.892763222174,NaN,NaN,967.295052392579,792.450942956807,883.019879386575,358.892763222174,549.685068220846,648.656293821019,0,0,0,0,0,0,3,4,5,NaN,NaN,NaN,horizontal,vertical,horizontal,none,none,none
1b,15,100201,1,19,19,20,F,NA,constant,heterogeneous,5,present,NaN,0,vertical,none,0,0.999991290909903,red,3,1,960.476699717708,401.827779828472,786.654331158049,854.650531362416,786.654331158049,854.650531362416,1038.06300875679,691.383827134052,960.476699717708,401.827779828472,661.117046071168,386.139005173917,553.688914296288,665.998856501143,0,0,3,3,4,5,5,NaN,horizontal,horizontal,vertical,horizontal,horizontal,none
1b,15,100201,1,20,20,20,F,NA,constant,heterogeneous,3,present,1.66817402839661,1,horizontal,horizontal,1,0.6,red,1,2,751.343706178981,850.314931779154,1041.10723677783,516.980120613425,751.343706178981,850.314931779154,1041.10723677783,516.980120613425,607.549057043193,432.704947607421,0,0,0,0,0,0,4,0,6,NaN,NaN,NaN,horizontal,horizontal,horizontal,none,none,none
1b,15,100201,1,21,21,20,F,NA,constant,heterogeneous,4,absent,0.8021080493927,1,horizontal,horizontal,1,0.611764449732644,red,2,NaN,1023.02802532055,723.626453162816,NaN,NaN,676.373546837184,823.028025320546,1023.02802532055,723.626453162816,923.626453162816,376.971974679454,576.971974679454,476.373546837184,0,0,0,0,3,4,6,3,NaN,NaN,vertical,horizontal,horizontal,horizontal,none,none
1b,15,100201,1,22,22,20,F,NA,constant,heterogeneous,3,present,1.89660310745239,1,vertical,vertical,1,0.917640142781394,red,3,2,567.045908301137,703.717843984329,826.654758133252,346.39691668109,1006.29933356561,749.885239334581,826.654758133252,346.39691668109,567.045908301137,703.717843984329,0,0,0,0,0,0,5,3,4,NaN,NaN,NaN,horizontal,vertical,vertical,none,none,none
1b,15,100201,1,23,23,20,F,NA,constant,heterogeneous,5,present,1.10372591018677,1,vertical,vertical,1,1.04704908984048,red,2,3,1038.06300875679,691.383827134052,960.476699717708,401.827779828472,786.654331158049,854.650531362416,1038.06300875679,691.383827134052,960.476699717708,401.827779828472,661.117046071168,386.139005173917,553.688914296288,665.998856501143,0,0,6,4,0,3,0,NaN,vertical,vertical,vertical,vertical,horizontal,none
1b,15,100201,1,24,24,20,F,NA,constant,heterogeneous,6,absent,1.00417399406433,1,vertical,vertical,1,0.929404592514038,red,1,NaN,915.767577433584,827.206663668034,NaN,NaN,915.767577433584,827.206663668034,1054.65053136242,613.345668841951,938.882953928832,386.139005173917,684.232422566416,372.793336331966,545.349468637584,586.654331158049,661.117046071168,813.860994826083,4,6,3,0,5,3,vertical,vertical,horizontal,horizontal,vertical,vertical
1b,15,100201,1,25,25,20,F,NA,constant,heterogeneous,3,present,0.888185977935791,0,horizontal,vertical,1,0.776466745989663,red,1,2,680.284751489598,825.151636179026,1054.84466088987,591.100628340862,680.284751489598,825.151636179026,1054.84466088987,591.100628340862,664.870587620533,383.747735480111,0,0,0,0,0,0,4,5,6,NaN,NaN,NaN,horizontal,vertical,horizontal,none,none,none
1b,15,100201,1,26,26,20,F,NA,constant,heterogeneous,3,absent,1.55927920341492,1,vertical,vertical,1,0.658822248663221,red,2,NaN,1054.37883281626,582.212099195248,NaN,NaN,688.215357568785,829.192481806288,1054.37883281626,582.212099195248,657.405809614959,388.595418998464,0,0,0,0,0,0,5,4,6,NaN,NaN,NaN,horizontal,vertical,vertical,none,none,none
1b,15,100201,1,27,27,20,F,NA,constant,heterogeneous,4,present,0.624252796173096,1,horizontal,horizontal,1,0.682351148128509,red,1,4,712.784863451954,839.621618300407,560.378381699593,512.784863451954,712.784863451954,839.621618300407,1039.62161830041,687.215136548046,887.215136548046,360.378381699593,560.378381699593,512.784863451954,0,0,0,0,4,0,5,6,NaN,NaN,horizontal,vertical,vertical,vertical,none,none
1b,15,100201,1,28,28,20,F,NA,constant,heterogeneous,4,present,1.06265711784363,1,horizontal,horizontal,1,0.894111243316105,red,3,4,953.462830903772,396.34794493794,596.34794493794,446.537169096228,646.537169096228,803.65205506206,1003.65205506206,753.462830903772,953.462830903772,396.34794493794,596.34794493794,446.537169096228,0,0,0,0,0,6,4,5,NaN,NaN,horizontal,horizontal,horizontal,vertical,none,none
1b,15,100201,1,29,29,20,F,NA,constant,heterogeneous,5,absent,1.33799982070923,1,horizontal,horizontal,1,0.694115597861154,red,1,NaN,853.017481158529,849.42763818712,NaN,NaN,853.017481158529,849.42763818712,1053.60308331891,626.654758133252,903.717843984329,367.045908301137,610.498069503264,429.371695378491,579.163522034968,727.5,0,0,4,5,3,0,0,NaN,horizontal,horizontal,horizontal,vertical,vertical,none
1b,15,100201,1,30,30,20,F,NA,constant,heterogeneous,6,present,1.07310485839844,1,horizontal,horizontal,1,0.811760095187596,red,3,4,1049.42763818712,546.982518841471,878.799333565612,357.480588344736,721.200666434388,842.519411655264,970.628304621509,789.501930496736,1049.42763818712,546.982518841471,878.799333565612,357.480588344736,629.371695378491,410.498069503264,550.57236181288,653.017481158529,0,0,4,5,6,3,horizontal,horizontal,horizontal,vertical,horizontal,vertical
1b,15,100201,1,31,31,20,F,NA,constant,heterogeneous,6,absent,NaN,0,vertical,none,0,0.894111243316105,red,1,NaN,672.5,820.836477965032,NaN,NaN,672.5,820.836477965032,927.5,820.836477965032,1055,600,927.5,379.163522034968,672.5,379.163522034968,545,600,4,6,3,3,6,5,vertical,vertical,horizontal,vertical,vertical,horizontal
1b,15,100201,1,32,32,20,F,NA,constant,heterogeneous,6,present,NaN,0,horizontal,none,0,1.05881353957312,red,3,1,1029.19248180629,488.215357568785,782.212099195248,854.378832816255,782.212099195248,854.378832816255,1011.40458100154,742.594190385041,1029.19248180629,488.215357568785,817.787900804752,345.621167183745,588.595418998464,457.40580961496,570.807518193712,711.784642431215,0,0,4,5,3,6,horizontal,horizontal,horizontal,vertical,horizontal,horizontal
1b,15,100201,1,33,33,20,F,NA,constant,heterogeneous,5,absent,0.754724979400635,1,horizontal,horizontal,1,0.811760095187596,red,2,NaN,1043.85771277057,674.554784704298,NaN,NaN,804.450363641507,854.96116226488,1043.85771277057,674.554784704298,946.261991269517,391.116228706307,646.537169096228,396.34794493794,558.892763222174,683.019879386575,0,0,3,4,0,3,6,NaN,horizontal,horizontal,horizontal,vertical,horizontal,none
1b,15,100201,1,34,34,20,F,NA,constant,heterogeneous,4,absent,1.93494820594788,1,horizontal,horizontal,1,0.647057798930577,red,3,NaN,700.363562235235,365.271262369628,NaN,NaN,899.636437764765,834.728737630372,1034.72873763037,500.363562235235,700.363562235235,365.271262369628,565.271262369628,699.636437764765,0,0,0,0,6,0,4,6,NaN,NaN,vertical,horizontal,horizontal,vertical,none,none
1b,15,100201,1,35,35,20,F,NA,constant,heterogeneous,5,present,1.05988097190857,1,horizontal,horizontal,1,0.894111243316105,red,1,5,684.232422566416,827.206663668034,548.13947314824,560.109211414741,684.232422566416,827.206663668034,980.31222920257,780.31222920257,1027.20666366803,484.232422566416,760.109211414741,348.13947314824,548.13947314824,560.109211414741,0,0,4,0,6,3,0,NaN,horizontal,vertical,horizontal,horizontal,horizontal,none
1b,15,100201,1,36,36,20,F,NA,constant,heterogeneous,3,present,1.2250349521637,1,horizontal,horizontal,1,1.01175574064255,red,2,1,970.628304621509,410.498069503264,878.799333565612,842.519411655264,878.799333565612,842.519411655264,970.628304621509,410.498069503264,550.57236181288,546.982518841471,0,0,0,0,0,0,5,4,5,NaN,NaN,NaN,vertical,horizontal,horizontal,none,none,none
1b,15,100201,1,37,37,20,F,NA,constant,heterogeneous,6,absent,NaN,0,horizontal,none,0,0.894111243316105,red,4,NaN,907.767656743878,368.891514305654,NaN,NaN,692.232343256122,831.108485694346,946.261991269517,808.883771293693,1054.0296480134,577.775285599347,907.767656743878,368.891514305654,653.738008730483,391.116228706307,545.970351986605,622.224714400653,0,6,3,4,5,6,vertical,vertical,horizontal,horizontal,vertical,vertical
1b,15,100201,1,38,38,20,F,NA,constant,heterogeneous,5,present,NaN,0,horizontal,none,0,0.870582343850817,red,3,1,923.626453162816,376.971974679454,831.076682568313,853.099268668537,831.076682568313,853.099268668537,1050.31493177915,648.656293821019,923.626453162816,376.971974679454,626.090418184063,413.504806087112,568.891514305654,707.767656743878,0,0,6,0,4,5,3,NaN,horizontal,horizontal,horizontal,vertical,vertical,none
1b,15,100201,1,39,39,20,F,NA,constant,heterogeneous,3,present,1.55893278121948,1,vertical,vertical,1,1.03528464010784,red,2,3,946.261991269517,391.116228706307,545.970351986605,577.775285599347,907.767656743878,831.108485694346,946.261991269517,391.116228706307,545.970351986605,577.775285599347,0,0,0,0,0,0,3,4,6,NaN,NaN,NaN,horizontal,vertical,horizontal,none,none,none
1b,15,100201,1,40,40,20,F,NA,constant,heterogeneous,6,present,1.68127679824829,1,horizontal,horizontal,1,0.952933491979327,red,2,4,1008.88377129369,746.261991269517,822.224714400653,345.970351986605,777.775285599347,854.029648013395,1008.88377129369,746.261991269517,1031.10848569435,492.232343256122,822.224714400653,345.970351986605,591.116228706307,453.738008730483,568.891514305654,707.767656743878,0,4,5,5,0,6,horizontal,horizontal,horizontal,horizontal,horizontal,vertical
1b,15,100201,1,41,41,20,F,NA,constant,heterogeneous,4,absent,1.71751117706299,1,vertical,vertical,1,0.917640142781394,red,4,NaN,613.504806087112,773.909581815937,NaN,NaN,973.909581815937,786.495193912888,986.495193912888,426.090418184063,626.090418184063,413.504806087112,613.504806087112,773.909581815937,0,0,0,0,5,3,5,4,NaN,NaN,horizontal,vertical,vertical,vertical,none,none
1b,15,100201,1,42,42,20,F,NA,constant,heterogeneous,6,present,0.84481406211853,1,vertical,vertical,1,0.847053444385529,red,3,1,1013.86099482608,461.117046071168,813.345668841951,854.650531362416,813.345668841951,854.650531362416,1027.20666366803,715.767577433584,1013.86099482608,461.117046071168,786.654331158049,345.349468637584,572.793336331966,484.232422566416,586.139005173917,738.882953928832,5,3,4,6,5,0,vertical,horizontal,vertical,horizontal,horizontal,horizontal
1b,15,100201,1,43,43,20,F,NA,constant,heterogeneous,5,present,1.85782122612,1,horizontal,horizontal,1,1.01175574064255,red,5,3,551.535633479765,542.637481142314,1034.72873763037,500.363562235235,668.665290897936,818.577661679039,967.295052392579,792.450942956807,1034.72873763037,500.363562235235,777.775285599347,345.970351986605,551.535633479765,542.637481142314,0,0,3,0,6,0,4,NaN,vertical,vertical,horizontal,vertical,horizontal,none
1b,15,100201,1,44,44,20,F,NA,constant,heterogeneous,5,absent,NaN,0,vertical,none,0,0.717644497326442,red,5,NaN,547.481642470899,564.510859255183,NaN,NaN,688.215357568785,829.192481806288,983.431649086356,777.137884467044,1025.15163617903,480.284751489598,755.719714694933,348.874022981887,547.481642470899,564.510859255183,0,0,0,0,3,6,4,NaN,horizontal,vertical,vertical,horizontal,vertical,none
1b,15,100201,1,45,45,20,F,NA,constant,heterogeneous,5,absent,0.00132989883422852,0,horizontal,vertical,1,0.835288994652884,red,2,NaN,1029.19248180629,711.784642431215,NaN,NaN,764.510859255183,852.518357529101,1029.19248180629,711.784642431215,977.137884467044,416.568350913644,680.284751489598,374.848363820974,548.874022981887,644.280285305067,0,0,6,4,3,6,3,NaN,horizontal,horizontal,horizontal,horizontal,vertical,none
1b,15,100201,1,46,46,20,F,NA,constant,heterogeneous,4,absent,1.62355089187622,1,vertical,vertical,1,0.611764449732644,red,4,NaN,545.970351986605,577.775285599347,NaN,NaN,777.775285599347,854.029648013395,1054.0296480134,622.224714400653,822.224714400653,345.970351986605,545.970351986605,577.775285599347,0,0,0,0,0,3,5,4,NaN,NaN,horizontal,horizontal,horizontal,vertical,none,none
1b,15,100201,1,47,47,20,F,NA,constant,heterogeneous,4,present,1.00849390029907,1,vertical,vertical,1,0.611764449732644,red,1,2,746.982518841471,849.42763818712,1049.42763818712,653.017481158529,746.982518841471,849.42763818712,1049.42763818712,653.017481158529,853.017481158529,350.57236181288,550.57236181288,546.982518841471,0,0,0,0,4,5,0,6,NaN,NaN,vertical,vertical,horizontal,vertical,none,none
1b,15,100201,1,48,48,20,F,NA,constant,heterogeneous,4,present,1.16534495353699,1,vertical,vertical,1,0.623528899465288,red,3,2,643.006323791957,399.057257830286,1000.94274216971,443.006323791957,956.993676208043,800.942742169714,1000.94274216971,443.006323791957,643.006323791957,399.057257830286,599.057257830286,756.993676208043,0,0,0,0,6,0,4,0,NaN,NaN,vertical,horizontal,vertical,vertical,none,none
1b,15,100201,1,49,49,20,F,NA,constant,heterogeneous,6,absent,0.971926927566528,1,vertical,vertical,1,0.952933491979327,red,4,NaN,734.001143498857,353.688914296288,NaN,NaN,865.998856501143,846.311085703712,1046.31108570371,665.998856501143,980.31222920257,419.68777079743,734.001143498857,353.688914296288,553.688914296288,534.001143498857,619.68777079743,780.31222920257,3,5,6,4,6,5,vertical,horizontal,vertical,vertical,vertical,vertical
1b,15,100201,1,50,50,20,F,NA,constant,heterogeneous,4,absent,0.8613121509552,1,vertical,vertical,1,0.694115597861154,red,1,NaN,857.362518857686,848.464366520235,NaN,NaN,857.362518857686,848.464366520235,1048.46436652023,542.637481142314,742.637481142314,351.535633479765,551.535633479765,657.362518857686,0,0,0,0,4,5,0,0,NaN,NaN,vertical,horizontal,vertical,horizontal,none,none
1b,15,100201,1,51,51,20,F,NA,constant,heterogeneous,4,present,1.37588214874268,1,vertical,vertical,1,1.04704908984048,red,2,1,1018.57766167904,468.665290897936,931.334709102064,818.577661679039,931.334709102064,818.577661679039,1018.57766167904,468.665290897936,668.665290897936,381.422338320961,581.422338320961,731.334709102064,0,0,0,0,6,4,0,5,NaN,NaN,vertical,vertical,vertical,vertical,none,none
1b,15,100201,1,52,52,20,F,NA,constant,heterogeneous,4,present,1.40434694290161,1,vertical,vertical,1,0.847053444385529,red,1,3,923.626453162816,823.028025320546,676.373546837184,376.971974679454,923.626453162816,823.028025320546,1023.02802532055,476.373546837184,676.373546837184,376.971974679454,576.971974679454,723.626453162816,0,0,0,0,4,5,0,3,NaN,NaN,vertical,vertical,vertical,horizontal,none,none
1b,15,100201,1,53,53,20,F,NA,constant,heterogeneous,6,absent,NaN,0,horizontal,none,0,0.764702296257019,red,6,NaN,657.405809614959,811.404581001536,NaN,NaN,911.784642431215,829.192481806288,1054.37883281626,617.787900804752,942.594190385041,388.595418998464,688.215357568785,370.807518193712,545.621167183745,582.212099195248,657.405809614959,811.404581001536,3,3,6,5,5,4,vertical,vertical,vertical,horizontal,vertical,horizontal
1b,15,100201,1,54,54,20,F,NA,constant,heterogeneous,5,absent,1.3792290687561,1,horizontal,horizontal,1,0.741173396791731,red,2,NaN,1051.86052685176,560.109211414741,NaN,NaN,915.767577433584,827.206663668034,1051.86052685176,560.109211414741,839.890788585259,348.13947314824,572.793336331966,484.232422566416,619.68777079743,780.31222920257,0,0,0,4,6,3,3,NaN,vertical,horizontal,horizontal,vertical,horizontal,none
1b,15,100201,1,55,55,20,F,NA,constant,heterogeneous,3,present,1.34701490402222,1,vertical,vertical,1,0.611764449732644,red,1,2,923.626453162816,823.028025320546,931.334709102064,381.422338320961,923.626453162816,823.028025320546,931.334709102064,381.422338320961,545.03883773512,595.549636358493,0,0,0,0,0,0,4,6,5,NaN,NaN,NaN,vertical,vertical,horizontal,none,none,none
1b,15,100201,1,56,56,20,F,NA,constant,heterogeneous,4,absent,1.45541405677795,1,horizontal,horizontal,1,0.858817894118173,red,2,NaN,1042.51941165526,521.200666434388,NaN,NaN,878.799333565612,842.519411655264,1042.51941165526,521.200666434388,721.200666434388,357.480588344736,557.480588344736,678.799333565612,0,0,0,0,3,4,6,0,NaN,NaN,vertical,horizontal,vertical,horizontal,none,none
1b,15,100201,1,57,57,20,F,NA,constant,heterogeneous,4,absent,1.44634294509888,1,vertical,vertical,1,0.870582343850817,red,3,NaN,923.626453162816,376.971974679454,NaN,NaN,676.373546837184,823.028025320546,1023.02802532055,723.626453162816,923.626453162816,376.971974679454,576.971974679454,476.373546837184,0,0,0,0,5,6,4,3,NaN,NaN,vertical,horizontal,vertical,horizontal,none,none
1b,15,100201,1,58,58,20,F,NA,constant,heterogeneous,6,present,0.739953994750977,1,vertical,vertical,1,0.623528899465288,red,4,2,927.5,379.163522034968,927.5,820.836477965032,672.5,820.836477965032,927.5,820.836477965032,1055,600,927.5,379.163522034968,672.5,379.163522034968,545,600,0,5,0,4,6,5,horizontal,horizontal,horizontal,vertical,vertical,vertical
1b,15,100201,1,59,59,20,F,NA,constant,heterogeneous,3,absent,1.10844492912292,0,vertical,horizontal,1,1.07057798930577,red,3,NaN,561.936991243214,508.616172865948,NaN,NaN,839.890788585259,851.86052685176,998.172220171528,439.523300282291,561.936991243214,508.616172865948,0,0,0,0,0,0,0,5,4,NaN,NaN,NaN,vertical,vertical,vertical,none,none,none
1b,15,100201,1,60,60,20,F,NA,constant,heterogeneous,3,absent,1.11682415008545,1,horizontal,horizontal,1,0.705880047593798,red,2,NaN,1034.72873763037,500.363562235235,NaN,NaN,768.923317431687,853.099268668537,1034.72873763037,500.363562235235,596.34794493794,446.537169096228,0,0,0,0,0,0,5,4,0,NaN,NaN,NaN,vertical,horizontal,vertical,none,none,none
1b,15,100201,1,61,61,20,F,NA,constant,heterogeneous,6,absent,1.04365396499634,1,horizontal,horizontal,1,0.6,red,4,NaN,708.616172865948,361.936991243214,NaN,NaN,891.383827134052,838.063008756786,1051.86052685176,639.890788585259,960.476699717708,401.827779828472,708.616172865948,361.936991243214,548.13947314824,560.109211414741,639.523300282292,798.172220171528,6,0,3,4,3,5,vertical,horizontal,vertical,horizontal,horizontal,vertical
1b,15,100201,1,62,62,20,F,NA,constant,heterogeneous,5,absent,NaN,0,vertical,none,0,0.623528899465288,red,4,NaN,558.892763222174,516.980120613425,NaN,NaN,946.261991269517,808.883771293693,1043.85771277057,525.445215295702,804.450363641507,345.03883773512,558.892763222174,516.980120613425,646.537169096228,803.65205506206,0,0,6,3,5,4,0,NaN,horizontal,horizontal,horizontal,vertical,vertical,none
1b,15,100201,1,63,63,20,F,NA,constant,heterogeneous,4,present,NaN,0,horizontal,none,0,0.90587569304875,red,1,4,619.68777079743,780.31222920257,619.68777079743,419.68777079743,619.68777079743,780.31222920257,980.31222920257,780.31222920257,980.31222920257,419.68777079743,619.68777079743,419.68777079743,0,0,0,0,4,3,5,6,NaN,NaN,horizontal,vertical,horizontal,vertical,none,none
1b,15,100201,1,64,64,20,F,NA,constant,heterogeneous,4,absent,1.0983419418335,1,horizontal,horizontal,1,0.929404592514038,red,3,NaN,672.5,379.163522034968,NaN,NaN,927.5,820.836477965032,1020.83647796503,472.5,672.5,379.163522034968,579.163522034968,727.5,0,0,0,0,0,3,4,5,NaN,NaN,horizontal,vertical,horizontal,horizontal,none,none
1b,15,100201,2,1,65,20,F,NA,constant,heterogeneous,6,present,NaN,0,vertical,none,0,0.811760095187596,red,2,6,995.341332995339,763.910840470068,560.378381699593,687.215136548046,755.719714694933,851.125977018113,995.341332995339,763.910840470068,1039.62161830041,512.784863451954,844.280285305067,348.874022981887,604.658667004661,436.089159529932,560.378381699593,687.215136548046,5,4,6,5,0,3,vertical,vertical,horizontal,vertical,horizontal,vertical
1b,15,100201,2,2,66,20,F,NA,constant,heterogeneous,4,absent,1.43899488449097,1,horizontal,horizontal,1,1.07057798930577,red,1,NaN,768.923317431687,853.099268668537,NaN,NaN,768.923317431687,853.099268668537,1053.09926866854,631.076682568313,831.076682568313,346.900731331463,546.900731331463,568.923317431687,0,0,0,0,4,3,0,5,NaN,NaN,horizontal,vertical,horizontal,vertical,none,none
1b,15,100201,2,3,67,20,F,NA,constant,heterogeneous,4,present,1.61879181861877,1,vertical,vertical,1,0.741173396791731,red,3,2,657.405809614959,388.595418998464,1011.40458100154,457.40580961496,942.594190385041,811.404581001536,1011.40458100154,457.40580961496,657.405809614959,388.595418998464,588.595418998464,742.594190385041,0,0,0,0,5,3,4,5,NaN,NaN,vertical,vertical,vertical,horizontal,none,none
1b,15,100201,2,4,68,20,F,NA,constant,heterogeneous,3,absent,1.78765988349915,1,vertical,vertical,1,0.623528899465288,red,2,NaN,911.784642431215,370.807518193712,NaN,NaN,942.594190385041,811.404581001536,911.784642431215,370.807518193712,545.621167183745,617.787900804752,0,0,0,0,0,0,6,4,5,NaN,NaN,NaN,horizontal,vertical,horizontal,none,none,none
1b,15,100201,2,5,69,20,F,NA,constant,heterogeneous,6,absent,1.80557894706726,1,horizontal,horizontal,1,1.09410688877106,red,6,NaN,545.349468637584,613.345668841951,NaN,NaN,684.232422566416,827.206663668034,938.882953928832,813.860994826083,1054.65053136242,586.654331158049,915.767577433584,372.793336331966,661.117046071168,386.139005173917,545.349468637584,613.345668841951,6,5,0,6,0,4,horizontal,vertical,horizontal,horizontal,horizontal,horizontal
1b,15,100201,2,6,70,20,F,NA,constant,heterogeneous,4,present,1.48856806755066,1,vertical,vertical,1,0.929404592514038,red,4,1,567.045908301137,703.717843984329,903.717843984329,832.954091698863,903.717843984329,832.954091698863,1032.95409169886,496.282156015671,696.282156015671,367.045908301137,567.045908301137,703.717843984329,0,0,0,0,0,0,6,4,NaN,NaN,vertical,horizontal,vertical,vertical,none,none
1b,15,100201,2,7,71,20,F,NA,constant,heterogeneous,6,absent,NaN,0,horizontal,none,0,0.999991290909903,red,2,NaN,927.5,820.836477965032,NaN,NaN,672.5,820.836477965032,927.5,820.836477965032,1055,600,927.5,379.163522034968,672.5,379.163522034968,545,600,3,4,6,0,5,3,vertical,horizontal,vertical,vertical,horizontal,vertical
1b,15,100201,2,8,72,20,F,NA,constant,heterogeneous,3,present,1.54339599609375,1,vertical,vertical,1,1.02352019037519,red,2,3,1054.96116226488,595.549636358493,668.665290897936,381.422338320961,676.373546837184,823.028025320546,1054.96116226488,595.549636358493,668.665290897936,381.422338320961,0,0,0,0,0,0,5,4,6,NaN,NaN,NaN,horizontal,vertical,horizontal,none,none,none
1b,15,100201,2,9,73,20,F,NA,constant,heterogeneous,6,absent,1.70330286026001,1,horizontal,horizontal,1,0.647057798930577,red,6,NaN,583.747735480111,735.129412379467,NaN,NaN,808.899371659138,854.844660889869,1025.15163617903,719.715248510402,1016.25226451989,464.870587620533,791.100628340862,345.155339110131,574.848363820974,480.284751489598,583.747735480111,735.129412379467,6,0,6,3,0,4,vertical,vertical,vertical,vertical,horizontal,horizontal
1b,15,100201,2,10,74,20,F,NA,constant,heterogeneous,3,absent,1.80277514457703,1,vertical,vertical,1,1.05881353957312,red,3,NaN,751.343706178981,349.685068220846,NaN,NaN,607.549057043193,767.295052392579,1041.10723677783,683.019879386575,751.343706178981,349.685068220846,0,0,0,0,0,0,0,6,4,NaN,NaN,NaN,vertical,vertical,vertical,none,none,none
1b,15,100201,2,11,75,20,F,NA,constant,heterogeneous,4,absent,1.48692607879639,1,vertical,vertical,1,0.6,red,1,NaN,874.554784704298,843.857712770574,NaN,NaN,874.554784704298,843.857712770574,1043.85771277057,525.445215295702,725.445215295702,356.142287229426,556.142287229426,674.554784704298,0,0,0,0,4,5,0,6,NaN,NaN,vertical,horizontal,horizontal,vertical,none,none
1b,15,100201,2,12,76,20,F,NA,constant,heterogeneous,3,present,0.901095151901245,1,vertical,vertical,1,0.611764449732644,red,2,1,983.431649086356,422.862115532956,861.690083377915,847.425410200379,861.690083377915,847.425410200379,983.431649086356,422.862115532956,554.878267535729,529.712474266665,0,0,0,0,0,0,3,4,5,NaN,NaN,NaN,horizontal,vertical,horizontal,none,none,none
1b,15,100201,2,13,77,20,F,NA,constant,heterogeneous,5,present,1.12795209884644,1,horizontal,horizontal,1,0.635293349197933,red,3,5,935.129412379467,383.747735480111,563.568117085469,695.524681321058,817.787900804752,854.378832816255,1047.42541020038,661.690083377915,935.129412379467,383.747735480111,636.089159529932,404.658667004661,563.568117085469,695.524681321058,0,0,3,0,4,3,5,NaN,vertical,horizontal,horizontal,vertical,horizontal,none
1b,15,100201,2,14,78,20,F,NA,constant,heterogeneous,6,present,NaN,0,vertical,none,0,1.01175574064255,red,6,3,672.5,820.836477965032,927.5,379.163522034968,927.5,820.836477965032,1055,600,927.5,379.163522034968,672.5,379.163522034968,545,600,672.5,820.836477965032,6,5,3,0,5,4,vertical,vertical,vertical,vertical,horizontal,vertical
1b,15,100201,2,15,79,20,F,NA,constant,heterogeneous,4,present,1.94644784927368,0,horizontal,vertical,1,0.952933491979327,red,1,3,704.475318678942,836.431882914531,895.524681321058,363.568117085469,704.475318678942,836.431882914531,1036.43188291453,695.524681321058,895.524681321058,363.568117085469,563.568117085469,504.475318678942,0,0,0,0,4,6,3,5,NaN,NaN,horizontal,vertical,vertical,vertical,none,none
1b,15,100201,2,16,80,20,F,NA,constant,heterogeneous,6,absent,1.57921314239502,1,vertical,vertical,1,0.694115597861154,red,3,NaN,1016.25226451989,464.870587620533,NaN,NaN,808.899371659138,854.844660889869,1025.15163617903,719.715248510402,1016.25226451989,464.870587620533,791.100628340862,345.155339110131,574.848363820974,480.284751489598,583.747735480111,735.129412379467,6,0,4,3,3,5,vertical,vertical,vertical,horizontal,vertical,vertical
1b,15,100201,2,17,81,20,F,NA,constant,heterogeneous,4,absent,1.62515807151794,1,horizontal,horizontal,1,0.894111243316105,red,4,NaN,616.568350913644,422.862115532956,NaN,NaN,622.862115532956,783.431649086356,983.431649086356,777.137884467044,977.137884467044,416.568350913644,616.568350913644,422.862115532956,0,0,0,0,0,3,5,4,NaN,NaN,vertical,horizontal,horizontal,horizontal,none,none
1b,15,100201,2,18,82,20,F,NA,constant,heterogeneous,5,absent,1.85768890380859,0,vertical,horizontal,1,0.988226841177259,red,1,NaN,760.109211414741,851.86052685176,NaN,NaN,760.109211414741,851.86052685176,1027.20666366803,715.767577433584,980.31222920257,419.68777079743,684.232422566416,372.793336331966,548.13947314824,639.890788585259,0,0,4,3,5,3,0,NaN,vertical,horizontal,horizontal,horizontal,horizontal,none
1b,15,100201,2,19,83,20,F,NA,constant,heterogeneous,5,absent,NaN,0,vertical,none,0,0.988226841177259,red,1,NaN,721.200666434388,842.519411655264,NaN,NaN,721.200666434388,842.519411655264,1006.29933356561,749.885239334581,1006.29933356561,450.114760665419,721.200666434388,357.480588344736,545,600,0,0,4,6,3,5,0,NaN,vertical,horizontal,horizontal,vertical,vertical,none
1b,15,100201,2,20,84,20,F,NA,constant,heterogeneous,5,present,0.956470012664795,1,vertical,vertical,1,0.870582343850817,red,5,1,548.13947314824,560.109211414741,684.232422566416,827.206663668034,684.232422566416,827.206663668034,980.31222920257,780.31222920257,1027.20666366803,484.232422566416,760.109211414741,348.13947314824,548.13947314824,560.109211414741,0,0,5,3,0,5,4,NaN,horizontal,vertical,horizontal,vertical,vertical,none
1b,15,100201,2,21,85,20,F,NA,constant,heterogeneous,4,absent,1.20493197441101,1,horizontal,horizontal,1,0.858817894118173,red,1,NaN,903.717843984329,832.954091698863,NaN,NaN,903.717843984329,832.954091698863,1032.95409169886,496.282156015671,696.282156015671,367.045908301137,567.045908301137,703.717843984329,0,0,0,0,4,6,0,0,NaN,NaN,horizontal,vertical,horizontal,horizontal,none,none
1b,15,100201,2,22,86,20,F,NA,constant,heterogeneous,3,present,1.4346079826355,0,horizontal,vertical,1,1.07057798930577,red,1,3,768.923317431687,853.099268668537,596.34794493794,446.537169096228,768.923317431687,853.099268668537,1034.72873763037,500.363562235235,596.34794493794,446.537169096228,0,0,0,0,0,0,4,6,0,NaN,NaN,NaN,horizontal,horizontal,horizontal,none,none,none
1b,15,100201,2,23,87,20,F,NA,constant,heterogeneous,6,absent,NaN,0,vertical,none,0,0.941169042246682,red,6,NaN,553.688914296288,665.998856501143,NaN,NaN,734.001143498857,846.311085703712,980.31222920257,780.31222920257,1046.31108570371,534.001143498857,865.998856501143,353.688914296288,619.68777079743,419.68777079743,553.688914296288,665.998856501143,3,5,6,0,3,4,horizontal,horizontal,vertical,horizontal,vertical,vertical
1b,15,100201,2,24,88,20,F,NA,constant,heterogeneous,3,present,0.708229064941406,1,vertical,vertical,1,0.870582343850817,red,1,3,721.200666434388,842.519411655264,629.371695378491,410.498069503264,721.200666434388,842.519411655264,1049.42763818712,546.982518841471,629.371695378491,410.498069503264,0,0,0,0,0,0,4,6,3,NaN,NaN,NaN,vertical,horizontal,vertical,none,none,none
1b,15,100201,2,25,89,20,F,NA,constant,heterogeneous,6,present,1.49134612083435,1,horizontal,horizontal,1,0.835288994652884,red,1,4,844.280285305067,851.125977018113,755.719714694933,348.874022981887,844.280285305067,851.125977018113,1039.62161830041,687.215136548046,995.341332995339,436.089159529932,755.719714694933,348.874022981887,560.378381699593,512.784863451954,604.658667004661,763.910840470068,4,0,3,0,6,6,horizontal,vertical,horizontal,horizontal,vertical,horizontal
1b,15,100201,2,26,90,20,F,NA,constant,heterogeneous,5,absent,0.99719500541687,1,horizontal,horizontal,1,0.6,red,2,NaN,963.910840470068,795.341332995339,NaN,NaN,664.870587620533,816.252264519889,963.910840470068,795.341332995339,1036.43188291453,504.475318678942,782.212099195248,345.621167183745,552.574589799621,538.309916622085,0,0,3,4,6,0,6,NaN,vertical,horizontal,vertical,horizontal,horizontal,none
1b,15,100201,2,27,91,20,F,NA,constant,heterogeneous,4,present,0.678149223327637,1,horizontal,horizontal,1,0.847053444385529,red,2,3,1025.15163617903,719.715248510402,919.715248510402,374.848363820974,680.284751489598,825.151636179026,1025.15163617903,719.715248510402,919.715248510402,374.848363820974,574.848363820974,480.284751489598,0,0,0,0,3,4,6,5,NaN,NaN,vertical,horizontal,vertical,horizontal,none,none
1b,15,100201,2,28,92,20,F,NA,constant,heterogeneous,5,absent,1.14676094055176,1,horizontal,horizontal,1,0.952933491979327,red,1,NaN,742.637481142314,848.464366520235,NaN,NaN,742.637481142314,848.464366520235,1018.57766167904,731.334709102064,992.450942956807,432.704947607421,700.363562235235,365.271262369628,545.970351986605,622.224714400653,0,0,4,0,6,3,6,NaN,horizontal,horizontal,horizontal,horizontal,horizontal,none
1b,15,100201,2,29,93,20,F,NA,constant,heterogeneous,3,absent,0.00095820426940918,1,horizontal,horizontal,1,0.964697941711971,red,2,NaN,800,345,NaN,NaN,1020.83647796503,727.5,800,345,579.163522034968,727.5,0,0,0,0,0,0,5,4,6,NaN,NaN,NaN,vertical,horizontal,vertical,none,none,none
1b,15,100201,2,30,94,20,F,NA,constant,heterogeneous,4,absent,0.000708818435668945,0,vertical,horizontal,1,0.799995645454952,red,4,NaN,553.688914296288,534.001143498857,NaN,NaN,734.001143498857,846.311085703712,1046.31108570371,665.998856501143,865.998856501143,353.688914296288,553.688914296288,534.001143498857,0,0,0,0,3,0,6,4,NaN,NaN,horizontal,horizontal,vertical,vertical,none,none
1b,15,100201,2,31,95,20,F,NA,constant,heterogeneous,3,present,NaN,0,vertical,none,0,0.870582343850817,red,2,1,853.017481158529,350.57236181288,989.501930496736,770.628304621509,989.501930496736,770.628304621509,853.017481158529,350.57236181288,557.480588344736,678.799333565612,0,0,0,0,0,0,5,4,3,NaN,NaN,NaN,horizontal,vertical,horizontal,none,none,none
1b,15,100201,2,32,96,20,F,NA,constant,heterogeneous,5,present,1.14715909957886,1,vertical,vertical,1,0.776466745989663,red,1,5,742.637481142314,848.464366520235,545.970351986605,622.224714400653,742.637481142314,848.464366520235,1018.57766167904,731.334709102064,992.450942956807,432.704947607421,700.363562235235,365.271262369628,545.970351986605,622.224714400653,0,0,4,5,3,3,6,NaN,vertical,vertical,vertical,horizontal,horizontal,none
1b,15,100201,2,33,97,20,F,NA,constant,heterogeneous,5,absent,0.922389984130859,1,vertical,vertical,1,1.02352019037519,red,2,NaN,970.628304621509,789.501930496736,NaN,NaN,672.5,820.836477965032,970.628304621509,789.501930496736,1032.95409169886,496.282156015671,773.345241866748,346.39691668109,550.57236181288,546.982518841471,0,0,3,4,5,5,0,NaN,vertical,vertical,horizontal,horizontal,horizontal,none
1b,15,100201,2,34,98,20,F,NA,constant,heterogeneous,6,absent,1.96599578857422,1,vertical,vertical,1,0.835288994652884,red,5,NaN,622.862115532956,416.568350913644,NaN,NaN,729.712474266665,845.121732464271,977.137884467044,783.431649086356,1047.42541020038,538.309916622085,870.287525733335,354.878267535729,622.862115532956,416.568350913644,552.574589799621,661.690083377915,5,6,5,0,4,0,horizontal,vertical,vertical,horizontal,vertical,vertical
1b,15,100201,2,35,99,20,F,NA,constant,heterogeneous,5,present,1.90671992301941,1,vertical,vertical,1,0.858817894118173,red,4,5,742.637481142314,351.535633479765,545.970351986605,577.775285599347,700.363562235235,834.728737630372,992.450942956807,767.295052392579,1018.57766167904,468.665290897936,742.637481142314,351.535633479765,545.970351986605,577.775285599347,0,0,0,5,3,4,6,NaN,vertical,horizontal,horizontal,vertical,vertical,none
1b,15,100201,2,36,100,20,F,NA,constant,heterogeneous,5,present,1.1396381855011,0,horizontal,vertical,1,0.729408947059086,red,2,3,1053.09926866854,568.923317431687,848.656293821019,349.685068220846,907.767656743878,831.108485694346,1053.09926866854,568.923317431687,848.656293821019,349.685068220846,576.971974679454,476.373546837184,613.504806087112,773.909581815937,0,0,3,4,5,6,0,NaN,vertical,horizontal,vertical,horizontal,vertical,none
1b,15,100201,2,37,101,20,F,NA,constant,heterogeneous,6,present,1.68724203109741,0,horizontal,vertical,1,1.03528464010784,red,1,2,817.787900804752,854.378832816255,1029.19248180629,711.784642431215,817.787900804752,854.378832816255,1029.19248180629,711.784642431215,1011.40458100154,457.40580961496,782.212099195248,345.621167183745,570.807518193712,488.215357568785,588.595418998464,742.594190385041,4,0,3,5,3,5,horizontal,vertical,vertical,vertical,vertical,vertical
1b,15,100201,2,38,102,20,F,NA,constant,heterogeneous,4,absent,1.55425310134888,0,vertical,horizontal,1,1.04704908984048,red,4,NaN,551.535633479765,542.637481142314,NaN,NaN,742.637481142314,848.464366520235,1048.46436652023,657.362518857686,857.362518857686,351.535633479765,551.535633479765,542.637481142314,0,0,0,0,0,3,5,4,NaN,NaN,vertical,vertical,vertical,vertical,none,none
1b,15,100201,2,39,103,20,F,NA,constant,heterogeneous,5,present,NaN,0,horizontal,none,0,0.788231195722307,red,5,1,550.57236181288,653.017481158529,773.345241866748,853.60308331891,773.345241866748,853.60308331891,1032.95409169886,703.717843984329,970.628304621509,410.498069503264,672.5,379.163522034968,550.57236181288,653.017481158529,0,0,6,3,0,5,4,NaN,vertical,vertical,horizontal,vertical,horizontal,none
1b,15,100201,2,40,104,20,F,NA,constant,heterogeneous,3,present,1.46165919303894,1,horizontal,horizontal,1,0.799995645454952,red,1,3,844.280285305067,851.125977018113,560.378381699593,512.784863451954,844.280285305067,851.125977018113,995.341332995339,436.089159529932,560.378381699593,512.784863451954,0,0,0,0,0,0,4,3,0,NaN,NaN,NaN,horizontal,horizontal,horizontal,none,none,none
1b,15,100201,2,41,105,20,F,NA,constant,heterogeneous,6,absent,NaN,0,horizontal,none,0,0.717644497326442,red,3,NaN,960.476699717708,401.827779828472,NaN,NaN,891.383827134052,838.063008756786,1051.86052685176,639.890788585259,960.476699717708,401.827779828472,708.616172865948,361.936991243214,548.13947314824,560.109211414741,639.523300282292,798.172220171528,5,0,4,6,3,5,horizontal,horizontal,horizontal,vertical,horizontal,vertical
1b,15,100201,2,42,106,20,F,NA,constant,heterogeneous,4,present,1.58214116096497,1,vertical,vertical,1,1.02352019037519,red,3,4,960.476699717708,401.827779828472,601.827779828472,439.523300282291,639.523300282292,798.172220171528,998.172220171528,760.476699717708,960.476699717708,401.827779828472,601.827779828472,439.523300282291,0,0,0,0,6,3,4,5,NaN,NaN,vertical,vertical,vertical,horizontal,none,none
1b,15,100201,2,43,107,20,F,NA,constant,heterogeneous,6,absent,1.43485593795776,1,vertical,vertical,1,1.04704908984048,red,5,NaN,629.371695378491,410.498069503264,NaN,NaN,721.200666434388,842.519411655264,970.628304621509,789.501930496736,1049.42763818712,546.982518841471,878.799333565612,357.480588344736,629.371695378491,410.498069503264,550.57236181288,653.017481158529,3,6,0,3,4,5,horizontal,vertical,horizontal,horizontal,vertical,vertical
1b,15,100201,2,44,108,20,F,NA,constant,heterogeneous,5,present,1.02942609786987,1,vertical,vertical,1,0.670586698395865,red,1,5,751.343706178981,850.314931779154,546.900731331463,631.076682568313,751.343706178981,850.314931779154,1023.02802532055,723.626453162816,986.495193912888,426.090418184063,692.232343256122,368.891514305654,546.900731331463,631.076682568313,0,0,4,6,0,3,6,NaN,vertical,vertical,vertical,vertical,horizontal,none
1b,15,100201,2,45,109,20,F,NA,constant,heterogeneous,4,present,0.907129049301147,0,horizontal,vertical,1,0.847053444385529,red,1,4,680.284751489598,825.151636179026,574.848363820974,480.284751489598,680.284751489598,825.151636179026,1025.15163617903,719.715248510402,919.715248510402,374.848363820974,574.848363820974,480.284751489598,0,0,0,0,4,3,3,5,NaN,NaN,horizontal,vertical,vertical,horizontal,none,none
1b,15,100201,2,46,110,20,F,NA,constant,heterogeneous,3,absent,1.2733588218689,0,horizontal,vertical,1,0.788231195722307,red,2,NaN,1041.10723677783,516.980120613425,NaN,NaN,751.343706178981,850.314931779154,1041.10723677783,516.980120613425,607.549057043193,432.704947607421,0,0,0,0,0,0,5,4,5,NaN,NaN,NaN,vertical,horizontal,vertical,none,none,none
1b,15,100201,2,47,111,20,F,NA,constant,heterogeneous,5,absent,NaN,0,horizontal,none,0,1.08234243903841,red,4,NaN,601.827779828472,439.523300282291,NaN,NaN,865.998856501143,846.311085703712,1054.65053136242,613.345668841951,891.383827134052,361.936991243214,601.827779828472,439.523300282291,586.139005173917,738.882953928832,0,0,5,5,6,4,3,NaN,vertical,horizontal,horizontal,horizontal,vertical,none
1b,15,100201,2,48,112,20,F,NA,constant,heterogeneous,6,present,1.18670511245728,1,horizontal,horizontal,1,0.694115597861154,red,1,4,755.719714694933,851.125977018113,844.280285305067,348.874022981887,755.719714694933,851.125977018113,995.341332995339,763.910840470068,1039.62161830041,512.784863451954,844.280285305067,348.874022981887,604.658667004661,436.089159529932,560.378381699593,687.215136548046,4,3,0,5,3,6,horizontal,vertical,vertical,vertical,horizontal,vertical
1b,15,100201,2,49,113,20,F,NA,constant,heterogeneous,6,present,NaN,0,vertical,none,0,0.917640142781394,red,3,5,1048.46436652023,542.637481142314,626.090418184063,413.504806087112,725.445215295702,843.857712770574,973.909581815937,786.495193912888,1048.46436652023,542.637481142314,874.554784704298,356.142287229426,626.090418184063,413.504806087112,551.535633479765,657.362518857686,5,3,4,5,0,3,vertical,horizontal,vertical,vertical,vertical,vertical
1b,15,100201,2,50,114,20,F,NA,constant,heterogeneous,4,absent,1.78033399581909,1,vertical,vertical,1,0.941169042246682,red,3,NaN,973.909581815937,413.504806087112,NaN,NaN,626.090418184063,786.495193912888,986.495193912888,773.909581815937,973.909581815937,413.504806087112,613.504806087112,426.090418184063,0,0,0,0,5,3,4,6,NaN,NaN,horizontal,vertical,vertical,vertical,none,none
1b,15,100201,2,51,115,20,F,NA,constant,heterogeneous,5,absent,1.32641506195068,1,vertical,vertical,1,0.90587569304875,red,3,NaN,865.998856501143,353.688914296288,NaN,NaN,891.383827134052,838.063008756786,1054.65053136242,586.654331158049,865.998856501143,353.688914296288,586.139005173917,461.117046071168,601.827779828472,760.476699717708,0,0,6,5,4,3,5,NaN,vertical,vertical,vertical,horizontal,horizontal,none
1b,15,100201,2,52,116,20,F,NA,constant,heterogeneous,4,present,1.55107092857361,1,vertical,vertical,1,0.717644497326442,red,4,2,545.349468637584,613.345668841951,1054.65053136242,586.654331158049,813.345668841951,854.650531362416,1054.65053136242,586.654331158049,786.654331158049,345.349468637584,545.349468637584,613.345668841951,0,0,0,0,0,5,3,4,NaN,NaN,horizontal,horizontal,vertical,vertical,none,none
1b,15,100201,2,53,117,20,F,NA,constant,heterogeneous,5,absent,1.87972402572632,1,horizontal,horizontal,1,1.07057798930577,red,3,NaN,998.172220171528,439.523300282291,NaN,NaN,734.001143498857,846.311085703712,1013.86099482608,738.882953928832,998.172220171528,439.523300282291,708.616172865948,361.936991243214,545.349468637584,613.345668841951,0,0,6,5,4,3,0,NaN,horizontal,vertical,horizontal,vertical,vertical,none
1b,15,100201,2,54,118,20,F,NA,constant,heterogeneous,3,absent,0.978736162185669,1,horizontal,horizontal,1,1.05881353957312,red,1,NaN,760.109211414741,851.86052685176,NaN,NaN,760.109211414741,851.86052685176,1038.06300875679,508.616172865948,601.827779828472,439.523300282291,0,0,0,0,0,0,4,3,3,NaN,NaN,NaN,horizontal,vertical,vertical,none,none,none
1b,15,100201,2,55,119,20,F,NA,constant,heterogeneous,4,absent,1.14428901672363,1,horizontal,horizontal,1,0.894111243316105,red,2,NaN,1054.0296480134,577.775285599347,NaN,NaN,822.224714400653,854.029648013395,1054.0296480134,577.775285599347,777.775285599347,345.970351986605,545.970351986605,622.224714400653,0,0,0,0,6,4,0,6,NaN,NaN,horizontal,horizontal,vertical,vertical,none,none
1b,15,100201,2,56,120,20,F,NA,constant,heterogeneous,3,present,0.840415000915527,1,horizontal,horizontal,1,0.847053444385529,red,3,1,742.637481142314,351.535633479765,613.504806087112,773.909581815937,613.504806087112,773.909581815937,1043.85771277057,674.554784704298,742.637481142314,351.535633479765,0,0,0,0,0,0,5,0,4,NaN,NaN,NaN,horizontal,vertical,horizontal,none,none,none
1b,15,100201,2,57,121,20,F,NA,constant,heterogeneous,6,present,1.4641489982605,1,vertical,vertical,1,0.952933491979327,red,5,4,570.807518193712,488.215357568785,782.212099195248,345.621167183745,817.787900804752,854.378832816255,1029.19248180629,711.784642431215,1011.40458100154,457.40580961496,782.212099195248,345.621167183745,570.807518193712,488.215357568785,588.595418998464,742.594190385041,0,0,6,3,4,5,horizontal,horizontal,horizontal,vertical,vertical,vertical
1b,15,100201,2,58,122,20,F,NA,constant,heterogeneous,5,present,0.950960874557495,1,horizontal,horizontal,1,1.05881353957312,red,5,4,591.116228706307,746.261991269517,596.34794493794,446.537169096228,874.554784704298,843.857712770574,1054.96116226488,604.450363641507,883.019879386575,358.892763222174,596.34794493794,446.537169096228,591.116228706307,746.261991269517,0,0,0,6,5,3,4,NaN,horizontal,vertical,vertical,horizontal,horizontal,none
1b,15,100201,2,59,123,20,F,NA,constant,heterogeneous,3,present,0.918487071990967,1,horizontal,horizontal,1,0.623528899465288,red,1,2,998.172220171528,760.476699717708,839.890788585259,348.13947314824,998.172220171528,760.476699717708,839.890788585259,348.13947314824,561.936991243214,691.383827134052,0,0,0,0,0,0,4,0,6,NaN,NaN,NaN,horizontal,vertical,horizontal,none,none,none
1b,15,100201,2,60,124,20,F,NA,constant,heterogeneous,3,absent,0.841842889785767,1,horizontal,horizontal,1,1.03528464010784,red,3,NaN,550.57236181288,653.017481158529,NaN,NaN,970.628304621509,789.501930496736,878.799333565612,357.480588344736,550.57236181288,653.017481158529,0,0,0,0,0,0,5,6,4,NaN,NaN,NaN,horizontal,horizontal,horizontal,none,none,none
1b,15,100201,2,61,125,20,F,NA,constant,heterogeneous,4,present,0.754372835159302,1,horizontal,horizontal,1,0.776466745989663,red,2,4,1055,600,545,600,800,855,1055,600,800,345,545,600,0,0,0,0,0,4,3,6,NaN,NaN,vertical,horizontal,vertical,horizontal,none,none
1b,15,100201,2,62,126,20,F,NA,constant,heterogeneous,3,absent,1.44403290748596,1,vertical,vertical,1,0.705880047593798,red,2,NaN,973.909581815937,413.504806087112,NaN,NaN,874.554784704298,843.857712770574,973.909581815937,413.504806087112,551.535633479765,542.637481142314,0,0,0,0,0,0,6,4,3,NaN,NaN,NaN,horizontal,vertical,vertical,none,none,none
1b,15,100201,2,63,127,20,F,NA,constant,heterogeneous,3,absent,NaN,0,vertical,none,0,0.717644497326442,red,1,NaN,956.993676208043,800.942742169714,NaN,NaN,956.993676208043,800.942742169714,895.524681321058,363.568117085469,547.481642470899,635.489140744817,0,0,0,0,0,0,4,3,6,NaN,NaN,NaN,vertical,horizontal,horizontal,none,none,none
1b,15,100201,2,64,128,20,F,NA,constant,heterogeneous,6,present,1.62880110740662,1,horizontal,horizontal,1,1.07057798930577,red,5,3,583.747735480111,464.870587620533,1025.15163617903,480.284751489598,791.100628340862,854.844660889869,1016.25226451989,735.129412379467,1025.15163617903,480.284751489598,808.899371659138,345.155339110131,583.747735480111,464.870587620533,574.848363820974,719.715248510402,0,3,3,6,4,0,vertical,vertical,vertical,vertical,horizontal,vertical
1b,15,100201,3,1,129,20,F,NA,constant,heterogeneous,6,absent,1.44000005722046,1,vertical,vertical,1,0.847053444385529,red,6,NaN,661.117046071168,813.860994826083,NaN,NaN,915.767577433584,827.206663668034,1054.65053136242,613.345668841951,938.882953928832,386.139005173917,684.232422566416,372.793336331966,545.349468637584,586.654331158049,661.117046071168,813.860994826083,5,0,5,6,6,4,horizontal,horizontal,horizontal,vertical,vertical,vertical
1b,15,100201,3,2,130,20,F,NA,constant,heterogeneous,5,present,NaN,0,horizontal,none,0,0.858817894118173,red,2,3,1023.02802532055,723.626453162816,986.495193912888,426.090418184063,751.343706178981,850.314931779154,1023.02802532055,723.626453162816,986.495193912888,426.090418184063,692.232343256122,368.891514305654,546.900731331463,631.076682568313,0,0,5,4,3,5,6,NaN,horizontal,horizontal,horizontal,horizontal,horizontal,none
1b,15,100201,3,3,131,20,F,NA,constant,heterogeneous,4,present,NaN,0,vertical,none,0,0.776466745989663,red,2,4,1053.60308331891,626.654758133252,546.39691668109,573.345241866748,773.345241866748,853.60308331891,1053.60308331891,626.654758133252,826.654758133252,346.39691668109,546.39691668109,573.345241866748,0,0,0,0,3,4,6,0,NaN,NaN,horizontal,vertical,vertical,horizontal,none,none
1b,15,100201,3,4,132,20,F,NA,constant,heterogeneous,6,present,1.49918508529663,1,vertical,vertical,1,1.05881353957312,red,3,4,973.909581815937,413.504806087112,725.445215295702,356.142287229426,874.554784704298,843.857712770574,1048.46436652023,657.362518857686,973.909581815937,413.504806087112,725.445215295702,356.142287229426,551.535633479765,542.637481142314,626.090418184063,786.495193912888,0,3,4,6,6,3,horizontal,vertical,vertical,vertical,vertical,vertical
1b,15,100201,3,5,133,20,F,NA,constant,heterogeneous,3,absent,1.06387495994568,1,vertical,vertical,1,0.929404592514038,red,1,NaN,907.767656743878,831.108485694346,NaN,NaN,907.767656743878,831.108485694346,946.261991269517,391.116228706307,545.970351986605,577.775285599347,0,0,0,0,0,0,4,3,6,NaN,NaN,NaN,vertical,horizontal,horizontal,none,none,none
1b,15,100201,3,6,134,20,F,NA,constant,heterogeneous,5,present,0.823172092437744,1,vertical,vertical,1,0.882346793583461,red,2,5,1046.31108570371,534.001143498857,639.523300282292,798.172220171528,938.882953928832,813.860994826083,1046.31108570371,534.001143498857,813.345668841951,345.349468637584,561.936991243214,508.616172865948,639.523300282292,798.172220171528,0,0,0,4,6,3,0,NaN,horizontal,vertical,vertical,horizontal,horizontal,none
1b,15,100201,3,7,135,20,F,NA,constant,heterogeneous,3,present,0.576003074645996,1,vertical,vertical,1,0.811760095187596,red,1,3,907.767656743878,831.108485694346,545.970351986605,577.775285599347,907.767656743878,831.108485694346,946.261991269517,391.116228706307,545.970351986605,577.775285599347,0,0,0,0,0,0,4,6,3,NaN,NaN,NaN,vertical,horizontal,vertical,none,none,none
1b,15,100201,3,8,136,20,F,NA,constant,heterogeneous,5,absent,0.653743028640747,1,vertical,vertical,1,1.09410688877106,red,2,NaN,1046.31108570371,665.998856501143,NaN,NaN,813.345668841951,854.650531362416,1046.31108570371,665.998856501143,938.882953928832,386.139005173917,639.523300282292,401.827779828472,561.936991243214,691.383827134052,0,0,3,4,0,0,3,NaN,vertical,vertical,horizontal,vertical,horizontal,none
1b,15,100201,3,9,137,20,F,NA,constant,heterogeneous,6,absent,0.907368898391724,0,horizontal,vertical,1,1.02352019037519,red,2,NaN,1042.51941165526,678.799333565612,NaN,NaN,853.017481158529,849.42763818712,1042.51941165526,678.799333565612,989.501930496736,429.371695378491,746.982518841471,350.57236181288,557.480588344736,521.200666434388,610.498069503264,770.628304621509,6,4,5,0,0,3,horizontal,horizontal,vertical,horizontal,horizontal,horizontal
1b,15,100201,3,10,138,20,F,NA,constant,heterogeneous,5,absent,0.79577112197876,1,horizontal,horizontal,1,0.705880047593798,red,3,NaN,1013.86099482608,461.117046071168,NaN,NaN,708.616172865948,838.063008756786,998.172220171528,760.476699717708,1013.86099482608,461.117046071168,734.001143498857,353.688914296288,545.349468637584,586.654331158049,0,0,3,5,4,6,3,NaN,horizontal,horizontal,horizontal,horizontal,vertical,none
1b,15,100201,3,11,139,20,F,NA,constant,heterogeneous,5,present,1.6811420917511,1,horizontal,horizontal,1,0.658822248663221,red,4,2,626.090418184063,413.504806087112,1050.31493177915,648.656293821019,831.076682568313,853.099268668537,1050.31493177915,648.656293821019,923.626453162816,376.971974679454,626.090418184063,413.504806087112,568.891514305654,707.767656743878,0,0,5,6,0,4,0,NaN,horizontal,vertical,vertical,horizontal,vertical,none
1b,15,100201,3,12,140,20,F,NA,constant,heterogeneous,5,absent,0.750293970108032,1,horizontal,horizontal,1,0.964697941711971,red,4,NaN,653.738008730483,391.116228706307,NaN,NaN,795.549636358493,854.96116226488,1041.10723677783,683.019879386575,953.462830903772,396.34794493794,653.738008730483,391.116228706307,556.142287229426,674.554784704298,0,0,6,3,0,4,3,NaN,horizontal,vertical,vertical,horizontal,horizontal,none
1b,15,100201,3,13,141,20,F,NA,constant,heterogeneous,4,present,1.182373046875,1,horizontal,horizontal,1,0.847053444385529,red,4,3,574.848363820974,480.284751489598,919.715248510402,374.848363820974,680.284751489598,825.151636179026,1025.15163617903,719.715248510402,919.715248510402,374.848363820974,574.848363820974,480.284751489598,0,0,0,0,5,6,3,4,NaN,NaN,horizontal,horizontal,vertical,horizontal,none,none
1b,15,100201,3,14,142,20,F,NA,constant,heterogeneous,6,absent,NaN,0,horizontal,none,0,0.835288994652884,red,4,NaN,712.784863451954,360.378381699593,NaN,NaN,887.215136548046,839.621618300407,1051.12597701811,644.280285305067,963.910840470068,404.658667004661,712.784863451954,360.378381699593,548.874022981887,555.719714694933,636.089159529932,795.341332995339,0,5,0,4,5,3,horizontal,vertical,vertical,horizontal,vertical,vertical
1b,15,100201,3,15,143,20,F,NA,constant,heterogeneous,4,absent,1.22817587852478,1,horizontal,horizontal,1,0.847053444385529,red,2,NaN,1000.94274216971,756.993676208043,NaN,NaN,643.006323791957,800.942742169714,1000.94274216971,756.993676208043,956.993676208043,399.057257830286,599.057257830286,443.006323791957,0,0,0,0,5,4,0,5,NaN,NaN,horizontal,horizontal,horizontal,horizontal,none,none
1b,15,100201,3,16,144,20,F,NA,constant,heterogeneous,6,absent,1.82774806022644,1,vertical,vertical,1,0.741173396791731,red,5,NaN,551.535633479765,542.637481142314,NaN,NaN,874.554784704298,843.857712770574,1048.46436652023,657.362518857686,973.909581815937,413.504806087112,725.445215295702,356.142287229426,551.535633479765,542.637481142314,626.090418184063,786.495193912888,3,6,0,0,4,6,vertical,horizontal,vertical,horizontal,vertical,vertical
1b,15,100201,3,17,145,20,F,NA,constant,heterogeneous,3,absent,0.85310697555542,0,horizontal,vertical,1,0.835288994652884,red,3,NaN,565.271262369628,500.363562235235,NaN,NaN,831.076682568313,853.099268668537,1003.65205506206,446.537169096228,565.271262369628,500.363562235235,0,0,0,0,0,0,0,0,4,NaN,NaN,NaN,vertical,vertical,horizontal,none,none,none
1b,15,100201,3,18,146,20,F,NA,constant,heterogeneous,3,absent,0.858179092407227,1,horizontal,horizontal,1,0.999991290909903,red,1,NaN,949.885239334581,806.299333565612,NaN,NaN,949.885239334581,806.299333565612,903.717843984329,367.045908301137,546.39691668109,626.654758133252,0,0,0,0,0,0,4,3,0,NaN,NaN,NaN,horizontal,vertical,vertical,none,none,none
1b,15,100201,3,19,147,20,F,NA,constant,heterogeneous,5,present,0.883882999420166,1,vertical,vertical,1,1.02352019037519,red,1,2,742.637481142314,848.464366520235,1018.57766167904,731.334709102064,742.637481142314,848.464366520235,1018.57766167904,731.334709102064,992.450942956807,432.704947607421,700.363562235235,365.271262369628,545.970351986605,622.224714400653,0,0,4,6,5,0,5,NaN,vertical,vertical,vertical,vertical,horizontal,none
1b,15,100201,3,20,148,20,F,NA,constant,heterogeneous,3,absent,1.20128607749939,1,horizontal,horizontal,1,0.964697941711971,red,2,NaN,980.31222920257,419.68777079743,NaN,NaN,865.998856501143,846.311085703712,980.31222920257,419.68777079743,553.688914296288,534.001143498857,0,0,0,0,0,0,0,4,3,NaN,NaN,NaN,horizontal,horizontal,horizontal,none,none,none
1b,15,100201,3,21,149,20,F,NA,constant,heterogeneous,6,present,1.16357707977295,1,vertical,vertical,1,0.705880047593798,red,2,5,1023.02802532055,723.626453162816,576.971974679454,476.373546837184,804.450363641507,854.96116226488,1023.02802532055,723.626453162816,1018.57766167904,468.665290897936,795.549636358493,345.03883773512,576.971974679454,476.373546837184,581.422338320961,731.334709102064,6,4,3,5,3,6,horizontal,vertical,vertical,vertical,vertical,vertical
1b,15,100201,3,22,150,20,F,NA,constant,heterogeneous,4,absent,NaN,0,vertical,none,0,1.09410688877106,red,3,NaN,746.982518841471,350.57236181288,NaN,NaN,853.017481158529,849.42763818712,1049.42763818712,546.982518841471,746.982518841471,350.57236181288,550.57236181288,653.017481158529,0,0,0,0,3,6,4,5,NaN,NaN,vertical,horizontal,vertical,horizontal,none,none
1b,15,100201,3,23,151,20,F,NA,constant,heterogeneous,3,absent,0.939836025238037,1,horizontal,horizontal,1,0.917640142781394,red,1,NaN,946.261991269517,808.883771293693,NaN,NaN,946.261991269517,808.883771293693,907.767656743878,368.891514305654,545.970351986605,622.224714400653,0,0,0,0,0,0,4,3,5,NaN,NaN,NaN,horizontal,horizontal,vertical,none,none,none
1b,15,100201,3,24,152,20,F,NA,constant,heterogeneous,6,present,1.51717782020569,1,horizontal,horizontal,1,0.694115597861154,red,3,4,949.885239334581,393.700666434388,696.282156015671,367.045908301137,903.717843984329,832.954091698863,1053.60308331891,626.654758133252,949.885239334581,393.700666434388,696.282156015671,367.045908301137,546.39691668109,573.345241866748,650.114760665419,806.299333565612,6,6,4,5,0,3,horizontal,horizontal,horizontal,horizontal,horizontal,horizontal
1b,15,100201,3,25,153,20,F,NA,constant,heterogeneous,4,present,1.34238696098328,1,vertical,vertical,1,0.941169042246682,red,4,2,545.970351986605,622.224714400653,1054.0296480134,577.775285599347,822.224714400653,854.029648013395,1054.0296480134,577.775285599347,777.775285599347,345.970351986605,545.970351986605,622.224714400653,0,0,0,0,6,6,0,4,NaN,NaN,vertical,horizontal,vertical,vertical,none,none
1b,15,100201,3,26,154,20,F,NA,constant,heterogeneous,4,present,1.94567394256592,0,horizontal,vertical,1,0.811760095187596,red,4,1,586.139005173917,738.882953928832,938.882953928832,813.860994826083,938.882953928832,813.860994826083,1013.86099482608,461.117046071168,661.117046071168,386.139005173917,586.139005173917,738.882953928832,0,0,0,0,5,0,3,4,NaN,NaN,vertical,vertical,horizontal,horizontal,none,none
1b,15,100201,3,27,155,20,F,NA,constant,heterogeneous,5,absent,1.52167510986328,1,vertical,vertical,1,0.647057798930577,red,2,NaN,1051.86052685176,639.890788585259,NaN,NaN,839.890788585259,851.86052685176,1051.86052685176,639.890788585259,915.767577433584,372.793336331966,619.68777079743,419.68777079743,572.793336331966,715.767577433584,0,0,0,4,5,3,6,NaN,vertical,vertical,horizontal,horizontal,vertical,none
1b,15,100201,3,28,156,20,F,NA,constant,heterogeneous,4,present,0.854484081268311,1,horizontal,horizontal,1,0.90587569304875,red,4,1,586.139005173917,738.882953928832,938.882953928832,813.860994826083,938.882953928832,813.860994826083,1013.86099482608,461.117046071168,661.117046071168,386.139005173917,586.139005173917,738.882953928832,0,0,0,0,0,0,3,4,NaN,NaN,vertical,horizontal,vertical,horizontal,none,none
1b,15,100201,3,29,157,20,F,NA,constant,heterogeneous,4,absent,1.54360580444336,0,horizontal,vertical,1,1.01175574064255,red,3,NaN,636.089159529932,404.658667004661,NaN,NaN,963.910840470068,795.341332995339,995.341332995339,436.089159529932,636.089159529932,404.658667004661,604.658667004661,763.910840470068,0,0,0,0,3,6,4,6,NaN,NaN,vertical,vertical,horizontal,vertical,none,none
1b,15,100201,3,30,158,20,F,NA,constant,heterogeneous,3,present,1.17402911186218,1,horizontal,horizontal,1,0.752937846524375,red,1,3,768.923317431687,853.099268668537,596.34794493794,446.537169096228,768.923317431687,853.099268668537,1034.72873763037,500.363562235235,596.34794493794,446.537169096228,0,0,0,0,0,0,4,5,0,NaN,NaN,NaN,horizontal,vertical,horizontal,none,none,none
1b,15,100201,3,31,159,20,F,NA,constant,heterogeneous,5,absent,NaN,0,horizontal,none,0,0.776466745989663,red,3,NaN,1039.62161830041,512.784863451954,NaN,NaN,657.405809614959,811.404581001536,956.993676208043,800.942742169714,1039.62161830041,512.784863451954,791.100628340862,345.155339110131,554.878267535729,529.712474266665,0,0,6,5,4,3,0,NaN,vertical,horizontal,horizontal,horizontal,vertical,none
1b,15,100201,3,32,160,20,F,NA,constant,heterogeneous,5,absent,1.15242695808411,1,vertical,vertical,1,0.952933491979327,red,1,NaN,949.885239334581,806.299333565612,NaN,NaN,949.885239334581,806.299333565612,1042.51941165526,521.200666434388,800,345,557.480588344736,521.200666434388,650.114760665419,806.299333565612,0,0,4,6,3,5,3,NaN,vertical,horizontal,vertical,horizontal,horizontal,none
1b,15,100201,3,33,161,20,F,NA,constant,heterogeneous,5,present,1.8123459815979,1,horizontal,horizontal,1,1.02352019037519,red,3,5,831.076682568313,346.900731331463,626.090418184063,786.495193912888,923.626453162816,823.028025320546,1050.31493177915,551.343706178981,831.076682568313,346.900731331463,568.891514305654,492.232343256122,626.090418184063,786.495193912888,0,0,5,3,4,6,0,NaN,horizontal,vertical,horizontal,vertical,horizontal,none
1b,15,100201,3,34,162,20,F,NA,constant,heterogeneous,5,absent,1.70931196212769,1,vertical,vertical,1,0.82352454492024,red,4,NaN,583.747735480111,464.870587620533,NaN,NaN,895.524681321058,836.431882914531,1054.37883281626,582.212099195248,861.690083377915,352.574589799621,583.747735480111,464.870587620533,604.658667004661,763.910840470068,0,0,3,6,3,4,0,NaN,horizontal,horizontal,horizontal,vertical,vertical,none
1b,15,100201,3,35,163,20,F,NA,constant,heterogeneous,3,present,1.31626105308533,1,vertical,vertical,1,1.03528464010784,red,3,1,734.001143498857,353.688914296288,619.68777079743,780.31222920257,619.68777079743,780.31222920257,1046.31108570371,665.998856501143,734.001143498857,353.688914296288,0,0,0,0,0,0,0,3,4,NaN,NaN,NaN,horizontal,horizontal,vertical,none,none,none
1b,15,100201,3,36,164,20,F,NA,constant,heterogeneous,4,absent,1.41533994674683,1,vertical,vertical,1,0.811760095187596,red,3,NaN,632.704947607421,407.549057043193,NaN,NaN,967.295052392579,792.450942956807,992.450942956807,432.704947607421,632.704947607421,407.549057043193,607.549057043193,767.295052392579,0,0,0,0,0,6,4,3,NaN,NaN,vertical,horizontal,vertical,vertical,none,none
1b,15,100201,3,37,165,20,F,NA,constant,heterogeneous,4,present,1.00178813934326,1,horizontal,horizontal,1,0.894111243316105,red,4,3,554.878267535729,529.712474266665,870.287525733335,354.878267535729,729.712474266665,845.121732464271,1045.12173246427,670.287525733335,870.287525733335,354.878267535729,554.878267535729,529.712474266665,0,0,0,0,6,0,5,4,NaN,NaN,horizontal,horizontal,horizontal,horizontal,none,none
1b,15,100201,3,38,166,20,F,NA,constant,heterogeneous,5,present,1.12833309173584,1,horizontal,horizontal,1,0.717644497326442,red,4,3,616.568350913644,422.862115532956,911.784642431215,370.807518193712,844.280285305067,851.125977018113,1052.5183575291,635.489140744817,911.784642431215,370.807518193712,616.568350913644,422.862115532956,574.848363820974,719.715248510402,0,0,0,6,3,4,5,NaN,vertical,horizontal,horizontal,horizontal,vertical,none
1b,15,100201,3,39,167,20,F,NA,constant,heterogeneous,6,absent,1.06953096389771,1,horizontal,horizontal,1,0.717644497326442,red,3,NaN,1054.96116226488,595.549636358493,NaN,NaN,676.373546837184,823.028025320546,931.334709102064,818.577661679039,1054.96116226488,595.549636358493,923.626453162816,376.971974679454,668.665290897936,381.422338320961,545.03883773512,604.450363641507,5,0,4,3,6,6,vertical,vertical,horizontal,horizontal,vertical,vertical
1b,15,100201,3,40,168,20,F,NA,constant,heterogeneous,5,present,1.88275909423828,1,vertical,vertical,1,0.776466745989663,red,2,5,1053.60308331891,573.345241866748,610.498069503264,770.628304621509,903.717843984329,832.954091698863,1053.60308331891,573.345241866748,853.017481158529,350.57236181288,579.163522034968,472.5,610.498069503264,770.628304621509,0,0,3,4,3,0,0,NaN,horizontal,vertical,horizontal,horizontal,horizontal,none
1b,15,100201,3,41,169,20,F,NA,constant,heterogeneous,6,present,1.77371215820312,1,horizontal,horizontal,1,0.847053444385529,red,4,5,874.554784704298,356.142287229426,626.090418184063,413.504806087112,725.445215295702,843.857712770574,973.909581815937,786.495193912888,1048.46436652023,542.637481142314,874.554784704298,356.142287229426,626.090418184063,413.504806087112,551.535633479765,657.362518857686,5,6,0,4,6,5,vertical,vertical,vertical,horizontal,vertical,vertical
1b,15,100201,3,42,170,20,F,NA,constant,heterogeneous,4,absent,0.699969053268433,1,horizontal,horizontal,1,0.929404592514038,red,3,NaN,795.549636358493,345.03883773512,NaN,NaN,804.450363641507,854.96116226488,1054.96116226488,595.549636358493,795.549636358493,345.03883773512,545.03883773512,604.450363641507,0,0,0,0,5,0,4,3,NaN,NaN,horizontal,horizontal,horizontal,horizontal,none,none
1b,15,100201,3,43,171,20,F,NA,constant,heterogeneous,3,absent,1.19127798080444,1,vertical,vertical,1,1.08234243903841,red,2,NaN,831.076682568313,346.900731331463,NaN,NaN,1003.65205506206,753.462830903772,831.076682568313,346.900731331463,565.271262369628,699.636437764765,0,0,0,0,0,0,0,4,0,NaN,NaN,NaN,horizontal,vertical,horizontal,none,none,none
1b,15,100201,3,44,172,20,F,NA,constant,heterogeneous,3,present,1.27490496635437,1,horizontal,horizontal,1,0.964697941711971,red,1,3,692.232343256122,831.108485694346,653.738008730483,391.116228706307,692.232343256122,831.108485694346,1054.0296480134,577.775285599347,653.738008730483,391.116228706307,0,0,0,0,0,0,4,0,5,NaN,NaN,NaN,horizontal,horizontal,vertical,none,none,none
1b,15,100201,3,45,173,20,F,NA,constant,heterogeneous,6,absent,1.27635812759399,1,vertical,vertical,1,0.788231195722307,red,2,NaN,1027.20666366803,715.767577433584,NaN,NaN,813.345668841951,854.650531362416,1027.20666366803,715.767577433584,1013.86099482608,461.117046071168,786.654331158049,345.349468637584,572.793336331966,484.232422566416,586.139005173917,738.882953928832,6,4,5,3,3,0,horizontal,vertical,vertical,vertical,horizontal,vertical
1b,15,100201,3,46,174,20,F,NA,constant,heterogeneous,6,absent,1.69367790222168,0,vertical,horizontal,1,0.764702296257019,red,3,NaN,938.882953928832,386.139005173917,NaN,NaN,915.767577433584,827.206663668034,1054.65053136242,613.345668841951,938.882953928832,386.139005173917,684.232422566416,372.793336331966,545.349468637584,586.654331158049,661.117046071168,813.860994826083,6,6,4,3,5,5,horizontal,vertical,vertical,vertical,vertical,vertical
1b,15,100201,3,47,175,20,F,NA,constant,heterogeneous,5,absent,1.02641487121582,0,horizontal,vertical,1,0.752937846524375,red,5,NaN,565.271262369628,699.636437764765,NaN,NaN,822.224714400653,854.029648013395,1048.46436652023,657.362518857686,931.334709102064,381.422338320961,632.704947607421,407.549057043193,565.271262369628,699.636437764765,0,0,5,3,0,3,4,NaN,vertical,horizontal,vertical,horizontal,horizontal,none
1b,15,100201,3,48,176,20,F,NA,constant,heterogeneous,5,present,0.69622015953064,1,vertical,vertical,1,0.847053444385529,red,3,1,1006.29933356561,450.114760665419,721.200666434388,842.519411655264,721.200666434388,842.519411655264,1006.29933356561,749.885239334581,1006.29933356561,450.114760665419,721.200666434388,357.480588344736,545,600,0,0,0,3,4,3,5,NaN,vertical,horizontal,vertical,horizontal,horizontal,none
1b,15,100201,3,49,177,20,F,NA,constant,heterogeneous,6,present,0.5992431640625,1,vertical,vertical,1,0.647057798930577,red,3,4,992.450942956807,432.704947607421,751.343706178981,349.685068220846,848.656293821019,850.314931779154,1041.10723677783,683.019879386575,992.450942956807,432.704947607421,751.343706178981,349.685068220846,558.892763222174,516.980120613425,607.549057043193,767.295052392579,0,5,4,3,6,3,vertical,horizontal,vertical,horizontal,vertical,vertical
1b,15,100201,3,50,178,20,F,NA,constant,heterogeneous,3,absent,1.29567098617554,1,vertical,vertical,1,0.611764449732644,red,3,NaN,547.481642470899,635.489140744817,NaN,NaN,956.993676208043,800.942742169714,895.524681321058,363.568117085469,547.481642470899,635.489140744817,0,0,0,0,0,0,0,5,4,NaN,NaN,NaN,vertical,vertical,vertical,none,none,none
1b,15,100201,3,51,179,20,F,NA,constant,heterogeneous,3,absent,1.29010415077209,1,vertical,vertical,1,0.611764449732644,red,1,NaN,668.665290897936,818.577661679039,NaN,NaN,668.665290897936,818.577661679039,1054.96116226488,604.450363641507,676.373546837184,376.971974679454,0,0,0,0,0,0,4,3,5,NaN,NaN,NaN,vertical,horizontal,horizontal,none,none,none
1b,15,100201,3,52,180,20,F,NA,constant,heterogeneous,6,present,1.74887609481812,0,horizontal,vertical,1,0.847053444385529,red,3,2,960.476699717708,401.827779828472,1051.86052685176,639.890788585259,891.383827134052,838.063008756786,1051.86052685176,639.890788585259,960.476699717708,401.827779828472,708.616172865948,361.936991243214,548.13947314824,560.109211414741,639.523300282292,798.172220171528,5,0,4,0,3,5,horizontal,horizontal,horizontal,vertical,vertical,vertical
1b,15,100201,3,53,181,20,F,NA,constant,heterogeneous,3,present,1.73145508766174,1,horizontal,horizontal,1,0.976462391444615,red,2,1,1049.42763818712,546.982518841471,721.200666434388,842.519411655264,721.200666434388,842.519411655264,1049.42763818712,546.982518841471,629.371695378491,410.498069503264,0,0,0,0,0,0,5,4,5,NaN,NaN,NaN,horizontal,horizontal,vertical,none,none,none
1b,15,100201,3,54,182,20,F,NA,constant,heterogeneous,3,present,1.10068583488464,1,vertical,vertical,1,0.705880047593798,red,3,2,591.116228706307,453.738008730483,1031.10848569435,492.232343256122,777.775285599347,854.029648013395,1031.10848569435,492.232343256122,591.116228706307,453.738008730483,0,0,0,0,0,0,3,5,4,NaN,NaN,NaN,vertical,vertical,vertical,none,none,none
1b,15,100201,3,55,183,20,F,NA,constant,heterogeneous,6,present,1.05115699768066,1,vertical,vertical,1,0.623528899465288,red,4,3,764.510859255183,347.4816424709,1000.94274216971,443.006323791957,835.489140744817,852.518357529101,1036.43188291453,695.524681321058,1000.94274216971,443.006323791957,764.510859255183,347.4816424709,563.568117085469,504.475318678942,599.057257830286,756.993676208043,3,5,0,4,5,3,horizontal,vertical,vertical,vertical,horizontal,vertical
1b,15,100201,3,56,184,20,F,NA,constant,heterogeneous,4,present,1.09263801574707,1,vertical,vertical,1,0.811760095187596,red,1,4,622.862115532956,783.431649086356,616.568350913644,422.862115532956,622.862115532956,783.431649086356,983.431649086356,777.137884467044,977.137884467044,416.568350913644,616.568350913644,422.862115532956,0,0,0,0,4,0,6,3,NaN,NaN,vertical,horizontal,vertical,vertical,none,none
1b,15,100201,3,57,185,20,F,NA,constant,heterogeneous,4,absent,1.0122971534729,1,vertical,vertical,1,0.882346793583461,red,3,NaN,848.656293821019,349.685068220846,NaN,NaN,751.343706178981,850.314931779154,1050.31493177915,648.656293821019,848.656293821019,349.685068220846,549.685068220846,551.343706178981,0,0,0,0,6,6,4,0,NaN,NaN,vertical,vertical,vertical,vertical,none,none
1b,15,100201,3,58,186,20,F,NA,constant,heterogeneous,3,present,0.726712942123413,1,vertical,vertical,1,0.894111243316105,red,3,2,738.309916622085,352.574589799621,1045.12173246427,670.287525733335,616.568350913644,777.137884467044,1045.12173246427,670.287525733335,738.309916622085,352.574589799621,0,0,0,0,0,0,3,6,4,NaN,NaN,NaN,horizontal,vertical,vertical,none,none,none
1b,15,100201,3,59,187,20,F,NA,constant,heterogeneous,3,present,0.566581964492798,0,horizontal,vertical,1,1.07057798930577,red,3,1,643.006323791957,399.057257830286,704.475318678942,836.431882914531,704.475318678942,836.431882914531,1052.5183575291,564.510859255183,643.006323791957,399.057257830286,0,0,0,0,0,0,5,5,4,NaN,NaN,NaN,vertical,horizontal,horizontal,none,none,none
1b,15,100201,3,60,188,20,F,NA,constant,heterogeneous,4,absent,1.42032694816589,1,vertical,vertical,1,0.705880047593798,red,2,NaN,1027.20666366803,715.767577433584,NaN,NaN,684.232422566416,827.206663668034,1027.20666366803,715.767577433584,915.767577433584,372.793336331966,572.793336331966,484.232422566416,0,0,0,0,6,4,0,6,NaN,NaN,vertical,vertical,horizontal,vertical,none,none
1b,15,100201,3,61,189,20,F,NA,constant,heterogeneous,6,absent,NaN,0,horizontal,none,0,1.01175574064255,red,2,NaN,1013.86099482608,738.882953928832,NaN,NaN,786.654331158049,854.650531362416,1013.86099482608,738.882953928832,1027.20666366803,484.232422566416,813.345668841951,345.349468637584,586.139005173917,461.117046071168,572.793336331966,715.767577433584,5,4,3,6,5,0,horizontal,horizontal,vertical,vertical,vertical,horizontal
1b,15,100201,3,62,190,20,F,NA,constant,heterogeneous,4,present,1.63407611846924,1,vertical,vertical,1,1.03528464010784,red,2,4,1054.84466088987,608.899371659138,545.155339110131,591.100628340862,791.100628340862,854.844660889869,1054.84466088987,608.899371659138,808.899371659138,345.155339110131,545.155339110131,591.100628340862,0,0,0,0,3,4,5,0,NaN,NaN,horizontal,vertical,horizontal,horizontal,none,none
1b,15,100201,3,63,191,20,F,NA,constant,heterogeneous,6,present,NaN,0,horizontal,none,0,0.776466745989663,red,1,3,903.717843984329,832.954091698863,949.885239334581,393.700666434388,903.717843984329,832.954091698863,1053.60308331891,626.654758133252,949.885239334581,393.700666434388,696.282156015671,367.045908301137,546.39691668109,573.345241866748,650.114760665419,806.299333565612,4,5,3,6,6,0,horizontal,vertical,horizontal,vertical,horizontal,vertical
1b,15,100201,3,64,192,20,F,NA,constant,heterogeneous,4,absent,0.793978929519653,1,horizontal,horizontal,1,0.964697941711971,red,2,NaN,992.450942956807,767.295052392579,NaN,NaN,632.704947607421,792.450942956807,992.450942956807,767.295052392579,967.295052392579,407.549057043193,607.549057043193,432.704947607421,0,0,0,0,3,4,3,6,NaN,NaN,vertical,horizontal,vertical,vertical,none,none
1b,15,100201,4,1,193,20,F,NA,constant,heterogeneous,3,present,1.38517904281616,1,horizontal,horizontal,1,0.90587569304875,red,1,2,813.345668841951,854.650531362416,1013.86099482608,461.117046071168,813.345668841951,854.650531362416,1013.86099482608,461.117046071168,572.793336331966,484.232422566416,0,0,0,0,0,0,4,0,3,NaN,NaN,NaN,horizontal,horizontal,horizontal,none,none,none
1b,15,100201,4,2,194,20,F,NA,constant,heterogeneous,5,present,1.44130301475525,1,vertical,vertical,1,0.835288994652884,red,1,3,865.998856501143,846.311085703712,891.383827134052,361.936991243214,865.998856501143,846.311085703712,1054.65053136242,613.345668841951,891.383827134052,361.936991243214,601.827779828472,439.523300282291,586.139005173917,738.882953928832,0,0,4,0,0,5,3,NaN,vertical,vertical,horizontal,vertical,horizontal,none
1b,15,100201,4,3,195,20,F,NA,constant,heterogeneous,5,absent,0.95898699760437,0,horizontal,vertical,1,0.835288994652884,red,5,NaN,626.090418184063,786.495193912888,NaN,NaN,923.626453162816,823.028025320546,1050.31493177915,551.343706178981,831.076682568313,346.900731331463,568.891514305654,492.232343256122,626.090418184063,786.495193912888,0,0,5,3,6,3,4,NaN,vertical,horizontal,horizontal,horizontal,horizontal,none
1b,15,100201,4,4,196,20,F,NA,constant,heterogeneous,5,present,0.90991997718811,1,vertical,vertical,1,0.988226841177259,red,1,3,891.383827134052,838.063008756786,865.998856501143,353.688914296288,891.383827134052,838.063008756786,1054.65053136242,586.654331158049,865.998856501143,353.688914296288,586.139005173917,461.117046071168,601.827779828472,760.476699717708,0,0,4,6,3,0,5,NaN,vertical,horizontal,vertical,horizontal,vertical,none
1b,15,100201,4,5,197,20,F,NA,constant,heterogeneous,5,present,1.25346398353577,1,horizontal,horizontal,1,1.05881353957312,red,5,1,650.114760665419,806.299333565612,949.885239334581,806.299333565612,949.885239334581,806.299333565612,1042.51941165526,521.200666434388,800,345,557.480588344736,521.200666434388,650.114760665419,806.299333565612,0,0,3,0,6,0,4,NaN,vertical,vertical,horizontal,horizontal,horizontal,none
1b,15,100201,4,6,198,20,F,NA,constant,heterogeneous,5,present,1.69193387031555,1,vertical,vertical,1,1.04704908984048,red,4,5,664.870587620533,383.747735480111,552.574589799621,661.690083377915,782.212099195248,854.378832816255,1036.43188291453,695.524681321058,963.910840470068,404.658667004661,664.870587620533,383.747735480111,552.574589799621,661.690083377915,0,0,0,0,3,4,5,NaN,horizontal,vertical,vertical,vertical,vertical,none
1b,15,100201,4,7,199,20,F,NA,constant,heterogeneous,3,present,1.14679098129272,1,vertical,vertical,1,1.03528464010784,red,3,1,560.378381699593,512.784863451954,844.280285305067,851.125977018113,844.280285305067,851.125977018113,995.341332995339,436.089159529932,560.378381699593,512.784863451954,0,0,0,0,0,0,0,5,4,NaN,NaN,NaN,horizontal,horizontal,vertical,none,none,none
1b,15,100201,4,8,200,20,F,NA,constant,heterogeneous,6,present,1.5263819694519,1,horizontal,horizontal,1,1.03528464010784,red,4,6,704.475318678942,363.568117085469,643.006323791957,800.942742169714,895.524681321058,836.431882914531,1052.5183575291,635.489140744817,956.993676208043,399.057257830286,704.475318678942,363.568117085469,547.481642470899,564.510859255183,643.006323791957,800.942742169714,3,6,5,4,6,5,horizontal,vertical,vertical,horizontal,horizontal,vertical
1b,15,100201,4,9,201,20,F,NA,constant,heterogeneous,4,present,NaN,0,vertical,none,0,0.882346793583461,red,1,4,923.626453162816,823.028025320546,576.971974679454,723.626453162816,923.626453162816,823.028025320546,1023.02802532055,476.373546837184,676.373546837184,376.971974679454,576.971974679454,723.626453162816,0,0,0,0,4,3,6,5,NaN,NaN,vertical,vertical,horizontal,horizontal,none,none
1b,15,100201,4,10,202,20,F,NA,constant,heterogeneous,5,absent,1.41148209571838,1,vertical,vertical,1,1.03528464010784,red,5,NaN,548.13947314824,639.890788585259,NaN,NaN,760.109211414741,851.86052685176,1027.20666366803,715.767577433584,980.31222920257,419.68777079743,684.232422566416,372.793336331966,548.13947314824,639.890788585259,0,0,3,6,0,3,4,NaN,vertical,horizontal,horizontal,vertical,vertical,none
1b,15,100201,4,11,203,20,F,NA,constant,heterogeneous,4,absent,1.53108096122742,1,vertical,vertical,1,0.752937846524375,red,4,NaN,607.549057043193,432.704947607421,NaN,NaN,632.704947607421,792.450942956807,992.450942956807,767.295052392579,967.295052392579,407.549057043193,607.549057043193,432.704947607421,0,0,0,0,5,0,6,4,NaN,NaN,vertical,horizontal,vertical,vertical,none,none
1b,15,100201,4,12,204,20,F,NA,constant,heterogeneous,3,present,1.10255908966064,1,vertical,vertical,1,1.02352019037519,red,1,2,1003.65205506206,753.462830903772,831.076682568313,346.900731331463,1003.65205506206,753.462830903772,831.076682568313,346.900731331463,565.271262369628,699.636437764765,0,0,0,0,0,0,4,6,6,NaN,NaN,NaN,vertical,vertical,vertical,none,none,none
1b,15,100201,4,13,205,20,F,NA,constant,heterogeneous,3,absent,1.62030696868896,1,vertical,vertical,1,0.976462391444615,red,1,NaN,599.057257830286,756.993676208043,NaN,NaN,599.057257830286,756.993676208043,1036.43188291453,695.524681321058,764.510859255183,347.4816424709,0,0,0,0,0,0,4,5,3,NaN,NaN,NaN,vertical,horizontal,horizontal,none,none,none
1b,15,100201,4,14,206,20,F,NA,constant,heterogeneous,4,absent,1.92716193199158,0,horizontal,vertical,1,0.917640142781394,red,3,NaN,760.109211414741,348.13947314824,NaN,NaN,839.890788585259,851.86052685176,1051.86052685176,560.109211414741,760.109211414741,348.13947314824,548.13947314824,639.890788585259,0,0,0,0,5,3,4,5,NaN,NaN,horizontal,vertical,horizontal,vertical,none,none
1b,15,100201,4,15,207,20,F,NA,constant,heterogeneous,3,absent,1.24427700042725,1,horizontal,horizontal,1,0.729408947059086,red,2,NaN,1025.15163617903,719.715248510402,NaN,NaN,583.747735480111,735.129412379467,1025.15163617903,719.715248510402,791.100628340862,345.155339110131,0,0,0,0,0,0,5,4,5,NaN,NaN,NaN,vertical,horizontal,vertical,none,none,none
1b,15,100201,4,16,208,20,F,NA,constant,heterogeneous,4,present,1.11264204978943,1,vertical,vertical,1,0.964697941711971,red,3,1,865.998856501143,353.688914296288,734.001143498857,846.311085703712,734.001143498857,846.311085703712,1046.31108570371,665.998856501143,865.998856501143,353.688914296288,553.688914296288,534.001143498857,0,0,0,0,6,0,4,0,NaN,NaN,horizontal,horizontal,vertical,horizontal,none,none
1b,15,100201,4,17,209,20,F,NA,constant,heterogeneous,3,absent,1.06467700004578,1,horizontal,horizontal,1,0.682351148128509,red,1,NaN,1011.40458100154,742.594190385041,NaN,NaN,1011.40458100154,742.594190385041,817.787900804752,345.621167183745,570.807518193712,711.784642431215,0,0,0,0,0,0,4,6,3,NaN,NaN,NaN,horizontal,horizontal,horizontal,none,none,none
1b,15,100201,4,18,210,20,F,NA,constant,heterogeneous,3,present,0.662374019622803,1,horizontal,horizontal,1,0.611764449732644,red,1,2,960.476699717708,798.172220171528,891.383827134052,361.936991243214,960.476699717708,798.172220171528,891.383827134052,361.936991243214,548.13947314824,639.890788585259,0,0,0,0,0,0,4,0,6,NaN,NaN,NaN,horizontal,horizontal,vertical,none,none,none
1b,15,100201,4,19,211,20,F,NA,constant,heterogeneous,4,present,0.945975065231323,1,vertical,vertical,1,0.717644497326442,red,1,2,800,855,1055,600,800,855,1055,600,800,345,545,600,0,0,0,0,4,3,0,3,NaN,NaN,vertical,vertical,vertical,horizontal,none,none
1b,15,100201,4,20,212,20,F,NA,constant,heterogeneous,3,present,0.69534707069397,1,horizontal,horizontal,1,0.705880047593798,red,2,1,1054.96116226488,604.450363641507,668.665290897936,818.577661679039,668.665290897936,818.577661679039,1054.96116226488,604.450363641507,676.373546837184,376.971974679454,0,0,0,0,0,0,3,4,5,NaN,NaN,NaN,vertical,horizontal,horizontal,none,none,none
1b,15,100201,4,21,213,20,F,NA,constant,heterogeneous,6,absent,NaN,0,vertical,none,0,0.717644497326442,red,4,NaN,887.215136548046,360.378381699593,NaN,NaN,712.784863451954,839.621618300407,963.910840470068,795.341332995339,1051.12597701811,555.719714694933,887.215136548046,360.378381699593,636.089159529932,404.658667004661,548.874022981887,644.280285305067,0,3,6,4,0,3,horizontal,horizontal,horizontal,vertical,vertical,vertical
1b,15,100201,4,22,214,20,F,NA,constant,heterogeneous,4,absent,1.72936487197876,0,vertical,horizontal,1,0.858817894118173,red,3,NaN,980.31222920257,419.68777079743,NaN,NaN,619.68777079743,780.31222920257,980.31222920257,780.31222920257,980.31222920257,419.68777079743,619.68777079743,419.68777079743,0,0,0,0,0,6,4,5,NaN,NaN,vertical,vertical,vertical,horizontal,none,none
1b,15,100201,4,23,215,20,F,NA,constant,heterogeneous,3,absent,1.05327200889587,0,horizontal,vertical,1,0.647057798930577,red,3,NaN,664.870587620533,383.747735480111,NaN,NaN,680.284751489598,825.151636179026,1054.84466088987,591.100628340862,664.870587620533,383.747735480111,0,0,0,0,0,0,5,0,4,NaN,NaN,NaN,horizontal,vertical,horizontal,none,none,none
1b,15,100201,4,24,216,20,F,NA,constant,heterogeneous,6,absent,1.99287700653076,1,vertical,vertical,1,0.729408947059086,red,3,NaN,1013.86099482608,461.117046071168,NaN,NaN,813.345668841951,854.650531362416,1027.20666366803,715.767577433584,1013.86099482608,461.117046071168,786.654331158049,345.349468637584,572.793336331966,484.232422566416,586.139005173917,738.882953928832,0,6,4,0,3,5,vertical,vertical,vertical,horizontal,horizontal,vertical
1b,15,100201,4,25,217,20,F,NA,constant,heterogeneous,5,present,1.77754998207092,1,horizontal,horizontal,1,1.02352019037519,red,3,1,927.5,379.163522034968,826.654758133252,853.60308331891,826.654758133252,853.60308331891,1049.42763818712,653.017481158529,927.5,379.163522034968,629.371695378491,410.498069503264,567.045908301137,703.717843984329,0,0,0,6,4,6,5,NaN,horizontal,horizontal,horizontal,horizontal,horizontal,none
1b,15,100201,4,26,218,20,F,NA,constant,heterogeneous,6,absent,1.25896406173706,1,horizontal,horizontal,1,0.882346793583461,red,1,NaN,878.799333565612,842.519411655264,NaN,NaN,878.799333565612,842.519411655264,1049.42763818712,653.017481158529,970.628304621509,410.498069503264,721.200666434388,357.480588344736,550.57236181288,546.982518841471,629.371695378491,789.501930496736,4,0,3,5,3,6,horizontal,horizontal,horizontal,vertical,horizontal,vertical
1b,15,100201,4,27,219,20,F,NA,constant,heterogeneous,4,absent,1.36092019081116,1,horizontal,horizontal,1,0.635293349197933,red,1,NaN,915.767577433584,827.206663668034,NaN,NaN,915.767577433584,827.206663668034,1027.20666366803,484.232422566416,684.232422566416,372.793336331966,572.793336331966,715.767577433584,0,0,0,0,4,3,0,5,NaN,NaN,horizontal,vertical,horizontal,horizontal,none,none
1b,15,100201,4,28,220,20,F,NA,constant,heterogeneous,6,absent,NaN,0,horizontal,none,0,0.611764449732644,red,6,NaN,657.405809614959,811.404581001536,NaN,NaN,911.784642431215,829.192481806288,1054.37883281626,617.787900804752,942.594190385041,388.595418998464,688.215357568785,370.807518193712,545.621167183745,582.212099195248,657.405809614959,811.404581001536,5,0,3,6,6,4,horizontal,horizontal,vertical,vertical,vertical,horizontal
1b,15,100201,4,29,221,20,F,NA,constant,heterogeneous,6,present,1.14654898643494,1,vertical,vertical,1,0.682351148128509,red,4,3,835.489140744817,347.4816424709,1036.43188291453,504.475318678942,764.510859255183,852.518357529101,1000.94274216971,756.993676208043,1036.43188291453,504.475318678942,835.489140744817,347.4816424709,599.057257830286,443.006323791957,563.568117085469,695.524681321058,3,6,0,4,0,5,vertical,horizontal,vertical,vertical,horizontal,vertical
1b,15,100201,4,30,222,20,F,NA,constant,heterogeneous,4,absent,0.804763078689575,1,horizontal,horizontal,1,0.764702296257019,red,3,NaN,848.656293821019,349.685068220846,NaN,NaN,751.343706178981,850.314931779154,1050.31493177915,648.656293821019,848.656293821019,349.685068220846,549.685068220846,551.343706178981,0,0,0,0,0,6,4,5,NaN,NaN,horizontal,vertical,horizontal,horizontal,none,none
1b,15,100201,4,31,223,20,F,NA,constant,heterogeneous,6,absent,1.73066592216492,1,horizontal,horizontal,1,1.07057798930577,red,5,NaN,545,600,NaN,NaN,927.5,820.836477965032,1055,600,927.5,379.163522034968,672.5,379.163522034968,545,600,672.5,820.836477965032,6,0,3,5,4,6,horizontal,vertical,vertical,horizontal,horizontal,horizontal
1b,15,100201,4,32,224,20,F,NA,constant,heterogeneous,4,present,NaN,0,horizontal,none,0,1.01175574064255,red,4,3,604.658667004661,436.089159529932,963.910840470068,404.658667004661,636.089159529932,795.341332995339,995.341332995339,763.910840470068,963.910840470068,404.658667004661,604.658667004661,436.089159529932,0,0,0,0,0,5,3,4,NaN,NaN,horizontal,horizontal,vertical,horizontal,none,none
1b,15,100201,4,33,225,20,F,NA,constant,heterogeneous,6,absent,1.39793705940247,1,vertical,vertical,1,0.999991290909903,red,4,NaN,853.017481158529,350.57236181288,NaN,NaN,746.982518841471,849.42763818712,989.501930496736,770.628304621509,1042.51941165526,521.200666434388,853.017481158529,350.57236181288,610.498069503264,429.371695378491,557.480588344736,678.799333565612,3,6,5,4,5,3,vertical,horizontal,horizontal,vertical,horizontal,vertical
1b,15,100201,4,34,226,20,F,NA,constant,heterogeneous,4,absent,1.93259501457214,1,vertical,vertical,1,0.729408947059086,red,2,NaN,1048.46436652023,657.362518857686,NaN,NaN,742.637481142314,848.464366520235,1048.46436652023,657.362518857686,857.362518857686,351.535633479765,551.535633479765,542.637481142314,0,0,0,0,5,4,0,5,NaN,NaN,vertical,vertical,vertical,vertical,none,none
1b,15,100201,4,35,227,20,F,NA,constant,heterogeneous,6,present,0.94865608215332,1,horizontal,horizontal,1,0.658822248663221,red,4,3,742.637481142314,351.535633479765,986.495193912888,426.090418184063,857.362518857686,848.464366520235,1043.85771277057,674.554784704298,986.495193912888,426.090418184063,742.637481142314,351.535633479765,556.142287229426,525.445215295702,613.504806087112,773.909581815937,3,0,3,4,5,5,horizontal,vertical,horizontal,horizontal,horizontal,vertical
1b,15,100201,4,36,228,20,F,NA,constant,heterogeneous,6,absent,NaN,0,horizontal,none,0,0.90587569304875,red,4,NaN,891.383827134052,361.936991243214,NaN,NaN,708.616172865948,838.063008756786,960.476699717708,798.172220171528,1051.86052685176,560.109211414741,891.383827134052,361.936991243214,639.523300282292,401.827779828472,548.13947314824,639.890788585259,5,0,0,4,6,3,vertical,horizontal,horizontal,horizontal,horizontal,vertical
1b,15,100201,4,37,229,20,F,NA,constant,heterogeneous,3,absent,0.0339140892028809,0,vertical,horizontal,1,0.788231195722307,red,1,NaN,970.628304621509,789.501930496736,NaN,NaN,970.628304621509,789.501930496736,878.799333565612,357.480588344736,550.57236181288,653.017481158529,0,0,0,0,0,0,4,3,6,NaN,NaN,NaN,vertical,horizontal,vertical,none,none,none
1b,15,100201,4,38,230,20,F,NA,constant,heterogeneous,5,absent,NaN,0,vertical,none,0,1.07057798930577,red,3,NaN,887.215136548046,360.378381699593,NaN,NaN,870.287525733335,845.121732464271,1054.84466088987,608.899371659138,887.215136548046,360.378381699593,599.057257830286,443.006323791957,588.595418998464,742.594190385041,0,0,5,5,4,3,0,NaN,horizontal,horizontal,vertical,horizontal,vertical,none
1b,15,100201,4,39,231,20,F,NA,constant,heterogeneous,5,absent,0.00132513046264648,0,horizontal,vertical,1,0.858817894118173,red,4,NaN,742.637481142314,351.535633479765,NaN,NaN,700.363562235235,834.728737630372,992.450942956807,767.295052392579,1018.57766167904,468.665290897936,742.637481142314,351.535633479765,545.970351986605,577.775285599347,0,0,5,3,0,4,6,NaN,vertical,horizontal,horizontal,horizontal,vertical,none
1b,15,100201,4,40,232,20,F,NA,constant,heterogeneous,4,present,1.58736705780029,1,horizontal,horizontal,1,0.882346793583461,red,3,4,826.654758133252,346.39691668109,546.39691668109,573.345241866748,773.345241866748,853.60308331891,1053.60308331891,626.654758133252,826.654758133252,346.39691668109,546.39691668109,573.345241866748,0,0,0,0,0,5,4,3,NaN,NaN,vertical,horizontal,horizontal,vertical,none,none
1b,15,100201,4,41,233,20,F,NA,constant,heterogeneous,3,absent,1.22188305854797,1,vertical,vertical,1,0.917640142781394,red,1,NaN,581.422338320961,731.334709102064,NaN,NaN,581.422338320961,731.334709102064,1023.02802532055,723.626453162816,795.549636358493,345.03883773512,0,0,0,0,0,0,4,0,5,NaN,NaN,NaN,vertical,vertical,horizontal,none,none,none
1b,15,100201,4,42,234,20,F,NA,constant,heterogeneous,6,present,1.48181319236755,1,vertical,vertical,1,0.776466745989663,red,4,3,708.616172865948,361.936991243214,960.476699717708,401.827779828472,891.383827134052,838.063008756786,1051.86052685176,639.890788585259,960.476699717708,401.827779828472,708.616172865948,361.936991243214,548.13947314824,560.109211414741,639.523300282292,798.172220171528,3,6,5,4,6,5,vertical,vertical,vertical,vertical,vertical,vertical
1b,15,100201,4,43,235,20,F,NA,constant,heterogeneous,3,absent,1.52675700187683,1,horizontal,horizontal,1,0.941169042246682,red,1,NaN,734.001143498857,846.311085703712,NaN,NaN,734.001143498857,846.311085703712,1046.31108570371,534.001143498857,619.68777079743,419.68777079743,0,0,0,0,0,0,4,0,3,NaN,NaN,NaN,horizontal,horizontal,vertical,none,none,none
1b,15,100201,4,44,236,20,F,NA,constant,heterogeneous,5,absent,1.19524502754211,1,horizontal,horizontal,1,0.882346793583461,red,2,NaN,1047.42541020038,538.309916622085,NaN,NaN,935.129412379467,816.252264519889,1047.42541020038,538.309916622085,817.787900804752,345.621167183745,563.568117085469,504.475318678942,636.089159529932,795.341332995339,0,0,0,4,3,5,6,NaN,horizontal,horizontal,vertical,vertical,horizontal,none
1b,15,100201,4,45,237,20,F,NA,constant,heterogeneous,5,absent,0.810806035995483,1,horizontal,horizontal,1,0.976462391444615,red,1,NaN,742.637481142314,848.464366520235,NaN,NaN,742.637481142314,848.464366520235,1018.57766167904,731.334709102064,992.450942956807,432.704947607421,700.363562235235,365.271262369628,545.970351986605,622.224714400653,0,0,4,6,5,0,5,NaN,horizontal,vertical,horizontal,vertical,vertical,none
1b,15,100201,4,46,238,20,F,NA,constant,heterogeneous,4,present,1.07129406929016,1,vertical,vertical,1,1.01175574064255,red,4,2,588.595418998464,457.40580961496,1011.40458100154,742.594190385041,657.405809614959,811.404581001536,1011.40458100154,742.594190385041,942.594190385041,388.595418998464,588.595418998464,457.40580961496,0,0,0,0,6,3,0,4,NaN,NaN,vertical,vertical,vertical,vertical,none,none
1b,15,100201,4,47,239,20,F,NA,constant,heterogeneous,5,absent,1.25475311279297,1,vertical,vertical,1,1.07057798930577,red,3,NaN,907.767656743878,368.891514305654,NaN,NaN,848.656293821019,850.314931779154,1053.09926866854,631.076682568313,907.767656743878,368.891514305654,613.504806087112,426.090418184063,576.971974679454,723.626453162816,0,0,5,6,4,3,0,NaN,horizontal,horizontal,vertical,vertical,vertical,none
1b,15,100201,4,48,240,20,F,NA,constant,heterogeneous,6,present,1.75200009346008,0,horizontal,vertical,1,0.611764449732644,red,1,3,725.445215295702,843.857712770574,1048.46436652023,542.637481142314,725.445215295702,843.857712770574,973.909581815937,786.495193912888,1048.46436652023,542.637481142314,874.554784704298,356.142287229426,626.090418184063,413.504806087112,551.535633479765,657.362518857686,4,3,5,3,0,6,horizontal,horizontal,vertical,horizontal,vertical,vertical
1b,15,100201,4,49,241,20,F,NA,constant,heterogeneous,3,present,1.03862595558167,1,vertical,vertical,1,0.764702296257019,red,1,2,817.787900804752,854.378832816255,1011.40458100154,457.40580961496,817.787900804752,854.378832816255,1011.40458100154,457.40580961496,570.807518193712,488.215357568785,0,0,0,0,0,0,4,5,0,NaN,NaN,NaN,vertical,horizontal,horizontal,none,none,none
1b,15,100201,4,50,242,20,F,NA,constant,heterogeneous,4,present,0.980641841888428,1,horizontal,horizontal,1,1.05881353957312,red,1,3,891.383827134052,838.063008756786,708.616172865948,361.936991243214,891.383827134052,838.063008756786,1038.06300875679,508.616172865948,708.616172865948,361.936991243214,561.936991243214,691.383827134052,0,0,0,0,4,5,3,3,NaN,NaN,horizontal,horizontal,vertical,horizontal,none,none
1b,15,100201,4,51,243,20,F,NA,constant,heterogeneous,6,present,1.50000596046448,1,vertical,vertical,1,0.788231195722307,red,3,5,1020.83647796503,472.5,579.163522034968,472.5,800,855,1020.83647796503,727.5,1020.83647796503,472.5,800,345,579.163522034968,472.5,579.163522034968,727.5,6,5,4,3,0,5,horizontal,vertical,vertical,vertical,vertical,vertical
1b,15,100201,4,52,244,20,F,NA,constant,heterogeneous,3,present,0.89976692199707,1,horizontal,horizontal,1,0.670586698395865,red,3,1,716.980120613425,358.892763222174,632.704947607421,792.450942956807,632.704947607421,792.450942956807,1050.31493177915,648.656293821019,716.980120613425,358.892763222174,0,0,0,0,0,0,0,3,4,NaN,NaN,NaN,horizontal,vertical,horizontal,none,none,none
1b,15,100201,4,53,245,20,F,NA,constant,heterogeneous,3,present,1.29520487785339,1,vertical,vertical,1,1.05881353957312,red,2,3,1046.31108570371,665.998856501143,734.001143498857,353.688914296288,619.68777079743,780.31222920257,1046.31108570371,665.998856501143,734.001143498857,353.688914296288,0,0,0,0,0,0,5,4,6,NaN,NaN,NaN,horizontal,vertical,horizontal,none,none,none
1b,15,100201,4,54,246,20,F,NA,constant,heterogeneous,6,present,1.51778483390808,1,vertical,vertical,1,0.82352454492024,red,3,2,1034.72873763037,500.363562235235,1003.65205506206,753.462830903772,768.923317431687,853.099268668537,1003.65205506206,753.462830903772,1034.72873763037,500.363562235235,831.076682568313,346.900731331463,596.34794493794,446.537169096228,565.271262369628,699.636437764765,6,6,4,5,3,0,horizontal,vertical,vertical,vertical,vertical,horizontal
1b,15,100201,4,55,247,20,F,NA,constant,heterogeneous,4,absent,1.22509908676147,1,vertical,vertical,1,1.03528464010784,red,1,NaN,684.232422566416,827.206663668034,NaN,NaN,684.232422566416,827.206663668034,1027.20666366803,715.767577433584,915.767577433584,372.793336331966,572.793336331966,484.232422566416,0,0,0,0,4,3,3,5,NaN,NaN,vertical,vertical,vertical,vertical,none,none
