experiment,subject,uniqueID,block,trial,trial_cumulative,age,gender,color_cond_blocking,color_history,shape_type,set_size,distractor,rt,acc,target_orient,response_key,response_made,iti,target_color,target_item,distractor_item,target_X,target_Y,distractor_X,distractor_Y,item1_X,item1_Y,item2_X,item2_Y,item3_X,item3_Y,item4_X,item4_Y,item5_X,item5_Y,item6_X,item6_Y,item1_shape,item2_shape,item3_shape,item4_shape,item5_shape,item6_shape,item1_line,item2_line,item3_line,item4_line,item5_line,item6_line
1b,16,100202,1,1,1,21,F,NA,constant,heterogeneous,6,present,NaN,0,vertical,none,0,0.75293989436967,green,6,2,545,600,927.5,820.836477965032,672.5,820.836477965032,927.5,820.836477965032,1055,600,927.5,379.163522034968,672.5,379.163522034968,545,600,6,5,3,6,3,4,vertical,vertical,vertical,vertical,horizontal,vertical
1b,16,100202,1,2,2,21,F,NA,constant,heterogeneous,4,present,1.36406183242798,1,vertical,vertical,1,0.858821359702519,green,4,3,586.139005173917,738.882953928832,661.117046071168,386.139005173917,938.882953928832,813.860994826083,1013.86099482608,461.117046071168,661.117046071168,386.139005173917,586.139005173917,738.882953928832,0,0,0,0,0,3,6,4,NaN,NaN,vertical,vertical,horizontal,vertical,none,none
1b,16,100202,1,3,3,21,F,NA,constant,heterogeneous,4,present,1.71683883666992,1,vertical,vertical,1,1.07058429036822,green,2,4,1048.46436652023,542.637481142314,551.535633479765,657.362518857686,857.362518857686,848.464366520235,1048.46436652023,542.637481142314,742.637481142314,351.535633479765,551.535633479765,657.362518857686,0,0,0,0,3,4,6,3,NaN,NaN,vertical,vertical,vertical,vertical,none,none
1b,16,100202,1,4,4,21,F,NA,constant,heterogeneous,4,absent,1.9890558719635,1,horizontal,horizontal,1,1.07058429036822,green,1,NaN,688.215357568785,829.192481806288,NaN,NaN,688.215357568785,829.192481806288,1029.19248180629,711.784642431215,911.784642431215,370.807518193712,570.807518193712,488.215357568785,0,0,0,0,4,6,3,5,NaN,NaN,horizontal,vertical,vertical,vertical,none,none
1b,16,100202,1,5,5,21,F,NA,constant,heterogeneous,4,absent,1.12518310546875,1,vertical,vertical,1,0.623529214518411,green,3,NaN,661.117046071168,386.139005173917,NaN,NaN,938.882953928832,813.860994826083,1013.86099482608,461.117046071168,661.117046071168,386.139005173917,586.139005173917,738.882953928832,0,0,0,0,5,0,4,5,NaN,NaN,vertical,vertical,vertical,horizontal,none,none
1b,16,100202,1,6,6,21,F,NA,constant,heterogeneous,4,present,1.73106598854065,1,vertical,vertical,1,0.952938217776162,green,1,4,657.405809614959,811.404581001536,588.595418998464,457.40580961496,657.405809614959,811.404581001536,1011.40458100154,742.594190385041,942.594190385041,388.595418998464,588.595418998464,457.40580961496,0,0,0,0,4,6,3,3,NaN,NaN,vertical,vertical,vertical,horizontal,none,none
1b,16,100202,1,7,7,21,F,NA,constant,heterogeneous,4,present,0.875836849212646,1,horizontal,horizontal,1,0.905879788739341,green,3,2,870.287525733335,354.878267535729,1045.12173246427,670.287525733335,729.712474266665,845.121732464271,1045.12173246427,670.287525733335,870.287525733335,354.878267535729,554.878267535729,529.712474266665,0,0,0,0,0,6,4,5,NaN,NaN,vertical,vertical,horizontal,horizontal,none,none
1b,16,100202,1,8,8,21,F,NA,constant,heterogeneous,3,present,1.2194938659668,0,vertical,horizontal,1,1.09411350488663,green,1,3,616.568350913644,777.137884467044,738.309916622085,352.574589799621,616.568350913644,777.137884467044,1045.12173246427,670.287525733335,738.309916622085,352.574589799621,0,0,0,0,0,0,4,3,5,NaN,NaN,NaN,vertical,horizontal,vertical,none,none,none
1b,16,100202,1,9,9,21,F,NA,constant,heterogeneous,6,present,NaN,0,horizontal,none,0,0.705881465332849,green,3,4,960.476699717708,401.827779828472,708.616172865948,361.936991243214,891.383827134052,838.063008756786,1051.86052685176,639.890788585259,960.476699717708,401.827779828472,708.616172865948,361.936991243214,548.13947314824,560.109211414741,639.523300282292,798.172220171528,0,5,4,0,3,5,horizontal,horizontal,horizontal,vertical,horizontal,vertical
1b,16,100202,1,10,10,21,F,NA,constant,heterogeneous,5,absent,1.80965900421143,1,vertical,vertical,1,0.764704501628876,green,5,NaN,601.827779828472,760.476699717708,NaN,NaN,891.383827134052,838.063008756786,1054.65053136242,586.654331158049,865.998856501143,353.688914296288,586.139005173917,461.117046071168,601.827779828472,760.476699717708,0,0,3,0,6,5,4,NaN,vertical,horizontal,vertical,vertical,vertical,none
1b,16,100202,1,11,11,21,F,NA,constant,heterogeneous,3,present,1.00032091140747,1,horizontal,horizontal,1,0.917644395998546,green,1,2,755.719714694933,851.125977018113,1039.62161830041,512.784863451954,755.719714694933,851.125977018113,1039.62161830041,512.784863451954,604.658667004661,436.089159529932,0,0,0,0,0,0,4,5,3,NaN,NaN,NaN,horizontal,vertical,horizontal,none,none,none
1b,16,100202,1,12,12,21,F,NA,constant,heterogeneous,5,absent,1.52450203895569,1,horizontal,horizontal,1,0.799998323406492,green,4,NaN,751.343706178981,349.685068220846,NaN,NaN,692.232343256122,831.108485694346,986.495193912888,773.909581815937,1023.02802532055,476.373546837184,751.343706178981,349.685068220846,546.900731331463,568.923317431687,0,0,3,0,3,4,0,NaN,horizontal,horizontal,vertical,horizontal,vertical,none
1b,16,100202,1,13,13,21,F,NA,constant,heterogeneous,4,absent,1.66329312324524,1,horizontal,horizontal,1,0.811762930665697,green,1,NaN,874.554784704298,843.857712770574,NaN,NaN,874.554784704298,843.857712770574,1043.85771277057,525.445215295702,725.445215295702,356.142287229426,556.142287229426,674.554784704298,0,0,0,0,4,5,3,0,NaN,NaN,horizontal,vertical,horizontal,horizontal,none,none
1b,16,100202,1,14,14,21,F,NA,constant,heterogeneous,5,present,1.09039092063904,1,vertical,vertical,1,0.870585966961724,green,3,4,1023.02802532055,476.373546837184,751.343706178981,349.685068220846,692.232343256122,831.108485694346,986.495193912888,773.909581815937,1023.02802532055,476.373546837184,751.343706178981,349.685068220846,546.900731331463,568.923317431687,0,0,3,6,4,3,6,NaN,horizontal,vertical,vertical,vertical,vertical,none
1b,16,100202,1,15,15,21,F,NA,constant,heterogeneous,3,absent,0.862507104873657,1,vertical,vertical,1,0.717646072592054,green,2,NaN,1031.10848569435,492.232343256122,NaN,NaN,777.775285599347,854.029648013395,1031.10848569435,492.232343256122,591.116228706307,453.738008730483,0,0,0,0,0,0,3,4,0,NaN,NaN,NaN,vertical,vertical,horizontal,none,none,none
1b,16,100202,1,16,16,21,F,NA,constant,heterogeneous,5,present,1.65868997573853,1,horizontal,horizontal,1,0.941173610516957,green,3,5,956.993676208043,399.057257830286,554.878267535729,670.287525733335,791.100628340862,854.844660889869,1039.62161830041,687.215136548046,956.993676208043,399.057257830286,657.405809614959,388.595418998464,554.878267535729,670.287525733335,0,0,3,3,4,6,0,NaN,vertical,horizontal,horizontal,horizontal,horizontal,none
1b,16,100202,1,17,17,21,F,NA,constant,heterogeneous,6,present,1.88938403129578,0,horizontal,vertical,1,0.658823036296027,green,5,3,601.827779828472,439.523300282291,1038.06300875679,508.616172865948,760.109211414741,851.86052685176,998.172220171528,760.476699717708,1038.06300875679,508.616172865948,839.890788585259,348.13947314824,601.827779828472,439.523300282291,561.936991243214,691.383827134052,6,3,6,5,4,5,horizontal,vertical,vertical,horizontal,horizontal,vertical
1b,16,100202,1,18,18,21,F,NA,constant,heterogeneous,5,absent,1.73365092277527,1,horizontal,horizontal,1,0.917644395998546,green,5,NaN,561.936991243214,691.383827134052,NaN,NaN,813.345668841951,854.650531362416,1046.31108570371,665.998856501143,938.882953928832,386.139005173917,639.523300282292,401.827779828472,561.936991243214,691.383827134052,0,0,0,5,6,3,4,NaN,horizontal,vertical,horizontal,vertical,horizontal,none
1b,16,100202,1,19,19,21,F,NA,constant,heterogeneous,4,absent,1.25698113441467,1,horizontal,horizontal,1,0.623529214518411,green,2,NaN,1048.46436652023,542.637481142314,NaN,NaN,857.362518857686,848.464366520235,1048.46436652023,542.637481142314,742.637481142314,351.535633479765,551.535633479765,657.362518857686,0,0,0,0,0,4,5,6,NaN,NaN,horizontal,horizontal,horizontal,horizontal,none,none
1b,16,100202,1,20,20,21,F,NA,constant,heterogeneous,6,present,1.58794093132019,1,vertical,vertical,1,0.682352250814438,green,6,1,545.03883773512,604.450363641507,676.373546837184,823.028025320546,676.373546837184,823.028025320546,931.334709102064,818.577661679039,1054.96116226488,595.549636358493,923.626453162816,376.971974679454,668.665290897936,381.422338320961,545.03883773512,604.450363641507,6,3,0,0,5,4,horizontal,horizontal,vertical,vertical,vertical,vertical
1b,16,100202,1,21,21,21,F,NA,constant,heterogeneous,4,present,1.54274392127991,1,vertical,vertical,1,0.941173610516957,green,1,2,636.089159529932,795.341332995339,995.341332995339,763.910840470068,636.089159529932,795.341332995339,995.341332995339,763.910840470068,963.910840470068,404.658667004661,604.658667004661,436.089159529932,0,0,0,0,4,6,6,3,NaN,NaN,vertical,vertical,vertical,horizontal,none,none
1b,16,100202,1,22,22,21,F,NA,constant,heterogeneous,5,present,0.915035963058472,1,vertical,vertical,1,1.05881968310901,green,5,1,545.03883773512,595.549636358493,716.980120613425,841.107236777826,716.980120613425,841.107236777826,1003.65205506206,753.462830903772,1008.88377129369,453.738008730483,725.445215295702,356.142287229426,545.03883773512,595.549636358493,0,0,5,3,5,0,4,NaN,horizontal,vertical,horizontal,vertical,vertical,none
1b,16,100202,1,23,23,21,F,NA,constant,heterogeneous,6,absent,1.65966200828552,1,horizontal,horizontal,1,0.705881465332849,green,4,NaN,734.001143498857,353.688914296288,NaN,NaN,865.998856501143,846.311085703712,1046.31108570371,665.998856501143,980.31222920257,419.68777079743,734.001143498857,353.688914296288,553.688914296288,534.001143498857,619.68777079743,780.31222920257,5,3,3,4,6,0,vertical,horizontal,horizontal,horizontal,vertical,horizontal
1b,16,100202,1,24,24,21,F,NA,constant,heterogeneous,3,absent,1.44318604469299,1,horizontal,horizontal,1,0.705881465332849,green,1,NaN,643.006323791957,800.942742169714,NaN,NaN,643.006323791957,800.942742169714,1052.5183575291,635.489140744817,704.475318678942,363.568117085469,0,0,0,0,0,0,4,6,0,NaN,NaN,NaN,horizontal,vertical,horizontal,none,none,none
1b,16,100202,1,25,25,21,F,NA,constant,heterogeneous,6,absent,NaN,0,horizontal,none,0,0.976467432294573,green,3,NaN,998.172220171528,439.523300282291,NaN,NaN,839.890788585259,851.86052685176,1038.06300875679,691.383827134052,998.172220171528,439.523300282291,760.109211414741,348.13947314824,561.936991243214,508.616172865948,601.827779828472,760.476699717708,0,3,4,3,0,6,horizontal,horizontal,horizontal,horizontal,vertical,vertical
1b,16,100202,1,26,26,21,F,NA,constant,heterogeneous,6,absent,NaN,0,horizontal,none,0,0.635293821777616,green,3,NaN,1039.62161830041,512.784863451954,NaN,NaN,755.719714694933,851.125977018113,995.341332995339,763.910840470068,1039.62161830041,512.784863451954,844.280285305067,348.874022981887,604.658667004661,436.089159529932,560.378381699593,687.215136548046,3,0,4,6,6,5,vertical,vertical,horizontal,vertical,horizontal,vertical
1b,16,100202,1,27,27,21,F,NA,constant,heterogeneous,5,absent,1.43759107589722,1,vertical,vertical,1,0.635293821777616,green,4,NaN,661.117046071168,386.139005173917,NaN,NaN,786.654331158049,854.650531362416,1038.06300875679,691.383827134052,960.476699717708,401.827779828472,661.117046071168,386.139005173917,553.688914296288,665.998856501143,0,0,0,5,3,4,0,NaN,horizontal,horizontal,horizontal,vertical,vertical,none
1b,16,100202,1,28,28,21,F,NA,constant,heterogeneous,4,present,1.45888304710388,1,horizontal,horizontal,1,0.611764607259205,green,4,3,552.574589799621,538.309916622085,861.690083377915,352.574589799621,738.309916622085,847.425410200379,1047.42541020038,661.690083377915,861.690083377915,352.574589799621,552.574589799621,538.309916622085,0,0,0,0,5,0,3,4,NaN,NaN,horizontal,vertical,vertical,horizontal,none,none
1b,16,100202,1,29,29,21,F,NA,constant,heterogeneous,3,present,1.01975297927856,1,vertical,vertical,1,0.776469108888081,green,3,2,546.39691668109,626.654758133252,903.717843984329,367.045908301137,949.885239334581,806.299333565612,903.717843984329,367.045908301137,546.39691668109,626.654758133252,0,0,0,0,0,0,6,3,4,NaN,NaN,NaN,vertical,horizontal,vertical,none,none,none
1b,16,100202,1,30,30,21,F,NA,constant,heterogeneous,5,absent,0.877351999282837,1,vertical,vertical,1,1.07058429036822,green,5,NaN,550.57236181288,653.017481158529,NaN,NaN,773.345241866748,853.60308331891,1032.95409169886,703.717843984329,970.628304621509,410.498069503264,672.5,379.163522034968,550.57236181288,653.017481158529,0,0,3,6,6,0,4,NaN,vertical,vertical,vertical,vertical,vertical,none
1b,16,100202,1,31,31,21,F,NA,constant,heterogeneous,4,absent,1.34546303749084,0,vertical,horizontal,1,0.905879788739341,green,1,NaN,826.654758133252,853.60308331891,NaN,NaN,826.654758133252,853.60308331891,1053.60308331891,573.345241866748,773.345241866748,346.39691668109,546.39691668109,626.654758133252,0,0,0,0,4,6,3,5,NaN,NaN,vertical,horizontal,horizontal,horizontal,none,none
1b,16,100202,1,32,32,21,F,NA,constant,heterogeneous,3,present,1.19772410392761,1,horizontal,horizontal,1,0.858821359702519,green,1,2,963.910840470068,795.341332995339,887.215136548046,360.378381699593,963.910840470068,795.341332995339,887.215136548046,360.378381699593,548.874022981887,644.280285305067,0,0,0,0,0,0,4,5,0,NaN,NaN,NaN,horizontal,vertical,vertical,none,none,none
1b,16,100202,1,33,33,21,F,NA,constant,heterogeneous,6,present,NaN,0,horizontal,none,0,0.75293989436967,green,4,6,844.280285305067,348.874022981887,560.378381699593,687.215136548046,755.719714694933,851.125977018113,995.341332995339,763.910840470068,1039.62161830041,512.784863451954,844.280285305067,348.874022981887,604.658667004661,436.089159529932,560.378381699593,687.215136548046,3,6,5,4,0,6,horizontal,horizontal,horizontal,horizontal,vertical,vertical
1b,16,100202,1,34,34,21,F,NA,constant,heterogeneous,6,present,NaN,0,vertical,none,0,0.776469108888081,green,6,4,657.405809614959,811.404581001536,688.215357568785,370.807518193712,911.784642431215,829.192481806288,1054.37883281626,617.787900804752,942.594190385041,388.595418998464,688.215357568785,370.807518193712,545.621167183745,582.212099195248,657.405809614959,811.404581001536,5,6,6,3,5,4,vertical,horizontal,vertical,horizontal,horizontal,vertical
1b,16,100202,1,35,35,21,F,NA,constant,heterogeneous,3,present,0.959162950515747,1,vertical,vertical,1,0.717646072592054,green,2,3,923.626453162816,376.971974679454,545.03883773512,604.450363641507,931.334709102064,818.577661679039,923.626453162816,376.971974679454,545.03883773512,604.450363641507,0,0,0,0,0,0,0,4,6,NaN,NaN,NaN,horizontal,vertical,vertical,none,none,none
1b,16,100202,1,36,36,21,F,NA,constant,heterogeneous,3,present,0.912703990936279,1,vertical,vertical,1,0.905879788739341,green,3,2,548.13947314824,639.890788585259,891.383827134052,361.936991243214,960.476699717708,798.172220171528,891.383827134052,361.936991243214,548.13947314824,639.890788585259,0,0,0,0,0,0,3,5,4,NaN,NaN,NaN,horizontal,vertical,vertical,none,none,none
1b,16,100202,1,37,37,21,F,NA,constant,heterogeneous,5,absent,1.26718020439148,1,horizontal,horizontal,1,0.999996646812984,green,2,NaN,1018.57766167904,731.334709102064,NaN,NaN,742.637481142314,848.464366520235,1018.57766167904,731.334709102064,992.450942956807,432.704947607421,700.363562235235,365.271262369628,545.970351986605,622.224714400653,0,0,3,4,3,5,6,NaN,vertical,horizontal,vertical,vertical,horizontal,none
1b,16,100202,1,38,38,21,F,NA,constant,heterogeneous,3,absent,1.09954905509949,1,horizontal,horizontal,1,0.75293989436967,green,3,NaN,650.114760665419,393.700666434388,NaN,NaN,696.282156015671,832.954091698863,1053.60308331891,573.345241866748,650.114760665419,393.700666434388,0,0,0,0,0,0,5,6,4,NaN,NaN,NaN,vertical,horizontal,horizontal,none,none,none
1b,16,100202,1,39,39,21,F,NA,constant,heterogeneous,3,absent,1.0275981426239,1,horizontal,horizontal,1,0.694116858073643,green,1,NaN,661.117046071168,813.860994826083,NaN,NaN,661.117046071168,813.860994826083,1054.65053136242,613.345668841951,684.232422566416,372.793336331966,0,0,0,0,0,0,4,3,0,NaN,NaN,NaN,horizontal,horizontal,horizontal,none,none,none
1b,16,100202,1,40,40,21,F,NA,constant,heterogeneous,4,absent,1.31425499916077,1,vertical,vertical,1,1.09411350488663,green,4,NaN,576.971974679454,476.373546837184,NaN,NaN,676.373546837184,823.028025320546,1023.02802532055,723.626453162816,923.626453162816,376.971974679454,576.971974679454,476.373546837184,0,0,0,0,0,3,6,4,NaN,NaN,horizontal,vertical,vertical,vertical,none,none
1b,16,100202,1,41,41,21,F,NA,constant,heterogeneous,5,present,0.957110166549683,1,vertical,vertical,1,1.02352586133139,green,2,4,1011.40458100154,742.594190385041,712.784863451954,360.378381699593,729.712474266665,845.121732464271,1011.40458100154,742.594190385041,1000.94274216971,443.006323791957,712.784863451954,360.378381699593,545.155339110131,608.899371659138,0,0,6,4,0,6,0,NaN,horizontal,vertical,horizontal,horizontal,vertical,none
1b,16,100202,1,42,42,21,F,NA,constant,heterogeneous,4,present,1.56555414199829,1,horizontal,horizontal,1,0.858821359702519,green,2,3,1051.12597701811,555.719714694933,755.719714694933,348.874022981887,844.280285305067,851.125977018113,1051.12597701811,555.719714694933,755.719714694933,348.874022981887,548.874022981887,644.280285305067,0,0,0,0,5,4,6,3,NaN,NaN,vertical,horizontal,horizontal,vertical,none,none
1b,16,100202,1,43,43,21,F,NA,constant,heterogeneous,6,present,1.10204195976257,1,vertical,vertical,1,0.647058429036822,green,3,6,1049.42763818712,546.982518841471,550.57236181288,653.017481158529,721.200666434388,842.519411655264,970.628304621509,789.501930496736,1049.42763818712,546.982518841471,878.799333565612,357.480588344736,629.371695378491,410.498069503264,550.57236181288,653.017481158529,5,6,4,3,3,5,vertical,vertical,vertical,vertical,vertical,horizontal
1b,16,100202,1,44,44,21,F,NA,constant,heterogeneous,5,present,1.35391712188721,1,horizontal,horizontal,1,0.88235057422093,green,3,4,963.910840470068,404.658667004661,664.870587620533,383.747735480111,782.212099195248,854.378832816255,1036.43188291453,695.524681321058,963.910840470068,404.658667004661,664.870587620533,383.747735480111,552.574589799621,661.690083377915,0,0,6,0,4,5,5,NaN,horizontal,horizontal,horizontal,horizontal,vertical,none
1b,16,100202,1,45,45,21,F,NA,constant,heterogeneous,5,absent,NaN,0,vertical,none,0,1.09411350488663,green,3,NaN,844.280285305067,348.874022981887,NaN,NaN,911.784642431215,829.192481806288,1052.5183575291,564.510859255183,844.280285305067,348.874022981887,574.848363820974,480.284751489598,616.568350913644,777.137884467044,0,0,6,3,4,3,5,NaN,horizontal,vertical,vertical,vertical,horizontal,none
1b,16,100202,1,46,46,21,F,NA,constant,heterogeneous,6,absent,0.745490074157715,1,vertical,vertical,1,0.905879788739341,green,4,NaN,839.890788585259,348.13947314824,NaN,NaN,760.109211414741,851.86052685176,998.172220171528,760.476699717708,1038.06300875679,508.616172865948,839.890788585259,348.13947314824,601.827779828472,439.523300282291,561.936991243214,691.383827134052,3,5,6,4,5,3,vertical,vertical,horizontal,vertical,horizontal,vertical
1b,16,100202,1,47,47,21,F,NA,constant,heterogeneous,5,present,0.972688913345337,1,horizontal,horizontal,1,0.811762930665697,green,2,5,1016.25226451989,735.129412379467,545.621167183745,617.787900804752,738.309916622085,847.425410200379,1016.25226451989,735.129412379467,995.341332995339,436.089159529932,704.475318678942,363.568117085469,545.621167183745,617.787900804752,0,0,5,4,6,3,0,NaN,vertical,horizontal,vertical,horizontal,horizontal,none
1b,16,100202,1,48,48,21,F,NA,constant,heterogeneous,5,present,1.49193120002747,0,horizontal,vertical,1,0.776469108888081,green,1,4,712.784863451954,839.621618300407,729.712474266665,354.878267535729,712.784863451954,839.621618300407,1000.94274216971,756.993676208043,1011.40458100154,457.40580961496,729.712474266665,354.878267535729,545.155339110131,591.100628340862,0,0,4,5,6,5,3,NaN,horizontal,horizontal,horizontal,vertical,vertical,none
1b,16,100202,1,49,49,21,F,NA,constant,heterogeneous,5,present,NaN,0,vertical,none,0,0.776469108888081,green,1,3,861.690083377915,847.425410200379,895.524681321058,363.568117085469,861.690083377915,847.425410200379,1054.37883281626,617.787900804752,895.524681321058,363.568117085469,604.658667004661,436.089159529932,583.747735480111,735.129412379467,0,0,4,6,6,0,3,NaN,vertical,horizontal,vertical,horizontal,vertical,none
1b,16,100202,1,50,50,21,F,NA,constant,heterogeneous,5,absent,1.8662428855896,1,horizontal,horizontal,1,1.02352586133139,green,1,NaN,725.445215295702,843.857712770574,NaN,NaN,725.445215295702,843.857712770574,1008.88377129369,746.261991269517,1003.65205506206,446.537169096228,716.980120613425,358.892763222174,545.03883773512,604.450363641507,0,0,4,3,3,5,6,NaN,horizontal,horizontal,horizontal,vertical,vertical,none
1b,16,100202,1,51,51,21,F,NA,constant,heterogeneous,4,present,1.18837308883667,0,horizontal,vertical,1,1.04705507584981,green,4,2,548.874022981887,644.280285305067,1051.12597701811,555.719714694933,844.280285305067,851.125977018113,1051.12597701811,555.719714694933,755.719714694933,348.874022981887,548.874022981887,644.280285305067,0,0,0,0,3,0,5,4,NaN,NaN,horizontal,horizontal,vertical,horizontal,none,none
1b,16,100202,1,52,52,21,F,NA,constant,heterogeneous,6,absent,1.61774301528931,1,vertical,vertical,1,1.05881968310901,green,2,NaN,1020.83647796503,727.5,NaN,NaN,800,855,1020.83647796503,727.5,1020.83647796503,472.5,800,345,579.163522034968,472.5,579.163522034968,727.5,6,4,0,6,3,5,horizontal,vertical,vertical,vertical,horizontal,horizontal
1b,16,100202,1,53,53,21,F,NA,constant,heterogeneous,3,absent,1.60788297653198,1,horizontal,horizontal,1,0.88235057422093,green,1,NaN,967.295052392579,792.450942956807,NaN,NaN,967.295052392579,792.450942956807,883.019879386575,358.892763222174,549.685068220846,648.656293821019,0,0,0,0,0,0,4,6,0,NaN,NaN,NaN,horizontal,vertical,vertical,none,none,none
1b,16,100202,1,54,54,21,F,NA,constant,heterogeneous,6,absent,NaN,0,vertical,none,0,0.847056752443314,green,6,NaN,607.549057043193,767.295052392579,NaN,NaN,848.656293821019,850.314931779154,1041.10723677783,683.019879386575,992.450942956807,432.704947607421,751.343706178981,349.685068220846,558.892763222174,516.980120613425,607.549057043193,767.295052392579,6,6,0,5,5,4,vertical,horizontal,vertical,vertical,vertical,vertical
1b,16,100202,1,55,55,21,F,NA,constant,heterogeneous,6,present,NaN,0,horizontal,none,0,0.764704501628876,green,5,6,668.665290897936,381.422338320961,545.03883773512,604.450363641507,676.373546837184,823.028025320546,931.334709102064,818.577661679039,1054.96116226488,595.549636358493,923.626453162816,376.971974679454,668.665290897936,381.422338320961,545.03883773512,604.450363641507,5,3,6,6,4,5,vertical,vertical,vertical,vertical,horizontal,horizontal
1b,16,100202,1,56,56,21,F,NA,constant,heterogeneous,3,absent,1.03012681007385,1,vertical,vertical,1,0.658823036296027,green,1,NaN,998.172220171528,760.476699717708,NaN,NaN,998.172220171528,760.476699717708,839.890788585259,348.13947314824,561.936991243214,691.383827134052,0,0,0,0,0,0,4,0,6,NaN,NaN,NaN,vertical,horizontal,vertical,none,none,none
1b,16,100202,1,57,57,21,F,NA,constant,heterogeneous,4,absent,1.31959295272827,1,horizontal,horizontal,1,0.835292145184108,green,3,NaN,721.200666434388,357.480588344736,NaN,NaN,878.799333565612,842.519411655264,1042.51941165526,521.200666434388,721.200666434388,357.480588344736,557.480588344736,678.799333565612,0,0,0,0,6,0,4,0,NaN,NaN,vertical,vertical,horizontal,vertical,none,none
1b,16,100202,1,58,58,21,F,NA,constant,heterogeneous,3,present,1.22730278968811,1,horizontal,horizontal,1,0.858821359702519,green,2,3,895.524681321058,363.568117085469,547.481642470899,635.489140744817,956.993676208043,800.942742169714,895.524681321058,363.568117085469,547.481642470899,635.489140744817,0,0,0,0,0,0,6,4,3,NaN,NaN,NaN,horizontal,horizontal,horizontal,none,none,none
1b,16,100202,1,59,59,21,F,NA,constant,heterogeneous,3,absent,1.19348907470703,1,vertical,vertical,1,0.670587643555232,green,3,NaN,800,345,NaN,NaN,579.163522034968,727.5,1020.83647796503,727.5,800,345,0,0,0,0,0,0,6,6,4,NaN,NaN,NaN,vertical,vertical,vertical,none,none,none
1b,16,100202,1,60,60,21,F,NA,constant,heterogeneous,6,absent,NaN,0,horizontal,none,0,0.917644395998546,green,1,NaN,911.784642431215,829.192481806288,NaN,NaN,911.784642431215,829.192481806288,1054.37883281626,617.787900804752,942.594190385041,388.595418998464,688.215357568785,370.807518193712,545.621167183745,582.212099195248,657.405809614959,811.404581001536,4,3,3,6,5,6,horizontal,horizontal,vertical,horizontal,vertical,vertical
1b,16,100202,1,61,61,21,F,NA,constant,heterogeneous,4,absent,1.06975507736206,1,vertical,vertical,1,0.682352250814438,green,1,NaN,704.475318678942,836.431882914531,NaN,NaN,704.475318678942,836.431882914531,1036.43188291453,695.524681321058,895.524681321058,363.568117085469,563.568117085469,504.475318678942,0,0,0,0,4,0,0,5,NaN,NaN,vertical,vertical,vertical,vertical,none,none
1b,16,100202,1,62,62,21,F,NA,constant,heterogeneous,3,absent,0.6332688331604,1,vertical,vertical,1,0.682352250814438,green,1,NaN,599.057257830286,756.993676208043,NaN,NaN,599.057257830286,756.993676208043,1036.43188291453,695.524681321058,764.510859255183,347.4816424709,0,0,0,0,0,0,4,5,6,NaN,NaN,NaN,vertical,horizontal,vertical,none,none,none
1b,16,100202,1,63,63,21,F,NA,constant,heterogeneous,3,present,1.67225790023804,0,horizontal,vertical,1,0.917644395998546,green,3,1,668.665290897936,381.422338320961,676.373546837184,823.028025320546,676.373546837184,823.028025320546,1054.96116226488,595.549636358493,668.665290897936,381.422338320961,0,0,0,0,0,0,5,5,4,NaN,NaN,NaN,vertical,horizontal,horizontal,none,none,none
1b,16,100202,1,64,64,21,F,NA,constant,heterogeneous,6,absent,1.44452404975891,1,vertical,vertical,1,0.929409003257751,green,5,NaN,546.39691668109,573.345241866748,NaN,NaN,903.717843984329,832.954091698863,1053.60308331891,626.654758133252,949.885239334581,393.700666434388,696.282156015671,367.045908301137,546.39691668109,573.345241866748,650.114760665419,806.299333565612,3,5,5,6,4,0,vertical,horizontal,horizontal,vertical,vertical,vertical
1b,16,100202,2,1,65,21,F,NA,constant,heterogeneous,6,absent,NaN,0,vertical,none,0,0.88235057422093,green,5,NaN,556.142287229426,525.445215295702,NaN,NaN,857.362518857686,848.464366520235,1043.85771277057,674.554784704298,986.495193912888,426.090418184063,742.637481142314,351.535633479765,556.142287229426,525.445215295702,613.504806087112,773.909581815937,5,6,3,6,4,3,horizontal,vertical,vertical,vertical,vertical,vertical
1b,16,100202,2,2,66,21,F,NA,constant,heterogeneous,4,present,0.822973966598511,1,horizontal,horizontal,1,0.705881465332849,green,2,4,1006.29933356561,450.114760665419,593.700666434388,749.885239334581,949.885239334581,806.299333565612,1006.29933356561,450.114760665419,650.114760665419,393.700666434388,593.700666434388,749.885239334581,0,0,0,0,0,4,6,5,NaN,NaN,horizontal,horizontal,horizontal,vertical,none,none
1b,16,100202,2,3,67,21,F,NA,constant,heterogeneous,3,present,1.29544115066528,1,horizontal,horizontal,1,0.788233716147287,green,1,3,626.090418184063,786.495193912888,725.445215295702,356.142287229426,626.090418184063,786.495193912888,1048.46436652023,657.362518857686,725.445215295702,356.142287229426,0,0,0,0,0,0,4,5,5,NaN,NaN,NaN,horizontal,vertical,vertical,none,none,none
1b,16,100202,2,4,68,21,F,NA,constant,heterogeneous,3,absent,0.966073036193848,1,horizontal,horizontal,1,0.623529214518411,green,1,NaN,919.715248510402,825.151636179026,NaN,NaN,919.715248510402,825.151636179026,935.129412379467,383.747735480111,545.155339110131,591.100628340862,0,0,0,0,0,0,4,5,6,NaN,NaN,NaN,horizontal,horizontal,vertical,none,none,none
1b,16,100202,2,5,69,21,F,NA,constant,heterogeneous,3,present,0.898795127868652,1,horizontal,horizontal,1,1.05881968310901,green,2,3,1020.83647796503,472.5,579.163522034968,472.5,800,855,1020.83647796503,472.5,579.163522034968,472.5,0,0,0,0,0,0,5,4,6,NaN,NaN,NaN,vertical,horizontal,horizontal,none,none,none
1b,16,100202,2,6,70,21,F,NA,constant,heterogeneous,6,present,1.19437909126282,1,vertical,vertical,1,0.670587643555232,green,5,3,545.155339110131,591.100628340862,935.129412379467,383.747735480111,919.715248510402,825.151636179026,1054.84466088987,608.899371659138,935.129412379467,383.747735480111,680.284751489598,374.848363820974,545.155339110131,591.100628340862,664.870587620533,816.252264519889,3,5,6,0,4,0,vertical,vertical,horizontal,vertical,vertical,vertical
1b,16,100202,2,7,71,21,F,NA,constant,heterogeneous,5,absent,1.70164895057678,1,horizontal,horizontal,1,0.964702825035368,green,2,NaN,1042.51941165526,678.799333565612,NaN,NaN,800,855,1042.51941165526,678.799333565612,949.885239334581,393.700666434388,650.114760665419,393.700666434388,557.480588344736,678.799333565612,0,0,0,4,3,6,6,NaN,vertical,horizontal,vertical,vertical,vertical,none
1b,16,100202,2,8,72,21,F,NA,constant,heterogeneous,4,present,1.08383393287659,1,vertical,vertical,1,0.799998323406492,green,3,1,696.282156015671,367.045908301137,903.717843984329,832.954091698863,903.717843984329,832.954091698863,1032.95409169886,496.282156015671,696.282156015671,367.045908301137,567.045908301137,703.717843984329,0,0,0,0,0,5,4,5,NaN,NaN,vertical,vertical,vertical,vertical,none,none
1b,16,100202,2,9,73,21,F,NA,constant,heterogeneous,3,present,0.886250972747803,1,vertical,vertical,1,0.623529214518411,green,3,2,568.891514305654,707.767656743878,822.224714400653,345.970351986605,1008.88377129369,746.261991269517,822.224714400653,345.970351986605,568.891514305654,707.767656743878,0,0,0,0,0,0,6,3,4,NaN,NaN,NaN,vertical,vertical,vertical,none,none,none
1b,16,100202,2,10,74,21,F,NA,constant,heterogeneous,6,absent,NaN,0,vertical,none,0,1.04705507584981,green,6,NaN,607.549057043193,767.295052392579,NaN,NaN,848.656293821019,850.314931779154,1041.10723677783,683.019879386575,992.450942956807,432.704947607421,751.343706178981,349.685068220846,558.892763222174,516.980120613425,607.549057043193,767.295052392579,0,5,5,6,6,4,horizontal,horizontal,vertical,horizontal,horizontal,vertical
1b,16,100202,2,11,75,21,F,NA,constant,heterogeneous,6,absent,NaN,0,horizontal,none,0,0.941173610516957,green,5,NaN,545.03883773512,595.549636358493,NaN,NaN,923.626453162816,823.028025320546,1054.96116226488,604.450363641507,931.334709102064,381.422338320961,676.373546837184,376.971974679454,545.03883773512,595.549636358493,668.665290897936,818.577661679039,0,3,0,3,4,5,horizontal,horizontal,horizontal,vertical,horizontal,horizontal
1b,16,100202,2,12,76,21,F,NA,constant,heterogeneous,6,absent,NaN,0,horizontal,none,0,0.647058429036822,green,5,NaN,632.704947607421,407.549057043193,NaN,NaN,716.980120613425,841.107236777826,967.295052392579,792.450942956807,1050.31493177915,551.343706178981,883.019879386575,358.892763222174,632.704947607421,407.549057043193,549.685068220846,648.656293821019,0,6,0,3,4,3,horizontal,vertical,horizontal,vertical,horizontal,vertical
1b,16,100202,2,13,77,21,F,NA,constant,heterogeneous,5,absent,1.49911594390869,0,vertical,horizontal,1,1.07058429036822,green,1,NaN,883.019879386575,841.107236777826,NaN,NaN,883.019879386575,841.107236777826,1054.96116226488,595.549636358493,874.554784704298,356.142287229426,591.116228706307,453.738008730483,596.34794493794,753.462830903772,0,0,4,6,0,0,5,NaN,vertical,horizontal,horizontal,horizontal,horizontal,none
1b,16,100202,2,14,78,21,F,NA,constant,heterogeneous,4,absent,1.18963503837585,1,vertical,vertical,1,0.611764607259205,green,2,NaN,1045.12173246427,529.712474266665,NaN,NaN,870.287525733335,845.121732464271,1045.12173246427,529.712474266665,729.712474266665,354.878267535729,554.878267535729,670.287525733335,0,0,0,0,5,4,3,0,NaN,NaN,horizontal,vertical,vertical,horizontal,none,none
1b,16,100202,2,15,79,21,F,NA,constant,heterogeneous,4,absent,1.21577596664429,1,horizontal,horizontal,1,0.917644395998546,green,4,NaN,576.971974679454,476.373546837184,NaN,NaN,676.373546837184,823.028025320546,1023.02802532055,723.626453162816,923.626453162816,376.971974679454,576.971974679454,476.373546837184,0,0,0,0,6,5,3,4,NaN,NaN,horizontal,horizontal,vertical,horizontal,none,none
1b,16,100202,2,16,80,21,F,NA,constant,heterogeneous,5,present,1.61322903633118,1,vertical,vertical,1,0.635293821777616,green,4,3,795.549636358493,345.03883773512,1041.10723677783,516.980120613425,653.738008730483,808.883771293693,953.462830903772,803.65205506206,1041.10723677783,516.980120613425,795.549636358493,345.03883773512,556.142287229426,525.445215295702,0,0,6,6,3,4,5,NaN,horizontal,vertical,vertical,vertical,vertical,none
1b,16,100202,2,17,81,21,F,NA,constant,heterogeneous,3,absent,1.27535915374756,1,horizontal,horizontal,1,0.682352250814438,green,3,NaN,716.980120613425,358.892763222174,NaN,NaN,632.704947607421,792.450942956807,1050.31493177915,648.656293821019,716.980120613425,358.892763222174,0,0,0,0,0,0,0,3,4,NaN,NaN,NaN,horizontal,horizontal,horizontal,none,none,none
1b,16,100202,2,18,82,21,F,NA,constant,heterogeneous,4,present,1.06423211097717,1,horizontal,horizontal,1,0.75293989436967,green,1,3,676.373546837184,823.028025320546,923.626453162816,376.971974679454,676.373546837184,823.028025320546,1023.02802532055,723.626453162816,923.626453162816,376.971974679454,576.971974679454,476.373546837184,0,0,0,0,4,3,5,0,NaN,NaN,horizontal,horizontal,horizontal,vertical,none,none
1b,16,100202,2,19,83,21,F,NA,constant,heterogeneous,6,absent,1.64429402351379,1,vertical,vertical,1,0.941173610516957,green,6,NaN,632.704947607421,792.450942956807,NaN,NaN,883.019879386575,841.107236777826,1050.31493177915,648.656293821019,967.295052392579,407.549057043193,716.980120613425,358.892763222174,549.685068220846,551.343706178981,632.704947607421,792.450942956807,5,6,0,3,3,4,vertical,horizontal,vertical,vertical,vertical,vertical
1b,16,100202,2,20,84,21,F,NA,constant,heterogeneous,4,absent,0.963047981262207,1,vertical,vertical,1,0.682352250814438,green,1,NaN,738.309916622085,847.425410200379,NaN,NaN,738.309916622085,847.425410200379,1047.42541020038,661.690083377915,861.690083377915,352.574589799621,552.574589799621,538.309916622085,0,0,0,0,4,5,6,5,NaN,NaN,vertical,vertical,vertical,horizontal,none,none
1b,16,100202,2,21,85,21,F,NA,constant,heterogeneous,5,present,1.15858602523804,1,horizontal,horizontal,1,0.823527537924903,green,3,2,1025.15163617903,480.284751489598,983.431649086356,777.137884467044,688.215357568785,829.192481806288,983.431649086356,777.137884467044,1025.15163617903,480.284751489598,755.719714694933,348.874022981887,547.481642470899,564.510859255183,0,0,3,5,4,6,0,NaN,vertical,vertical,horizontal,horizontal,vertical,none
1b,16,100202,2,22,86,21,F,NA,constant,heterogeneous,5,absent,1.37899780273438,1,horizontal,horizontal,1,0.647058429036822,green,4,NaN,708.616172865948,361.936991243214,NaN,NaN,734.001143498857,846.311085703712,1013.86099482608,738.882953928832,998.172220171528,439.523300282291,708.616172865948,361.936991243214,545.349468637584,613.345668841951,0,0,5,0,6,4,3,NaN,vertical,vertical,horizontal,horizontal,horizontal,none
1b,16,100202,2,23,87,21,F,NA,constant,heterogeneous,3,absent,0.855289936065674,1,vertical,vertical,1,1.02352586133139,green,3,NaN,548.13947314824,639.890788585259,NaN,NaN,960.476699717708,798.172220171528,891.383827134052,361.936991243214,548.13947314824,639.890788585259,0,0,0,0,0,0,5,5,4,NaN,NaN,NaN,horizontal,vertical,vertical,none,none,none
1b,16,100202,2,24,88,21,F,NA,constant,heterogeneous,4,absent,1.24716806411743,1,vertical,vertical,1,0.941173610516957,green,1,NaN,704.475318678942,836.431882914531,NaN,NaN,704.475318678942,836.431882914531,1036.43188291453,695.524681321058,895.524681321058,363.568117085469,563.568117085469,504.475318678942,0,0,0,0,4,5,3,3,NaN,NaN,vertical,horizontal,vertical,horizontal,none,none
1b,16,100202,2,25,89,21,F,NA,constant,heterogeneous,6,present,1.58050608634949,1,vertical,vertical,1,0.999996646812984,green,4,3,688.215357568785,370.807518193712,942.594190385041,388.595418998464,911.784642431215,829.192481806288,1054.37883281626,617.787900804752,942.594190385041,388.595418998464,688.215357568785,370.807518193712,545.621167183745,582.212099195248,657.405809614959,811.404581001536,6,5,0,4,3,6,vertical,horizontal,vertical,vertical,horizontal,vertical
1b,16,100202,2,26,90,21,F,NA,constant,heterogeneous,3,absent,0.90959906578064,1,vertical,vertical,1,0.858821359702519,green,1,NaN,1008.88377129369,746.261991269517,NaN,NaN,1008.88377129369,746.261991269517,822.224714400653,345.970351986605,568.891514305654,707.767656743878,0,0,0,0,0,0,4,0,5,NaN,NaN,NaN,vertical,horizontal,vertical,none,none,none
1b,16,100202,2,27,91,21,F,NA,constant,heterogeneous,4,absent,1.28487515449524,1,horizontal,horizontal,1,0.835292145184108,green,1,NaN,911.784642431215,829.192481806288,NaN,NaN,911.784642431215,829.192481806288,1029.19248180629,488.215357568785,688.215357568785,370.807518193712,570.807518193712,711.784642431215,0,0,0,0,4,6,0,5,NaN,NaN,horizontal,vertical,vertical,horizontal,none,none
1b,16,100202,2,28,92,21,F,NA,constant,heterogeneous,4,present,1.06304311752319,1,vertical,vertical,1,1.02352586133139,green,4,2,591.116228706307,453.738008730483,1008.88377129369,746.261991269517,653.738008730483,808.883771293693,1008.88377129369,746.261991269517,946.261991269517,391.116228706307,591.116228706307,453.738008730483,0,0,0,0,3,3,0,4,NaN,NaN,horizontal,horizontal,horizontal,vertical,none,none
1b,16,100202,2,29,93,21,F,NA,constant,heterogeneous,6,present,1.59857416152954,1,horizontal,horizontal,1,0.905879788739341,green,5,1,591.116228706307,453.738008730483,777.775285599347,854.029648013395,777.775285599347,854.029648013395,1008.88377129369,746.261991269517,1031.10848569435,492.232343256122,822.224714400653,345.970351986605,591.116228706307,453.738008730483,568.891514305654,707.767656743878,5,0,6,5,4,3,horizontal,vertical,horizontal,vertical,horizontal,horizontal
1b,16,100202,2,30,94,21,F,NA,constant,heterogeneous,5,present,1.14490604400635,1,horizontal,horizontal,1,0.905879788739341,green,3,4,835.489140744817,347.4816424709,570.807518193712,488.215357568785,919.715248510402,825.151636179026,1051.12597701811,555.719714694933,835.489140744817,347.4816424709,570.807518193712,488.215357568785,622.862115532956,783.431649086356,0,0,0,6,4,5,3,NaN,vertical,horizontal,horizontal,vertical,vertical,none
1b,16,100202,2,31,95,21,F,NA,constant,heterogeneous,5,present,0.872918128967285,1,horizontal,horizontal,1,0.847056752443314,green,3,1,808.899371659138,345.155339110131,942.594190385041,811.404581001536,942.594190385041,811.404581001536,1045.12173246427,529.712474266665,808.899371659138,345.155339110131,560.378381699593,512.784863451954,643.006323791957,800.942742169714,0,0,3,5,4,5,3,NaN,vertical,vertical,horizontal,vertical,horizontal,none
1b,16,100202,2,32,96,21,F,NA,constant,heterogeneous,4,present,0.998058080673218,1,horizontal,horizontal,1,0.976467432294573,green,1,4,865.998856501143,846.311085703712,553.688914296288,665.998856501143,865.998856501143,846.311085703712,1046.31108570371,534.001143498857,734.001143498857,353.688914296288,553.688914296288,665.998856501143,0,0,0,0,4,3,6,5,NaN,NaN,horizontal,vertical,horizontal,vertical,none,none
1b,16,100202,2,33,97,21,F,NA,constant,heterogeneous,4,present,0.953510999679565,1,horizontal,horizontal,1,0.964702825035368,green,2,3,1054.0296480134,622.224714400653,822.224714400653,345.970351986605,777.775285599347,854.029648013395,1054.0296480134,622.224714400653,822.224714400653,345.970351986605,545.970351986605,577.775285599347,0,0,0,0,6,4,3,3,NaN,NaN,vertical,horizontal,horizontal,vertical,none,none
1b,16,100202,2,34,98,21,F,NA,constant,heterogeneous,6,present,0.883835077285767,1,horizontal,horizontal,1,0.75293989436967,green,2,1,1039.62161830041,687.215136548046,844.280285305067,851.125977018113,844.280285305067,851.125977018113,1039.62161830041,687.215136548046,995.341332995339,436.089159529932,755.719714694933,348.874022981887,560.378381699593,512.784863451954,604.658667004661,763.910840470068,5,4,0,3,5,6,vertical,horizontal,horizontal,vertical,vertical,vertical
1b,16,100202,2,35,99,21,F,NA,constant,heterogeneous,5,absent,1.77086782455444,1,horizontal,horizontal,1,0.858821359702519,green,4,NaN,643.006323791957,399.057257830286,NaN,NaN,808.899371659138,854.844660889869,1045.12173246427,670.287525733335,942.594190385041,388.595418998464,643.006323791957,399.057257830286,560.378381699593,687.215136548046,0,0,5,5,6,4,0,NaN,vertical,vertical,horizontal,horizontal,horizontal,none
1b,16,100202,2,36,100,21,F,NA,constant,heterogeneous,3,absent,1.0448169708252,1,vertical,vertical,1,0.917644395998546,green,2,NaN,998.172220171528,439.523300282291,NaN,NaN,839.890788585259,851.86052685176,998.172220171528,439.523300282291,561.936991243214,508.616172865948,0,0,0,0,0,0,3,4,0,NaN,NaN,NaN,horizontal,vertical,vertical,none,none,none
1b,16,100202,2,37,101,21,F,NA,constant,heterogeneous,3,present,0.728225946426392,1,vertical,vertical,1,0.917644395998546,green,1,2,907.767656743878,831.108485694346,946.261991269517,391.116228706307,907.767656743878,831.108485694346,946.261991269517,391.116228706307,545.970351986605,577.775285599347,0,0,0,0,0,0,4,5,0,NaN,NaN,NaN,vertical,horizontal,vertical,none,none,none
1b,16,100202,2,38,102,21,F,NA,constant,heterogeneous,6,present,1.62712693214417,1,horizontal,horizontal,1,0.999996646812984,green,1,5,800,855,579.163522034968,472.5,800,855,1020.83647796503,727.5,1020.83647796503,472.5,800,345,579.163522034968,472.5,579.163522034968,727.5,4,6,5,0,3,0,horizontal,horizontal,horizontal,horizontal,vertical,horizontal
1b,16,100202,2,39,103,21,F,NA,constant,heterogeneous,5,present,1.32731080055237,1,vertical,vertical,1,0.776469108888081,green,2,3,1034.72873763037,699.636437764765,967.295052392579,407.549057043193,777.775285599347,854.029648013395,1034.72873763037,699.636437764765,967.295052392579,407.549057043193,668.665290897936,381.422338320961,551.535633479765,657.362518857686,0,0,5,4,5,6,3,NaN,vertical,vertical,horizontal,horizontal,vertical,none
1b,16,100202,2,40,104,21,F,NA,constant,heterogeneous,4,absent,1.54491496086121,1,horizontal,horizontal,1,0.964702825035368,green,1,NaN,977.137884467044,783.431649086356,NaN,NaN,977.137884467044,783.431649086356,983.431649086356,422.862115532956,622.862115532956,416.568350913644,616.568350913644,777.137884467044,0,0,0,0,4,6,5,5,NaN,NaN,horizontal,horizontal,vertical,vertical,none,none
1b,16,100202,2,41,105,21,F,NA,constant,heterogeneous,3,present,0.65949010848999,1,horizontal,horizontal,1,0.964702825035368,green,1,2,604.658667004661,763.910840470068,1039.62161830041,687.215136548046,604.658667004661,763.910840470068,1039.62161830041,687.215136548046,755.719714694933,348.874022981887,0,0,0,0,0,0,4,5,6,NaN,NaN,NaN,horizontal,vertical,horizontal,none,none,none
1b,16,100202,2,42,106,21,F,NA,constant,heterogeneous,5,present,1.17123699188232,1,horizontal,horizontal,1,0.705881465332849,green,2,3,1008.88377129369,746.261991269517,1003.65205506206,446.537169096228,725.445215295702,843.857712770574,1008.88377129369,746.261991269517,1003.65205506206,446.537169096228,716.980120613425,358.892763222174,545.03883773512,604.450363641507,0,0,5,4,3,6,0,NaN,horizontal,horizontal,horizontal,vertical,vertical,none
1b,16,100202,2,43,107,21,F,NA,constant,heterogeneous,5,absent,1.23250603675842,1,horizontal,horizontal,1,0.682352250814438,green,4,NaN,791.100628340862,345.155339110131,NaN,NaN,657.405809614959,811.404581001536,956.993676208043,800.942742169714,1039.62161830041,512.784863451954,791.100628340862,345.155339110131,554.878267535729,529.712474266665,0,0,5,3,0,4,6,NaN,horizontal,horizontal,horizontal,horizontal,vertical,none
1b,16,100202,2,44,108,21,F,NA,constant,heterogeneous,5,absent,1.33862519264221,1,vertical,vertical,1,0.88235057422093,green,4,NaN,561.936991243214,508.616172865948,NaN,NaN,938.882953928832,813.860994826083,1046.31108570371,534.001143498857,813.345668841951,345.349468637584,561.936991243214,508.616172865948,639.523300282292,798.172220171528,0,0,6,0,0,4,6,NaN,vertical,horizontal,vertical,vertical,vertical,none
1b,16,100202,2,45,109,21,F,NA,constant,heterogeneous,5,present,1.08214497566223,1,vertical,vertical,1,0.835292145184108,green,1,3,760.109211414741,851.86052685176,980.31222920257,419.68777079743,760.109211414741,851.86052685176,1027.20666366803,715.767577433584,980.31222920257,419.68777079743,684.232422566416,372.793336331966,548.13947314824,639.890788585259,0,0,4,3,0,3,5,NaN,vertical,horizontal,horizontal,horizontal,vertical,none
1b,16,100202,2,46,110,21,F,NA,constant,heterogeneous,5,absent,0.917266845703125,1,vertical,vertical,1,0.847056752443314,green,4,NaN,561.936991243214,508.616172865948,NaN,NaN,938.882953928832,813.860994826083,1046.31108570371,534.001143498857,813.345668841951,345.349468637584,561.936991243214,508.616172865948,639.523300282292,798.172220171528,0,0,6,5,3,4,0,NaN,horizontal,horizontal,horizontal,vertical,vertical,none
1b,16,100202,2,47,111,21,F,NA,constant,heterogeneous,3,present,1.64209294319153,1,horizontal,horizontal,1,0.905879788739341,green,2,3,878.799333565612,357.480588344736,550.57236181288,653.017481158529,970.628304621509,789.501930496736,878.799333565612,357.480588344736,550.57236181288,653.017481158529,0,0,0,0,0,0,0,4,6,NaN,NaN,NaN,vertical,horizontal,horizontal,none,none,none
1b,16,100202,2,48,112,21,F,NA,constant,heterogeneous,6,absent,1.41462087631226,1,horizontal,horizontal,1,0.788233716147287,green,6,NaN,563.568117085469,695.524681321058,NaN,NaN,764.510859255183,852.518357529101,1000.94274216971,756.993676208043,1036.43188291453,504.475318678942,835.489140744817,347.4816424709,599.057257830286,443.006323791957,563.568117085469,695.524681321058,6,3,5,5,0,4,horizontal,vertical,horizontal,vertical,vertical,horizontal
1b,16,100202,2,49,113,21,F,NA,constant,heterogeneous,4,absent,1.88081908226013,1,vertical,vertical,1,0.894115181480135,green,3,NaN,839.890788585259,348.13947314824,NaN,NaN,760.109211414741,851.86052685176,1051.86052685176,639.890788585259,839.890788585259,348.13947314824,548.13947314824,560.109211414741,0,0,0,0,0,3,4,6,NaN,NaN,horizontal,vertical,vertical,horizontal,none,none
1b,16,100202,2,50,114,21,F,NA,constant,heterogeneous,3,absent,1.2864670753479,1,vertical,vertical,1,0.764704501628876,green,2,NaN,899.636437764765,365.271262369628,NaN,NaN,953.462830903772,803.65205506206,899.636437764765,365.271262369628,546.900731331463,631.076682568313,0,0,0,0,0,0,3,4,6,NaN,NaN,NaN,horizontal,vertical,horizontal,none,none,none
1b,16,100202,2,51,115,21,F,NA,constant,heterogeneous,6,absent,1.6452648639679,1,vertical,vertical,1,0.858821359702519,green,2,NaN,1053.09926866854,631.076682568313,NaN,NaN,899.636437764765,834.728737630372,1053.09926866854,631.076682568313,953.462830903772,396.34794493794,700.363562235235,365.271262369628,546.900731331463,568.923317431687,646.537169096228,803.65205506206,0,4,3,5,3,0,horizontal,vertical,horizontal,vertical,horizontal,vertical
1b,16,100202,2,52,116,21,F,NA,constant,heterogeneous,6,present,1.69503092765808,1,horizontal,horizontal,1,0.623529214518411,green,2,1,1048.46436652023,657.362518857686,874.554784704298,843.857712770574,874.554784704298,843.857712770574,1048.46436652023,657.362518857686,973.909581815937,413.504806087112,725.445215295702,356.142287229426,551.535633479765,542.637481142314,626.090418184063,786.495193912888,5,4,0,0,3,3,horizontal,horizontal,horizontal,vertical,vertical,vertical
1b,16,100202,2,53,117,21,F,NA,constant,heterogeneous,3,present,0.733996868133545,1,vertical,vertical,1,1.04705507584981,green,2,1,1054.84466088987,608.899371659138,664.870587620533,816.252264519889,664.870587620533,816.252264519889,1054.84466088987,608.899371659138,680.284751489598,374.848363820974,0,0,0,0,0,0,5,4,0,NaN,NaN,NaN,vertical,vertical,vertical,none,none,none
1b,16,100202,2,54,118,21,F,NA,constant,heterogeneous,4,present,1.17871999740601,1,vertical,vertical,1,0.894115181480135,green,4,2,556.142287229426,525.445215295702,1043.85771277057,674.554784704298,725.445215295702,843.857712770574,1043.85771277057,674.554784704298,874.554784704298,356.142287229426,556.142287229426,525.445215295702,0,0,0,0,6,5,3,4,NaN,NaN,horizontal,horizontal,horizontal,vertical,none,none
1b,16,100202,2,55,119,21,F,NA,constant,heterogeneous,3,absent,0.880783796310425,1,horizontal,horizontal,1,0.917644395998546,green,1,NaN,716.980120613425,841.107236777826,NaN,NaN,716.980120613425,841.107236777826,1050.31493177915,551.343706178981,632.704947607421,407.549057043193,0,0,0,0,0,0,4,6,6,NaN,NaN,NaN,horizontal,vertical,vertical,none,none,none
1b,16,100202,2,56,120,21,F,NA,constant,heterogeneous,3,present,1.60311698913574,1,vertical,vertical,1,1.0352904685906,green,2,1,874.554784704298,356.142287229426,973.909581815937,786.495193912888,973.909581815937,786.495193912888,874.554784704298,356.142287229426,551.535633479765,657.362518857686,0,0,0,0,0,0,3,4,6,NaN,NaN,NaN,horizontal,vertical,horizontal,none,none,none
1b,16,100202,2,57,121,21,F,NA,constant,heterogeneous,5,present,0.770328998565674,1,vertical,vertical,1,0.741175287110465,green,5,3,545.155339110131,591.100628340862,1011.40458100154,457.40580961496,712.784863451954,839.621618300407,1000.94274216971,756.993676208043,1011.40458100154,457.40580961496,729.712474266665,354.878267535729,545.155339110131,591.100628340862,0,0,6,0,5,0,4,NaN,vertical,vertical,horizontal,horizontal,vertical,none
1b,16,100202,2,58,122,21,F,NA,constant,heterogeneous,6,present,1.03803491592407,1,vertical,vertical,1,0.811762930665697,green,2,5,960.476699717708,798.172220171528,639.523300282292,401.827779828472,708.616172865948,838.063008756786,960.476699717708,798.172220171528,1051.86052685176,560.109211414741,891.383827134052,361.936991243214,639.523300282292,401.827779828472,548.13947314824,639.890788585259,5,4,0,3,6,6,horizontal,vertical,horizontal,vertical,horizontal,vertical
1b,16,100202,2,59,123,21,F,NA,constant,heterogeneous,6,present,0.843624114990234,1,vertical,vertical,1,0.635293821777616,green,6,5,613.504806087112,773.909581815937,556.142287229426,525.445215295702,857.362518857686,848.464366520235,1043.85771277057,674.554784704298,986.495193912888,426.090418184063,742.637481142314,351.535633479765,556.142287229426,525.445215295702,613.504806087112,773.909581815937,5,0,3,3,6,4,vertical,horizontal,vertical,horizontal,horizontal,vertical
1b,16,100202,2,60,124,21,F,NA,constant,heterogeneous,4,present,0.91703987121582,1,vertical,vertical,1,0.823527537924903,green,2,4,1036.43188291453,504.475318678942,563.568117085469,695.524681321058,895.524681321058,836.431882914531,1036.43188291453,504.475318678942,704.475318678942,363.568117085469,563.568117085469,695.524681321058,0,0,0,0,0,4,5,0,NaN,NaN,vertical,vertical,horizontal,vertical,none,none
1b,16,100202,2,61,125,21,F,NA,constant,heterogeneous,6,absent,1.10361504554749,1,horizontal,horizontal,1,0.788233716147287,green,6,NaN,558.892763222174,683.019879386575,NaN,NaN,751.343706178981,850.314931779154,992.450942956807,767.295052392579,1041.10723677783,516.980120613425,848.656293821019,349.685068220846,607.549057043193,432.704947607421,558.892763222174,683.019879386575,3,3,0,6,5,4,horizontal,horizontal,horizontal,vertical,horizontal,horizontal
1b,16,100202,2,62,126,21,F,NA,constant,heterogeneous,4,absent,0.690505027770996,1,horizontal,horizontal,1,1.0352904685906,green,2,NaN,1036.43188291453,695.524681321058,NaN,NaN,704.475318678942,836.431882914531,1036.43188291453,695.524681321058,895.524681321058,363.568117085469,563.568117085469,504.475318678942,0,0,0,0,6,4,0,3,NaN,NaN,vertical,horizontal,horizontal,vertical,none,none
1b,16,100202,2,63,127,21,F,NA,constant,heterogeneous,3,absent,0.958766937255859,1,horizontal,horizontal,1,0.717646072592054,green,1,NaN,891.383827134052,838.063008756786,NaN,NaN,891.383827134052,838.063008756786,960.476699717708,401.827779828472,548.13947314824,560.109211414741,0,0,0,0,0,0,4,0,3,NaN,NaN,NaN,horizontal,vertical,horizontal,none,none,none
1b,16,100202,2,64,128,21,F,NA,constant,heterogeneous,5,absent,1.59965109825134,1,vertical,vertical,1,1.08234889762742,green,5,NaN,550.57236181288,546.982518841471,NaN,NaN,672.5,820.836477965032,970.628304621509,789.501930496736,1032.95409169886,496.282156015671,773.345241866748,346.39691668109,550.57236181288,546.982518841471,0,0,6,3,0,5,4,NaN,horizontal,vertical,horizontal,vertical,vertical,none
1b,16,100202,3,1,129,21,F,NA,constant,heterogeneous,3,absent,1.21818399429321,1,vertical,vertical,1,0.75293989436967,green,2,NaN,1048.46436652023,657.362518857686,NaN,NaN,626.090418184063,786.495193912888,1048.46436652023,657.362518857686,725.445215295702,356.142287229426,0,0,0,0,0,0,5,4,0,NaN,NaN,NaN,horizontal,vertical,horizontal,none,none,none
1b,16,100202,3,2,130,21,F,NA,constant,heterogeneous,5,absent,1.0680570602417,1,horizontal,horizontal,1,1.07058429036822,green,3,NaN,983.431649086356,422.862115532956,NaN,NaN,755.719714694933,851.125977018113,1025.15163617903,719.715248510402,983.431649086356,422.862115532956,688.215357568785,370.807518193712,547.481642470899,635.489140744817,0,0,3,6,4,5,0,NaN,horizontal,horizontal,horizontal,vertical,horizontal,none
1b,16,100202,3,3,131,21,F,NA,constant,heterogeneous,5,present,0.720350980758667,1,vertical,vertical,1,0.941173610516957,green,3,5,1039.62161830041,512.784863451954,554.878267535729,529.712474266665,657.405809614959,811.404581001536,956.993676208043,800.942742169714,1039.62161830041,512.784863451954,791.100628340862,345.155339110131,554.878267535729,529.712474266665,0,0,6,5,4,3,5,NaN,vertical,vertical,vertical,horizontal,horizontal,none
1b,16,100202,3,4,132,21,F,NA,constant,heterogeneous,3,present,0.690906047821045,1,vertical,vertical,1,1.01176125407219,green,2,3,1008.88377129369,453.738008730483,568.891514305654,492.232343256122,822.224714400653,854.029648013395,1008.88377129369,453.738008730483,568.891514305654,492.232343256122,0,0,0,0,0,0,6,4,3,NaN,NaN,NaN,vertical,vertical,vertical,none,none,none
1b,16,100202,3,5,133,21,F,NA,constant,heterogeneous,5,present,0.742945909500122,1,vertical,vertical,1,1.09411350488663,green,3,2,1003.65205506206,446.537169096228,1008.88377129369,746.261991269517,725.445215295702,843.857712770574,1008.88377129369,746.261991269517,1003.65205506206,446.537169096228,716.980120613425,358.892763222174,545.03883773512,604.450363641507,0,0,5,5,4,0,0,NaN,vertical,vertical,vertical,vertical,horizontal,none
1b,16,100202,3,6,134,21,F,NA,constant,heterogeneous,4,absent,1.26588702201843,1,horizontal,horizontal,1,0.788233716147287,green,4,NaN,551.535633479765,657.362518857686,NaN,NaN,857.362518857686,848.464366520235,1048.46436652023,542.637481142314,742.637481142314,351.535633479765,551.535633479765,657.362518857686,0,0,0,0,6,5,6,4,NaN,NaN,vertical,horizontal,horizontal,horizontal,none,none
1b,16,100202,3,7,135,21,F,NA,constant,heterogeneous,3,present,0.885865926742554,1,vertical,vertical,1,0.917644395998546,green,1,3,995.341332995339,763.910840470068,560.378381699593,687.215136548046,995.341332995339,763.910840470068,844.280285305067,348.874022981887,560.378381699593,687.215136548046,0,0,0,0,0,0,4,6,0,NaN,NaN,NaN,vertical,vertical,vertical,none,none,none
1b,16,100202,3,8,136,21,F,NA,constant,heterogeneous,5,absent,1.28800797462463,1,horizontal,horizontal,1,0.623529214518411,green,2,NaN,1013.86099482608,738.882953928832,NaN,NaN,734.001143498857,846.311085703712,1013.86099482608,738.882953928832,998.172220171528,439.523300282291,708.616172865948,361.936991243214,545.349468637584,613.345668841951,0,0,5,4,3,0,0,NaN,vertical,horizontal,horizontal,vertical,vertical,none
1b,16,100202,3,9,137,21,F,NA,constant,heterogeneous,6,absent,1.83068513870239,1,horizontal,horizontal,1,0.835292145184108,green,3,NaN,967.295052392579,407.549057043193,NaN,NaN,883.019879386575,841.107236777826,1050.31493177915,648.656293821019,967.295052392579,407.549057043193,716.980120613425,358.892763222174,549.685068220846,551.343706178981,632.704947607421,792.450942956807,6,3,4,0,5,3,vertical,vertical,horizontal,vertical,horizontal,vertical
1b,16,100202,3,10,138,21,F,NA,constant,heterogeneous,4,present,0.694990873336792,1,horizontal,horizontal,1,0.788233716147287,green,2,3,1053.09926866854,631.076682568313,831.076682568313,346.900731331463,768.923317431687,853.099268668537,1053.09926866854,631.076682568313,831.076682568313,346.900731331463,546.900731331463,568.923317431687,0,0,0,0,6,4,5,0,NaN,NaN,vertical,horizontal,vertical,horizontal,none,none
1b,16,100202,3,11,139,21,F,NA,constant,heterogeneous,5,present,0.964560031890869,1,vertical,vertical,1,0.75293989436967,green,2,5,1041.10723677783,683.019879386575,556.142287229426,674.554784704298,795.549636358493,854.96116226488,1041.10723677783,683.019879386575,953.462830903772,396.34794493794,653.738008730483,391.116228706307,556.142287229426,674.554784704298,0,0,5,4,6,3,6,NaN,vertical,vertical,vertical,vertical,vertical,none
1b,16,100202,3,12,140,21,F,NA,constant,heterogeneous,6,absent,1.40702605247498,1,horizontal,horizontal,1,0.964702825035368,green,6,NaN,545,600,NaN,NaN,672.5,820.836477965032,927.5,820.836477965032,1055,600,927.5,379.163522034968,672.5,379.163522034968,545,600,0,0,5,5,3,4,vertical,vertical,horizontal,vertical,horizontal,horizontal
1b,16,100202,3,13,141,21,F,NA,constant,heterogeneous,5,present,1.22828984260559,0,horizontal,vertical,1,1.02352586133139,green,2,3,970.628304621509,789.501930496736,1032.95409169886,496.282156015671,672.5,820.836477965032,970.628304621509,789.501930496736,1032.95409169886,496.282156015671,773.345241866748,346.39691668109,550.57236181288,546.982518841471,0,0,0,4,5,3,5,NaN,horizontal,horizontal,horizontal,horizontal,horizontal,none
1b,16,100202,3,14,142,21,F,NA,constant,heterogeneous,4,absent,1.59587001800537,1,horizontal,horizontal,1,0.764704501628876,green,3,NaN,853.017481158529,350.57236181288,NaN,NaN,746.982518841471,849.42763818712,1049.42763818712,653.017481158529,853.017481158529,350.57236181288,550.57236181288,546.982518841471,0,0,0,0,0,6,4,3,NaN,NaN,horizontal,horizontal,horizontal,vertical,none,none
1b,16,100202,3,15,143,21,F,NA,constant,heterogeneous,4,absent,1.2872359752655,1,vertical,vertical,1,0.964702825035368,green,1,NaN,653.738008730483,808.883771293693,NaN,NaN,653.738008730483,808.883771293693,1008.88377129369,746.261991269517,946.261991269517,391.116228706307,591.116228706307,453.738008730483,0,0,0,0,4,6,5,5,NaN,NaN,vertical,horizontal,horizontal,horizontal,none,none
1b,16,100202,3,16,144,21,F,NA,constant,heterogeneous,5,absent,1.43376517295837,1,horizontal,horizontal,1,0.623529214518411,green,1,NaN,870.287525733335,845.121732464271,NaN,NaN,870.287525733335,845.121732464271,1054.84466088987,608.899371659138,887.215136548046,360.378381699593,599.057257830286,443.006323791957,588.595418998464,742.594190385041,0,0,4,0,3,5,3,NaN,horizontal,vertical,horizontal,horizontal,horizontal,none
1b,16,100202,3,17,145,21,F,NA,constant,heterogeneous,6,absent,NaN,0,horizontal,none,0,1.04705507584981,green,6,NaN,560.378381699593,687.215136548046,NaN,NaN,755.719714694933,851.125977018113,995.341332995339,763.910840470068,1039.62161830041,512.784863451954,844.280285305067,348.874022981887,604.658667004661,436.089159529932,560.378381699593,687.215136548046,0,5,6,0,6,4,vertical,horizontal,horizontal,vertical,vertical,horizontal
1b,16,100202,3,18,146,21,F,NA,constant,heterogeneous,4,absent,NaN,0,vertical,none,0,0.870585966961724,green,1,NaN,874.554784704298,843.857712770574,NaN,NaN,874.554784704298,843.857712770574,1043.85771277057,525.445215295702,725.445215295702,356.142287229426,556.142287229426,674.554784704298,0,0,0,0,4,5,0,6,NaN,NaN,vertical,horizontal,horizontal,horizontal,none,none
1b,16,100202,3,19,147,21,F,NA,constant,heterogeneous,4,absent,NaN,0,horizontal,none,0,0.988232039553778,green,3,NaN,692.232343256122,368.891514305654,NaN,NaN,907.767656743878,831.108485694346,1031.10848569435,492.232343256122,692.232343256122,368.891514305654,568.891514305654,707.767656743878,0,0,0,0,6,0,4,5,NaN,NaN,vertical,vertical,horizontal,horizontal,none,none
1b,16,100202,3,20,148,21,F,NA,constant,heterogeneous,3,present,0.911401987075806,1,vertical,vertical,1,0.705881465332849,green,2,1,1052.5183575291,635.489140744817,643.006323791957,800.942742169714,643.006323791957,800.942742169714,1052.5183575291,635.489140744817,704.475318678942,363.568117085469,0,0,0,0,0,0,6,4,0,NaN,NaN,NaN,vertical,vertical,vertical,none,none,none
1b,16,100202,3,21,149,21,F,NA,constant,heterogeneous,5,absent,1.47554802894592,1,horizontal,horizontal,1,1.09411350488663,green,5,NaN,593.700666434388,749.885239334581,NaN,NaN,878.799333565612,842.519411655264,1055,600,878.799333565612,357.480588344736,593.700666434388,450.114760665419,593.700666434388,749.885239334581,0,0,6,6,0,3,4,NaN,vertical,horizontal,horizontal,vertical,horizontal,none
1b,16,100202,3,22,150,21,F,NA,constant,heterogeneous,4,absent,NaN,0,vertical,none,0,0.75293989436967,green,4,NaN,558.892763222174,516.980120613425,NaN,NaN,716.980120613425,841.107236777826,1041.10723677783,683.019879386575,883.019879386575,358.892763222174,558.892763222174,516.980120613425,0,0,0,0,5,0,3,4,NaN,NaN,vertical,vertical,vertical,vertical,none,none
1b,16,100202,3,23,151,21,F,NA,constant,heterogeneous,3,absent,1.40619397163391,1,horizontal,horizontal,1,1.07058429036822,green,3,NaN,738.309916622085,352.574589799621,NaN,NaN,616.568350913644,777.137884467044,1045.12173246427,670.287525733335,738.309916622085,352.574589799621,0,0,0,0,0,0,3,5,4,NaN,NaN,NaN,vertical,horizontal,horizontal,none,none,none
1b,16,100202,3,24,152,21,F,NA,constant,heterogeneous,6,absent,NaN,0,vertical,none,0,0.952938217776162,green,6,NaN,570.807518193712,711.784642431215,NaN,NaN,782.212099195248,854.378832816255,1011.40458100154,742.594190385041,1029.19248180629,488.215357568785,817.787900804752,345.621167183745,588.595418998464,457.40580961496,570.807518193712,711.784642431215,5,3,5,6,6,4,horizontal,horizontal,vertical,vertical,vertical,vertical
1b,16,100202,3,25,153,21,F,NA,constant,heterogeneous,5,present,1.26130390167236,1,horizontal,horizontal,1,0.776469108888081,green,4,3,646.537169096228,396.34794493794,946.261991269517,391.116228706307,804.450363641507,854.96116226488,1043.85771277057,674.554784704298,946.261991269517,391.116228706307,646.537169096228,396.34794493794,558.892763222174,683.019879386575,0,0,6,6,5,4,5,NaN,horizontal,horizontal,horizontal,horizontal,horizontal,none
1b,16,100202,3,26,154,21,F,NA,constant,heterogeneous,4,present,1.33857679367065,1,horizontal,horizontal,1,0.988232039553778,green,4,3,554.878267535729,529.712474266665,870.287525733335,354.878267535729,729.712474266665,845.121732464271,1045.12173246427,670.287525733335,870.287525733335,354.878267535729,554.878267535729,529.712474266665,0,0,0,0,3,3,0,4,NaN,NaN,vertical,vertical,horizontal,horizontal,none,none
1b,16,100202,3,27,155,21,F,NA,constant,heterogeneous,4,present,1.49483203887939,1,vertical,vertical,1,0.870585966961724,green,1,4,935.129412379467,816.252264519889,583.747735480111,735.129412379467,935.129412379467,816.252264519889,1016.25226451989,464.870587620533,664.870587620533,383.747735480111,583.747735480111,735.129412379467,0,0,0,0,4,3,0,6,NaN,NaN,vertical,vertical,horizontal,vertical,none,none
1b,16,100202,3,28,156,21,F,NA,constant,heterogeneous,4,present,1.21313714981079,1,vertical,vertical,1,0.999996646812984,green,4,2,579.163522034968,727.5,1020.83647796503,472.5,927.5,820.836477965032,1020.83647796503,472.5,672.5,379.163522034968,579.163522034968,727.5,0,0,0,0,0,3,6,4,NaN,NaN,horizontal,horizontal,vertical,vertical,none,none
1b,16,100202,3,29,157,21,F,NA,constant,heterogeneous,3,present,0.681324005126953,1,vertical,vertical,1,0.988232039553778,green,1,3,995.341332995339,763.910840470068,560.378381699593,687.215136548046,995.341332995339,763.910840470068,844.280285305067,348.874022981887,560.378381699593,687.215136548046,0,0,0,0,0,0,4,3,5,NaN,NaN,NaN,vertical,vertical,horizontal,none,none,none
1b,16,100202,3,30,158,21,F,NA,constant,heterogeneous,5,present,1.25775098800659,1,horizontal,horizontal,1,0.72941067985126,green,2,3,1043.85771277057,674.554784704298,946.261991269517,391.116228706307,804.450363641507,854.96116226488,1043.85771277057,674.554784704298,946.261991269517,391.116228706307,646.537169096228,396.34794493794,558.892763222174,683.019879386575,0,0,3,4,6,0,0,NaN,vertical,horizontal,horizontal,horizontal,horizontal,none
1b,16,100202,3,31,159,21,F,NA,constant,heterogeneous,6,present,1.30391097068787,1,vertical,vertical,1,0.635293821777616,green,1,4,773.345241866748,853.60308331891,826.654758133252,346.39691668109,773.345241866748,853.60308331891,1006.29933356561,749.885239334581,1032.95409169886,496.282156015671,826.654758133252,346.39691668109,593.700666434388,450.114760665419,567.045908301137,703.717843984329,4,3,0,6,6,3,vertical,vertical,horizontal,horizontal,horizontal,horizontal
1b,16,100202,3,32,160,21,F,NA,constant,heterogeneous,3,present,0.894308090209961,1,horizontal,horizontal,1,0.799998323406492,green,1,2,657.405809614959,811.404581001536,1054.37883281626,617.787900804752,657.405809614959,811.404581001536,1054.37883281626,617.787900804752,688.215357568785,370.807518193712,0,0,0,0,0,0,4,3,5,NaN,NaN,NaN,horizontal,horizontal,horizontal,none,none,none
1b,16,100202,3,33,161,21,F,NA,constant,heterogeneous,4,present,1.18860912322998,1,horizontal,horizontal,1,1.02352586133139,green,4,1,568.891514305654,707.767656743878,907.767656743878,831.108485694346,907.767656743878,831.108485694346,1031.10848569435,492.232343256122,692.232343256122,368.891514305654,568.891514305654,707.767656743878,0,0,0,0,5,0,0,4,NaN,NaN,horizontal,vertical,horizontal,horizontal,none,none
1b,16,100202,3,34,162,21,F,NA,constant,heterogeneous,5,present,0.799707889556885,1,horizontal,horizontal,1,0.741175287110465,green,1,4,804.450363641507,854.96116226488,646.537169096228,396.34794493794,804.450363641507,854.96116226488,1043.85771277057,674.554784704298,946.261991269517,391.116228706307,646.537169096228,396.34794493794,558.892763222174,683.019879386575,0,0,4,5,6,3,0,NaN,horizontal,vertical,vertical,horizontal,vertical,none
1b,16,100202,3,35,163,21,F,NA,constant,heterogeneous,6,present,0.988675832748413,1,vertical,vertical,1,1.04705507584981,green,1,5,777.775285599347,854.029648013395,591.116228706307,453.738008730483,777.775285599347,854.029648013395,1008.88377129369,746.261991269517,1031.10848569435,492.232343256122,822.224714400653,345.970351986605,591.116228706307,453.738008730483,568.891514305654,707.767656743878,4,6,0,5,3,6,vertical,vertical,vertical,vertical,vertical,vertical
1b,16,100202,3,36,164,21,F,NA,constant,heterogeneous,3,absent,0.85655403137207,1,horizontal,horizontal,1,0.988232039553778,green,1,NaN,684.232422566416,827.206663668034,NaN,NaN,684.232422566416,827.206663668034,1054.65053136242,586.654331158049,661.117046071168,386.139005173917,0,0,0,0,0,0,4,3,3,NaN,NaN,NaN,horizontal,horizontal,vertical,none,none,none
1b,16,100202,3,37,165,21,F,NA,constant,heterogeneous,6,absent,1.66735315322876,1,vertical,vertical,1,0.682352250814438,green,5,NaN,668.665290897936,381.422338320961,NaN,NaN,676.373546837184,823.028025320546,931.334709102064,818.577661679039,1054.96116226488,595.549636358493,923.626453162816,376.971974679454,668.665290897936,381.422338320961,545.03883773512,604.450363641507,0,6,5,6,4,3,vertical,horizontal,horizontal,horizontal,vertical,horizontal
1b,16,100202,3,38,166,21,F,NA,constant,heterogeneous,3,absent,1.30979180335999,1,vertical,vertical,1,0.847056752443314,green,3,NaN,688.215357568785,370.807518193712,NaN,NaN,657.405809614959,811.404581001536,1054.37883281626,617.787900804752,688.215357568785,370.807518193712,0,0,0,0,0,0,6,3,4,NaN,NaN,NaN,vertical,horizontal,vertical,none,none,none
1b,16,100202,3,39,167,21,F,NA,constant,heterogeneous,4,present,1.32437586784363,1,vertical,vertical,1,0.811762930665697,green,3,4,953.462830903772,396.34794493794,596.34794493794,446.537169096228,646.537169096228,803.65205506206,1003.65205506206,753.462830903772,953.462830903772,396.34794493794,596.34794493794,446.537169096228,0,0,0,0,3,6,4,5,NaN,NaN,vertical,vertical,vertical,horizontal,none,none
1b,16,100202,3,40,168,21,F,NA,constant,heterogeneous,3,present,0.771254062652588,1,horizontal,horizontal,1,0.6,green,1,3,942.594190385041,811.404581001536,545.621167183745,617.787900804752,942.594190385041,811.404581001536,911.784642431215,370.807518193712,545.621167183745,617.787900804752,0,0,0,0,0,0,4,0,0,NaN,NaN,NaN,horizontal,horizontal,vertical,none,none,none
1b,16,100202,3,41,169,21,F,NA,constant,heterogeneous,5,absent,0.852319955825806,1,vertical,vertical,1,0.694116858073643,green,1,NaN,935.129412379467,816.252264519889,NaN,NaN,935.129412379467,816.252264519889,1047.42541020038,538.309916622085,817.787900804752,345.621167183745,563.568117085469,504.475318678942,636.089159529932,795.341332995339,0,0,4,3,5,6,6,NaN,vertical,horizontal,horizontal,vertical,vertical,none
1b,16,100202,3,42,170,21,F,NA,constant,heterogeneous,6,present,0.788477182388306,1,vertical,vertical,1,0.741175287110465,green,1,2,865.998856501143,846.311085703712,1046.31108570371,665.998856501143,865.998856501143,846.311085703712,1046.31108570371,665.998856501143,980.31222920257,419.68777079743,734.001143498857,353.688914296288,553.688914296288,534.001143498857,619.68777079743,780.31222920257,4,6,3,5,6,0,vertical,vertical,horizontal,horizontal,horizontal,vertical
1b,16,100202,3,43,171,21,F,NA,constant,heterogeneous,3,absent,0.717437982559204,1,vertical,vertical,1,1.04705507584981,green,1,NaN,986.495193912888,773.909581815937,NaN,NaN,986.495193912888,773.909581815937,857.362518857686,351.535633479765,556.142287229426,674.554784704298,0,0,0,0,0,0,4,3,6,NaN,NaN,NaN,vertical,horizontal,horizontal,none,none,none
1b,16,100202,3,44,172,21,F,NA,constant,heterogeneous,5,absent,1.1527988910675,1,vertical,vertical,1,0.835292145184108,green,2,NaN,1054.0296480134,622.224714400653,NaN,NaN,857.362518857686,848.464366520235,1054.0296480134,622.224714400653,899.636437764765,365.271262369628,607.549057043193,432.704947607421,581.422338320961,731.334709102064,0,0,3,4,0,0,3,NaN,horizontal,vertical,horizontal,vertical,horizontal,none
1b,16,100202,3,45,173,21,F,NA,constant,heterogeneous,5,absent,0.837061166763306,1,vertical,vertical,1,0.847056752443314,green,2,NaN,1051.86052685176,560.109211414741,NaN,NaN,915.767577433584,827.206663668034,1051.86052685176,560.109211414741,839.890788585259,348.13947314824,572.793336331966,484.232422566416,619.68777079743,780.31222920257,0,0,6,4,5,0,3,NaN,horizontal,vertical,vertical,vertical,vertical,none
1b,16,100202,3,46,174,21,F,NA,constant,heterogeneous,4,absent,1.06246995925903,1,vertical,vertical,1,0.623529214518411,green,4,NaN,601.827779828472,439.523300282291,NaN,NaN,639.523300282292,798.172220171528,998.172220171528,760.476699717708,960.476699717708,401.827779828472,601.827779828472,439.523300282291,0,0,0,0,0,5,3,4,NaN,NaN,horizontal,horizontal,horizontal,vertical,none,none
1b,16,100202,3,47,175,21,F,NA,constant,heterogeneous,3,present,1.14156913757324,1,horizontal,horizontal,1,0.88235057422093,green,2,1,1043.85771277057,525.445215295702,742.637481142314,848.464366520235,742.637481142314,848.464366520235,1043.85771277057,525.445215295702,613.504806087112,426.090418184063,0,0,0,0,0,0,3,4,5,NaN,NaN,NaN,horizontal,horizontal,vertical,none,none,none
1b,16,100202,3,48,176,21,F,NA,constant,heterogeneous,6,absent,0.81675910949707,1,horizontal,horizontal,1,0.611764607259205,green,3,NaN,1049.42763818712,546.982518841471,NaN,NaN,721.200666434388,842.519411655264,970.628304621509,789.501930496736,1049.42763818712,546.982518841471,878.799333565612,357.480588344736,629.371695378491,410.498069503264,550.57236181288,653.017481158529,6,0,4,5,5,6,horizontal,horizontal,horizontal,horizontal,vertical,vertical
1b,16,100202,3,49,177,21,F,NA,constant,heterogeneous,3,absent,0.574572086334229,1,horizontal,horizontal,1,0.858821359702519,green,2,NaN,1006.29933356561,450.114760665419,NaN,NaN,826.654758133252,853.60308331891,1006.29933356561,450.114760665419,567.045908301137,496.282156015671,0,0,0,0,0,0,3,4,6,NaN,NaN,NaN,horizontal,horizontal,horizontal,none,none,none
1b,16,100202,3,50,178,21,F,NA,constant,heterogeneous,6,present,1.31215119361877,0,horizontal,vertical,1,0.894115181480135,green,5,1,545.155339110131,591.100628340862,919.715248510402,825.151636179026,919.715248510402,825.151636179026,1054.84466088987,608.899371659138,935.129412379467,383.747735480111,680.284751489598,374.848363820974,545.155339110131,591.100628340862,664.870587620533,816.252264519889,3,0,6,5,4,3,horizontal,vertical,vertical,horizontal,horizontal,horizontal
1b,16,100202,3,51,179,21,F,NA,constant,heterogeneous,4,present,1.15433597564697,1,horizontal,horizontal,1,0.6,green,4,3,568.891514305654,707.767656743878,692.232343256122,368.891514305654,907.767656743878,831.108485694346,1031.10848569435,492.232343256122,692.232343256122,368.891514305654,568.891514305654,707.767656743878,0,0,0,0,6,3,0,4,NaN,NaN,vertical,vertical,vertical,horizontal,none,none
1b,16,100202,3,52,180,21,F,NA,constant,heterogeneous,4,present,1.08327007293701,1,vertical,vertical,1,0.682352250814438,green,3,1,708.616172865948,361.936991243214,891.383827134052,838.063008756786,891.383827134052,838.063008756786,1038.06300875679,508.616172865948,708.616172865948,361.936991243214,561.936991243214,691.383827134052,0,0,0,0,0,5,4,6,NaN,NaN,horizontal,horizontal,vertical,horizontal,none,none
1b,16,100202,3,53,181,21,F,NA,constant,heterogeneous,6,present,1.11188817024231,1,horizontal,horizontal,1,0.717646072592054,green,3,2,977.137884467044,416.568350913644,1047.42541020038,661.690083377915,870.287525733335,845.121732464271,1047.42541020038,661.690083377915,977.137884467044,416.568350913644,729.712474266665,354.878267535729,552.574589799621,538.309916622085,622.862115532956,783.431649086356,5,5,4,0,0,6,vertical,vertical,horizontal,horizontal,horizontal,horizontal
1b,16,100202,3,54,182,21,F,NA,constant,heterogeneous,3,absent,0.998482942581177,1,vertical,vertical,1,0.611764607259205,green,2,NaN,1051.12597701811,644.280285305067,NaN,NaN,636.089159529932,795.341332995339,1051.12597701811,644.280285305067,712.784863451954,360.378381699593,0,0,0,0,0,0,5,4,0,NaN,NaN,NaN,vertical,vertical,vertical,none,none,none
1b,16,100202,3,55,183,21,F,NA,constant,heterogeneous,6,absent,0.844852209091187,1,vertical,vertical,1,0.929409003257751,green,2,NaN,1041.10723677783,683.019879386575,NaN,NaN,848.656293821019,850.314931779154,1041.10723677783,683.019879386575,992.450942956807,432.704947607421,751.343706178981,349.685068220846,558.892763222174,516.980120613425,607.549057043193,767.295052392579,3,4,6,0,6,5,horizontal,vertical,horizontal,vertical,horizontal,vertical
1b,16,100202,3,56,184,21,F,NA,constant,heterogeneous,4,absent,1.80464291572571,1,horizontal,horizontal,1,0.75293989436967,green,2,NaN,992.450942956807,432.704947607421,NaN,NaN,967.295052392579,792.450942956807,992.450942956807,432.704947607421,632.704947607421,407.549057043193,607.549057043193,767.295052392579,0,0,0,0,6,4,3,5,NaN,NaN,vertical,horizontal,horizontal,vertical,none,none
1b,16,100202,3,57,185,21,F,NA,constant,heterogeneous,6,absent,1.24315404891968,1,vertical,vertical,1,0.894115181480135,green,1,NaN,676.373546837184,823.028025320546,NaN,NaN,676.373546837184,823.028025320546,931.334709102064,818.577661679039,1054.96116226488,595.549636358493,923.626453162816,376.971974679454,668.665290897936,381.422338320961,545.03883773512,604.450363641507,4,6,5,6,0,0,vertical,horizontal,horizontal,horizontal,horizontal,vertical
1b,16,100202,3,58,186,21,F,NA,constant,heterogeneous,6,present,0.837898969650269,1,vertical,vertical,1,0.694116858073643,green,1,2,887.215136548046,839.621618300407,1051.12597701811,644.280285305067,887.215136548046,839.621618300407,1051.12597701811,644.280285305067,963.910840470068,404.658667004661,712.784863451954,360.378381699593,548.874022981887,555.719714694933,636.089159529932,795.341332995339,4,3,5,5,6,6,vertical,vertical,vertical,horizontal,horizontal,vertical
1b,16,100202,3,59,187,21,F,NA,constant,heterogeneous,5,absent,0.534348964691162,1,vertical,vertical,1,0.976467432294573,green,2,NaN,1000.94274216971,756.993676208043,NaN,NaN,712.784863451954,839.621618300407,1000.94274216971,756.993676208043,1011.40458100154,457.40580961496,729.712474266665,354.878267535729,545.155339110131,591.100628340862,0,0,5,4,6,0,5,NaN,horizontal,vertical,horizontal,horizontal,vertical,none
1b,16,100202,3,60,188,21,F,NA,constant,heterogeneous,3,present,0.776977062225342,1,horizontal,horizontal,1,0.976467432294573,green,3,2,764.510859255183,347.4816424709,1036.43188291453,695.524681321058,599.057257830286,756.993676208043,1036.43188291453,695.524681321058,764.510859255183,347.4816424709,0,0,0,0,0,0,6,6,4,NaN,NaN,NaN,horizontal,vertical,horizontal,none,none,none
1b,16,100202,3,61,189,21,F,NA,constant,heterogeneous,5,present,1.23801803588867,1,vertical,vertical,1,0.670587643555232,green,5,1,548.874022981887,644.280285305067,764.510859255183,852.518357529101,764.510859255183,852.518357529101,1029.19248180629,711.784642431215,977.137884467044,416.568350913644,680.284751489598,374.848363820974,548.874022981887,644.280285305067,0,0,3,3,5,6,4,NaN,horizontal,vertical,vertical,horizontal,vertical,none
1b,16,100202,3,62,190,21,F,NA,constant,heterogeneous,3,absent,1.47283291816711,0,horizontal,vertical,1,1.09411350488663,green,2,NaN,1054.0296480134,577.775285599347,NaN,NaN,692.232343256122,831.108485694346,1054.0296480134,577.775285599347,653.738008730483,391.116228706307,0,0,0,0,0,0,5,4,6,NaN,NaN,NaN,vertical,horizontal,horizontal,none,none,none
1b,16,100202,3,63,191,21,F,NA,constant,heterogeneous,6,present,1.8625750541687,1,horizontal,horizontal,1,0.799998323406492,green,4,1,746.982518841471,350.57236181288,853.017481158529,849.42763818712,853.017481158529,849.42763818712,1042.51941165526,678.799333565612,989.501930496736,429.371695378491,746.982518841471,350.57236181288,557.480588344736,521.200666434388,610.498069503264,770.628304621509,0,5,5,4,6,3,vertical,vertical,horizontal,horizontal,vertical,horizontal
1b,16,100202,3,64,192,21,F,NA,constant,heterogeneous,6,present,NaN,0,horizontal,none,0,1.0352904685906,green,3,2,1023.02802532055,476.373546837184,1018.57766167904,731.334709102064,795.549636358493,854.96116226488,1018.57766167904,731.334709102064,1023.02802532055,476.373546837184,804.450363641507,345.03883773512,581.422338320961,468.665290897936,576.971974679454,723.626453162816,0,5,4,5,6,6,vertical,horizontal,horizontal,vertical,horizontal,vertical
1b,16,100202,4,1,193,21,F,NA,constant,heterogeneous,5,absent,1.70741605758667,1,horizontal,horizontal,1,1.08234889762742,green,2,NaN,1020.83647796503,727.5,NaN,NaN,746.982518841471,849.42763818712,1020.83647796503,727.5,989.501930496736,429.371695378491,696.282156015671,367.045908301137,546.39691668109,626.654758133252,0,0,5,4,3,0,5,NaN,vertical,horizontal,horizontal,vertical,horizontal,none
1b,16,100202,4,2,194,21,F,NA,constant,heterogeneous,3,present,0.71589994430542,1,horizontal,horizontal,1,0.905879788739341,green,2,3,1053.60308331891,573.345241866748,650.114760665419,393.700666434388,696.282156015671,832.954091698863,1053.60308331891,573.345241866748,650.114760665419,393.700666434388,0,0,0,0,0,0,0,4,6,NaN,NaN,NaN,vertical,horizontal,horizontal,none,none,none
1b,16,100202,4,3,195,21,F,NA,constant,heterogeneous,6,absent,1.021723985672,1,vertical,vertical,1,0.976467432294573,green,6,NaN,604.658667004661,763.910840470068,NaN,NaN,844.280285305067,851.125977018113,1039.62161830041,687.215136548046,995.341332995339,436.089159529932,755.719714694933,348.874022981887,560.378381699593,512.784863451954,604.658667004661,763.910840470068,6,6,5,0,0,4,horizontal,horizontal,vertical,vertical,vertical,vertical
1b,16,100202,4,4,196,21,F,NA,constant,heterogeneous,5,absent,0.726782083511353,1,vertical,vertical,1,0.823527537924903,green,2,NaN,1053.60308331891,626.654758133252,NaN,NaN,853.017481158529,849.42763818712,1053.60308331891,626.654758133252,903.717843984329,367.045908301137,610.498069503264,429.371695378491,579.163522034968,727.5,0,0,6,4,6,0,5,NaN,horizontal,vertical,vertical,horizontal,vertical,none
1b,16,100202,4,5,197,21,F,NA,constant,heterogeneous,5,present,0.85547399520874,1,horizontal,horizontal,1,0.694116858073643,green,3,2,1020.83647796503,472.5,989.501930496736,770.628304621509,696.282156015671,832.954091698863,989.501930496736,770.628304621509,1020.83647796503,472.5,746.982518841471,350.57236181288,546.39691668109,573.345241866748,0,0,5,6,4,6,3,NaN,horizontal,horizontal,horizontal,horizontal,vertical,none
1b,16,100202,4,6,198,21,F,NA,constant,heterogeneous,5,present,1.10521602630615,1,vertical,vertical,1,1.0352904685906,green,4,2,639.523300282292,401.827779828472,1046.31108570371,665.998856501143,813.345668841951,854.650531362416,1046.31108570371,665.998856501143,938.882953928832,386.139005173917,639.523300282292,401.827779828472,561.936991243214,691.383827134052,0,0,0,3,3,4,0,NaN,horizontal,vertical,vertical,vertical,horizontal,none
1b,16,100202,4,7,199,21,F,NA,constant,heterogeneous,6,present,0.942675828933716,1,vertical,vertical,1,0.741175287110465,green,1,2,760.109211414741,851.86052685176,998.172220171528,760.476699717708,760.109211414741,851.86052685176,998.172220171528,760.476699717708,1038.06300875679,508.616172865948,839.890788585259,348.13947314824,601.827779828472,439.523300282291,561.936991243214,691.383827134052,4,3,5,6,0,0,vertical,horizontal,vertical,horizontal,horizontal,vertical
1b,16,100202,4,8,200,21,F,NA,constant,heterogeneous,3,absent,1.01846814155579,1,horizontal,horizontal,1,0.858821359702519,green,2,NaN,835.489140744817,347.4816424709,NaN,NaN,1000.94274216971,756.993676208043,835.489140744817,347.4816424709,563.568117085469,695.524681321058,0,0,0,0,0,0,3,4,0,NaN,NaN,NaN,vertical,horizontal,horizontal,none,none,none
1b,16,100202,4,9,201,21,F,NA,constant,heterogeneous,4,absent,1.21258497238159,1,horizontal,horizontal,1,1.07058429036822,green,4,NaN,546.900731331463,631.076682568313,NaN,NaN,831.076682568313,853.099268668537,1053.09926866854,568.923317431687,768.923317431687,346.900731331463,546.900731331463,631.076682568313,0,0,0,0,3,5,6,4,NaN,NaN,horizontal,horizontal,vertical,horizontal,none,none
1b,16,100202,4,10,202,21,F,NA,constant,heterogeneous,6,absent,0.852447986602783,1,horizontal,horizontal,1,0.976467432294573,green,6,NaN,591.116228706307,746.261991269517,NaN,NaN,822.224714400653,854.029648013395,1031.10848569435,707.767656743878,1008.88377129369,453.738008730483,777.775285599347,345.970351986605,568.891514305654,492.232343256122,591.116228706307,746.261991269517,3,5,6,0,6,4,horizontal,vertical,vertical,vertical,horizontal,horizontal
1b,16,100202,4,11,203,21,F,NA,constant,heterogeneous,4,absent,0.686605930328369,1,horizontal,horizontal,1,1.0352904685906,green,4,NaN,570.807518193712,711.784642431215,NaN,NaN,911.784642431215,829.192481806288,1029.19248180629,488.215357568785,688.215357568785,370.807518193712,570.807518193712,711.784642431215,0,0,0,0,6,0,5,4,NaN,NaN,vertical,vertical,horizontal,horizontal,none,none
1b,16,100202,4,12,204,21,F,NA,constant,heterogeneous,3,absent,0.722162008285522,1,horizontal,horizontal,1,1.09411350488663,green,1,NaN,949.885239334581,806.299333565612,NaN,NaN,949.885239334581,806.299333565612,903.717843984329,367.045908301137,546.39691668109,626.654758133252,0,0,0,0,0,0,4,6,0,NaN,NaN,NaN,horizontal,vertical,vertical,none,none,none
1b,16,100202,4,13,205,21,F,NA,constant,heterogeneous,3,present,0.75488805770874,1,vertical,vertical,1,1.09411350488663,green,2,3,963.910840470068,404.658667004661,548.874022981887,555.719714694933,887.215136548046,839.621618300407,963.910840470068,404.658667004661,548.874022981887,555.719714694933,0,0,0,0,0,0,5,4,6,NaN,NaN,NaN,horizontal,vertical,horizontal,none,none,none
1b,16,100202,4,14,206,21,F,NA,constant,heterogeneous,3,absent,0.819252014160156,1,vertical,vertical,1,0.658823036296027,green,3,NaN,550.57236181288,546.982518841471,NaN,NaN,878.799333565612,842.519411655264,970.628304621509,410.498069503264,550.57236181288,546.982518841471,0,0,0,0,0,0,3,5,4,NaN,NaN,NaN,vertical,vertical,vertical,none,none,none
1b,16,100202,4,15,207,21,F,NA,constant,heterogeneous,5,absent,1.88131713867188,1,horizontal,horizontal,1,0.88235057422093,green,5,NaN,565.271262369628,699.636437764765,NaN,NaN,822.224714400653,854.029648013395,1048.46436652023,657.362518857686,931.334709102064,381.422338320961,632.704947607421,407.549057043193,565.271262369628,699.636437764765,0,0,3,3,6,0,4,NaN,vertical,horizontal,vertical,horizontal,horizontal,none
1b,16,100202,4,16,208,21,F,NA,constant,heterogeneous,4,present,0.76518177986145,1,horizontal,horizontal,1,1.09411350488663,green,1,3,844.280285305067,851.125977018113,755.719714694933,348.874022981887,844.280285305067,851.125977018113,1051.12597701811,555.719714694933,755.719714694933,348.874022981887,548.874022981887,644.280285305067,0,0,0,0,4,0,6,6,NaN,NaN,horizontal,horizontal,vertical,vertical,none,none
1b,16,100202,4,17,209,21,F,NA,constant,heterogeneous,6,absent,1.93810510635376,1,vertical,vertical,1,1.05881968310901,green,4,NaN,887.215136548046,360.378381699593,NaN,NaN,712.784863451954,839.621618300407,963.910840470068,795.341332995339,1051.12597701811,555.719714694933,887.215136548046,360.378381699593,636.089159529932,404.658667004661,548.874022981887,644.280285305067,0,0,6,4,6,3,vertical,vertical,vertical,vertical,vertical,vertical
1b,16,100202,4,18,210,21,F,NA,constant,heterogeneous,4,present,1.5028600692749,1,horizontal,horizontal,1,0.894115181480135,green,4,3,553.688914296288,665.998856501143,734.001143498857,353.688914296288,865.998856501143,846.311085703712,1046.31108570371,534.001143498857,734.001143498857,353.688914296288,553.688914296288,665.998856501143,0,0,0,0,3,6,0,4,NaN,NaN,horizontal,vertical,horizontal,horizontal,none,none
1b,16,100202,4,19,211,21,F,NA,constant,heterogeneous,3,absent,1.11116814613342,1,horizontal,horizontal,1,0.917644395998546,green,3,NaN,653.738008730483,391.116228706307,NaN,NaN,692.232343256122,831.108485694346,1054.0296480134,577.775285599347,653.738008730483,391.116228706307,0,0,0,0,0,0,5,0,4,NaN,NaN,NaN,horizontal,horizontal,horizontal,none,none,none
1b,16,100202,4,20,212,21,F,NA,constant,heterogeneous,4,present,1.36374688148499,1,horizontal,horizontal,1,1.09411350488663,green,2,4,989.501930496736,770.628304621509,610.498069503264,429.371695378491,629.371695378491,789.501930496736,989.501930496736,770.628304621509,970.628304621509,410.498069503264,610.498069503264,429.371695378491,0,0,0,0,3,4,6,0,NaN,NaN,vertical,horizontal,vertical,vertical,none,none
1b,16,100202,4,21,213,21,F,NA,constant,heterogeneous,4,absent,1.00296306610107,1,vertical,vertical,1,0.999996646812984,green,2,NaN,1011.40458100154,457.40580961496,NaN,NaN,942.594190385041,811.404581001536,1011.40458100154,457.40580961496,657.405809614959,388.595418998464,588.595418998464,742.594190385041,0,0,0,0,5,4,3,0,NaN,NaN,vertical,vertical,horizontal,vertical,none,none
1b,16,100202,4,22,214,21,F,NA,constant,heterogeneous,6,present,0.714237928390503,0,horizontal,vertical,1,0.941173610516957,green,4,3,887.215136548046,360.378381699593,1051.12597701811,555.719714694933,712.784863451954,839.621618300407,963.910840470068,795.341332995339,1051.12597701811,555.719714694933,887.215136548046,360.378381699593,636.089159529932,404.658667004661,548.874022981887,644.280285305067,0,0,6,4,6,3,vertical,vertical,vertical,horizontal,vertical,vertical
1b,16,100202,4,23,215,21,F,NA,constant,heterogeneous,3,present,0.911879062652588,1,vertical,vertical,1,0.764704501628876,green,3,1,554.878267535729,529.712474266665,861.690083377915,847.425410200379,861.690083377915,847.425410200379,983.431649086356,422.862115532956,554.878267535729,529.712474266665,0,0,0,0,0,0,0,5,4,NaN,NaN,NaN,horizontal,vertical,vertical,none,none,none
1b,16,100202,4,24,216,21,F,NA,constant,heterogeneous,5,absent,0.62811017036438,1,vertical,vertical,1,1.09411350488663,green,4,NaN,574.848363820974,480.284751489598,NaN,NaN,911.784642431215,829.192481806288,1052.5183575291,564.510859255183,844.280285305067,348.874022981887,574.848363820974,480.284751489598,616.568350913644,777.137884467044,0,0,6,5,6,4,0,NaN,horizontal,vertical,horizontal,vertical,horizontal,none
1b,16,100202,4,25,217,21,F,NA,constant,heterogeneous,4,present,0.936522960662842,1,horizontal,horizontal,1,0.976467432294573,green,3,1,927.5,379.163522034968,672.5,820.836477965032,672.5,820.836477965032,1020.83647796503,727.5,927.5,379.163522034968,579.163522034968,472.5,0,0,0,0,0,3,4,6,NaN,NaN,horizontal,horizontal,horizontal,horizontal,none,none
1b,16,100202,4,26,218,21,F,NA,constant,heterogeneous,5,present,1.02697896957397,1,horizontal,horizontal,1,0.776469108888081,green,2,5,1047.42541020038,538.309916622085,636.089159529932,795.341332995339,935.129412379467,816.252264519889,1047.42541020038,538.309916622085,817.787900804752,345.621167183745,563.568117085469,504.475318678942,636.089159529932,795.341332995339,0,0,0,4,5,3,3,NaN,horizontal,horizontal,horizontal,horizontal,horizontal,none
1b,16,100202,4,27,219,21,F,NA,constant,heterogeneous,5,absent,1.50790810585022,1,vertical,vertical,1,0.611764607259205,green,4,NaN,684.232422566416,372.793336331966,NaN,NaN,760.109211414741,851.86052685176,1027.20666366803,715.767577433584,980.31222920257,419.68777079743,684.232422566416,372.793336331966,548.13947314824,639.890788585259,0,0,0,6,3,4,3,NaN,horizontal,horizontal,vertical,vertical,horizontal,none
1b,16,100202,4,28,220,21,F,NA,constant,heterogeneous,6,present,1.59449100494385,1,horizontal,horizontal,1,0.811762930665697,green,6,5,549.685068220846,648.656293821019,632.704947607421,407.549057043193,716.980120613425,841.107236777826,967.295052392579,792.450942956807,1050.31493177915,551.343706178981,883.019879386575,358.892763222174,632.704947607421,407.549057043193,549.685068220846,648.656293821019,6,3,0,5,5,4,horizontal,vertical,vertical,horizontal,horizontal,horizontal
1b,16,100202,4,29,221,21,F,NA,constant,heterogeneous,6,present,1.66771006584167,1,vertical,vertical,1,0.870585966961724,green,1,3,742.637481142314,848.464366520235,1043.85771277057,525.445215295702,742.637481142314,848.464366520235,986.495193912888,773.909581815937,1043.85771277057,525.445215295702,857.362518857686,351.535633479765,613.504806087112,426.090418184063,556.142287229426,674.554784704298,4,3,3,6,0,5,vertical,vertical,horizontal,horizontal,horizontal,horizontal
1b,16,100202,4,30,222,21,F,NA,constant,heterogeneous,6,present,1.0951988697052,1,horizontal,horizontal,1,0.694116858073643,green,1,4,760.109211414741,851.86052685176,839.890788585259,348.13947314824,760.109211414741,851.86052685176,998.172220171528,760.476699717708,1038.06300875679,508.616172865948,839.890788585259,348.13947314824,601.827779828472,439.523300282291,561.936991243214,691.383827134052,4,0,0,5,3,3,horizontal,horizontal,horizontal,vertical,horizontal,horizontal
1b,16,100202,4,31,223,21,F,NA,constant,heterogeneous,3,absent,0.852314949035645,1,vertical,vertical,1,0.75293989436967,green,2,NaN,1025.15163617903,480.284751489598,NaN,NaN,791.100628340862,854.844660889869,1025.15163617903,480.284751489598,583.747735480111,464.870587620533,0,0,0,0,0,0,3,4,0,NaN,NaN,NaN,vertical,vertical,horizontal,none,none,none
1b,16,100202,4,32,224,21,F,NA,constant,heterogeneous,4,absent,0.773546934127808,1,vertical,vertical,1,0.788233716147287,green,1,NaN,865.998856501143,846.311085703712,NaN,NaN,865.998856501143,846.311085703712,1046.31108570371,534.001143498857,734.001143498857,353.688914296288,553.688914296288,665.998856501143,0,0,0,0,4,0,0,3,NaN,NaN,vertical,horizontal,horizontal,horizontal,none,none
1b,16,100202,4,33,225,21,F,NA,constant,heterogeneous,3,absent,0.543745040893555,1,vertical,vertical,1,0.941173610516957,green,2,NaN,1031.10848569435,707.767656743878,NaN,NaN,591.116228706307,746.261991269517,1031.10848569435,707.767656743878,777.775285599347,345.970351986605,0,0,0,0,0,0,0,4,6,NaN,NaN,NaN,vertical,vertical,horizontal,none,none,none
1b,16,100202,4,34,226,21,F,NA,constant,heterogeneous,4,present,0.502967834472656,1,vertical,vertical,1,1.02352586133139,green,2,3,1055,600,800,345,800,855,1055,600,800,345,545,600,0,0,0,0,6,4,3,0,NaN,NaN,horizontal,vertical,vertical,horizontal,none,none
1b,16,100202,4,35,227,21,F,NA,constant,heterogeneous,6,present,1.05611801147461,1,horizontal,horizontal,1,0.941173610516957,green,6,4,586.139005173917,738.882953928832,786.654331158049,345.349468637584,813.345668841951,854.650531362416,1027.20666366803,715.767577433584,1013.86099482608,461.117046071168,786.654331158049,345.349468637584,572.793336331966,484.232422566416,586.139005173917,738.882953928832,0,3,0,6,3,4,vertical,vertical,horizontal,horizontal,horizontal,horizontal
1b,16,100202,4,36,228,21,F,NA,constant,heterogeneous,5,absent,0.809413194656372,1,horizontal,horizontal,1,0.788233716147287,green,2,NaN,995.341332995339,763.910840470068,NaN,NaN,704.475318678942,836.431882914531,995.341332995339,763.910840470068,1016.25226451989,464.870587620533,738.309916622085,352.574589799621,545.621167183745,582.212099195248,0,0,5,4,6,5,0,NaN,horizontal,horizontal,vertical,horizontal,vertical,none
1b,16,100202,4,37,229,21,F,NA,constant,heterogeneous,3,absent,1.0780291557312,1,horizontal,horizontal,1,0.823527537924903,green,1,NaN,588.595418998464,742.594190385041,NaN,NaN,588.595418998464,742.594190385041,1029.19248180629,711.784642431215,782.212099195248,345.621167183745,0,0,0,0,0,0,4,6,0,NaN,NaN,NaN,horizontal,horizontal,horizontal,none,none,none
1b,16,100202,4,38,230,21,F,NA,constant,heterogeneous,5,present,1.4775218963623,1,horizontal,horizontal,1,1.09411350488663,green,4,5,791.100628340862,345.155339110131,554.878267535729,529.712474266665,657.405809614959,811.404581001536,956.993676208043,800.942742169714,1039.62161830041,512.784863451954,791.100628340862,345.155339110131,554.878267535729,529.712474266665,0,0,3,5,3,4,6,NaN,horizontal,horizontal,horizontal,horizontal,vertical,none
1b,16,100202,4,39,231,21,F,NA,constant,heterogeneous,5,present,1.11053681373596,1,horizontal,horizontal,1,0.964702825035368,green,3,5,992.450942956807,432.704947607421,545.970351986605,622.224714400653,742.637481142314,848.464366520235,1018.57766167904,731.334709102064,992.450942956807,432.704947607421,700.363562235235,365.271262369628,545.970351986605,622.224714400653,0,0,6,0,4,3,3,NaN,vertical,vertical,horizontal,horizontal,vertical,none
1b,16,100202,4,40,232,21,F,NA,constant,heterogeneous,6,absent,1.71002292633057,1,horizontal,horizontal,1,0.858821359702519,green,1,NaN,853.017481158529,849.42763818712,NaN,NaN,853.017481158529,849.42763818712,1042.51941165526,678.799333565612,989.501930496736,429.371695378491,746.982518841471,350.57236181288,557.480588344736,521.200666434388,610.498069503264,770.628304621509,4,0,6,3,5,3,horizontal,vertical,horizontal,vertical,vertical,vertical
1b,16,100202,4,41,233,21,F,NA,constant,heterogeneous,5,present,1.01408982276917,1,vertical,vertical,1,0.88235057422093,green,4,5,636.089159529932,404.658667004661,563.568117085469,695.524681321058,817.787900804752,854.378832816255,1047.42541020038,661.690083377915,935.129412379467,383.747735480111,636.089159529932,404.658667004661,563.568117085469,695.524681321058,0,0,3,0,5,4,0,NaN,horizontal,vertical,vertical,vertical,vertical,none
1b,16,100202,4,42,234,21,F,NA,constant,heterogeneous,4,present,1.085294008255,1,vertical,vertical,1,0.72941067985126,green,1,4,629.371695378491,789.501930496736,610.498069503264,429.371695378491,629.371695378491,789.501930496736,989.501930496736,770.628304621509,970.628304621509,410.498069503264,610.498069503264,429.371695378491,0,0,0,0,4,5,0,6,NaN,NaN,vertical,vertical,vertical,vertical,none,none
1b,16,100202,4,43,235,21,F,NA,constant,heterogeneous,6,present,0.940352916717529,1,vertical,vertical,1,0.858821359702519,green,3,4,1032.95409169886,496.282156015671,826.654758133252,346.39691668109,773.345241866748,853.60308331891,1006.29933356561,749.885239334581,1032.95409169886,496.282156015671,826.654758133252,346.39691668109,593.700666434388,450.114760665419,567.045908301137,703.717843984329,6,0,4,5,5,3,vertical,horizontal,vertical,horizontal,horizontal,vertical
1b,16,100202,4,44,236,21,F,NA,constant,heterogeneous,6,absent,1.23262691497803,1,vertical,vertical,1,1.05881968310901,green,3,NaN,938.882953928832,386.139005173917,NaN,NaN,915.767577433584,827.206663668034,1054.65053136242,613.345668841951,938.882953928832,386.139005173917,684.232422566416,372.793336331966,545.349468637584,586.654331158049,661.117046071168,813.860994826083,5,0,4,0,3,3,vertical,vertical,vertical,vertical,vertical,horizontal
1b,16,100202,4,45,237,21,F,NA,constant,heterogeneous,3,present,0.675075054168701,1,horizontal,horizontal,1,1.08234889762742,green,2,1,983.431649086356,422.862115532956,861.690083377915,847.425410200379,861.690083377915,847.425410200379,983.431649086356,422.862115532956,554.878267535729,529.712474266665,0,0,0,0,0,0,0,4,6,NaN,NaN,NaN,vertical,horizontal,vertical,none,none,none
1b,16,100202,4,46,238,21,F,NA,constant,heterogeneous,4,absent,0.666584014892578,1,vertical,vertical,1,0.894115181480135,green,2,NaN,1054.84466088987,608.899371659138,NaN,NaN,791.100628340862,854.844660889869,1054.84466088987,608.899371659138,808.899371659138,345.155339110131,545.155339110131,591.100628340862,0,0,0,0,6,4,0,6,NaN,NaN,horizontal,vertical,vertical,vertical,none,none
1b,16,100202,4,47,239,21,F,NA,constant,heterogeneous,6,absent,1.812903881073,0,horizontal,vertical,1,0.647058429036822,green,1,NaN,800,855,NaN,NaN,800,855,1020.83647796503,727.5,1020.83647796503,472.5,800,345,579.163522034968,472.5,579.163522034968,727.5,4,3,5,5,6,3,horizontal,vertical,vertical,vertical,vertical,horizontal
1b,16,100202,4,48,240,21,F,NA,constant,heterogeneous,6,absent,1.07053899765015,1,vertical,vertical,1,0.647058429036822,green,4,NaN,684.232422566416,372.793336331966,NaN,NaN,915.767577433584,827.206663668034,1054.65053136242,613.345668841951,938.882953928832,386.139005173917,684.232422566416,372.793336331966,545.349468637584,586.654331158049,661.117046071168,813.860994826083,0,3,5,4,3,0,horizontal,vertical,horizontal,vertical,vertical,vertical
1b,16,100202,4,49,241,21,F,NA,constant,heterogeneous,5,present,1.35281085968018,1,vertical,vertical,1,0.635293821777616,green,3,5,949.885239334581,393.700666434388,557.480588344736,678.799333565612,800,855,1042.51941165526,678.799333565612,949.885239334581,393.700666434388,650.114760665419,393.700666434388,557.480588344736,678.799333565612,0,0,3,6,4,5,5,NaN,vertical,horizontal,vertical,horizontal,vertical,none
1b,16,100202,4,50,242,21,F,NA,constant,heterogeneous,4,present,1.04886507987976,1,vertical,vertical,1,1.0352904685906,green,4,1,546.39691668109,573.345241866748,773.345241866748,853.60308331891,773.345241866748,853.60308331891,1053.60308331891,626.654758133252,826.654758133252,346.39691668109,546.39691668109,573.345241866748,0,0,0,0,3,5,0,4,NaN,NaN,vertical,vertical,vertical,vertical,none,none
1b,16,100202,4,51,243,21,F,NA,constant,heterogeneous,5,absent,0.714270830154419,1,horizontal,horizontal,1,0.811762930665697,green,1,NaN,712.784863451954,839.621618300407,NaN,NaN,712.784863451954,839.621618300407,1000.94274216971,756.993676208043,1011.40458100154,457.40580961496,729.712474266665,354.878267535729,545.155339110131,591.100628340862,0,0,4,6,0,5,0,NaN,horizontal,horizontal,vertical,vertical,vertical,none
1b,16,100202,4,52,244,21,F,NA,constant,heterogeneous,5,present,0.976360082626343,1,vertical,vertical,1,0.988232039553778,green,3,2,963.910840470068,404.658667004661,1036.43188291453,695.524681321058,782.212099195248,854.378832816255,1036.43188291453,695.524681321058,963.910840470068,404.658667004661,664.870587620533,383.747735480111,552.574589799621,661.690083377915,0,0,3,5,4,3,0,NaN,horizontal,horizontal,vertical,horizontal,horizontal,none
