experiment,subject,uniqueID,block,trial,trial_cumulative,age,gender,color_cond_blocking,color_history,shape_type,set_size,distractor,rt,acc,target_orient,response_key,response_made,iti,target_color,target_item,distractor_item,target_X,target_Y,distractor_X,distractor_Y,item1_X,item1_Y,item2_X,item2_Y,item3_X,item3_Y,item4_X,item4_Y,item5_X,item5_Y,item6_X,item6_Y,item1_shape,item2_shape,item3_shape,item4_shape,item5_shape,item6_shape,item1_line,item2_line,item3_line,item4_line,item5_line,item6_line
1b,17,100210,1,1,1,18,F,NA,constant,heterogeneous,4,absent,NaN,0,horizontal,none,0,0.870584209909979,red,3,NaN,725.445215295702,356.142287229426,NaN,NaN,874.554784704298,843.857712770574,1043.85771277057,525.445215295702,725.445215295702,356.142287229426,556.142287229426,674.554784704298,0,0,0,0,6,0,4,3,NaN,NaN,horizontal,vertical,horizontal,horizontal,none,none
1b,17,100210,1,2,2,18,F,NA,constant,heterogeneous,6,present,NaN,0,horizontal,none,0,1.04705217289475,red,5,4,558.892763222174,516.980120613425,751.343706178981,349.685068220846,848.656293821019,850.314931779154,1041.10723677783,683.019879386575,992.450942956807,432.704947607421,751.343706178981,349.685068220846,558.892763222174,516.980120613425,607.549057043193,767.295052392579,0,0,5,5,4,6,vertical,horizontal,horizontal,horizontal,horizontal,vertical
1b,17,100210,1,3,3,18,F,NA,constant,heterogeneous,3,absent,1.40339112281799,0,horizontal,vertical,1,0.999994049432143,red,2,NaN,1052.5183575291,635.489140744817,NaN,NaN,643.006323791957,800.942742169714,1052.5183575291,635.489140744817,704.475318678942,363.568117085469,0,0,0,0,0,0,5,4,6,NaN,NaN,NaN,horizontal,horizontal,vertical,none,none,none
1b,17,100210,1,4,4,18,F,NA,constant,heterogeneous,3,absent,1.5194787979126,0,horizontal,vertical,1,0.6,red,2,NaN,1036.43188291453,695.524681321058,NaN,NaN,599.057257830286,756.993676208043,1036.43188291453,695.524681321058,764.510859255183,347.4816424709,0,0,0,0,0,0,5,4,0,NaN,NaN,NaN,horizontal,horizontal,horizontal,none,none,none
1b,17,100210,1,5,5,18,F,NA,constant,heterogeneous,4,present,1.18324303627014,1,horizontal,horizontal,1,0.647058123462605,red,3,4,661.117046071168,386.139005173917,586.139005173917,738.882953928832,938.882953928832,813.860994826083,1013.86099482608,461.117046071168,661.117046071168,386.139005173917,586.139005173917,738.882953928832,0,0,0,0,6,0,4,3,NaN,NaN,horizontal,vertical,horizontal,vertical,none,none
1b,17,100210,1,6,6,18,F,NA,constant,heterogeneous,5,present,1.47339010238647,1,horizontal,horizontal,1,0.729409839522164,red,4,1,729.712474266665,354.878267535729,712.784863451954,839.621618300407,712.784863451954,839.621618300407,1000.94274216971,756.993676208043,1011.40458100154,457.40580961496,729.712474266665,354.878267535729,545.155339110131,591.100628340862,0,0,0,3,3,4,6,NaN,horizontal,vertical,vertical,horizontal,horizontal,none
1b,17,100210,1,7,7,18,F,NA,constant,heterogeneous,4,absent,1.79768586158752,0,horizontal,vertical,1,0.929406864238235,red,3,NaN,942.594190385041,388.595418998464,NaN,NaN,657.405809614959,811.404581001536,1011.40458100154,742.594190385041,942.594190385041,388.595418998464,588.595418998464,457.40580961496,0,0,0,0,3,6,4,0,NaN,NaN,horizontal,vertical,horizontal,vertical,none,none
1b,17,100210,1,8,8,18,F,NA,constant,heterogeneous,3,present,1.36798596382141,1,horizontal,horizontal,1,0.917642333372584,red,1,3,716.980120613425,841.107236777826,632.704947607421,407.549057043193,716.980120613425,841.107236777826,1050.31493177915,551.343706178981,632.704947607421,407.549057043193,0,0,0,0,0,0,4,3,3,NaN,NaN,NaN,horizontal,horizontal,vertical,none,none,none
1b,17,100210,1,9,9,18,F,NA,constant,heterogeneous,4,present,1.62091207504272,1,horizontal,horizontal,1,0.658822654328256,red,1,2,977.137884467044,783.431649086356,983.431649086356,422.862115532956,977.137884467044,783.431649086356,983.431649086356,422.862115532956,622.862115532956,416.568350913644,616.568350913644,777.137884467044,0,0,0,0,4,5,3,6,NaN,NaN,horizontal,vertical,horizontal,horizontal,none,none
1b,17,100210,1,10,10,18,F,NA,constant,heterogeneous,4,present,0.691426038742065,1,vertical,vertical,1,0.905877802506933,red,1,4,791.100628340862,854.844660889869,545.155339110131,591.100628340862,791.100628340862,854.844660889869,1054.84466088987,608.899371659138,808.899371659138,345.155339110131,545.155339110131,591.100628340862,0,0,0,0,4,5,0,6,NaN,NaN,vertical,horizontal,vertical,vertical,none,none
1b,17,100210,1,11,11,18,F,NA,constant,heterogeneous,4,present,1.40454816818237,1,horizontal,horizontal,1,0.752938901253466,red,3,2,657.405809614959,388.595418998464,1011.40458100154,457.40580961496,942.594190385041,811.404581001536,1011.40458100154,457.40580961496,657.405809614959,388.595418998464,588.595418998464,742.594190385041,0,0,0,0,3,6,4,5,NaN,NaN,horizontal,horizontal,horizontal,vertical,none,none
1b,17,100210,1,12,12,18,F,NA,constant,heterogeneous,4,absent,1.17438697814941,0,vertical,horizontal,1,0.88234874077563,red,1,NaN,839.890788585259,851.86052685176,NaN,NaN,839.890788585259,851.86052685176,1051.86052685176,560.109211414741,760.109211414741,348.13947314824,548.13947314824,639.890788585259,0,0,0,0,4,5,5,0,NaN,NaN,vertical,vertical,vertical,vertical,none,none
1b,17,100210,1,13,13,18,F,NA,constant,heterogeneous,6,absent,NaN,0,horizontal,none,0,1.0588167037604,red,3,NaN,995.341332995339,436.089159529932,NaN,NaN,844.280285305067,851.125977018113,1039.62161830041,687.215136548046,995.341332995339,436.089159529932,755.719714694933,348.874022981887,560.378381699593,512.784863451954,604.658667004661,763.910840470068,5,0,4,6,5,6,horizontal,horizontal,horizontal,vertical,horizontal,horizontal
1b,17,100210,1,14,14,18,F,NA,constant,heterogeneous,5,present,1.09545493125916,1,vertical,vertical,1,0.999994049432143,red,1,2,716.980120613425,841.107236777826,1003.65205506206,753.462830903772,716.980120613425,841.107236777826,1003.65205506206,753.462830903772,1008.88377129369,453.738008730483,725.445215295702,356.142287229426,545.03883773512,595.549636358493,0,0,4,3,5,3,6,NaN,vertical,horizontal,horizontal,horizontal,horizontal,none
1b,17,100210,1,15,15,18,F,NA,constant,heterogeneous,5,absent,0.814895868301392,1,vertical,vertical,1,0.870584209909979,red,1,NaN,742.637481142314,848.464366520235,NaN,NaN,742.637481142314,848.464366520235,1018.57766167904,731.334709102064,992.450942956807,432.704947607421,700.363562235235,365.271262369628,545.970351986605,622.224714400653,0,0,4,5,6,3,0,NaN,vertical,vertical,vertical,vertical,vertical,none
1b,17,100210,1,16,16,18,F,NA,constant,heterogeneous,4,absent,0.811763048171997,1,vertical,vertical,1,0.811761555581723,red,3,NaN,835.489140744817,347.4816424709,NaN,NaN,764.510859255183,852.518357529101,1052.5183575291,635.489140744817,835.489140744817,347.4816424709,547.481642470899,564.510859255183,0,0,0,0,5,3,4,5,NaN,NaN,vertical,vertical,vertical,horizontal,none,none
1b,17,100210,1,17,17,18,F,NA,constant,heterogeneous,6,absent,1.67727494239807,1,vertical,vertical,1,1.04705217289475,red,6,NaN,579.163522034968,727.5,NaN,NaN,800,855,1020.83647796503,727.5,1020.83647796503,472.5,800,345,579.163522034968,472.5,579.163522034968,727.5,5,3,3,5,0,4,horizontal,vertical,vertical,horizontal,vertical,vertical
1b,17,100210,1,18,18,18,F,NA,constant,heterogeneous,5,absent,1.1404550075531,1,vertical,vertical,1,0.870584209909979,red,1,NaN,895.524681321058,836.431882914531,NaN,NaN,895.524681321058,836.431882914531,1054.37883281626,582.212099195248,861.690083377915,352.574589799621,583.747735480111,464.870587620533,604.658667004661,763.910840470068,0,0,4,5,0,0,3,NaN,vertical,horizontal,vertical,vertical,horizontal,none
1b,17,100210,1,19,19,18,F,NA,constant,heterogeneous,3,absent,0.868181943893433,1,vertical,vertical,1,1.02352311116345,red,1,NaN,716.980120613425,841.107236777826,NaN,NaN,716.980120613425,841.107236777826,1050.31493177915,551.343706178981,632.704947607421,407.549057043193,0,0,0,0,0,0,4,6,0,NaN,NaN,NaN,vertical,horizontal,horizontal,none,none,none
1b,17,100210,1,20,20,18,F,NA,constant,heterogeneous,3,present,0.577686071395874,1,vertical,vertical,1,0.811761555581723,red,1,2,626.090418184063,786.495193912888,1048.46436652023,657.362518857686,626.090418184063,786.495193912888,1048.46436652023,657.362518857686,725.445215295702,356.142287229426,0,0,0,0,0,0,4,0,3,NaN,NaN,NaN,vertical,vertical,vertical,none,none,none
1b,17,100210,1,21,21,18,F,NA,constant,heterogeneous,6,present,NaN,0,vertical,none,0,0.764703432119118,red,5,2,591.116228706307,453.738008730483,1008.88377129369,746.261991269517,777.775285599347,854.029648013395,1008.88377129369,746.261991269517,1031.10848569435,492.232343256122,822.224714400653,345.970351986605,591.116228706307,453.738008730483,568.891514305654,707.767656743878,6,3,0,3,4,6,vertical,horizontal,horizontal,vertical,vertical,vertical
1b,17,100210,1,22,22,18,F,NA,constant,heterogeneous,3,absent,NaN,0,vertical,none,0,0.847055148178676,red,1,NaN,992.450942956807,767.295052392579,NaN,NaN,992.450942956807,767.295052392579,848.656293821019,349.685068220846,558.892763222174,683.019879386575,0,0,0,0,0,0,4,3,5,NaN,NaN,NaN,vertical,vertical,vertical,none,none,none
1b,17,100210,1,23,23,18,F,NA,constant,heterogeneous,3,absent,0.876260995864868,1,vertical,vertical,1,1.09411029635735,red,3,NaN,545.155339110131,608.899371659138,NaN,NaN,935.129412379467,816.252264519889,919.715248510402,374.848363820974,545.155339110131,608.899371659138,0,0,0,0,0,0,0,5,4,NaN,NaN,NaN,vertical,horizontal,vertical,none,none,none
1b,17,100210,1,24,24,18,F,NA,constant,heterogeneous,3,present,0.9566810131073,1,vertical,vertical,1,0.941171395103886,red,3,2,734.001143498857,353.688914296288,1046.31108570371,665.998856501143,619.68777079743,780.31222920257,1046.31108570371,665.998856501143,734.001143498857,353.688914296288,0,0,0,0,0,0,3,6,4,NaN,NaN,NaN,horizontal,horizontal,vertical,none,none,none
1b,17,100210,1,25,25,18,F,NA,constant,heterogeneous,3,present,NaN,0,horizontal,none,0,0.870584209909979,red,2,3,887.215136548046,360.378381699593,548.874022981887,644.280285305067,963.910840470068,795.341332995339,887.215136548046,360.378381699593,548.874022981887,644.280285305067,0,0,0,0,0,0,6,4,0,NaN,NaN,NaN,vertical,horizontal,horizontal,none,none,none
1b,17,100210,1,26,26,18,F,NA,constant,heterogeneous,5,present,1.56857085227966,1,horizontal,horizontal,1,0.741174370387815,red,2,1,1053.09926866854,568.923317431687,907.767656743878,831.108485694346,907.767656743878,831.108485694346,1053.09926866854,568.923317431687,848.656293821019,349.685068220846,576.971974679454,476.373546837184,613.504806087112,773.909581815937,0,0,3,4,6,3,0,NaN,vertical,horizontal,horizontal,horizontal,vertical,none
1b,17,100210,1,27,27,18,F,NA,constant,heterogeneous,5,present,NaN,0,horizontal,none,0,0.705880777790861,red,4,5,738.309916622085,352.574589799621,545.621167183745,582.212099195248,704.475318678942,836.431882914531,995.341332995339,763.910840470068,1016.25226451989,464.870587620533,738.309916622085,352.574589799621,545.621167183745,582.212099195248,0,0,0,6,3,4,5,NaN,vertical,vertical,vertical,horizontal,vertical,none
1b,17,100210,1,28,28,18,F,NA,constant,heterogeneous,6,present,NaN,0,horizontal,none,0,1.01175858029779,red,6,5,563.568117085469,695.524681321058,599.057257830286,443.006323791957,764.510859255183,852.518357529101,1000.94274216971,756.993676208043,1036.43188291453,504.475318678942,835.489140744817,347.4816424709,599.057257830286,443.006323791957,563.568117085469,695.524681321058,5,0,5,0,3,4,vertical,vertical,vertical,horizontal,vertical,horizontal
1b,17,100210,1,29,29,18,F,NA,constant,heterogeneous,4,absent,1.51789307594299,1,horizontal,horizontal,1,0.941171395103886,red,1,NaN,760.109211414741,851.86052685176,NaN,NaN,760.109211414741,851.86052685176,1051.86052685176,639.890788585259,839.890788585259,348.13947314824,548.13947314824,560.109211414741,0,0,0,0,4,6,3,5,NaN,NaN,horizontal,vertical,horizontal,vertical,none,none
1b,17,100210,1,30,30,18,F,NA,constant,heterogeneous,5,present,NaN,0,vertical,none,0,0.647058123462605,red,1,4,742.637481142314,848.464366520235,700.363562235235,365.271262369628,742.637481142314,848.464366520235,1018.57766167904,731.334709102064,992.450942956807,432.704947607421,700.363562235235,365.271262369628,545.970351986605,622.224714400653,0,0,4,6,0,0,3,NaN,vertical,vertical,horizontal,vertical,horizontal,none
1b,17,100210,1,31,31,18,F,NA,constant,heterogeneous,6,absent,1.37738609313965,1,vertical,vertical,1,0.97646498770084,red,3,NaN,1036.43188291453,504.475318678942,NaN,NaN,764.510859255183,852.518357529101,1000.94274216971,756.993676208043,1036.43188291453,504.475318678942,835.489140744817,347.4816424709,599.057257830286,443.006323791957,563.568117085469,695.524681321058,5,6,4,6,3,3,vertical,vertical,vertical,horizontal,horizontal,vertical
1b,17,100210,1,32,32,18,F,NA,constant,heterogeneous,5,absent,NaN,0,vertical,none,0,0.717645308656513,red,1,NaN,712.784863451954,839.621618300407,NaN,NaN,712.784863451954,839.621618300407,1000.94274216971,756.993676208043,1011.40458100154,457.40580961496,729.712474266665,354.878267535729,545.155339110131,591.100628340862,0,0,4,3,0,3,0,NaN,vertical,vertical,vertical,vertical,vertical,none
1b,17,100210,1,33,33,18,F,NA,constant,heterogeneous,4,present,1.00562500953674,1,horizontal,horizontal,1,0.894113271641281,red,1,3,632.704947607421,792.450942956807,967.295052392579,407.549057043193,632.704947607421,792.450942956807,992.450942956807,767.295052392579,967.295052392579,407.549057043193,607.549057043193,432.704947607421,0,0,0,0,4,5,6,0,NaN,NaN,horizontal,vertical,horizontal,vertical,none,none
1b,17,100210,1,34,34,18,F,NA,constant,heterogeneous,5,absent,1.3233962059021,0,horizontal,vertical,1,1.07058123462605,red,1,NaN,931.334709102064,818.577661679039,NaN,NaN,931.334709102064,818.577661679039,1048.46436652023,542.637481142314,822.224714400653,345.970351986605,565.271262369628,500.363562235235,632.704947607421,792.450942956807,0,0,4,6,5,6,3,NaN,horizontal,vertical,vertical,vertical,vertical,none
1b,17,100210,1,35,35,18,F,NA,constant,heterogeneous,5,present,1.28604102134705,1,horizontal,horizontal,1,1.01175858029779,red,1,2,684.232422566416,827.206663668034,980.31222920257,780.31222920257,684.232422566416,827.206663668034,980.31222920257,780.31222920257,1027.20666366803,484.232422566416,760.109211414741,348.13947314824,548.13947314824,560.109211414741,0,0,4,3,5,6,5,NaN,horizontal,horizontal,vertical,horizontal,horizontal,none
1b,17,100210,1,36,36,18,F,NA,constant,heterogeneous,6,absent,1.24537396430969,1,vertical,vertical,1,0.858819679044328,red,2,NaN,1054.96116226488,604.450363641507,NaN,NaN,923.626453162816,823.028025320546,1054.96116226488,604.450363641507,931.334709102064,381.422338320961,676.373546837184,376.971974679454,545.03883773512,595.549636358493,668.665290897936,818.577661679039,0,4,3,6,0,6,horizontal,vertical,vertical,vertical,horizontal,horizontal
1b,17,100210,1,37,37,18,F,NA,constant,heterogeneous,5,absent,NaN,0,horizontal,none,0,0.811761555581723,red,1,NaN,848.656293821019,850.314931779154,NaN,NaN,848.656293821019,850.314931779154,1053.09926866854,631.076682568313,907.767656743878,368.891514305654,613.504806087112,426.090418184063,576.971974679454,723.626453162816,0,0,4,6,3,0,5,NaN,horizontal,horizontal,vertical,vertical,horizontal,none
1b,17,100210,1,38,38,18,F,NA,constant,heterogeneous,5,absent,1.92565488815308,1,horizontal,horizontal,1,0.929406864238235,red,2,NaN,1046.31108570371,534.001143498857,NaN,NaN,938.882953928832,813.860994826083,1046.31108570371,534.001143498857,813.345668841951,345.349468637584,561.936991243214,508.616172865948,639.523300282292,798.172220171528,0,0,3,4,6,0,6,NaN,horizontal,horizontal,vertical,horizontal,vertical,none
1b,17,100210,1,39,39,18,F,NA,constant,heterogeneous,5,present,1.08009910583496,0,vertical,horizontal,1,0.78823249385042,red,3,2,835.489140744817,347.4816424709,1051.12597701811,555.719714694933,919.715248510402,825.151636179026,1051.12597701811,555.719714694933,835.489140744817,347.4816424709,570.807518193712,488.215357568785,622.862115532956,783.431649086356,0,0,5,3,4,5,6,NaN,vertical,horizontal,vertical,horizontal,vertical,none
1b,17,100210,1,40,40,18,F,NA,constant,heterogeneous,6,present,NaN,0,horizontal,none,0,0.623529061731303,red,5,4,550.57236181288,546.982518841471,721.200666434388,357.480588344736,878.799333565612,842.519411655264,1049.42763818712,653.017481158529,970.628304621509,410.498069503264,721.200666434388,357.480588344736,550.57236181288,546.982518841471,629.371695378491,789.501930496736,6,5,0,6,4,3,horizontal,horizontal,vertical,vertical,horizontal,vertical
1b,17,100210,1,41,41,18,F,NA,constant,heterogeneous,6,present,0.815129995346069,0,vertical,horizontal,1,0.835290617313025,red,5,1,588.595418998464,457.40580961496,782.212099195248,854.378832816255,782.212099195248,854.378832816255,1011.40458100154,742.594190385041,1029.19248180629,488.215357568785,817.787900804752,345.621167183745,588.595418998464,457.40580961496,570.807518193712,711.784642431215,3,0,3,0,4,5,horizontal,horizontal,horizontal,vertical,vertical,vertical
1b,17,100210,1,42,42,18,F,NA,constant,heterogeneous,3,absent,0.882535934448242,1,horizontal,horizontal,1,0.741174370387815,red,3,NaN,549.685068220846,648.656293821019,NaN,NaN,967.295052392579,792.450942956807,883.019879386575,358.892763222174,549.685068220846,648.656293821019,0,0,0,0,0,0,5,6,4,NaN,NaN,NaN,horizontal,horizontal,horizontal,none,none,none
1b,17,100210,1,43,43,18,F,NA,constant,heterogeneous,6,absent,1.68207502365112,1,horizontal,horizontal,1,0.88234874077563,red,6,NaN,646.537169096228,803.65205506206,NaN,NaN,899.636437764765,834.728737630372,1053.09926866854,631.076682568313,953.462830903772,396.34794493794,700.363562235235,365.271262369628,546.900731331463,568.923317431687,646.537169096228,803.65205506206,6,6,3,5,0,4,horizontal,vertical,horizontal,horizontal,vertical,horizontal
1b,17,100210,1,44,44,18,F,NA,constant,heterogeneous,3,present,NaN,0,horizontal,none,0,1.0588167037604,red,2,1,1049.42763818712,546.982518841471,721.200666434388,842.519411655264,721.200666434388,842.519411655264,1049.42763818712,546.982518841471,629.371695378491,410.498069503264,0,0,0,0,0,0,0,4,5,NaN,NaN,NaN,vertical,horizontal,horizontal,none,none,none
1b,17,100210,1,45,45,18,F,NA,constant,heterogeneous,6,absent,1.67658114433289,0,horizontal,vertical,1,0.952935925969538,red,3,NaN,1046.31108570371,534.001143498857,NaN,NaN,734.001143498857,846.311085703712,980.31222920257,780.31222920257,1046.31108570371,534.001143498857,865.998856501143,353.688914296288,619.68777079743,419.68777079743,553.688914296288,665.998856501143,0,3,4,6,3,5,vertical,horizontal,horizontal,vertical,horizontal,horizontal
1b,17,100210,1,46,46,18,F,NA,constant,heterogeneous,6,present,NaN,0,horizontal,none,0,0.97646498770084,red,6,4,643.006323791957,800.942742169714,704.475318678942,363.568117085469,895.524681321058,836.431882914531,1052.5183575291,635.489140744817,956.993676208043,399.057257830286,704.475318678942,363.568117085469,547.481642470899,564.510859255183,643.006323791957,800.942742169714,5,3,6,0,3,4,vertical,vertical,horizontal,vertical,horizontal,horizontal
1b,17,100210,1,47,47,18,F,NA,constant,heterogeneous,4,absent,NaN,0,horizontal,none,0,0.917642333372584,red,2,NaN,1003.65205506206,753.462830903772,NaN,NaN,646.537169096228,803.65205506206,1003.65205506206,753.462830903772,953.462830903772,396.34794493794,596.34794493794,446.537169096228,0,0,0,0,5,4,3,0,NaN,NaN,horizontal,horizontal,vertical,vertical,none,none
1b,17,100210,1,48,48,18,F,NA,constant,heterogeneous,4,absent,1.33761692047119,0,vertical,horizontal,1,0.835290617313025,red,4,NaN,549.685068220846,648.656293821019,NaN,NaN,848.656293821019,850.314931779154,1050.31493177915,551.343706178981,751.343706178981,349.685068220846,549.685068220846,648.656293821019,0,0,0,0,6,6,3,4,NaN,NaN,horizontal,vertical,horizontal,vertical,none,none
1b,17,100210,1,49,49,18,F,NA,constant,heterogeneous,3,present,1.1102340221405,1,vertical,vertical,1,0.69411624692521,red,2,1,973.909581815937,413.504806087112,874.554784704298,843.857712770574,874.554784704298,843.857712770574,973.909581815937,413.504806087112,551.535633479765,542.637481142314,0,0,0,0,0,0,5,4,0,NaN,NaN,NaN,horizontal,vertical,horizontal,none,none,none
1b,17,100210,1,50,50,18,F,NA,constant,heterogeneous,4,present,0.856848001480103,1,vertical,vertical,1,0.799997024716071,red,4,3,545.970351986605,577.775285599347,822.224714400653,345.970351986605,777.775285599347,854.029648013395,1054.0296480134,622.224714400653,822.224714400653,345.970351986605,545.970351986605,577.775285599347,0,0,0,0,6,0,5,4,NaN,NaN,vertical,vertical,horizontal,vertical,none,none
1b,17,100210,1,51,51,18,F,NA,constant,heterogeneous,6,absent,1.48603391647339,1,horizontal,horizontal,1,1.02352311116345,red,6,NaN,567.045908301137,703.717843984329,NaN,NaN,773.345241866748,853.60308331891,1006.29933356561,749.885239334581,1032.95409169886,496.282156015671,826.654758133252,346.39691668109,593.700666434388,450.114760665419,567.045908301137,703.717843984329,6,5,5,3,0,4,horizontal,horizontal,vertical,horizontal,vertical,horizontal
1b,17,100210,1,52,52,18,F,NA,constant,heterogeneous,6,absent,1.76872110366821,0,vertical,horizontal,1,0.623529061731303,red,4,NaN,844.280285305067,348.874022981887,NaN,NaN,755.719714694933,851.125977018113,995.341332995339,763.910840470068,1039.62161830041,512.784863451954,844.280285305067,348.874022981887,604.658667004661,436.089159529932,560.378381699593,687.215136548046,3,0,5,4,5,6,vertical,vertical,vertical,vertical,vertical,horizontal
1b,17,100210,1,53,53,18,F,NA,constant,heterogeneous,3,present,1.05339193344116,1,horizontal,horizontal,1,0.858819679044328,red,1,3,865.998856501143,846.311085703712,553.688914296288,534.001143498857,865.998856501143,846.311085703712,980.31222920257,419.68777079743,553.688914296288,534.001143498857,0,0,0,0,0,0,4,3,0,NaN,NaN,NaN,horizontal,horizontal,vertical,none,none,none
1b,17,100210,1,54,54,18,F,NA,constant,heterogeneous,3,absent,1.06098604202271,1,horizontal,horizontal,1,0.917642333372584,red,1,NaN,865.998856501143,846.311085703712,NaN,NaN,865.998856501143,846.311085703712,980.31222920257,419.68777079743,553.688914296288,534.001143498857,0,0,0,0,0,0,4,0,3,NaN,NaN,NaN,horizontal,vertical,vertical,none,none,none
1b,17,100210,1,55,55,18,F,NA,constant,heterogeneous,3,present,0.879908800125122,1,vertical,vertical,1,0.870584209909979,red,1,3,636.089159529932,795.341332995339,712.784863451954,360.378381699593,636.089159529932,795.341332995339,1051.12597701811,644.280285305067,712.784863451954,360.378381699593,0,0,0,0,0,0,4,0,5,NaN,NaN,NaN,vertical,vertical,horizontal,none,none,none
1b,17,100210,1,56,56,18,F,NA,constant,heterogeneous,6,present,1.40410995483398,0,vertical,horizontal,1,0.929406864238235,red,5,6,643.006323791957,399.057257830286,547.481642470899,635.489140744817,704.475318678942,836.431882914531,956.993676208043,800.942742169714,1052.5183575291,564.510859255183,895.524681321058,363.568117085469,643.006323791957,399.057257830286,547.481642470899,635.489140744817,5,3,6,0,4,0,horizontal,horizontal,vertical,horizontal,vertical,horizontal
1b,17,100210,1,57,57,18,F,NA,constant,heterogeneous,3,absent,1.53747797012329,0,vertical,horizontal,1,0.647058123462605,red,3,NaN,567.045908301137,496.282156015671,NaN,NaN,826.654758133252,853.60308331891,1006.29933356561,450.114760665419,567.045908301137,496.282156015671,0,0,0,0,0,0,0,6,4,NaN,NaN,NaN,horizontal,vertical,vertical,none,none,none
1b,17,100210,1,58,58,18,F,NA,constant,heterogeneous,4,absent,1.68334197998047,1,vertical,vertical,1,0.952935925969538,red,2,NaN,1023.02802532055,723.626453162816,NaN,NaN,676.373546837184,823.028025320546,1023.02802532055,723.626453162816,923.626453162816,376.971974679454,576.971974679454,476.373546837184,0,0,0,0,3,4,5,0,NaN,NaN,vertical,vertical,vertical,vertical,none,none
1b,17,100210,1,59,59,18,F,NA,constant,heterogeneous,5,absent,1.61116600036621,1,vertical,vertical,1,1.0823457654917,red,3,NaN,935.129412379467,383.747735480111,NaN,NaN,817.787900804752,854.378832816255,1047.42541020038,661.690083377915,935.129412379467,383.747735480111,636.089159529932,404.658667004661,563.568117085469,695.524681321058,0,0,6,3,4,5,3,NaN,horizontal,horizontal,vertical,vertical,horizontal,none
1b,17,100210,1,60,60,18,F,NA,constant,heterogeneous,5,present,1.47133302688599,1,vertical,vertical,1,0.78823249385042,red,5,3,545.970351986605,622.224714400653,992.450942956807,432.704947607421,742.637481142314,848.464366520235,1018.57766167904,731.334709102064,992.450942956807,432.704947607421,700.363562235235,365.271262369628,545.970351986605,622.224714400653,0,0,5,6,6,3,4,NaN,horizontal,horizontal,horizontal,horizontal,vertical,none
1b,17,100210,1,61,61,18,F,NA,constant,heterogeneous,4,present,0.992662906646729,1,vertical,vertical,1,0.78823249385042,red,4,2,610.498069503264,770.628304621509,989.501930496736,429.371695378491,970.628304621509,789.501930496736,989.501930496736,429.371695378491,629.371695378491,410.498069503264,610.498069503264,770.628304621509,0,0,0,0,5,0,5,4,NaN,NaN,vertical,vertical,vertical,vertical,none,none
1b,17,100210,1,62,62,18,F,NA,constant,heterogeneous,4,present,1.30941009521484,1,vertical,vertical,1,1.0352876420291,red,3,1,777.775285599347,345.970351986605,822.224714400653,854.029648013395,822.224714400653,854.029648013395,1054.0296480134,577.775285599347,777.775285599347,345.970351986605,545.970351986605,622.224714400653,0,0,0,0,5,6,4,3,NaN,NaN,vertical,horizontal,vertical,vertical,none,none
1b,17,100210,1,63,63,18,F,NA,constant,heterogeneous,5,absent,1.76360416412354,1,horizontal,horizontal,1,0.78823249385042,red,1,NaN,927.5,820.836477965032,NaN,NaN,927.5,820.836477965032,1049.42763818712,546.982518841471,826.654758133252,346.39691668109,567.045908301137,496.282156015671,629.371695378491,789.501930496736,0,0,4,6,5,3,0,NaN,horizontal,horizontal,horizontal,vertical,horizontal,none
1b,17,100210,1,64,64,18,F,NA,constant,heterogeneous,6,present,1.72094488143921,0,vertical,horizontal,1,0.682351716059559,red,5,2,610.498069503264,429.371695378491,989.501930496736,770.628304621509,746.982518841471,849.42763818712,989.501930496736,770.628304621509,1042.51941165526,521.200666434388,853.017481158529,350.57236181288,610.498069503264,429.371695378491,557.480588344736,678.799333565612,6,5,3,5,4,0,horizontal,horizontal,horizontal,vertical,vertical,vertical
1b,17,100210,2,1,65,18,F,NA,constant,heterogeneous,4,present,1.08262395858765,1,vertical,vertical,1,0.858819679044328,red,4,3,604.658667004661,436.089159529932,963.910840470068,404.658667004661,636.089159529932,795.341332995339,995.341332995339,763.910840470068,963.910840470068,404.658667004661,604.658667004661,436.089159529932,0,0,0,0,6,0,5,4,NaN,NaN,horizontal,vertical,horizontal,vertical,none,none
1b,17,100210,2,2,66,18,F,NA,constant,heterogeneous,6,absent,NaN,0,horizontal,none,0,1.07058123462605,red,3,NaN,992.450942956807,432.704947607421,NaN,NaN,848.656293821019,850.314931779154,1041.10723677783,683.019879386575,992.450942956807,432.704947607421,751.343706178981,349.685068220846,558.892763222174,516.980120613425,607.549057043193,767.295052392579,0,0,4,3,5,5,horizontal,horizontal,horizontal,vertical,vertical,vertical
1b,17,100210,2,3,67,18,F,NA,constant,heterogeneous,3,absent,1.23660707473755,1,vertical,vertical,1,0.917642333372584,red,1,NaN,907.767656743878,831.108485694346,NaN,NaN,907.767656743878,831.108485694346,946.261991269517,391.116228706307,545.970351986605,577.775285599347,0,0,0,0,0,0,4,3,5,NaN,NaN,NaN,vertical,horizontal,horizontal,none,none,none
1b,17,100210,2,4,68,18,F,NA,constant,heterogeneous,3,present,0.950886964797974,1,horizontal,horizontal,1,1.07058123462605,red,1,3,1003.65205506206,753.462830903772,565.271262369628,699.636437764765,1003.65205506206,753.462830903772,831.076682568313,346.900731331463,565.271262369628,699.636437764765,0,0,0,0,0,0,4,0,5,NaN,NaN,NaN,horizontal,horizontal,vertical,none,none,none
1b,17,100210,2,5,69,18,F,NA,constant,heterogeneous,4,present,NaN,0,horizontal,none,0,0.941171395103886,red,3,4,844.280285305067,348.874022981887,548.874022981887,555.719714694933,755.719714694933,851.125977018113,1051.12597701811,644.280285305067,844.280285305067,348.874022981887,548.874022981887,555.719714694933,0,0,0,0,6,5,4,3,NaN,NaN,vertical,horizontal,horizontal,horizontal,none,none
1b,17,100210,2,6,70,18,F,NA,constant,heterogeneous,4,present,1.01401495933533,1,vertical,vertical,1,1.02352311116345,red,1,3,970.628304621509,789.501930496736,629.371695378491,410.498069503264,970.628304621509,789.501930496736,989.501930496736,429.371695378491,629.371695378491,410.498069503264,610.498069503264,770.628304621509,0,0,0,0,4,6,6,0,NaN,NaN,vertical,vertical,horizontal,vertical,none,none
1b,17,100210,2,7,71,18,F,NA,constant,heterogeneous,6,present,1.1041419506073,1,vertical,vertical,1,1.09411029635735,red,6,1,668.665290897936,818.577661679039,923.626453162816,823.028025320546,923.626453162816,823.028025320546,1054.96116226488,604.450363641507,931.334709102064,381.422338320961,676.373546837184,376.971974679454,545.03883773512,595.549636358493,668.665290897936,818.577661679039,5,5,3,3,0,4,vertical,horizontal,vertical,vertical,vertical,vertical
1b,17,100210,2,8,72,18,F,NA,constant,heterogeneous,3,present,0.737725019454956,1,horizontal,horizontal,1,0.764703432119118,red,2,3,931.334709102064,381.422338320961,545.03883773512,595.549636358493,923.626453162816,823.028025320546,931.334709102064,381.422338320961,545.03883773512,595.549636358493,0,0,0,0,0,0,5,4,5,NaN,NaN,NaN,horizontal,horizontal,vertical,none,none,none
1b,17,100210,2,9,73,18,F,NA,constant,heterogeneous,5,present,1.16847801208496,1,vertical,vertical,1,0.988229518566491,red,2,1,1036.43188291453,695.524681321058,782.212099195248,854.378832816255,782.212099195248,854.378832816255,1036.43188291453,695.524681321058,963.910840470068,404.658667004661,664.870587620533,383.747735480111,552.574589799621,661.690083377915,0,0,0,4,5,0,3,NaN,horizontal,vertical,horizontal,horizontal,vertical,none
1b,17,100210,2,10,74,18,F,NA,constant,heterogeneous,6,absent,1.06430196762085,1,vertical,vertical,1,1.02352311116345,red,2,NaN,931.334709102064,818.577661679039,NaN,NaN,676.373546837184,823.028025320546,931.334709102064,818.577661679039,1054.96116226488,595.549636358493,923.626453162816,376.971974679454,668.665290897936,381.422338320961,545.03883773512,604.450363641507,6,4,0,5,3,0,vertical,vertical,vertical,vertical,vertical,vertical
1b,17,100210,2,11,75,18,F,NA,constant,heterogeneous,3,absent,1.52699303627014,0,horizontal,vertical,1,0.658822654328256,red,2,NaN,1041.10723677783,683.019879386575,NaN,NaN,607.549057043193,767.295052392579,1041.10723677783,683.019879386575,751.343706178981,349.685068220846,0,0,0,0,0,0,5,4,6,NaN,NaN,NaN,horizontal,horizontal,vertical,none,none,none
1b,17,100210,2,12,76,18,F,NA,constant,heterogeneous,6,present,1.87578201293945,0,vertical,horizontal,1,0.905877802506933,red,5,2,572.793336331966,484.232422566416,1027.20666366803,715.767577433584,813.345668841951,854.650531362416,1027.20666366803,715.767577433584,1013.86099482608,461.117046071168,786.654331158049,345.349468637584,572.793336331966,484.232422566416,586.139005173917,738.882953928832,6,6,0,5,4,5,vertical,horizontal,vertical,vertical,vertical,horizontal
1b,17,100210,2,13,77,18,F,NA,constant,heterogeneous,5,absent,1.78846096992493,1,horizontal,horizontal,1,0.941171395103886,red,1,NaN,887.215136548046,839.621618300407,NaN,NaN,887.215136548046,839.621618300407,1054.84466088987,591.100628340862,870.287525733335,354.878267535729,588.595418998464,457.40580961496,599.057257830286,756.993676208043,0,0,4,6,0,6,3,NaN,horizontal,horizontal,vertical,vertical,horizontal,none
1b,17,100210,2,14,78,18,F,NA,constant,heterogeneous,5,present,1.69612097740173,1,horizontal,horizontal,1,0.78823249385042,red,5,4,554.878267535729,529.712474266665,791.100628340862,345.155339110131,657.405809614959,811.404581001536,956.993676208043,800.942742169714,1039.62161830041,512.784863451954,791.100628340862,345.155339110131,554.878267535729,529.712474266665,0,0,6,5,3,6,4,NaN,horizontal,horizontal,horizontal,vertical,horizontal,none
1b,17,100210,2,15,79,18,F,NA,constant,heterogeneous,3,present,0.826967000961304,1,vertical,vertical,1,0.635293592596954,red,3,1,545.155339110131,608.899371659138,935.129412379467,816.252264519889,935.129412379467,816.252264519889,919.715248510402,374.848363820974,545.155339110131,608.899371659138,0,0,0,0,0,0,6,3,4,NaN,NaN,NaN,vertical,horizontal,vertical,none,none,none
1b,17,100210,2,16,80,18,F,NA,constant,heterogeneous,5,absent,1.16124176979065,1,vertical,vertical,1,0.670587185193907,red,2,NaN,1029.19248180629,711.784642431215,NaN,NaN,764.510859255183,852.518357529101,1029.19248180629,711.784642431215,977.137884467044,416.568350913644,680.284751489598,374.848363820974,548.874022981887,644.280285305067,0,0,0,4,3,5,0,NaN,horizontal,vertical,horizontal,vertical,vertical,none
1b,17,100210,2,17,81,18,F,NA,constant,heterogeneous,6,absent,1.20031690597534,1,horizontal,horizontal,1,0.988229518566491,red,2,NaN,1043.85771277057,674.554784704298,NaN,NaN,857.362518857686,848.464366520235,1043.85771277057,674.554784704298,986.495193912888,426.090418184063,742.637481142314,351.535633479765,556.142287229426,525.445215295702,613.504806087112,773.909581815937,6,4,6,5,0,0,vertical,horizontal,vertical,vertical,vertical,horizontal
1b,17,100210,2,18,82,18,F,NA,constant,heterogeneous,4,present,1.45203590393066,0,horizontal,vertical,1,0.776467962984769,red,3,2,786.654331158049,345.349468637584,1054.65053136242,586.654331158049,813.345668841951,854.650531362416,1054.65053136242,586.654331158049,786.654331158049,345.349468637584,545.349468637584,613.345668841951,0,0,0,0,0,5,4,3,NaN,NaN,vertical,vertical,horizontal,horizontal,none,none
1b,17,100210,2,19,83,18,F,NA,constant,heterogeneous,6,present,1.63656997680664,1,horizontal,horizontal,1,0.964700456835189,red,6,1,591.116228706307,746.261991269517,822.224714400653,854.029648013395,822.224714400653,854.029648013395,1031.10848569435,707.767656743878,1008.88377129369,453.738008730483,777.775285599347,345.970351986605,568.891514305654,492.232343256122,591.116228706307,746.261991269517,3,3,5,6,0,4,horizontal,vertical,vertical,vertical,vertical,horizontal
1b,17,100210,2,20,84,18,F,NA,constant,heterogeneous,5,absent,NaN,0,horizontal,none,0,0.6,red,1,NaN,684.232422566416,827.206663668034,NaN,NaN,684.232422566416,827.206663668034,980.31222920257,780.31222920257,1027.20666366803,484.232422566416,760.109211414741,348.13947314824,548.13947314824,560.109211414741,0,0,4,6,0,6,5,NaN,horizontal,horizontal,vertical,vertical,vertical,none
1b,17,100210,2,21,85,18,F,NA,constant,heterogeneous,5,present,0.983487844467163,1,vertical,vertical,1,0.682351716059559,red,3,5,883.019879386575,358.892763222174,591.116228706307,746.261991269517,874.554784704298,843.857712770574,1054.96116226488,604.450363641507,883.019879386575,358.892763222174,596.34794493794,446.537169096228,591.116228706307,746.261991269517,0,0,0,5,4,5,3,NaN,horizontal,horizontal,vertical,vertical,horizontal,none
1b,17,100210,2,22,86,18,F,NA,constant,heterogeneous,4,absent,1.38869690895081,1,vertical,vertical,1,0.670587185193907,red,3,NaN,646.537169096228,396.34794493794,NaN,NaN,953.462830903772,803.65205506206,1003.65205506206,446.537169096228,646.537169096228,396.34794493794,596.34794493794,753.462830903772,0,0,0,0,6,3,4,6,NaN,NaN,vertical,horizontal,vertical,vertical,none,none
1b,17,100210,2,23,87,18,F,NA,constant,heterogeneous,3,absent,0.960864067077637,1,vertical,vertical,1,1.01175858029779,red,1,NaN,927.5,820.836477965032,NaN,NaN,927.5,820.836477965032,927.5,379.163522034968,545,600,0,0,0,0,0,0,4,5,3,NaN,NaN,NaN,vertical,horizontal,vertical,none,none,none
1b,17,100210,2,24,88,18,F,NA,constant,heterogeneous,5,absent,1.6659369468689,1,vertical,vertical,1,1.0823457654917,red,3,NaN,1013.86099482608,461.117046071168,NaN,NaN,708.616172865948,838.063008756786,998.172220171528,760.476699717708,1013.86099482608,461.117046071168,734.001143498857,353.688914296288,545.349468637584,586.654331158049,0,0,3,0,4,3,5,NaN,horizontal,vertical,vertical,vertical,horizontal,none
1b,17,100210,2,25,89,18,F,NA,constant,heterogeneous,4,absent,0.857236862182617,1,vertical,vertical,1,0.88234874077563,red,1,NaN,768.923317431687,853.099268668537,NaN,NaN,768.923317431687,853.099268668537,1053.09926866854,631.076682568313,831.076682568313,346.900731331463,546.900731331463,568.923317431687,0,0,0,0,4,3,0,6,NaN,NaN,vertical,vertical,vertical,vertical,none,none
1b,17,100210,2,26,90,18,F,NA,constant,heterogeneous,5,present,1.25810790061951,1,vertical,vertical,1,0.78823249385042,red,4,3,692.232343256122,368.891514305654,986.495193912888,426.090418184063,751.343706178981,850.314931779154,1023.02802532055,723.626453162816,986.495193912888,426.090418184063,692.232343256122,368.891514305654,546.900731331463,631.076682568313,0,0,6,5,0,4,5,NaN,vertical,horizontal,horizontal,vertical,vertical,none
1b,17,100210,2,27,91,18,F,NA,constant,heterogeneous,6,present,1.8084409236908,1,horizontal,horizontal,1,0.835290617313025,red,6,4,604.658667004661,763.910840470068,755.719714694933,348.874022981887,844.280285305067,851.125977018113,1039.62161830041,687.215136548046,995.341332995339,436.089159529932,755.719714694933,348.874022981887,560.378381699593,512.784863451954,604.658667004661,763.910840470068,3,0,5,6,0,4,vertical,horizontal,vertical,vertical,vertical,horizontal
1b,17,100210,2,28,92,18,F,NA,constant,heterogeneous,5,present,0.848468065261841,1,horizontal,horizontal,1,0.988229518566491,red,1,2,777.775285599347,854.029648013395,1034.72873763037,699.636437764765,777.775285599347,854.029648013395,1034.72873763037,699.636437764765,967.295052392579,407.549057043193,668.665290897936,381.422338320961,551.535633479765,657.362518857686,0,0,4,3,6,6,5,NaN,horizontal,horizontal,horizontal,horizontal,horizontal,none
1b,17,100210,2,29,93,18,F,NA,constant,heterogeneous,3,absent,0.839400053024292,1,vertical,vertical,1,0.894113271641281,red,3,NaN,563.568117085469,504.475318678942,NaN,NaN,835.489140744817,852.518357529101,1000.94274216971,443.006323791957,563.568117085469,504.475318678942,0,0,0,0,0,0,6,5,4,NaN,NaN,NaN,horizontal,vertical,vertical,none,none,none
1b,17,100210,2,30,94,18,F,NA,constant,heterogeneous,6,present,1.19273614883423,1,vertical,vertical,1,0.799997024716071,red,3,4,1032.95409169886,496.282156015671,826.654758133252,346.39691668109,773.345241866748,853.60308331891,1006.29933356561,749.885239334581,1032.95409169886,496.282156015671,826.654758133252,346.39691668109,593.700666434388,450.114760665419,567.045908301137,703.717843984329,0,6,4,3,6,5,vertical,vertical,vertical,vertical,horizontal,vertical
1b,17,100210,2,31,95,18,F,NA,constant,heterogeneous,6,present,1.52860593795776,0,horizontal,vertical,1,0.799997024716071,red,1,6,768.923317431687,853.099268668537,565.271262369628,699.636437764765,768.923317431687,853.099268668537,1003.65205506206,753.462830903772,1034.72873763037,500.363562235235,831.076682568313,346.900731331463,596.34794493794,446.537169096228,565.271262369628,699.636437764765,4,6,0,5,5,0,horizontal,horizontal,vertical,vertical,vertical,horizontal
1b,17,100210,2,32,96,18,F,NA,constant,heterogeneous,4,absent,1.72151207923889,1,horizontal,horizontal,1,0.905877802506933,red,4,NaN,574.848363820974,719.715248510402,NaN,NaN,919.715248510402,825.151636179026,1025.15163617903,480.284751489598,680.284751489598,374.848363820974,574.848363820974,719.715248510402,0,0,0,0,5,3,6,4,NaN,NaN,vertical,horizontal,horizontal,horizontal,none,none
1b,17,100210,2,33,97,18,F,NA,constant,heterogeneous,5,absent,1.95010709762573,1,horizontal,horizontal,1,1.0823457654917,red,1,NaN,680.284751489598,825.151636179026,NaN,NaN,680.284751489598,825.151636179026,977.137884467044,783.431649086356,1029.19248180629,488.215357568785,764.510859255183,347.4816424709,548.874022981887,555.719714694933,0,0,4,3,6,5,0,NaN,horizontal,horizontal,vertical,horizontal,horizontal,none
1b,17,100210,2,34,98,18,F,NA,constant,heterogeneous,4,present,1.22900700569153,1,horizontal,horizontal,1,0.799997024716071,red,1,4,919.715248510402,825.151636179026,574.848363820974,719.715248510402,919.715248510402,825.151636179026,1025.15163617903,480.284751489598,680.284751489598,374.848363820974,574.848363820974,719.715248510402,0,0,0,0,4,3,0,3,NaN,NaN,horizontal,horizontal,horizontal,horizontal,none,none
1b,17,100210,2,35,99,18,F,NA,constant,heterogeneous,3,present,1.18674397468567,1,vertical,vertical,1,0.647058123462605,red,2,1,1011.40458100154,457.40580961496,817.787900804752,854.378832816255,817.787900804752,854.378832816255,1011.40458100154,457.40580961496,570.807518193712,488.215357568785,0,0,0,0,0,0,0,4,5,NaN,NaN,NaN,horizontal,vertical,vertical,none,none,none
1b,17,100210,2,36,100,18,F,NA,constant,heterogeneous,4,present,0.725076913833618,1,vertical,vertical,1,0.717645308656513,red,4,2,552.574589799621,538.309916622085,1047.42541020038,661.690083377915,738.309916622085,847.425410200379,1047.42541020038,661.690083377915,861.690083377915,352.574589799621,552.574589799621,538.309916622085,0,0,0,0,6,0,6,4,NaN,NaN,vertical,horizontal,horizontal,vertical,none,none
1b,17,100210,2,37,101,18,F,NA,constant,heterogeneous,5,absent,NaN,0,horizontal,none,0,0.941171395103886,red,2,NaN,1054.37883281626,582.212099195248,NaN,NaN,895.524681321058,836.431882914531,1054.37883281626,582.212099195248,861.690083377915,352.574589799621,583.747735480111,464.870587620533,604.658667004661,763.910840470068,0,0,5,4,0,5,3,NaN,vertical,horizontal,vertical,vertical,vertical,none
1b,17,100210,2,38,102,18,F,NA,constant,heterogeneous,3,absent,0.593806028366089,1,horizontal,horizontal,1,0.752938901253466,red,1,NaN,629.371695378491,789.501930496736,NaN,NaN,629.371695378491,789.501930496736,1049.42763818712,653.017481158529,721.200666434388,357.480588344736,0,0,0,0,0,0,4,6,3,NaN,NaN,NaN,horizontal,horizontal,vertical,none,none,none
1b,17,100210,2,39,103,18,F,NA,constant,heterogeneous,3,present,0.871206998825073,1,vertical,vertical,1,1.0588167037604,red,3,1,742.637481142314,351.535633479765,613.504806087112,773.909581815937,613.504806087112,773.909581815937,1043.85771277057,674.554784704298,742.637481142314,351.535633479765,0,0,0,0,0,0,3,0,4,NaN,NaN,NaN,vertical,horizontal,vertical,none,none,none
1b,17,100210,2,40,104,18,F,NA,constant,heterogeneous,5,present,1.48806691169739,1,vertical,vertical,1,0.964700456835189,red,1,2,804.450363641507,854.96116226488,1043.85771277057,674.554784704298,804.450363641507,854.96116226488,1043.85771277057,674.554784704298,946.261991269517,391.116228706307,646.537169096228,396.34794493794,558.892763222174,683.019879386575,0,0,4,6,3,5,6,NaN,vertical,horizontal,vertical,horizontal,vertical,none
1b,17,100210,2,41,105,18,F,NA,constant,heterogeneous,5,present,1.05568599700928,1,horizontal,horizontal,1,0.682351716059559,red,2,1,1053.09926866854,568.923317431687,907.767656743878,831.108485694346,907.767656743878,831.108485694346,1053.09926866854,568.923317431687,848.656293821019,349.685068220846,576.971974679454,476.373546837184,613.504806087112,773.909581815937,0,0,6,4,6,3,0,NaN,horizontal,horizontal,horizontal,horizontal,horizontal,none
1b,17,100210,2,42,106,18,F,NA,constant,heterogeneous,6,absent,1.55673384666443,0,horizontal,vertical,1,0.6,red,3,NaN,1041.10723677783,516.980120613425,NaN,NaN,751.343706178981,850.314931779154,992.450942956807,767.295052392579,1041.10723677783,516.980120613425,848.656293821019,349.685068220846,607.549057043193,432.704947607421,558.892763222174,683.019879386575,5,0,4,6,3,0,horizontal,vertical,horizontal,horizontal,vertical,horizontal
1b,17,100210,2,43,107,18,F,NA,constant,heterogeneous,4,absent,1.10335302352905,1,horizontal,horizontal,1,0.952935925969538,red,3,NaN,883.019879386575,358.892763222174,NaN,NaN,716.980120613425,841.107236777826,1041.10723677783,683.019879386575,883.019879386575,358.892763222174,558.892763222174,516.980120613425,0,0,0,0,5,6,4,5,NaN,NaN,horizontal,horizontal,horizontal,vertical,none,none
1b,17,100210,2,44,108,18,F,NA,constant,heterogeneous,4,absent,0.995283126831055,1,horizontal,horizontal,1,1.0823457654917,red,2,NaN,1011.40458100154,457.40580961496,NaN,NaN,942.594190385041,811.404581001536,1011.40458100154,457.40580961496,657.405809614959,388.595418998464,588.595418998464,742.594190385041,0,0,0,0,0,4,3,3,NaN,NaN,vertical,horizontal,vertical,horizontal,none,none
1b,17,100210,2,45,109,18,F,NA,constant,heterogeneous,3,present,0.847907066345215,1,vertical,vertical,1,0.635293592596954,red,2,1,967.295052392579,407.549057043193,883.019879386575,841.107236777826,883.019879386575,841.107236777826,967.295052392579,407.549057043193,549.685068220846,551.343706178981,0,0,0,0,0,0,6,4,5,NaN,NaN,NaN,horizontal,vertical,vertical,none,none,none
1b,17,100210,2,46,110,18,F,NA,constant,heterogeneous,3,present,1.4582839012146,1,horizontal,horizontal,1,0.658822654328256,red,3,2,548.874022981887,644.280285305067,887.215136548046,360.378381699593,963.910840470068,795.341332995339,887.215136548046,360.378381699593,548.874022981887,644.280285305067,0,0,0,0,0,0,3,3,4,NaN,NaN,NaN,horizontal,vertical,horizontal,none,none,none
1b,17,100210,2,47,111,18,F,NA,constant,heterogeneous,3,absent,1.0333240032196,1,horizontal,horizontal,1,1.0823457654917,red,3,NaN,632.704947607421,407.549057043193,NaN,NaN,716.980120613425,841.107236777826,1050.31493177915,551.343706178981,632.704947607421,407.549057043193,0,0,0,0,0,0,0,3,4,NaN,NaN,NaN,horizontal,vertical,horizontal,none,none,none
1b,17,100210,2,48,112,18,F,NA,constant,heterogeneous,6,absent,1.64806199073792,0,vertical,horizontal,1,0.894113271641281,red,4,NaN,857.362518857686,351.535633479765,NaN,NaN,742.637481142314,848.464366520235,986.495193912888,773.909581815937,1043.85771277057,525.445215295702,857.362518857686,351.535633479765,613.504806087112,426.090418184063,556.142287229426,674.554784704298,0,5,3,4,0,3,vertical,vertical,horizontal,vertical,vertical,horizontal
1b,17,100210,2,49,113,18,F,NA,constant,heterogeneous,4,absent,0.841008186340332,0,horizontal,vertical,1,0.988229518566491,red,1,NaN,878.799333565612,842.519411655264,NaN,NaN,878.799333565612,842.519411655264,1042.51941165526,521.200666434388,721.200666434388,357.480588344736,557.480588344736,678.799333565612,0,0,0,0,4,0,5,0,NaN,NaN,horizontal,horizontal,vertical,vertical,none,none
1b,17,100210,2,50,114,18,F,NA,constant,heterogeneous,6,absent,1.19529008865356,1,vertical,vertical,1,0.670587185193907,red,3,NaN,938.882953928832,386.139005173917,NaN,NaN,915.767577433584,827.206663668034,1054.65053136242,613.345668841951,938.882953928832,386.139005173917,684.232422566416,372.793336331966,545.349468637584,586.654331158049,661.117046071168,813.860994826083,6,6,4,3,5,0,horizontal,vertical,vertical,horizontal,vertical,horizontal
1b,17,100210,2,51,115,18,F,NA,constant,heterogeneous,3,absent,1.60201811790466,1,horizontal,horizontal,1,0.729409839522164,red,1,NaN,931.334709102064,818.577661679039,NaN,NaN,931.334709102064,818.577661679039,923.626453162816,376.971974679454,545.03883773512,604.450363641507,0,0,0,0,0,0,4,0,5,NaN,NaN,NaN,horizontal,vertical,horizontal,none,none,none
1b,17,100210,2,52,116,18,F,NA,constant,heterogeneous,4,absent,1.28354382514954,1,vertical,vertical,1,0.658822654328256,red,2,NaN,1016.25226451989,735.129412379467,NaN,NaN,664.870587620533,816.252264519889,1016.25226451989,735.129412379467,935.129412379467,383.747735480111,583.747735480111,464.870587620533,0,0,0,0,3,4,6,3,NaN,NaN,horizontal,vertical,vertical,vertical,none,none
1b,17,100210,2,53,117,18,F,NA,constant,heterogeneous,3,absent,1.21958899497986,1,vertical,vertical,1,0.705880777790861,red,2,NaN,1031.10848569435,492.232343256122,NaN,NaN,777.775285599347,854.029648013395,1031.10848569435,492.232343256122,591.116228706307,453.738008730483,0,0,0,0,0,0,3,4,6,NaN,NaN,NaN,vertical,vertical,horizontal,none,none,none
1b,17,100210,2,54,118,18,F,NA,constant,heterogeneous,5,present,1.14814591407776,1,horizontal,horizontal,1,0.799997024716071,red,5,2,643.006323791957,800.942742169714,1045.12173246427,529.712474266665,942.594190385041,811.404581001536,1045.12173246427,529.712474266665,808.899371659138,345.155339110131,560.378381699593,512.784863451954,643.006323791957,800.942742169714,0,0,3,6,5,0,4,NaN,vertical,vertical,horizontal,horizontal,horizontal,none
1b,17,100210,2,55,119,18,F,NA,constant,heterogeneous,6,present,0.838041067123413,1,vertical,vertical,1,0.741174370387815,red,1,5,927.5,820.836477965032,545,600,927.5,820.836477965032,1055,600,927.5,379.163522034968,672.5,379.163522034968,545,600,672.5,820.836477965032,4,5,3,3,5,6,vertical,horizontal,horizontal,horizontal,horizontal,vertical
1b,17,100210,2,56,120,18,F,NA,constant,heterogeneous,5,absent,1.41421914100647,1,vertical,vertical,1,0.752938901253466,red,3,NaN,878.799333565612,357.480588344736,NaN,NaN,878.799333565612,842.519411655264,1055,600,878.799333565612,357.480588344736,593.700666434388,450.114760665419,593.700666434388,749.885239334581,0,0,6,3,4,5,3,NaN,vertical,horizontal,vertical,vertical,horizontal,none
1b,17,100210,2,57,121,18,F,NA,constant,heterogeneous,5,absent,1.66027617454529,1,vertical,vertical,1,1.0823457654917,red,4,NaN,650.114760665419,393.700666434388,NaN,NaN,800,855,1042.51941165526,678.799333565612,949.885239334581,393.700666434388,650.114760665419,393.700666434388,557.480588344736,678.799333565612,0,0,6,5,0,4,3,NaN,vertical,horizontal,vertical,vertical,horizontal,none
1b,17,100210,2,58,122,18,F,NA,constant,heterogeneous,4,absent,0.904269933700562,1,vertical,vertical,1,0.717645308656513,red,3,NaN,931.334709102064,381.422338320961,NaN,NaN,668.665290897936,818.577661679039,1018.57766167904,731.334709102064,931.334709102064,381.422338320961,581.422338320961,468.665290897936,0,0,0,0,3,5,4,6,NaN,NaN,horizontal,vertical,vertical,horizontal,none,none
1b,17,100210,2,59,123,18,F,NA,constant,heterogeneous,3,present,0.934751987457275,1,horizontal,horizontal,1,0.823526086447374,red,2,1,935.129412379467,383.747735480111,919.715248510402,825.151636179026,919.715248510402,825.151636179026,935.129412379467,383.747735480111,545.155339110131,591.100628340862,0,0,0,0,0,0,5,4,3,NaN,NaN,NaN,vertical,horizontal,vertical,none,none,none
1b,17,100210,2,60,124,18,F,NA,constant,heterogeneous,6,absent,1.82862782478333,0,horizontal,vertical,1,0.964700456835189,red,1,NaN,773.345241866748,853.60308331891,NaN,NaN,773.345241866748,853.60308331891,1006.29933356561,749.885239334581,1032.95409169886,496.282156015671,826.654758133252,346.39691668109,593.700666434388,450.114760665419,567.045908301137,703.717843984329,4,3,0,5,0,6,horizontal,horizontal,vertical,vertical,horizontal,horizontal
1b,17,100210,2,61,125,18,F,NA,constant,heterogeneous,6,absent,0.699511051177979,1,vertical,vertical,1,0.894113271641281,red,6,NaN,639.523300282292,798.172220171528,NaN,NaN,891.383827134052,838.063008756786,1051.86052685176,639.890788585259,960.476699717708,401.827779828472,708.616172865948,361.936991243214,548.13947314824,560.109211414741,639.523300282292,798.172220171528,0,5,6,3,6,4,vertical,horizontal,vertical,vertical,vertical,vertical
1b,17,100210,2,62,126,18,F,NA,constant,heterogeneous,4,present,0.786079168319702,1,horizontal,horizontal,1,0.823526086447374,red,4,1,572.793336331966,715.767577433584,915.767577433584,827.206663668034,915.767577433584,827.206663668034,1027.20666366803,484.232422566416,684.232422566416,372.793336331966,572.793336331966,715.767577433584,0,0,0,0,0,6,3,4,NaN,NaN,horizontal,horizontal,vertical,horizontal,none,none
1b,17,100210,2,63,127,18,F,NA,constant,heterogeneous,4,present,1.12859392166138,1,vertical,vertical,1,0.741174370387815,red,1,2,960.476699717708,798.172220171528,998.172220171528,439.523300282291,960.476699717708,798.172220171528,998.172220171528,439.523300282291,639.523300282292,401.827779828472,601.827779828472,760.476699717708,0,0,0,0,4,0,5,3,NaN,NaN,vertical,vertical,horizontal,horizontal,none,none
1b,17,100210,2,64,128,18,F,NA,constant,heterogeneous,6,present,0.820086002349854,1,horizontal,horizontal,1,0.623529061731303,red,6,3,556.142287229426,674.554784704298,1043.85771277057,525.445215295702,742.637481142314,848.464366520235,986.495193912888,773.909581815937,1043.85771277057,525.445215295702,857.362518857686,351.535633479765,613.504806087112,426.090418184063,556.142287229426,674.554784704298,6,0,5,6,0,4,vertical,horizontal,vertical,horizontal,vertical,horizontal
1b,17,100210,3,1,129,18,F,NA,constant,heterogeneous,6,present,1.81734704971313,1,vertical,vertical,1,1.0352876420291,red,3,6,1027.20666366803,484.232422566416,572.793336331966,715.767577433584,786.654331158049,854.650531362416,1013.86099482608,738.882953928832,1027.20666366803,484.232422566416,813.345668841951,345.349468637584,586.139005173917,461.117046071168,572.793336331966,715.767577433584,3,0,4,3,6,5,vertical,vertical,vertical,vertical,vertical,vertical
1b,17,100210,3,2,130,18,F,NA,constant,heterogeneous,6,present,0.639449119567871,1,vertical,vertical,1,0.682351716059559,red,3,5,1047.42541020038,538.309916622085,622.862115532956,416.568350913644,729.712474266665,845.121732464271,977.137884467044,783.431649086356,1047.42541020038,538.309916622085,870.287525733335,354.878267535729,622.862115532956,416.568350913644,552.574589799621,661.690083377915,3,6,4,0,5,0,vertical,vertical,vertical,horizontal,horizontal,vertical
1b,17,100210,3,3,131,18,F,NA,constant,heterogeneous,6,absent,1.52004194259644,1,horizontal,horizontal,1,0.776467962984769,red,1,NaN,688.215357568785,829.192481806288,NaN,NaN,688.215357568785,829.192481806288,942.594190385041,811.404581001536,1054.37883281626,582.212099195248,911.784642431215,370.807518193712,657.405809614959,388.595418998464,545.621167183745,617.787900804752,4,0,3,0,5,6,horizontal,horizontal,vertical,horizontal,vertical,horizontal
1b,17,100210,3,4,132,18,F,NA,constant,heterogeneous,4,present,1.00001811981201,1,horizontal,horizontal,1,1.07058123462605,red,3,2,619.68777079743,419.68777079743,980.31222920257,419.68777079743,980.31222920257,780.31222920257,980.31222920257,419.68777079743,619.68777079743,419.68777079743,619.68777079743,780.31222920257,0,0,0,0,6,3,4,6,NaN,NaN,horizontal,horizontal,horizontal,horizontal,none,none
1b,17,100210,3,5,133,18,F,NA,constant,heterogeneous,3,present,0.937575101852417,1,vertical,vertical,1,0.858819679044328,red,1,2,931.334709102064,818.577661679039,923.626453162816,376.971974679454,931.334709102064,818.577661679039,923.626453162816,376.971974679454,545.03883773512,604.450363641507,0,0,0,0,0,0,4,6,0,NaN,NaN,NaN,vertical,horizontal,vertical,none,none,none
1b,17,100210,3,6,134,18,F,NA,constant,heterogeneous,6,present,1.12771201133728,1,horizontal,horizontal,1,0.964700456835189,red,1,6,899.636437764765,834.728737630372,646.537169096228,803.65205506206,899.636437764765,834.728737630372,1053.09926866854,631.076682568313,953.462830903772,396.34794493794,700.363562235235,365.271262369628,546.900731331463,568.923317431687,646.537169096228,803.65205506206,4,6,0,3,0,3,horizontal,vertical,horizontal,vertical,vertical,horizontal
1b,17,100210,3,7,135,18,F,NA,constant,heterogeneous,5,absent,0.561197996139526,1,horizontal,horizontal,1,0.941171395103886,red,5,NaN,545.03883773512,595.549636358493,NaN,NaN,716.980120613425,841.107236777826,1003.65205506206,753.462830903772,1008.88377129369,453.738008730483,725.445215295702,356.142287229426,545.03883773512,595.549636358493,0,0,5,0,6,0,4,NaN,vertical,horizontal,vertical,vertical,horizontal,none
1b,17,100210,3,8,136,18,F,NA,constant,heterogeneous,5,absent,1.83435010910034,1,horizontal,horizontal,1,0.88234874077563,red,3,NaN,874.554784704298,356.142287229426,NaN,NaN,883.019879386575,841.107236777826,1054.96116226488,595.549636358493,874.554784704298,356.142287229426,591.116228706307,453.738008730483,596.34794493794,753.462830903772,0,0,3,0,4,5,0,NaN,horizontal,vertical,horizontal,horizontal,vertical,none
1b,17,100210,3,9,137,18,F,NA,constant,heterogeneous,5,present,0.845464944839478,1,vertical,vertical,1,0.917642333372584,red,1,2,835.489140744817,852.518357529101,1051.12597701811,644.280285305067,835.489140744817,852.518357529101,1051.12597701811,644.280285305067,919.715248510402,374.848363820974,622.862115532956,416.568350913644,570.807518193712,711.784642431215,0,0,4,3,6,6,3,NaN,vertical,vertical,vertical,vertical,horizontal,none
1b,17,100210,3,10,138,18,F,NA,constant,heterogeneous,6,absent,1.46628499031067,0,horizontal,vertical,1,0.78823249385042,red,2,NaN,1029.19248180629,711.784642431215,NaN,NaN,817.787900804752,854.378832816255,1029.19248180629,711.784642431215,1011.40458100154,457.40580961496,782.212099195248,345.621167183745,570.807518193712,488.215357568785,588.595418998464,742.594190385041,3,4,6,3,5,6,horizontal,horizontal,vertical,vertical,vertical,vertical
1b,17,100210,3,11,139,18,F,NA,constant,heterogeneous,6,present,0.728916168212891,1,vertical,vertical,1,1.0588167037604,red,5,1,546.900731331463,568.923317431687,899.636437764765,834.728737630372,899.636437764765,834.728737630372,1053.09926866854,631.076682568313,953.462830903772,396.34794493794,700.363562235235,365.271262369628,546.900731331463,568.923317431687,646.537169096228,803.65205506206,6,5,3,0,4,6,vertical,vertical,horizontal,vertical,vertical,vertical
1b,17,100210,3,12,140,18,F,NA,constant,heterogeneous,3,present,0.675206899642944,1,horizontal,horizontal,1,0.97646498770084,red,2,3,1055,600,672.5,379.163522034968,672.5,820.836477965032,1055,600,672.5,379.163522034968,0,0,0,0,0,0,6,4,0,NaN,NaN,NaN,horizontal,horizontal,vertical,none,none,none
1b,17,100210,3,13,141,18,F,NA,constant,heterogeneous,4,present,0.858561038970947,1,vertical,vertical,1,0.670587185193907,red,4,2,560.378381699593,687.215136548046,1039.62161830041,512.784863451954,887.215136548046,839.621618300407,1039.62161830041,512.784863451954,712.784863451954,360.378381699593,560.378381699593,687.215136548046,0,0,0,0,3,6,6,4,NaN,NaN,vertical,horizontal,vertical,vertical,none,none
1b,17,100210,3,14,142,18,F,NA,constant,heterogeneous,5,absent,1.53444910049438,1,horizontal,horizontal,1,0.917642333372584,red,4,NaN,773.345241866748,346.39691668109,NaN,NaN,672.5,820.836477965032,970.628304621509,789.501930496736,1032.95409169886,496.282156015671,773.345241866748,346.39691668109,550.57236181288,546.982518841471,0,0,5,0,6,4,0,NaN,vertical,horizontal,horizontal,horizontal,vertical,none
1b,17,100210,3,15,143,18,F,NA,constant,heterogeneous,3,absent,0.92960000038147,1,horizontal,horizontal,1,0.823526086447374,red,3,NaN,588.595418998464,457.40580961496,NaN,NaN,782.212099195248,854.378832816255,1029.19248180629,488.215357568785,588.595418998464,457.40580961496,0,0,0,0,0,0,6,3,4,NaN,NaN,NaN,horizontal,horizontal,horizontal,none,none,none
1b,17,100210,3,16,144,18,F,NA,constant,heterogeneous,3,absent,0.799758195877075,1,vertical,vertical,1,0.964700456835189,red,1,NaN,992.450942956807,767.295052392579,NaN,NaN,992.450942956807,767.295052392579,848.656293821019,349.685068220846,558.892763222174,683.019879386575,0,0,0,0,0,0,4,0,3,NaN,NaN,NaN,vertical,horizontal,vertical,none,none,none
1b,17,100210,3,17,145,18,F,NA,constant,heterogeneous,4,present,1.6402850151062,1,vertical,vertical,1,0.811761555581723,red,2,3,1046.31108570371,665.998856501143,865.998856501143,353.688914296288,734.001143498857,846.311085703712,1046.31108570371,665.998856501143,865.998856501143,353.688914296288,553.688914296288,534.001143498857,0,0,0,0,5,4,5,6,NaN,NaN,vertical,vertical,horizontal,horizontal,none,none
1b,17,100210,3,18,146,18,F,NA,constant,heterogeneous,6,absent,1.918377161026,1,vertical,vertical,1,0.858819679044328,red,2,NaN,973.909581815937,786.495193912888,NaN,NaN,725.445215295702,843.857712770574,973.909581815937,786.495193912888,1048.46436652023,542.637481142314,874.554784704298,356.142287229426,626.090418184063,413.504806087112,551.535633479765,657.362518857686,3,4,0,6,5,0,horizontal,vertical,vertical,vertical,vertical,vertical
1b,17,100210,3,19,147,18,F,NA,constant,heterogeneous,4,absent,0.897022008895874,1,horizontal,horizontal,1,1.01175858029779,red,3,NaN,891.383827134052,361.936991243214,NaN,NaN,708.616172865948,838.063008756786,1038.06300875679,691.383827134052,891.383827134052,361.936991243214,561.936991243214,508.616172865948,0,0,0,0,5,6,4,6,NaN,NaN,vertical,horizontal,horizontal,horizontal,none,none
1b,17,100210,3,20,148,18,F,NA,constant,heterogeneous,5,present,1.27786207199097,1,vertical,vertical,1,0.905877802506933,red,4,3,795.549636358493,345.03883773512,1041.10723677783,516.980120613425,653.738008730483,808.883771293693,953.462830903772,803.65205506206,1041.10723677783,516.980120613425,795.549636358493,345.03883773512,556.142287229426,525.445215295702,0,0,3,0,6,4,5,NaN,horizontal,vertical,vertical,vertical,vertical,none
1b,17,100210,3,21,149,18,F,NA,constant,heterogeneous,5,present,NaN,0,horizontal,none,0,0.717645308656513,red,2,5,960.476699717708,798.172220171528,553.688914296288,534.001143498857,661.117046071168,813.860994826083,960.476699717708,798.172220171528,1038.06300875679,508.616172865948,786.654331158049,345.349468637584,553.688914296288,534.001143498857,0,0,3,4,5,6,6,NaN,horizontal,horizontal,vertical,vertical,horizontal,none
1b,17,100210,3,22,150,18,F,NA,constant,heterogeneous,3,absent,0.682393074035645,1,vertical,vertical,1,0.823526086447374,red,3,NaN,550.57236181288,653.017481158529,NaN,NaN,970.628304621509,789.501930496736,878.799333565612,357.480588344736,550.57236181288,653.017481158529,0,0,0,0,0,0,3,6,4,NaN,NaN,NaN,horizontal,vertical,vertical,none,none,none
1b,17,100210,3,23,151,18,F,NA,constant,heterogeneous,3,absent,1.2455689907074,0,horizontal,vertical,1,0.647058123462605,red,2,NaN,1054.37883281626,617.787900804752,NaN,NaN,657.405809614959,811.404581001536,1054.37883281626,617.787900804752,688.215357568785,370.807518193712,0,0,0,0,0,0,5,4,6,NaN,NaN,NaN,horizontal,horizontal,vertical,none,none,none
1b,17,100210,3,24,152,18,F,NA,constant,heterogeneous,6,present,1.43062305450439,1,horizontal,horizontal,1,0.823526086447374,red,6,3,610.498069503264,770.628304621509,989.501930496736,429.371695378491,853.017481158529,849.42763818712,1042.51941165526,678.799333565612,989.501930496736,429.371695378491,746.982518841471,350.57236181288,557.480588344736,521.200666434388,610.498069503264,770.628304621509,5,5,6,3,6,4,horizontal,vertical,horizontal,vertical,vertical,horizontal
1b,17,100210,3,25,153,18,F,NA,constant,heterogeneous,6,present,1.92866587638855,0,vertical,horizontal,1,0.658822654328256,red,1,2,704.475318678942,836.431882914531,956.993676208043,800.942742169714,704.475318678942,836.431882914531,956.993676208043,800.942742169714,1052.5183575291,564.510859255183,895.524681321058,363.568117085469,643.006323791957,399.057257830286,547.481642470899,635.489140744817,4,3,6,6,5,3,vertical,horizontal,vertical,horizontal,vertical,vertical
1b,17,100210,3,26,154,18,F,NA,constant,heterogeneous,5,present,1.70094203948975,1,horizontal,horizontal,1,1.07058123462605,red,4,3,558.892763222174,516.980120613425,804.450363641507,345.03883773512,946.261991269517,808.883771293693,1043.85771277057,525.445215295702,804.450363641507,345.03883773512,558.892763222174,516.980120613425,646.537169096228,803.65205506206,0,0,5,3,0,4,6,NaN,horizontal,horizontal,vertical,horizontal,horizontal,none
1b,17,100210,3,27,155,18,F,NA,constant,heterogeneous,4,absent,1.48131108283997,1,vertical,vertical,1,0.705880777790861,red,1,NaN,907.767656743878,831.108485694346,NaN,NaN,907.767656743878,831.108485694346,1031.10848569435,492.232343256122,692.232343256122,368.891514305654,568.891514305654,707.767656743878,0,0,0,0,4,0,6,3,NaN,NaN,vertical,horizontal,vertical,horizontal,none,none
1b,17,100210,3,28,156,18,F,NA,constant,heterogeneous,3,present,0.855353116989136,1,vertical,vertical,1,0.811761555581723,red,1,3,826.654758133252,853.60308331891,567.045908301137,496.282156015671,826.654758133252,853.60308331891,1006.29933356561,450.114760665419,567.045908301137,496.282156015671,0,0,0,0,0,0,4,6,6,NaN,NaN,NaN,vertical,vertical,horizontal,none,none,none
1b,17,100210,3,29,157,18,F,NA,constant,heterogeneous,5,absent,1.31862902641296,1,horizontal,horizontal,1,1.09411029635735,red,2,NaN,1048.46436652023,657.362518857686,NaN,NaN,822.224714400653,854.029648013395,1048.46436652023,657.362518857686,931.334709102064,381.422338320961,632.704947607421,407.549057043193,565.271262369628,699.636437764765,0,0,0,4,5,6,3,NaN,horizontal,horizontal,horizontal,horizontal,horizontal,none
1b,17,100210,3,30,158,18,F,NA,constant,heterogeneous,6,absent,1.7737238407135,0,vertical,horizontal,1,0.823526086447374,red,4,NaN,755.719714694933,348.874022981887,NaN,NaN,844.280285305067,851.125977018113,1039.62161830041,687.215136548046,995.341332995339,436.089159529932,755.719714694933,348.874022981887,560.378381699593,512.784863451954,604.658667004661,763.910840470068,6,5,5,4,0,3,horizontal,vertical,horizontal,vertical,horizontal,vertical
1b,17,100210,3,31,159,18,F,NA,constant,heterogeneous,5,absent,0.807288885116577,1,vertical,vertical,1,1.09411029635735,red,2,NaN,1034.72873763037,699.636437764765,NaN,NaN,777.775285599347,854.029648013395,1034.72873763037,699.636437764765,967.295052392579,407.549057043193,668.665290897936,381.422338320961,551.535633479765,657.362518857686,0,0,6,4,0,5,6,NaN,horizontal,vertical,horizontal,vertical,vertical,none
1b,17,100210,3,32,160,18,F,NA,constant,heterogeneous,6,present,NaN,0,horizontal,none,0,0.705880777790861,red,3,4,927.5,379.163522034968,672.5,379.163522034968,927.5,820.836477965032,1055,600,927.5,379.163522034968,672.5,379.163522034968,545,600,672.5,820.836477965032,5,0,4,0,5,6,vertical,horizontal,horizontal,vertical,horizontal,horizontal
1b,17,100210,3,33,161,18,F,NA,constant,heterogeneous,5,absent,0.8402419090271,1,vertical,vertical,1,0.917642333372584,red,3,NaN,980.31222920257,419.68777079743,NaN,NaN,760.109211414741,851.86052685176,1027.20666366803,715.767577433584,980.31222920257,419.68777079743,684.232422566416,372.793336331966,548.13947314824,639.890788585259,0,0,0,6,4,3,3,NaN,vertical,horizontal,vertical,horizontal,horizontal,none
1b,17,100210,3,34,162,18,F,NA,constant,heterogeneous,6,absent,0.780431985855103,1,horizontal,horizontal,1,0.764703432119118,red,3,NaN,935.129412379467,383.747735480111,NaN,NaN,919.715248510402,825.151636179026,1054.84466088987,608.899371659138,935.129412379467,383.747735480111,680.284751489598,374.848363820974,545.155339110131,591.100628340862,664.870587620533,816.252264519889,5,3,4,0,0,5,vertical,vertical,horizontal,vertical,vertical,horizontal
1b,17,100210,3,35,163,18,F,NA,constant,heterogeneous,6,absent,1.10110902786255,0,horizontal,vertical,1,1.0352876420291,red,6,NaN,568.891514305654,707.767656743878,NaN,NaN,777.775285599347,854.029648013395,1008.88377129369,746.261991269517,1031.10848569435,492.232343256122,822.224714400653,345.970351986605,591.116228706307,453.738008730483,568.891514305654,707.767656743878,0,3,5,3,0,4,horizontal,vertical,vertical,horizontal,vertical,horizontal
1b,17,100210,3,36,164,18,F,NA,constant,heterogeneous,5,absent,1.0676691532135,1,vertical,vertical,1,1.02352311116345,red,3,NaN,1006.29933356561,450.114760665419,NaN,NaN,721.200666434388,842.519411655264,1006.29933356561,749.885239334581,1006.29933356561,450.114760665419,721.200666434388,357.480588344736,545,600,0,0,0,3,4,6,5,NaN,horizontal,horizontal,vertical,vertical,horizontal,none
1b,17,100210,3,37,165,18,F,NA,constant,heterogeneous,3,present,0.891244888305664,1,horizontal,horizontal,1,0.705880777790861,red,2,1,946.261991269517,391.116228706307,907.767656743878,831.108485694346,907.767656743878,831.108485694346,946.261991269517,391.116228706307,545.970351986605,577.775285599347,0,0,0,0,0,0,6,4,0,NaN,NaN,NaN,vertical,horizontal,horizontal,none,none,none
1b,17,100210,3,38,166,18,F,NA,constant,heterogeneous,4,present,1.24986600875854,1,vertical,vertical,1,1.0352876420291,red,4,2,601.827779828472,760.476699717708,998.172220171528,439.523300282291,960.476699717708,798.172220171528,998.172220171528,439.523300282291,639.523300282292,401.827779828472,601.827779828472,760.476699717708,0,0,0,0,5,3,0,4,NaN,NaN,horizontal,vertical,vertical,vertical,none,none
1b,17,100210,3,39,167,18,F,NA,constant,heterogeneous,4,absent,1.11200594902039,1,vertical,vertical,1,0.847055148178676,red,4,NaN,596.34794493794,446.537169096228,NaN,NaN,646.537169096228,803.65205506206,1003.65205506206,753.462830903772,953.462830903772,396.34794493794,596.34794493794,446.537169096228,0,0,0,0,6,3,0,4,NaN,NaN,horizontal,vertical,horizontal,vertical,none,none
1b,17,100210,3,40,168,18,F,NA,constant,heterogeneous,6,present,1.41905212402344,1,horizontal,horizontal,1,0.623529061731303,red,3,4,1052.5183575291,564.510859255183,895.524681321058,363.568117085469,704.475318678942,836.431882914531,956.993676208043,800.942742169714,1052.5183575291,564.510859255183,895.524681321058,363.568117085469,643.006323791957,399.057257830286,547.481642470899,635.489140744817,3,5,4,0,6,3,vertical,vertical,horizontal,horizontal,vertical,horizontal
1b,17,100210,3,41,169,18,F,NA,constant,heterogeneous,4,absent,1.52812814712524,1,vertical,vertical,1,0.835290617313025,red,1,NaN,874.554784704298,843.857712770574,NaN,NaN,874.554784704298,843.857712770574,1043.85771277057,525.445215295702,725.445215295702,356.142287229426,556.142287229426,674.554784704298,0,0,0,0,4,0,3,5,NaN,NaN,vertical,vertical,horizontal,horizontal,none,none
1b,17,100210,3,42,170,18,F,NA,constant,heterogeneous,3,present,0.759666919708252,1,horizontal,horizontal,1,0.635293592596954,red,2,1,1054.84466088987,608.899371659138,664.870587620533,816.252264519889,664.870587620533,816.252264519889,1054.84466088987,608.899371659138,680.284751489598,374.848363820974,0,0,0,0,0,0,5,4,5,NaN,NaN,NaN,vertical,horizontal,horizontal,none,none,none
1b,17,100210,3,43,171,18,F,NA,constant,heterogeneous,4,present,1.21777296066284,1,vertical,vertical,1,0.729409839522164,red,3,1,692.232343256122,368.891514305654,907.767656743878,831.108485694346,907.767656743878,831.108485694346,1031.10848569435,492.232343256122,692.232343256122,368.891514305654,568.891514305654,707.767656743878,0,0,0,0,6,0,4,5,NaN,NaN,vertical,horizontal,vertical,vertical,none,none
1b,17,100210,3,44,172,18,F,NA,constant,heterogeneous,4,present,1.17193698883057,1,horizontal,horizontal,1,0.69411624692521,red,3,4,782.212099195248,345.621167183745,545.621167183745,617.787900804752,817.787900804752,854.378832816255,1054.37883281626,582.212099195248,782.212099195248,345.621167183745,545.621167183745,617.787900804752,0,0,0,0,3,0,4,5,NaN,NaN,horizontal,horizontal,horizontal,horizontal,none,none
1b,17,100210,3,45,173,18,F,NA,constant,heterogeneous,3,absent,0.887338876724243,0,horizontal,vertical,1,0.78823249385042,red,1,NaN,579.163522034968,727.5,NaN,NaN,579.163522034968,727.5,1020.83647796503,727.5,800,345,0,0,0,0,0,0,4,3,6,NaN,NaN,NaN,horizontal,horizontal,horizontal,none,none,none
1b,17,100210,3,46,174,18,F,NA,constant,heterogeneous,3,present,1.16167402267456,1,vertical,vertical,1,1.02352311116345,red,2,1,1031.10848569435,707.767656743878,591.116228706307,746.261991269517,591.116228706307,746.261991269517,1031.10848569435,707.767656743878,777.775285599347,345.970351986605,0,0,0,0,0,0,0,4,3,NaN,NaN,NaN,vertical,vertical,horizontal,none,none,none
1b,17,100210,3,47,175,18,F,NA,constant,heterogeneous,6,absent,NaN,0,vertical,none,0,0.811761555581723,red,5,NaN,547.481642470899,564.510859255183,NaN,NaN,895.524681321058,836.431882914531,1052.5183575291,635.489140744817,956.993676208043,399.057257830286,704.475318678942,363.568117085469,547.481642470899,564.510859255183,643.006323791957,800.942742169714,0,3,5,6,4,3,vertical,horizontal,horizontal,horizontal,vertical,vertical
1b,17,100210,3,48,176,18,F,NA,constant,heterogeneous,3,present,1.02461910247803,1,vertical,vertical,1,0.741174370387815,red,3,2,613.504806087112,426.090418184063,1043.85771277057,525.445215295702,742.637481142314,848.464366520235,1043.85771277057,525.445215295702,613.504806087112,426.090418184063,0,0,0,0,0,0,3,0,4,NaN,NaN,NaN,vertical,vertical,vertical,none,none,none
1b,17,100210,3,49,177,18,F,NA,constant,heterogeneous,4,absent,1.71105194091797,0,horizontal,vertical,1,0.69411624692521,red,4,NaN,551.535633479765,657.362518857686,NaN,NaN,857.362518857686,848.464366520235,1048.46436652023,542.637481142314,742.637481142314,351.535633479765,551.535633479765,657.362518857686,0,0,0,0,3,3,0,4,NaN,NaN,vertical,horizontal,vertical,horizontal,none,none
1b,17,100210,3,50,178,18,F,NA,constant,heterogeneous,4,present,0.777935028076172,1,horizontal,horizontal,1,0.623529061731303,red,3,2,777.775285599347,345.970351986605,1054.0296480134,577.775285599347,822.224714400653,854.029648013395,1054.0296480134,577.775285599347,777.775285599347,345.970351986605,545.970351986605,622.224714400653,0,0,0,0,5,3,4,6,NaN,NaN,vertical,vertical,horizontal,horizontal,none,none
1b,17,100210,3,51,179,18,F,NA,constant,heterogeneous,5,present,1.28012108802795,0,horizontal,vertical,1,0.917642333372584,red,2,4,1051.12597701811,555.719714694933,570.807518193712,488.215357568785,919.715248510402,825.151636179026,1051.12597701811,555.719714694933,835.489140744817,347.4816424709,570.807518193712,488.215357568785,622.862115532956,783.431649086356,0,0,6,4,3,3,5,NaN,vertical,horizontal,horizontal,horizontal,vertical,none
1b,17,100210,3,52,180,18,F,NA,constant,heterogeneous,4,absent,1.44249892234802,1,horizontal,horizontal,1,1.0352876420291,red,3,NaN,883.019879386575,358.892763222174,NaN,NaN,716.980120613425,841.107236777826,1041.10723677783,683.019879386575,883.019879386575,358.892763222174,558.892763222174,516.980120613425,0,0,0,0,3,6,4,5,NaN,NaN,vertical,horizontal,horizontal,horizontal,none,none
1b,17,100210,3,53,181,18,F,NA,constant,heterogeneous,4,present,1.12731504440308,1,horizontal,horizontal,1,0.78823249385042,red,4,1,546.39691668109,573.345241866748,773.345241866748,853.60308331891,773.345241866748,853.60308331891,1053.60308331891,626.654758133252,826.654758133252,346.39691668109,546.39691668109,573.345241866748,0,0,0,0,5,6,0,4,NaN,NaN,vertical,vertical,horizontal,horizontal,none,none
1b,17,100210,3,54,182,18,F,NA,constant,heterogeneous,4,absent,0.777912139892578,1,vertical,vertical,1,1.01175858029779,red,4,NaN,554.878267535729,529.712474266665,NaN,NaN,729.712474266665,845.121732464271,1045.12173246427,670.287525733335,870.287525733335,354.878267535729,554.878267535729,529.712474266665,0,0,0,0,3,3,5,4,NaN,NaN,vertical,horizontal,vertical,vertical,none,none
1b,17,100210,3,55,183,18,F,NA,constant,heterogeneous,3,present,0.70720100402832,1,horizontal,horizontal,1,1.0588167037604,red,2,1,983.431649086356,422.862115532956,861.690083377915,847.425410200379,861.690083377915,847.425410200379,983.431649086356,422.862115532956,554.878267535729,529.712474266665,0,0,0,0,0,0,0,4,5,NaN,NaN,NaN,horizontal,horizontal,horizontal,none,none,none
1b,17,100210,3,56,184,18,F,NA,constant,heterogeneous,5,present,1.49961400032043,1,vertical,vertical,1,0.905877802506933,red,1,2,700.363562235235,834.728737630372,992.450942956807,767.295052392579,700.363562235235,834.728737630372,992.450942956807,767.295052392579,1018.57766167904,468.665290897936,742.637481142314,351.535633479765,545.970351986605,577.775285599347,0,0,4,0,6,5,3,NaN,vertical,horizontal,horizontal,vertical,vertical,none
1b,17,100210,3,57,185,18,F,NA,constant,heterogeneous,6,absent,1.79222702980042,1,vertical,vertical,1,0.729409839522164,red,3,NaN,1020.83647796503,472.5,NaN,NaN,800,855,1020.83647796503,727.5,1020.83647796503,472.5,800,345,579.163522034968,472.5,579.163522034968,727.5,0,6,4,5,6,3,vertical,horizontal,vertical,horizontal,horizontal,vertical
1b,17,100210,3,58,186,18,F,NA,constant,heterogeneous,5,absent,0.987311840057373,1,vertical,vertical,1,0.941171395103886,red,4,NaN,672.5,379.163522034968,NaN,NaN,773.345241866748,853.60308331891,1032.95409169886,703.717843984329,970.628304621509,410.498069503264,672.5,379.163522034968,550.57236181288,653.017481158529,0,0,5,3,0,4,5,NaN,vertical,vertical,vertical,vertical,horizontal,none
1b,17,100210,3,59,187,18,F,NA,constant,heterogeneous,5,present,1.04614496231079,1,vertical,vertical,1,0.941171395103886,red,1,5,786.654331158049,854.650531362416,553.688914296288,665.998856501143,786.654331158049,854.650531362416,1038.06300875679,691.383827134052,960.476699717708,401.827779828472,661.117046071168,386.139005173917,553.688914296288,665.998856501143,0,0,4,0,0,6,3,NaN,vertical,horizontal,horizontal,vertical,vertical,none
1b,17,100210,3,60,188,18,F,NA,constant,heterogeneous,3,absent,0.879841804504395,1,horizontal,horizontal,1,0.611764530865651,red,3,NaN,546.39691668109,626.654758133252,NaN,NaN,949.885239334581,806.299333565612,903.717843984329,367.045908301137,546.39691668109,626.654758133252,0,0,0,0,0,0,3,0,4,NaN,NaN,NaN,vertical,vertical,horizontal,none,none,none
1b,17,100210,3,61,189,18,F,NA,constant,heterogeneous,4,absent,1.83958697319031,0,horizontal,vertical,1,0.717645308656513,red,2,NaN,1043.85771277057,674.554784704298,NaN,NaN,725.445215295702,843.857712770574,1043.85771277057,674.554784704298,874.554784704298,356.142287229426,556.142287229426,525.445215295702,0,0,0,0,3,4,5,6,NaN,NaN,horizontal,horizontal,horizontal,horizontal,none,none
1b,17,100210,3,62,190,18,F,NA,constant,heterogeneous,5,present,1.35832905769348,0,horizontal,vertical,1,0.682351716059559,red,2,3,1041.10723677783,683.019879386575,953.462830903772,396.34794493794,795.549636358493,854.96116226488,1041.10723677783,683.019879386575,953.462830903772,396.34794493794,653.738008730483,391.116228706307,556.142287229426,674.554784704298,0,0,6,4,5,3,0,NaN,vertical,horizontal,vertical,vertical,horizontal,none
1b,17,100210,3,63,191,18,F,NA,constant,heterogeneous,3,absent,0.766554117202759,1,vertical,vertical,1,0.635293592596954,red,2,NaN,1051.86052685176,560.109211414741,NaN,NaN,708.616172865948,838.063008756786,1051.86052685176,560.109211414741,639.523300282292,401.827779828472,0,0,0,0,0,0,0,4,6,NaN,NaN,NaN,horizontal,vertical,vertical,none,none,none
1b,17,100210,3,64,192,18,F,NA,constant,heterogeneous,3,absent,0.555817842483521,1,vertical,vertical,1,1.0823457654917,red,2,NaN,1039.62161830041,512.784863451954,NaN,NaN,755.719714694933,851.125977018113,1039.62161830041,512.784863451954,604.658667004661,436.089159529932,0,0,0,0,0,0,5,4,6,NaN,NaN,NaN,horizontal,vertical,horizontal,none,none,none
1b,17,100210,4,1,193,18,F,NA,constant,heterogeneous,4,absent,1.48467898368835,1,horizontal,horizontal,1,0.97646498770084,red,4,NaN,568.891514305654,492.232343256122,NaN,NaN,692.232343256122,831.108485694346,1031.10848569435,707.767656743878,907.767656743878,368.891514305654,568.891514305654,492.232343256122,0,0,0,0,3,5,3,4,NaN,NaN,horizontal,vertical,horizontal,horizontal,none,none
1b,17,100210,4,2,194,18,F,NA,constant,heterogeneous,3,absent,1.04645299911499,1,horizontal,horizontal,1,0.799997024716071,red,3,NaN,576.971974679454,476.373546837184,NaN,NaN,804.450363641507,854.96116226488,1018.57766167904,468.665290897936,576.971974679454,476.373546837184,0,0,0,0,0,0,6,5,4,NaN,NaN,NaN,vertical,vertical,horizontal,none,none,none
1b,17,100210,4,3,195,18,F,NA,constant,heterogeneous,3,present,0.59189510345459,1,vertical,vertical,1,1.01175858029779,red,3,1,563.568117085469,504.475318678942,835.489140744817,852.518357529101,835.489140744817,852.518357529101,1000.94274216971,443.006323791957,563.568117085469,504.475318678942,0,0,0,0,0,0,3,0,4,NaN,NaN,NaN,horizontal,vertical,vertical,none,none,none
1b,17,100210,4,4,196,18,F,NA,constant,heterogeneous,4,absent,0.907212972640991,1,vertical,vertical,1,0.764703432119118,red,1,NaN,857.362518857686,848.464366520235,NaN,NaN,857.362518857686,848.464366520235,1048.46436652023,542.637481142314,742.637481142314,351.535633479765,551.535633479765,657.362518857686,0,0,0,0,4,5,0,6,NaN,NaN,vertical,horizontal,vertical,horizontal,none,none
1b,17,100210,4,5,197,18,F,NA,constant,heterogeneous,3,absent,0.880062818527222,1,horizontal,horizontal,1,0.917642333372584,red,1,NaN,768.923317431687,853.099268668537,NaN,NaN,768.923317431687,853.099268668537,1034.72873763037,500.363562235235,596.34794493794,446.537169096228,0,0,0,0,0,0,4,0,6,NaN,NaN,NaN,horizontal,vertical,vertical,none,none,none
1b,17,100210,4,6,198,18,F,NA,constant,heterogeneous,5,present,1.8298499584198,1,vertical,vertical,1,0.6,red,5,2,545.970351986605,577.775285599347,992.450942956807,767.295052392579,700.363562235235,834.728737630372,992.450942956807,767.295052392579,1018.57766167904,468.665290897936,742.637481142314,351.535633479765,545.970351986605,577.775285599347,0,0,3,0,5,6,4,NaN,horizontal,horizontal,vertical,vertical,vertical,none
1b,17,100210,4,7,199,18,F,NA,constant,heterogeneous,6,present,0.763998031616211,1,horizontal,horizontal,1,0.670587185193907,red,6,1,579.163522034968,727.5,800,855,800,855,1020.83647796503,727.5,1020.83647796503,472.5,800,345,579.163522034968,472.5,579.163522034968,727.5,0,3,5,6,5,4,horizontal,horizontal,vertical,vertical,horizontal,horizontal
1b,17,100210,4,8,200,18,F,NA,constant,heterogeneous,4,absent,0.749379873275757,1,vertical,vertical,1,0.69411624692521,red,4,NaN,601.827779828472,760.476699717708,NaN,NaN,960.476699717708,798.172220171528,998.172220171528,439.523300282291,639.523300282292,401.827779828472,601.827779828472,760.476699717708,0,0,0,0,0,3,3,4,NaN,NaN,vertical,vertical,horizontal,vertical,none,none
1b,17,100210,4,9,201,18,F,NA,constant,heterogeneous,4,present,0.552205085754395,1,vertical,vertical,1,0.78823249385042,red,4,3,548.13947314824,639.890788585259,760.109211414741,348.13947314824,839.890788585259,851.86052685176,1051.86052685176,560.109211414741,760.109211414741,348.13947314824,548.13947314824,639.890788585259,0,0,0,0,3,0,5,4,NaN,NaN,horizontal,horizontal,horizontal,vertical,none,none
1b,17,100210,4,10,202,18,F,NA,constant,heterogeneous,3,present,0.983144998550415,1,vertical,vertical,1,0.988229518566491,red,2,1,1020.83647796503,472.5,800,855,800,855,1020.83647796503,472.5,579.163522034968,472.5,0,0,0,0,0,0,3,4,6,NaN,NaN,NaN,horizontal,vertical,vertical,none,none,none
1b,17,100210,4,11,203,18,F,NA,constant,heterogeneous,3,absent,0.712330102920532,1,vertical,vertical,1,1.0588167037604,red,3,NaN,554.878267535729,529.712474266665,NaN,NaN,861.690083377915,847.425410200379,983.431649086356,422.862115532956,554.878267535729,529.712474266665,0,0,0,0,0,0,5,5,4,NaN,NaN,NaN,vertical,horizontal,vertical,none,none,none
1b,17,100210,4,12,204,18,F,NA,constant,heterogeneous,4,absent,1.16854500770569,1,horizontal,horizontal,1,0.682351716059559,red,1,NaN,738.309916622085,847.425410200379,NaN,NaN,738.309916622085,847.425410200379,1047.42541020038,661.690083377915,861.690083377915,352.574589799621,552.574589799621,538.309916622085,0,0,0,0,4,6,3,3,NaN,NaN,horizontal,horizontal,vertical,horizontal,none,none
1b,17,100210,4,13,205,18,F,NA,constant,heterogeneous,3,present,0.570905923843384,1,horizontal,horizontal,1,0.941171395103886,red,3,1,551.535633479765,657.362518857686,973.909581815937,786.495193912888,973.909581815937,786.495193912888,874.554784704298,356.142287229426,551.535633479765,657.362518857686,0,0,0,0,0,0,5,0,4,NaN,NaN,NaN,vertical,horizontal,horizontal,none,none,none
1b,17,100210,4,14,206,18,F,NA,constant,heterogeneous,3,absent,1.54457998275757,1,horizontal,horizontal,1,0.705880777790861,red,2,NaN,989.501930496736,429.371695378491,NaN,NaN,853.017481158529,849.42763818712,989.501930496736,429.371695378491,557.480588344736,521.200666434388,0,0,0,0,0,0,6,4,0,NaN,NaN,NaN,vertical,horizontal,horizontal,none,none,none
1b,17,100210,4,15,207,18,F,NA,constant,heterogeneous,4,present,1.31081199645996,1,horizontal,horizontal,1,0.952935925969538,red,3,2,777.775285599347,345.970351986605,1054.0296480134,577.775285599347,822.224714400653,854.029648013395,1054.0296480134,577.775285599347,777.775285599347,345.970351986605,545.970351986605,622.224714400653,0,0,0,0,5,0,4,3,NaN,NaN,horizontal,horizontal,horizontal,vertical,none,none
1b,17,100210,4,16,208,18,F,NA,constant,heterogeneous,6,present,0.715844869613647,1,horizontal,horizontal,1,0.941171395103886,red,5,6,626.090418184063,413.504806087112,551.535633479765,657.362518857686,725.445215295702,843.857712770574,973.909581815937,786.495193912888,1048.46436652023,542.637481142314,874.554784704298,356.142287229426,626.090418184063,413.504806087112,551.535633479765,657.362518857686,5,6,0,6,4,3,vertical,vertical,horizontal,horizontal,horizontal,vertical
1b,17,100210,4,17,209,18,F,NA,constant,heterogeneous,3,absent,0.974586009979248,1,vertical,vertical,1,1.02352311116345,red,2,NaN,1047.42541020038,661.690083377915,NaN,NaN,622.862115532956,783.431649086356,1047.42541020038,661.690083377915,729.712474266665,354.878267535729,0,0,0,0,0,0,6,4,5,NaN,NaN,NaN,horizontal,vertical,vertical,none,none,none
1b,17,100210,4,18,210,18,F,NA,constant,heterogeneous,5,absent,1.14982080459595,1,vertical,vertical,1,0.97646498770084,red,3,NaN,1006.29933356561,450.114760665419,NaN,NaN,721.200666434388,842.519411655264,1006.29933356561,749.885239334581,1006.29933356561,450.114760665419,721.200666434388,357.480588344736,545,600,0,0,0,0,4,5,3,NaN,vertical,vertical,vertical,horizontal,vertical,none
1b,17,100210,4,19,211,18,F,NA,constant,heterogeneous,4,present,0.986087799072266,1,horizontal,horizontal,1,1.0588167037604,red,2,4,1006.29933356561,749.885239334581,593.700666434388,450.114760665419,650.114760665419,806.299333565612,1006.29933356561,749.885239334581,949.885239334581,393.700666434388,593.700666434388,450.114760665419,0,0,0,0,6,4,5,3,NaN,NaN,horizontal,horizontal,horizontal,horizontal,none,none
1b,17,100210,4,20,212,18,F,NA,constant,heterogeneous,5,absent,1.62393403053284,1,vertical,vertical,1,1.09411029635735,red,4,NaN,729.712474266665,354.878267535729,NaN,NaN,712.784863451954,839.621618300407,1000.94274216971,756.993676208043,1011.40458100154,457.40580961496,729.712474266665,354.878267535729,545.155339110131,591.100628340862,0,0,5,0,3,4,5,NaN,horizontal,vertical,horizontal,vertical,vertical,none
1b,17,100210,4,21,213,18,F,NA,constant,heterogeneous,6,present,1.90796995162964,1,vertical,vertical,1,0.97646498770084,red,4,1,919.715248510402,374.848363820974,680.284751489598,825.151636179026,680.284751489598,825.151636179026,935.129412379467,816.252264519889,1054.84466088987,591.100628340862,919.715248510402,374.848363820974,664.870587620533,383.747735480111,545.155339110131,608.899371659138,3,6,0,4,3,0,vertical,horizontal,horizontal,vertical,horizontal,vertical
1b,17,100210,4,22,214,18,F,NA,constant,heterogeneous,6,absent,1.44743299484253,1,vertical,vertical,1,0.847055148178676,red,2,NaN,1008.88377129369,746.261991269517,NaN,NaN,777.775285599347,854.029648013395,1008.88377129369,746.261991269517,1031.10848569435,492.232343256122,822.224714400653,345.970351986605,591.116228706307,453.738008730483,568.891514305654,707.767656743878,0,4,5,5,6,0,vertical,vertical,vertical,vertical,horizontal,horizontal
1b,17,100210,4,23,215,18,F,NA,constant,heterogeneous,4,absent,1.12597799301147,1,horizontal,horizontal,1,0.670587185193907,red,2,NaN,992.450942956807,767.295052392579,NaN,NaN,632.704947607421,792.450942956807,992.450942956807,767.295052392579,967.295052392579,407.549057043193,607.549057043193,432.704947607421,0,0,0,0,5,4,0,6,NaN,NaN,vertical,horizontal,vertical,horizontal,none,none
1b,17,100210,4,24,216,18,F,NA,constant,heterogeneous,5,absent,1.34682297706604,1,horizontal,horizontal,1,0.905877802506933,red,1,NaN,919.715248510402,825.151636179026,NaN,NaN,919.715248510402,825.151636179026,1051.12597701811,555.719714694933,835.489140744817,347.4816424709,570.807518193712,488.215357568785,622.862115532956,783.431649086356,0,0,4,6,5,5,3,NaN,horizontal,horizontal,vertical,vertical,horizontal,none
1b,17,100210,4,25,217,18,F,NA,constant,heterogeneous,3,present,0.73842716217041,1,vertical,vertical,1,0.823526086447374,red,3,2,696.282156015671,367.045908301137,1053.60308331891,626.654758133252,650.114760665419,806.299333565612,1053.60308331891,626.654758133252,696.282156015671,367.045908301137,0,0,0,0,0,0,0,0,4,NaN,NaN,NaN,horizontal,horizontal,vertical,none,none,none
1b,17,100210,4,26,218,18,F,NA,constant,heterogeneous,5,present,0.734724044799805,1,vertical,vertical,1,0.670587185193907,red,2,5,1054.65053136242,586.654331158049,601.827779828472,760.476699717708,891.383827134052,838.063008756786,1054.65053136242,586.654331158049,865.998856501143,353.688914296288,586.139005173917,461.117046071168,601.827779828472,760.476699717708,0,0,5,4,3,5,0,NaN,vertical,vertical,vertical,vertical,horizontal,none
1b,17,100210,4,27,219,18,F,NA,constant,heterogeneous,3,absent,0.863357067108154,1,vertical,vertical,1,0.682351716059559,red,1,NaN,808.899371659138,854.844660889869,NaN,NaN,808.899371659138,854.844660889869,1016.25226451989,464.870587620533,574.848363820974,480.284751489598,0,0,0,0,0,0,4,0,5,NaN,NaN,NaN,vertical,horizontal,horizontal,none,none,none
1b,17,100210,4,28,220,18,F,NA,constant,heterogeneous,5,present,0.88116979598999,1,vertical,vertical,1,0.823526086447374,red,5,2,557.480588344736,678.799333565612,1042.51941165526,678.799333565612,800,855,1042.51941165526,678.799333565612,949.885239334581,393.700666434388,650.114760665419,393.700666434388,557.480588344736,678.799333565612,0,0,5,0,0,6,4,NaN,horizontal,vertical,horizontal,horizontal,vertical,none
1b,17,100210,4,29,221,18,F,NA,constant,heterogeneous,5,absent,1.07225584983826,1,vertical,vertical,1,1.0588167037604,red,2,NaN,1011.40458100154,742.594190385041,NaN,NaN,729.712474266665,845.121732464271,1011.40458100154,742.594190385041,1000.94274216971,443.006323791957,712.784863451954,360.378381699593,545.155339110131,608.899371659138,0,0,3,4,6,0,0,NaN,horizontal,vertical,horizontal,vertical,vertical,none
1b,17,100210,4,30,222,18,F,NA,constant,heterogeneous,6,absent,1.80829405784607,1,vertical,vertical,1,0.917642333372584,red,4,NaN,907.767656743878,368.891514305654,NaN,NaN,692.232343256122,831.108485694346,946.261991269517,808.883771293693,1054.0296480134,577.775285599347,907.767656743878,368.891514305654,653.738008730483,391.116228706307,545.970351986605,622.224714400653,3,5,0,4,3,5,horizontal,vertical,vertical,vertical,vertical,horizontal
1b,17,100210,4,31,223,18,F,NA,constant,heterogeneous,6,absent,1.55299806594849,0,horizontal,vertical,1,0.811761555581723,red,3,NaN,986.495193912888,426.090418184063,NaN,NaN,857.362518857686,848.464366520235,1043.85771277057,674.554784704298,986.495193912888,426.090418184063,742.637481142314,351.535633479765,556.142287229426,525.445215295702,613.504806087112,773.909581815937,3,6,4,0,0,5,vertical,vertical,horizontal,horizontal,horizontal,vertical
1b,17,100210,4,32,224,18,F,NA,constant,heterogeneous,4,present,1.03431296348572,1,vertical,vertical,1,0.905877802506933,red,3,1,808.899371659138,345.155339110131,791.100628340862,854.844660889869,791.100628340862,854.844660889869,1054.84466088987,608.899371659138,808.899371659138,345.155339110131,545.155339110131,591.100628340862,0,0,0,0,5,0,4,3,NaN,NaN,vertical,vertical,vertical,vertical,none,none
1b,17,100210,4,33,225,18,F,NA,constant,heterogeneous,3,absent,0.794862985610962,0,horizontal,vertical,1,0.776467962984769,red,1,NaN,760.109211414741,851.86052685176,NaN,NaN,760.109211414741,851.86052685176,1038.06300875679,508.616172865948,601.827779828472,439.523300282291,0,0,0,0,0,0,4,3,6,NaN,NaN,NaN,horizontal,vertical,vertical,none,none,none
1b,17,100210,4,34,226,18,F,NA,constant,heterogeneous,3,present,1.6669659614563,1,horizontal,horizontal,1,0.6,red,1,2,583.747735480111,735.129412379467,1025.15163617903,719.715248510402,583.747735480111,735.129412379467,1025.15163617903,719.715248510402,791.100628340862,345.155339110131,0,0,0,0,0,0,4,6,5,NaN,NaN,NaN,horizontal,horizontal,vertical,none,none,none
1b,17,100210,4,35,227,18,F,NA,constant,heterogeneous,5,present,1.01224517822266,1,horizontal,horizontal,1,0.999994049432143,red,2,5,1020.83647796503,727.5,546.39691668109,626.654758133252,746.982518841471,849.42763818712,1020.83647796503,727.5,989.501930496736,429.371695378491,696.282156015671,367.045908301137,546.39691668109,626.654758133252,0,0,3,4,5,0,6,NaN,vertical,horizontal,horizontal,vertical,horizontal,none
1b,17,100210,4,36,228,18,F,NA,constant,heterogeneous,6,present,1.28578996658325,1,vertical,vertical,1,0.847055148178676,red,6,4,672.5,820.836477965032,672.5,379.163522034968,927.5,820.836477965032,1055,600,927.5,379.163522034968,672.5,379.163522034968,545,600,672.5,820.836477965032,0,5,3,3,6,4,horizontal,horizontal,horizontal,vertical,vertical,vertical
1b,17,100210,4,37,229,18,F,NA,constant,heterogeneous,6,present,NaN,0,horizontal,none,0,0.835290617313025,red,3,1,953.462830903772,396.34794493794,899.636437764765,834.728737630372,899.636437764765,834.728737630372,1053.09926866854,631.076682568313,953.462830903772,396.34794493794,700.363562235235,365.271262369628,546.900731331463,568.923317431687,646.537169096228,803.65205506206,0,6,4,5,0,3,horizontal,vertical,horizontal,horizontal,vertical,vertical
1b,17,100210,4,38,230,18,F,NA,constant,heterogeneous,5,absent,1.26518201828003,1,horizontal,horizontal,1,0.823526086447374,red,1,NaN,903.717843984329,832.954091698863,NaN,NaN,903.717843984329,832.954091698863,1053.60308331891,573.345241866748,853.017481158529,350.57236181288,579.163522034968,472.5,610.498069503264,770.628304621509,0,0,4,3,5,5,6,NaN,horizontal,vertical,horizontal,horizontal,vertical,none
1b,17,100210,4,39,231,18,F,NA,constant,heterogeneous,5,absent,0.690868854522705,1,vertical,vertical,1,0.999994049432143,red,5,NaN,570.807518193712,711.784642431215,NaN,NaN,835.489140744817,852.518357529101,1051.12597701811,644.280285305067,919.715248510402,374.848363820974,622.862115532956,416.568350913644,570.807518193712,711.784642431215,0,0,0,6,0,5,4,NaN,vertical,horizontal,horizontal,horizontal,vertical,none
1b,17,100210,4,40,232,18,F,NA,constant,heterogeneous,3,absent,0.666874170303345,1,vertical,vertical,1,0.705880777790861,red,3,NaN,545.155339110131,591.100628340862,NaN,NaN,919.715248510402,825.151636179026,935.129412379467,383.747735480111,545.155339110131,591.100628340862,0,0,0,0,0,0,5,6,4,NaN,NaN,NaN,horizontal,horizontal,vertical,none,none,none
1b,17,100210,4,41,233,18,F,NA,constant,heterogeneous,6,absent,0.762278079986572,0,horizontal,vertical,1,0.705880777790861,red,6,NaN,588.595418998464,742.594190385041,NaN,NaN,817.787900804752,854.378832816255,1029.19248180629,711.784642431215,1011.40458100154,457.40580961496,782.212099195248,345.621167183745,570.807518193712,488.215357568785,588.595418998464,742.594190385041,5,6,6,5,0,4,vertical,vertical,horizontal,horizontal,horizontal,horizontal
1b,17,100210,4,42,234,18,F,NA,constant,heterogeneous,5,present,0.937731981277466,1,horizontal,horizontal,1,0.611764530865651,red,3,1,1013.86099482608,461.117046071168,708.616172865948,838.063008756786,708.616172865948,838.063008756786,998.172220171528,760.476699717708,1013.86099482608,461.117046071168,734.001143498857,353.688914296288,545.349468637584,586.654331158049,0,0,3,0,4,5,0,NaN,vertical,vertical,horizontal,horizontal,vertical,none
1b,17,100210,4,43,235,18,F,NA,constant,heterogeneous,6,absent,1.70529294013977,0,vertical,horizontal,1,0.835290617313025,red,4,NaN,760.109211414741,348.13947314824,NaN,NaN,839.890788585259,851.86052685176,1038.06300875679,691.383827134052,998.172220171528,439.523300282291,760.109211414741,348.13947314824,561.936991243214,508.616172865948,601.827779828472,760.476699717708,5,6,0,4,5,3,horizontal,horizontal,vertical,vertical,vertical,vertical
1b,17,100210,4,44,236,18,F,NA,constant,heterogeneous,4,present,0.899046897888184,1,vertical,vertical,1,0.752938901253466,red,4,3,547.481642470899,635.489140744817,764.510859255183,347.4816424709,835.489140744817,852.518357529101,1052.5183575291,564.510859255183,764.510859255183,347.4816424709,547.481642470899,635.489140744817,0,0,0,0,3,6,5,4,NaN,NaN,vertical,horizontal,vertical,vertical,none,none
1b,17,100210,4,45,237,18,F,NA,constant,heterogeneous,5,absent,1.71447610855103,1,horizontal,horizontal,1,0.870584209909979,red,4,NaN,591.116228706307,453.738008730483,NaN,NaN,883.019879386575,841.107236777826,1054.96116226488,595.549636358493,874.554784704298,356.142287229426,591.116228706307,453.738008730483,596.34794493794,753.462830903772,0,0,6,3,5,4,0,NaN,vertical,vertical,vertical,horizontal,horizontal,none
1b,17,100210,4,46,238,18,F,NA,constant,heterogeneous,4,present,1.99310803413391,1,horizontal,horizontal,1,0.611764530865651,red,2,4,1042.51941165526,521.200666434388,557.480588344736,678.799333565612,878.799333565612,842.519411655264,1042.51941165526,521.200666434388,721.200666434388,357.480588344736,557.480588344736,678.799333565612,0,0,0,0,5,4,3,3,NaN,NaN,vertical,horizontal,vertical,vertical,none,none
1b,17,100210,4,47,239,18,F,NA,constant,heterogeneous,3,present,1.64540791511536,0,horizontal,vertical,1,0.811761555581723,red,2,1,1045.12173246427,529.712474266665,738.309916622085,847.425410200379,738.309916622085,847.425410200379,1045.12173246427,529.712474266665,616.568350913644,422.862115532956,0,0,0,0,0,0,3,4,0,NaN,NaN,NaN,horizontal,horizontal,vertical,none,none,none
1b,17,100210,4,48,240,18,F,NA,constant,heterogeneous,4,absent,1.2202479839325,1,vertical,vertical,1,0.682351716059559,red,3,NaN,903.717843984329,367.045908301137,NaN,NaN,696.282156015671,832.954091698863,1032.95409169886,703.717843984329,903.717843984329,367.045908301137,567.045908301137,496.282156015671,0,0,0,0,0,6,4,5,NaN,NaN,vertical,horizontal,vertical,vertical,none,none
1b,17,100210,4,49,241,18,F,NA,constant,heterogeneous,6,present,1.4560980796814,1,vertical,vertical,1,0.988229518566491,red,4,6,911.784642431215,370.807518193712,545.621167183745,617.787900804752,688.215357568785,829.192481806288,942.594190385041,811.404581001536,1054.37883281626,582.212099195248,911.784642431215,370.807518193712,657.405809614959,388.595418998464,545.621167183745,617.787900804752,6,3,0,4,0,3,vertical,horizontal,horizontal,vertical,vertical,vertical
1b,17,100210,4,50,242,18,F,NA,constant,heterogeneous,5,absent,NaN,0,horizontal,none,0,1.07058123462605,red,3,NaN,977.137884467044,416.568350913644,NaN,NaN,764.510859255183,852.518357529101,1029.19248180629,711.784642431215,977.137884467044,416.568350913644,680.284751489598,374.848363820974,548.874022981887,644.280285305067,0,0,5,5,4,0,6,NaN,vertical,horizontal,horizontal,horizontal,horizontal,none
1b,17,100210,4,51,243,18,F,NA,constant,heterogeneous,4,present,1.05995583534241,1,horizontal,horizontal,1,1.02352311116345,red,1,4,786.654331158049,854.650531362416,545.349468637584,586.654331158049,786.654331158049,854.650531362416,1054.65053136242,613.345668841951,813.345668841951,345.349468637584,545.349468637584,586.654331158049,0,0,0,0,4,5,3,3,NaN,NaN,horizontal,vertical,horizontal,vertical,none,none
1b,17,100210,4,52,244,18,F,NA,constant,heterogeneous,6,present,NaN,0,horizontal,none,0,0.88234874077563,red,5,1,591.116228706307,453.738008730483,777.775285599347,854.029648013395,777.775285599347,854.029648013395,1008.88377129369,746.261991269517,1031.10848569435,492.232343256122,822.224714400653,345.970351986605,591.116228706307,453.738008730483,568.891514305654,707.767656743878,6,3,5,6,4,5,horizontal,vertical,horizontal,horizontal,horizontal,horizontal
1b,17,100210,4,53,245,18,F,NA,constant,heterogeneous,4,absent,0.766257047653198,1,horizontal,horizontal,1,0.952935925969538,red,4,NaN,596.34794493794,446.537169096228,NaN,NaN,646.537169096228,803.65205506206,1003.65205506206,753.462830903772,953.462830903772,396.34794493794,596.34794493794,446.537169096228,0,0,0,0,5,0,6,4,NaN,NaN,vertical,horizontal,vertical,horizontal,none,none
1b,17,100210,4,54,246,18,F,NA,constant,heterogeneous,4,absent,1.69789218902588,1,vertical,vertical,1,0.611764530865651,red,2,NaN,1013.86099482608,461.117046071168,NaN,NaN,938.882953928832,813.860994826083,1013.86099482608,461.117046071168,661.117046071168,386.139005173917,586.139005173917,738.882953928832,0,0,0,0,0,4,5,6,NaN,NaN,vertical,vertical,vertical,vertical,none,none
1b,17,100210,4,55,247,18,F,NA,constant,heterogeneous,5,present,1.79033088684082,1,horizontal,horizontal,1,0.905877802506933,red,4,5,596.34794493794,446.537169096228,591.116228706307,746.261991269517,874.554784704298,843.857712770574,1054.96116226488,604.450363641507,883.019879386575,358.892763222174,596.34794493794,446.537169096228,591.116228706307,746.261991269517,0,0,3,5,5,4,0,NaN,horizontal,horizontal,vertical,horizontal,horizontal,none
