experiment,subject,uniqueID,block,trial,trial_cumulative,age,gender,color_cond_blocking,color_history,shape_type,set_size,distractor,rt,acc,target_orient,response_key,response_made,iti,target_color,target_item,distractor_item,target_X,target_Y,distractor_X,distractor_Y,item1_X,item1_Y,item2_X,item2_Y,item3_X,item3_Y,item4_X,item4_Y,item5_X,item5_Y,item6_X,item6_Y,item1_shape,item2_shape,item3_shape,item4_shape,item5_shape,item6_shape,item1_line,item2_line,item3_line,item4_line,item5_line,item6_line
1b,18,100211,1,1,1,23,M,NA,constant,heterogeneous,4,present,0.937186002731323,1,horizontal,horizontal,1,0.623528699521665,green,1,3,684.232422566416,827.206663668034,915.767577433584,372.793336331966,684.232422566416,827.206663668034,1027.20666366803,715.767577433584,915.767577433584,372.793336331966,572.793336331966,484.232422566416,0,0,0,0,4,5,0,0,NaN,NaN,horizontal,vertical,horizontal,vertical,none,none
1b,18,100211,1,2,2,23,M,NA,constant,heterogeneous,5,present,0.968968868255615,1,vertical,vertical,1,0.658821748804163,green,5,3,547.481642470899,564.510859255183,1025.15163617903,480.284751489598,688.215357568785,829.192481806288,983.431649086356,777.137884467044,1025.15163617903,480.284751489598,755.719714694933,348.874022981887,547.481642470899,564.510859255183,0,0,5,0,5,3,4,NaN,horizontal,vertical,horizontal,horizontal,vertical,none
1b,18,100211,1,3,3,23,M,NA,constant,heterogeneous,6,absent,1.16901183128357,1,horizontal,horizontal,1,0.82352264545582,green,5,NaN,596.34794493794,446.537169096228,NaN,NaN,768.923317431687,853.099268668537,1003.65205506206,753.462830903772,1034.72873763037,500.363562235235,831.076682568313,346.900731331463,596.34794493794,446.537169096228,565.271262369628,699.636437764765,0,3,0,6,4,5,vertical,horizontal,horizontal,vertical,horizontal,vertical
1b,18,100211,1,4,4,23,M,NA,constant,heterogeneous,6,present,1.35700702667236,1,vertical,vertical,1,0.635293049282498,green,4,2,826.654758133252,346.39691668109,1006.29933356561,749.885239334581,773.345241866748,853.60308331891,1006.29933356561,749.885239334581,1032.95409169886,496.282156015671,826.654758133252,346.39691668109,593.700666434388,450.114760665419,567.045908301137,703.717843984329,3,5,3,4,6,0,vertical,vertical,vertical,vertical,vertical,horizontal
1b,18,100211,1,5,5,23,M,NA,constant,heterogeneous,5,present,1.12277102470398,1,horizontal,horizontal,1,0.91763744354248,green,3,1,935.129412379467,383.747735480111,817.787900804752,854.378832816255,817.787900804752,854.378832816255,1047.42541020038,661.690083377915,935.129412379467,383.747735480111,636.089159529932,404.658667004661,563.568117085469,695.524681321058,0,0,3,6,4,6,0,NaN,horizontal,horizontal,horizontal,horizontal,vertical,none
1b,18,100211,1,6,6,23,M,NA,constant,heterogeneous,6,absent,1.10741996765137,1,vertical,vertical,1,0.694114798086661,green,2,NaN,953.462830903772,803.65205506206,NaN,NaN,700.363562235235,834.728737630372,953.462830903772,803.65205506206,1053.09926866854,568.923317431687,899.636437764765,365.271262369628,646.537169096228,396.34794493794,546.900731331463,631.076682568313,0,4,3,5,6,5,horizontal,vertical,vertical,vertical,vertical,vertical
1b,18,100211,1,7,7,23,M,NA,constant,heterogeneous,6,present,0.943999052047729,1,horizontal,horizontal,1,0.91763744354248,green,4,2,808.899371659138,345.155339110131,1016.25226451989,735.129412379467,791.100628340862,854.844660889869,1016.25226451989,735.129412379467,1025.15163617903,480.284751489598,808.899371659138,345.155339110131,583.747735480111,464.870587620533,574.848363820974,719.715248510402,0,6,5,4,3,0,vertical,vertical,vertical,horizontal,vertical,horizontal
1b,18,100211,1,8,8,23,M,NA,constant,heterogeneous,6,present,1.52719807624817,1,horizontal,horizontal,1,0.799993945934154,green,2,5,1053.09926866854,631.076682568313,546.900731331463,568.923317431687,899.636437764765,834.728737630372,1053.09926866854,631.076682568313,953.462830903772,396.34794493794,700.363562235235,365.271262369628,546.900731331463,568.923317431687,646.537169096228,803.65205506206,6,4,5,3,3,5,vertical,horizontal,horizontal,horizontal,horizontal,horizontal
1b,18,100211,1,9,9,23,M,NA,constant,heterogeneous,5,absent,1.04254603385925,1,horizontal,horizontal,1,1.03528094115081,green,1,NaN,907.767656743878,831.108485694346,NaN,NaN,907.767656743878,831.108485694346,1053.09926866854,568.923317431687,848.656293821019,349.685068220846,576.971974679454,476.373546837184,613.504806087112,773.909581815937,0,0,4,5,0,6,0,NaN,horizontal,vertical,vertical,horizontal,horizontal,none
1b,18,100211,1,10,10,23,M,NA,constant,heterogeneous,4,present,0.99987006187439,1,vertical,vertical,1,0.611764349760833,green,2,1,1039.62161830041,512.784863451954,887.215136548046,839.621618300407,887.215136548046,839.621618300407,1039.62161830041,512.784863451954,712.784863451954,360.378381699593,560.378381699593,687.215136548046,0,0,0,0,0,4,5,6,NaN,NaN,horizontal,vertical,horizontal,horizontal,none,none
1b,18,100211,1,11,11,23,M,NA,constant,heterogeneous,3,absent,0.653385877609253,1,horizontal,horizontal,1,0.87058004449915,green,2,NaN,1051.12597701811,644.280285305067,NaN,NaN,636.089159529932,795.341332995339,1051.12597701811,644.280285305067,712.784863451954,360.378381699593,0,0,0,0,0,0,0,4,5,NaN,NaN,NaN,vertical,horizontal,horizontal,none,none,none
1b,18,100211,1,12,12,23,M,NA,constant,heterogeneous,5,absent,0.639413118362427,1,horizontal,horizontal,1,1.03528094115081,green,2,NaN,1041.10723677783,683.019879386575,NaN,NaN,795.549636358493,854.96116226488,1041.10723677783,683.019879386575,953.462830903772,396.34794493794,653.738008730483,391.116228706307,556.142287229426,674.554784704298,0,0,5,4,6,0,0,NaN,horizontal,horizontal,vertical,horizontal,vertical,none
1b,18,100211,1,13,13,23,M,NA,constant,heterogeneous,4,absent,0.789494037628174,1,vertical,vertical,1,1.05880964067247,green,1,NaN,808.899371659138,854.844660889869,NaN,NaN,808.899371659138,854.844660889869,1054.84466088987,591.100628340862,791.100628340862,345.155339110131,545.155339110131,608.899371659138,0,0,0,0,4,3,0,5,NaN,NaN,vertical,vertical,vertical,vertical,none,none
1b,18,100211,1,14,14,23,M,NA,constant,heterogeneous,5,absent,1.83844304084778,1,horizontal,horizontal,1,0.64705739904333,green,3,NaN,942.594190385041,388.595418998464,NaN,NaN,808.899371659138,854.844660889869,1045.12173246427,670.287525733335,942.594190385041,388.595418998464,643.006323791957,399.057257830286,560.378381699593,687.215136548046,0,0,6,3,4,0,3,NaN,vertical,horizontal,horizontal,horizontal,horizontal,none
1b,18,100211,1,15,15,23,M,NA,constant,heterogeneous,4,present,0.718165874481201,1,horizontal,horizontal,1,0.729407847369159,green,2,1,1042.51941165526,521.200666434388,878.799333565612,842.519411655264,878.799333565612,842.519411655264,1042.51941165526,521.200666434388,721.200666434388,357.480588344736,557.480588344736,678.799333565612,0,0,0,0,6,4,5,3,NaN,NaN,vertical,horizontal,horizontal,vertical,none,none
1b,18,100211,1,16,16,23,M,NA,constant,heterogeneous,5,present,0.863262891769409,1,vertical,vertical,1,0.91763744354248,green,5,3,545.349468637584,586.654331158049,1013.86099482608,461.117046071168,708.616172865948,838.063008756786,998.172220171528,760.476699717708,1013.86099482608,461.117046071168,734.001143498857,353.688914296288,545.349468637584,586.654331158049,0,0,5,5,0,3,4,NaN,horizontal,horizontal,vertical,vertical,vertical,none
1b,18,100211,1,17,17,23,M,NA,constant,heterogeneous,4,absent,1.12994003295898,1,vertical,vertical,1,0.670586098564996,green,4,NaN,593.700666434388,749.885239334581,NaN,NaN,949.885239334581,806.299333565612,1006.29933356561,450.114760665419,650.114760665419,393.700666434388,593.700666434388,749.885239334581,0,0,0,0,5,3,6,4,NaN,NaN,horizontal,vertical,vertical,vertical,none,none
1b,18,100211,1,18,18,23,M,NA,constant,heterogeneous,4,absent,0.831669092178345,1,horizontal,horizontal,1,0.741172197129991,green,2,NaN,1016.25226451989,735.129412379467,NaN,NaN,664.870587620533,816.252264519889,1016.25226451989,735.129412379467,935.129412379467,383.747735480111,583.747735480111,464.870587620533,0,0,0,0,0,4,5,5,NaN,NaN,vertical,horizontal,horizontal,horizontal,none,none
1b,18,100211,1,19,19,23,M,NA,constant,heterogeneous,3,present,0.786409139633179,1,horizontal,horizontal,1,0.905873093781648,green,1,2,865.998856501143,846.311085703712,980.31222920257,419.68777079743,865.998856501143,846.311085703712,980.31222920257,419.68777079743,553.688914296288,534.001143498857,0,0,0,0,0,0,4,3,6,NaN,NaN,NaN,horizontal,vertical,vertical,none,none,none
1b,18,100211,1,20,20,23,M,NA,constant,heterogeneous,3,absent,0.723767995834351,1,horizontal,horizontal,1,1.08233834019414,green,1,NaN,1011.40458100154,742.594190385041,NaN,NaN,1011.40458100154,742.594190385041,817.787900804752,345.621167183745,570.807518193712,711.784642431215,0,0,0,0,0,0,4,3,6,NaN,NaN,NaN,horizontal,vertical,horizontal,none,none,none
1b,18,100211,1,21,21,23,M,NA,constant,heterogeneous,5,absent,0.939743041992188,1,horizontal,horizontal,1,1.0705739904333,green,5,NaN,593.700666434388,749.885239334581,NaN,NaN,878.799333565612,842.519411655264,1055,600,878.799333565612,357.480588344736,593.700666434388,450.114760665419,593.700666434388,749.885239334581,0,0,0,6,3,6,4,NaN,vertical,horizontal,vertical,horizontal,horizontal,none
1b,18,100211,1,22,22,23,M,NA,constant,heterogeneous,3,present,0.74049711227417,1,horizontal,horizontal,1,0.670586098564996,green,3,1,657.405809614959,388.595418998464,688.215357568785,829.192481806288,688.215357568785,829.192481806288,1054.37883281626,582.212099195248,657.405809614959,388.595418998464,0,0,0,0,0,0,5,5,4,NaN,NaN,NaN,horizontal,vertical,horizontal,none,none,none
1b,18,100211,1,23,23,23,M,NA,constant,heterogeneous,3,absent,0.786608934402466,1,horizontal,horizontal,1,0.752936546890824,green,1,NaN,899.636437764765,834.728737630372,NaN,NaN,899.636437764765,834.728737630372,953.462830903772,396.34794493794,546.900731331463,568.923317431687,0,0,0,0,0,0,4,3,0,NaN,NaN,NaN,horizontal,vertical,horizontal,none,none,none
1b,18,100211,1,24,24,23,M,NA,constant,heterogeneous,6,absent,0.628137111663818,1,vertical,vertical,1,1.08233834019414,green,2,NaN,956.993676208043,800.942742169714,NaN,NaN,704.475318678942,836.431882914531,956.993676208043,800.942742169714,1052.5183575291,564.510859255183,895.524681321058,363.568117085469,643.006323791957,399.057257830286,547.481642470899,635.489140744817,5,4,3,3,5,0,horizontal,vertical,horizontal,horizontal,horizontal,horizontal
1b,18,100211,1,25,25,23,M,NA,constant,heterogeneous,3,present,0.760461091995239,1,horizontal,horizontal,1,0.976459192346643,green,2,3,870.287525733335,354.878267535729,552.574589799621,661.690083377915,977.137884467044,783.431649086356,870.287525733335,354.878267535729,552.574589799621,661.690083377915,0,0,0,0,0,0,5,4,6,NaN,NaN,NaN,vertical,horizontal,vertical,none,none,none
1b,18,100211,1,26,26,23,M,NA,constant,heterogeneous,3,absent,0.660645961761475,1,horizontal,horizontal,1,1.04704529091164,green,3,NaN,548.874022981887,644.280285305067,NaN,NaN,963.910840470068,795.341332995339,887.215136548046,360.378381699593,548.874022981887,644.280285305067,0,0,0,0,0,0,6,5,4,NaN,NaN,NaN,vertical,horizontal,horizontal,none,none,none
1b,18,100211,1,27,27,23,M,NA,constant,heterogeneous,6,absent,0.795949935913086,1,horizontal,horizontal,1,1.08233834019414,green,1,NaN,919.715248510402,825.151636179026,NaN,NaN,919.715248510402,825.151636179026,1054.84466088987,608.899371659138,935.129412379467,383.747735480111,680.284751489598,374.848363820974,545.155339110131,591.100628340862,664.870587620533,816.252264519889,4,6,5,0,6,3,horizontal,horizontal,vertical,vertical,horizontal,vertical
1b,18,100211,1,28,28,23,M,NA,constant,heterogeneous,3,absent,0.687596797943115,1,vertical,vertical,1,0.988223542107476,green,3,NaN,676.373546837184,376.971974679454,NaN,NaN,668.665290897936,818.577661679039,1054.96116226488,604.450363641507,676.373546837184,376.971974679454,0,0,0,0,0,0,6,5,4,NaN,NaN,NaN,horizontal,vertical,vertical,none,none,none
1b,18,100211,1,29,29,23,M,NA,constant,heterogeneous,5,absent,0.717096090316772,1,vertical,vertical,1,0.764700896651657,green,5,NaN,550.57236181288,546.982518841471,NaN,NaN,672.5,820.836477965032,970.628304621509,789.501930496736,1032.95409169886,496.282156015671,773.345241866748,346.39691668109,550.57236181288,546.982518841471,0,0,5,5,6,3,4,NaN,vertical,horizontal,vertical,horizontal,vertical,none
1b,18,100211,1,30,30,23,M,NA,constant,heterogeneous,4,present,0.638674974441528,1,vertical,vertical,1,0.964694842585811,green,4,3,545.155339110131,608.899371659138,791.100628340862,345.155339110131,808.899371659138,854.844660889869,1054.84466088987,591.100628340862,791.100628340862,345.155339110131,545.155339110131,608.899371659138,0,0,0,0,3,5,5,4,NaN,NaN,vertical,vertical,vertical,vertical,none,none
1b,18,100211,1,31,31,23,M,NA,constant,heterogeneous,6,present,0.867923021316528,1,vertical,vertical,1,0.611764349760833,green,1,5,782.212099195248,854.378832816255,588.595418998464,457.40580961496,782.212099195248,854.378832816255,1011.40458100154,742.594190385041,1029.19248180629,488.215357568785,817.787900804752,345.621167183745,588.595418998464,457.40580961496,570.807518193712,711.784642431215,4,0,6,5,3,0,vertical,horizontal,horizontal,horizontal,horizontal,horizontal
1b,18,100211,1,32,32,23,M,NA,constant,heterogeneous,6,absent,0.583300113677979,1,vertical,vertical,1,1.09410268995497,green,2,NaN,931.334709102064,818.577661679039,NaN,NaN,676.373546837184,823.028025320546,931.334709102064,818.577661679039,1054.96116226488,595.549636358493,923.626453162816,376.971974679454,668.665290897936,381.422338320961,545.03883773512,604.450363641507,3,4,6,6,5,0,vertical,vertical,horizontal,horizontal,vertical,horizontal
1b,18,100211,1,33,33,23,M,NA,constant,heterogeneous,3,present,0.59137487411499,1,vertical,vertical,1,0.811758295694987,green,3,1,604.658667004661,436.089159529932,755.719714694933,851.125977018113,755.719714694933,851.125977018113,1039.62161830041,512.784863451954,604.658667004661,436.089159529932,0,0,0,0,0,0,6,0,4,NaN,NaN,NaN,vertical,horizontal,vertical,none,none,none
1b,18,100211,1,34,34,23,M,NA,constant,heterogeneous,3,present,0.620995044708252,1,vertical,vertical,1,0.682350448325828,green,3,1,545.970351986605,622.224714400653,946.261991269517,808.883771293693,946.261991269517,808.883771293693,907.767656743878,368.891514305654,545.970351986605,622.224714400653,0,0,0,0,0,0,6,5,4,NaN,NaN,NaN,horizontal,horizontal,vertical,none,none,none
1b,18,100211,1,35,35,23,M,NA,constant,heterogeneous,3,absent,0.830869913101196,1,vertical,vertical,1,0.670586098564996,green,1,NaN,835.489140744817,852.518357529101,NaN,NaN,835.489140744817,852.518357529101,1000.94274216971,443.006323791957,563.568117085469,504.475318678942,0,0,0,0,0,0,4,3,0,NaN,NaN,NaN,vertical,horizontal,horizontal,none,none,none
1b,18,100211,1,36,36,23,M,NA,constant,heterogeneous,5,absent,0.643026828765869,1,vertical,vertical,1,0.776465246412489,green,2,NaN,1018.57766167904,731.334709102064,NaN,NaN,742.637481142314,848.464366520235,1018.57766167904,731.334709102064,992.450942956807,432.704947607421,700.363562235235,365.271262369628,545.970351986605,622.224714400653,0,0,5,4,0,3,6,NaN,horizontal,vertical,horizontal,horizontal,vertical,none
1b,18,100211,1,37,37,23,M,NA,constant,heterogeneous,3,absent,0.662176132202148,1,vertical,vertical,1,0.694114798086661,green,1,NaN,891.383827134052,838.063008756786,NaN,NaN,891.383827134052,838.063008756786,960.476699717708,401.827779828472,548.13947314824,560.109211414741,0,0,0,0,0,0,4,6,3,NaN,NaN,NaN,vertical,horizontal,vertical,none,none,none
1b,18,100211,1,38,38,23,M,NA,constant,heterogeneous,4,present,0.904202938079834,1,horizontal,horizontal,1,0.623528699521665,green,3,1,657.405809614959,388.595418998464,942.594190385041,811.404581001536,942.594190385041,811.404581001536,1011.40458100154,457.40580961496,657.405809614959,388.595418998464,588.595418998464,742.594190385041,0,0,0,0,3,6,4,0,NaN,NaN,horizontal,vertical,horizontal,vertical,none,none
1b,18,100211,1,39,39,23,M,NA,constant,heterogeneous,5,present,0.659237146377563,1,horizontal,horizontal,1,0.858815694738317,green,1,4,874.554784704298,843.857712770574,596.34794493794,446.537169096228,874.554784704298,843.857712770574,1054.96116226488,604.450363641507,883.019879386575,358.892763222174,596.34794493794,446.537169096228,591.116228706307,746.261991269517,0,0,4,5,0,6,3,NaN,horizontal,vertical,vertical,vertical,vertical,none
1b,18,100211,1,40,40,23,M,NA,constant,heterogeneous,4,present,0.605211973190308,1,vertical,vertical,1,0.82352264545582,green,3,2,629.371695378491,410.498069503264,989.501930496736,429.371695378491,970.628304621509,789.501930496736,989.501930496736,429.371695378491,629.371695378491,410.498069503264,610.498069503264,770.628304621509,0,0,0,0,0,5,4,5,NaN,NaN,vertical,vertical,vertical,vertical,none,none
1b,18,100211,1,41,41,23,M,NA,constant,heterogeneous,3,absent,0.582630157470703,1,vertical,vertical,1,1.05880964067247,green,1,NaN,680.284751489598,825.151636179026,NaN,NaN,680.284751489598,825.151636179026,1054.84466088987,591.100628340862,664.870587620533,383.747735480111,0,0,0,0,0,0,4,6,5,NaN,NaN,NaN,vertical,vertical,vertical,none,none,none
1b,18,100211,1,42,42,23,M,NA,constant,heterogeneous,5,present,1.08529806137085,1,horizontal,horizontal,1,0.941166143064146,green,2,1,1041.10723677783,683.019879386575,795.549636358493,854.96116226488,795.549636358493,854.96116226488,1041.10723677783,683.019879386575,953.462830903772,396.34794493794,653.738008730483,391.116228706307,556.142287229426,674.554784704298,0,0,5,4,6,3,0,NaN,horizontal,horizontal,vertical,vertical,horizontal,none
1b,18,100211,1,43,43,23,M,NA,constant,heterogeneous,6,absent,NaN,0,horizontal,none,0,0.87058004449915,green,4,NaN,861.690083377915,352.574589799621,NaN,NaN,738.309916622085,847.425410200379,983.431649086356,777.137884467044,1045.12173246427,529.712474266665,861.690083377915,352.574589799621,616.568350913644,422.862115532956,554.878267535729,670.287525733335,5,6,3,4,5,6,vertical,vertical,horizontal,horizontal,horizontal,vertical
1b,18,100211,1,44,44,23,M,NA,constant,heterogeneous,4,present,1.26277804374695,1,horizontal,horizontal,1,0.694114798086661,green,2,3,1003.65205506206,753.462830903772,953.462830903772,396.34794493794,646.537169096228,803.65205506206,1003.65205506206,753.462830903772,953.462830903772,396.34794493794,596.34794493794,446.537169096228,0,0,0,0,5,4,0,5,NaN,NaN,vertical,horizontal,vertical,horizontal,none,none
1b,18,100211,1,45,45,23,M,NA,constant,heterogeneous,6,absent,NaN,0,vertical,none,0,0.788229596173322,green,1,NaN,696.282156015671,832.954091698863,NaN,NaN,696.282156015671,832.954091698863,949.885239334581,806.299333565612,1053.60308331891,573.345241866748,903.717843984329,367.045908301137,650.114760665419,393.700666434388,546.39691668109,626.654758133252,4,3,6,5,5,6,vertical,vertical,horizontal,vertical,horizontal,horizontal
1b,18,100211,1,46,46,23,M,NA,constant,heterogeneous,6,present,1.89085412025452,1,vertical,vertical,1,0.91763744354248,green,3,4,998.172220171528,439.523300282291,760.109211414741,348.13947314824,839.890788585259,851.86052685176,1038.06300875679,691.383827134052,998.172220171528,439.523300282291,760.109211414741,348.13947314824,561.936991243214,508.616172865948,601.827779828472,760.476699717708,3,5,4,3,6,6,vertical,vertical,vertical,horizontal,horizontal,vertical
1b,18,100211,1,47,47,23,M,NA,constant,heterogeneous,3,present,0.931907176971436,1,horizontal,horizontal,1,0.952930492824978,green,3,1,545.970351986605,622.224714400653,946.261991269517,808.883771293693,946.261991269517,808.883771293693,907.767656743878,368.891514305654,545.970351986605,622.224714400653,0,0,0,0,0,0,3,3,4,NaN,NaN,NaN,vertical,vertical,horizontal,none,none,none
1b,18,100211,1,48,48,23,M,NA,constant,heterogeneous,4,absent,1.26760721206665,1,vertical,vertical,1,1.05880964067247,green,2,NaN,1054.84466088987,591.100628340862,NaN,NaN,808.899371659138,854.844660889869,1054.84466088987,591.100628340862,791.100628340862,345.155339110131,545.155339110131,608.899371659138,0,0,0,0,3,4,6,0,NaN,NaN,vertical,vertical,vertical,vertical,none,none
1b,18,100211,1,49,49,23,M,NA,constant,heterogeneous,5,present,0.785840034484863,1,vertical,vertical,1,1.03528094115081,green,5,4,545.03883773512,595.549636358493,725.445215295702,356.142287229426,716.980120613425,841.107236777826,1003.65205506206,753.462830903772,1008.88377129369,453.738008730483,725.445215295702,356.142287229426,545.03883773512,595.549636358493,0,0,6,0,6,5,4,NaN,horizontal,horizontal,horizontal,horizontal,vertical,none
1b,18,100211,1,50,50,23,M,NA,constant,heterogeneous,5,present,0.819377183914185,1,horizontal,horizontal,1,1.08233834019414,green,3,1,848.656293821019,349.685068220846,907.767656743878,831.108485694346,907.767656743878,831.108485694346,1053.09926866854,568.923317431687,848.656293821019,349.685068220846,576.971974679454,476.373546837184,613.504806087112,773.909581815937,0,0,3,5,4,0,6,NaN,horizontal,vertical,horizontal,horizontal,vertical,none
1b,18,100211,1,51,51,23,M,NA,constant,heterogeneous,4,absent,1.90450716018677,1,horizontal,horizontal,1,1.03528094115081,green,1,NaN,646.537169096228,803.65205506206,NaN,NaN,646.537169096228,803.65205506206,1003.65205506206,753.462830903772,953.462830903772,396.34794493794,596.34794493794,446.537169096228,0,0,0,0,4,5,0,5,NaN,NaN,horizontal,vertical,vertical,horizontal,none,none
1b,18,100211,1,52,52,23,M,NA,constant,heterogeneous,6,present,1.27973318099976,1,vertical,vertical,1,0.835286995216652,green,2,5,927.5,820.836477965032,672.5,379.163522034968,672.5,820.836477965032,927.5,820.836477965032,1055,600,927.5,379.163522034968,672.5,379.163522034968,545,600,6,4,6,0,0,3,vertical,vertical,horizontal,vertical,vertical,horizontal
1b,18,100211,1,53,53,23,M,NA,constant,heterogeneous,5,absent,0.684946060180664,1,vertical,vertical,1,0.976459192346643,green,5,NaN,545.03883773512,595.549636358493,NaN,NaN,716.980120613425,841.107236777826,1003.65205506206,753.462830903772,1008.88377129369,453.738008730483,725.445215295702,356.142287229426,545.03883773512,595.549636358493,0,0,5,6,0,3,4,NaN,horizontal,horizontal,horizontal,horizontal,vertical,none
1b,18,100211,1,54,54,23,M,NA,constant,heterogeneous,4,absent,0.970083951950073,1,horizontal,horizontal,1,0.764700896651657,green,2,NaN,1011.40458100154,742.594190385041,NaN,NaN,657.405809614959,811.404581001536,1011.40458100154,742.594190385041,942.594190385041,388.595418998464,588.595418998464,457.40580961496,0,0,0,0,0,4,6,5,NaN,NaN,horizontal,horizontal,vertical,vertical,none,none
1b,18,100211,1,55,55,23,M,NA,constant,heterogeneous,5,absent,1.44618487358093,1,vertical,vertical,1,0.611764349760833,green,3,NaN,980.31222920257,419.68777079743,NaN,NaN,760.109211414741,851.86052685176,1027.20666366803,715.767577433584,980.31222920257,419.68777079743,684.232422566416,372.793336331966,548.13947314824,639.890788585259,0,0,3,6,4,0,6,NaN,vertical,horizontal,vertical,vertical,vertical,none
1b,18,100211,1,56,56,23,M,NA,constant,heterogeneous,6,present,1.22299599647522,1,horizontal,horizontal,1,0.988223542107476,green,2,3,1054.84466088987,608.899371659138,935.129412379467,383.747735480111,919.715248510402,825.151636179026,1054.84466088987,608.899371659138,935.129412379467,383.747735480111,680.284751489598,374.848363820974,545.155339110131,591.100628340862,664.870587620533,816.252264519889,3,4,6,5,6,0,horizontal,horizontal,vertical,vertical,horizontal,vertical
1b,18,100211,1,57,57,23,M,NA,constant,heterogeneous,4,absent,1.17323398590088,1,vertical,vertical,1,0.670586098564996,green,1,NaN,949.885239334581,806.299333565612,NaN,NaN,949.885239334581,806.299333565612,1006.29933356561,450.114760665419,650.114760665419,393.700666434388,593.700666434388,749.885239334581,0,0,0,0,4,5,3,6,NaN,NaN,vertical,horizontal,horizontal,vertical,none,none
1b,18,100211,1,58,58,23,M,NA,constant,heterogeneous,4,present,1.00609707832336,0,vertical,horizontal,1,0.670586098564996,green,3,4,760.109211414741,348.13947314824,548.13947314824,639.890788585259,839.890788585259,851.86052685176,1051.86052685176,560.109211414741,760.109211414741,348.13947314824,548.13947314824,639.890788585259,0,0,0,0,5,5,4,0,NaN,NaN,horizontal,vertical,vertical,horizontal,none,none
1b,18,100211,1,59,59,23,M,NA,constant,heterogeneous,4,absent,0.856034994125366,1,horizontal,horizontal,1,0.882344394259983,green,3,NaN,672.5,379.163522034968,NaN,NaN,927.5,820.836477965032,1020.83647796503,472.5,672.5,379.163522034968,579.163522034968,727.5,0,0,0,0,0,5,4,6,NaN,NaN,horizontal,vertical,horizontal,horizontal,none,none
1b,18,100211,1,60,60,23,M,NA,constant,heterogeneous,5,present,0.737213850021362,1,vertical,vertical,1,0.988223542107476,green,4,5,688.215357568785,370.807518193712,547.481642470899,635.489140744817,755.719714694933,851.125977018113,1025.15163617903,719.715248510402,983.431649086356,422.862115532956,688.215357568785,370.807518193712,547.481642470899,635.489140744817,0,0,0,6,3,4,5,NaN,vertical,vertical,vertical,vertical,horizontal,none
1b,18,100211,1,61,61,23,M,NA,constant,heterogeneous,3,present,0.764496803283691,1,vertical,vertical,1,0.623528699521665,green,1,3,935.129412379467,816.252264519889,545.155339110131,608.899371659138,935.129412379467,816.252264519889,919.715248510402,374.848363820974,545.155339110131,608.899371659138,0,0,0,0,0,0,4,5,6,NaN,NaN,NaN,vertical,horizontal,vertical,none,none,none
1b,18,100211,1,62,62,23,M,NA,constant,heterogeneous,3,present,0.591210842132568,1,vertical,vertical,1,0.964694842585811,green,1,3,853.017481158529,849.42763818712,557.480588344736,521.200666434388,853.017481158529,849.42763818712,989.501930496736,429.371695378491,557.480588344736,521.200666434388,0,0,0,0,0,0,4,5,3,NaN,NaN,NaN,vertical,vertical,horizontal,none,none,none
1b,18,100211,1,63,63,23,M,NA,constant,heterogeneous,6,absent,1.54600715637207,1,horizontal,horizontal,1,0.941166143064146,green,6,NaN,604.658667004661,763.910840470068,NaN,NaN,844.280285305067,851.125977018113,1039.62161830041,687.215136548046,995.341332995339,436.089159529932,755.719714694933,348.874022981887,560.378381699593,512.784863451954,604.658667004661,763.910840470068,3,6,0,0,3,4,horizontal,vertical,horizontal,horizontal,horizontal,horizontal
1b,18,100211,1,64,64,23,M,NA,constant,heterogeneous,6,present,1.69155287742615,1,horizontal,horizontal,1,0.717643497608326,green,5,4,563.568117085469,504.475318678942,764.510859255183,347.4816424709,835.489140744817,852.518357529101,1036.43188291453,695.524681321058,1000.94274216971,443.006323791957,764.510859255183,347.4816424709,563.568117085469,504.475318678942,599.057257830286,756.993676208043,3,5,6,3,4,5,horizontal,vertical,vertical,horizontal,horizontal,horizontal
1b,18,100211,2,1,65,23,M,NA,constant,heterogeneous,3,absent,1.08879780769348,1,horizontal,horizontal,1,0.82352264545582,green,2,NaN,1039.62161830041,687.215136548046,NaN,NaN,604.658667004661,763.910840470068,1039.62161830041,687.215136548046,755.719714694933,348.874022981887,0,0,0,0,0,0,3,4,6,NaN,NaN,NaN,horizontal,horizontal,horizontal,none,none,none
1b,18,100211,2,2,66,23,M,NA,constant,heterogeneous,5,present,0.670283079147339,1,vertical,vertical,1,0.988223542107476,green,2,3,1054.65053136242,613.345668841951,891.383827134052,361.936991243214,865.998856501143,846.311085703712,1054.65053136242,613.345668841951,891.383827134052,361.936991243214,601.827779828472,439.523300282291,586.139005173917,738.882953928832,0,0,6,4,0,5,6,NaN,horizontal,vertical,vertical,vertical,horizontal,none
1b,18,100211,2,3,67,23,M,NA,constant,heterogeneous,6,absent,0.6009521484375,1,vertical,vertical,1,0.635293049282498,green,2,NaN,967.295052392579,792.450942956807,NaN,NaN,716.980120613425,841.107236777826,967.295052392579,792.450942956807,1050.31493177915,551.343706178981,883.019879386575,358.892763222174,632.704947607421,407.549057043193,549.685068220846,648.656293821019,3,4,6,5,0,6,vertical,vertical,vertical,vertical,vertical,horizontal
1b,18,100211,2,4,68,23,M,NA,constant,heterogeneous,5,present,1.03359699249268,1,horizontal,horizontal,1,0.635293049282498,green,5,2,636.089159529932,795.341332995339,1047.42541020038,538.309916622085,935.129412379467,816.252264519889,1047.42541020038,538.309916622085,817.787900804752,345.621167183745,563.568117085469,504.475318678942,636.089159529932,795.341332995339,0,0,0,6,3,3,4,NaN,vertical,vertical,horizontal,horizontal,horizontal,none
1b,18,100211,2,5,69,23,M,NA,constant,heterogeneous,4,present,0.970465183258057,1,horizontal,horizontal,1,1.01175224162914,green,1,3,661.117046071168,813.860994826083,938.882953928832,386.139005173917,661.117046071168,813.860994826083,1013.86099482608,738.882953928832,938.882953928832,386.139005173917,586.139005173917,461.117046071168,0,0,0,0,4,5,0,0,NaN,NaN,horizontal,horizontal,horizontal,horizontal,none,none
1b,18,100211,2,6,70,23,M,NA,constant,heterogeneous,3,absent,0.806842803955078,1,horizontal,horizontal,1,0.835286995216652,green,3,NaN,684.232422566416,372.793336331966,NaN,NaN,661.117046071168,813.860994826083,1054.65053136242,613.345668841951,684.232422566416,372.793336331966,0,0,0,0,0,0,6,3,4,NaN,NaN,NaN,horizontal,vertical,horizontal,none,none,none
1b,18,100211,2,7,71,23,M,NA,constant,heterogeneous,6,present,1.67916011810303,1,horizontal,horizontal,1,0.988223542107476,green,2,1,1054.0296480134,622.224714400653,907.767656743878,831.108485694346,907.767656743878,831.108485694346,1054.0296480134,622.224714400653,946.261991269517,391.116228706307,692.232343256122,368.891514305654,545.970351986605,577.775285599347,653.738008730483,808.883771293693,0,4,5,6,3,5,vertical,horizontal,vertical,horizontal,horizontal,horizontal
1b,18,100211,2,8,72,23,M,NA,constant,heterogeneous,4,absent,1.11341905593872,1,vertical,vertical,1,0.835286995216652,green,1,NaN,725.445215295702,843.857712770574,NaN,NaN,725.445215295702,843.857712770574,1043.85771277057,674.554784704298,874.554784704298,356.142287229426,556.142287229426,525.445215295702,0,0,0,0,4,5,6,6,NaN,NaN,vertical,vertical,horizontal,horizontal,none,none
1b,18,100211,2,9,73,23,M,NA,constant,heterogeneous,6,absent,1.08563899993896,1,horizontal,horizontal,1,0.894108744020815,green,5,NaN,579.163522034968,472.5,NaN,NaN,800,855,1020.83647796503,727.5,1020.83647796503,472.5,800,345,579.163522034968,472.5,579.163522034968,727.5,3,5,3,5,4,0,horizontal,horizontal,horizontal,horizontal,horizontal,vertical
1b,18,100211,2,10,74,23,M,NA,constant,heterogeneous,6,present,NaN,0,vertical,none,0,0.717643497608326,green,1,2,751.343706178981,850.314931779154,992.450942956807,767.295052392579,751.343706178981,850.314931779154,992.450942956807,767.295052392579,1041.10723677783,516.980120613425,848.656293821019,349.685068220846,607.549057043193,432.704947607421,558.892763222174,683.019879386575,4,0,5,3,5,3,vertical,horizontal,horizontal,vertical,horizontal,vertical
1b,18,100211,2,11,75,23,M,NA,constant,heterogeneous,5,absent,1.23512291908264,1,horizontal,horizontal,1,1.03528094115081,green,5,NaN,545.970351986605,577.775285599347,NaN,NaN,700.363562235235,834.728737630372,992.450942956807,767.295052392579,1018.57766167904,468.665290897936,742.637481142314,351.535633479765,545.970351986605,577.775285599347,0,0,5,6,0,3,4,NaN,vertical,vertical,vertical,horizontal,horizontal,none
1b,18,100211,2,12,76,23,M,NA,constant,heterogeneous,5,present,1.42568683624268,1,vertical,vertical,1,0.882344394259983,green,3,1,986.495193912888,426.090418184063,751.343706178981,850.314931779154,751.343706178981,850.314931779154,1023.02802532055,723.626453162816,986.495193912888,426.090418184063,692.232343256122,368.891514305654,546.900731331463,631.076682568313,0,0,6,5,4,5,3,NaN,horizontal,horizontal,vertical,vertical,horizontal,none
1b,18,100211,2,13,77,23,M,NA,constant,heterogeneous,4,absent,0.833232164382935,1,vertical,vertical,1,0.741172197129991,green,3,NaN,626.090418184063,413.504806087112,NaN,NaN,973.909581815937,786.495193912888,986.495193912888,426.090418184063,626.090418184063,413.504806087112,613.504806087112,773.909581815937,0,0,0,0,6,5,4,5,NaN,NaN,horizontal,vertical,vertical,vertical,none,none
1b,18,100211,2,14,78,23,M,NA,constant,heterogeneous,6,absent,1.48630905151367,1,horizontal,horizontal,1,0.623528699521665,green,5,NaN,545.349468637584,586.654331158049,NaN,NaN,915.767577433584,827.206663668034,1054.65053136242,613.345668841951,938.882953928832,386.139005173917,684.232422566416,372.793336331966,545.349468637584,586.654331158049,661.117046071168,813.860994826083,3,0,3,5,4,0,vertical,horizontal,vertical,horizontal,horizontal,vertical
1b,18,100211,2,15,79,23,M,NA,constant,heterogeneous,4,absent,1.212571144104,1,vertical,vertical,1,0.811758295694987,green,1,NaN,721.200666434388,842.519411655264,NaN,NaN,721.200666434388,842.519411655264,1042.51941165526,678.799333565612,878.799333565612,357.480588344736,557.480588344736,521.200666434388,0,0,0,0,4,3,3,6,NaN,NaN,vertical,horizontal,horizontal,vertical,none,none
1b,18,100211,2,16,80,23,M,NA,constant,heterogeneous,3,present,0.838065147399902,1,vertical,vertical,1,0.847051344977485,green,1,2,601.827779828472,760.476699717708,1038.06300875679,691.383827134052,601.827779828472,760.476699717708,1038.06300875679,691.383827134052,760.109211414741,348.13947314824,0,0,0,0,0,0,4,6,5,NaN,NaN,NaN,vertical,vertical,vertical,none,none,none
1b,18,100211,2,17,81,23,M,NA,constant,heterogeneous,4,present,0.606978178024292,1,vertical,vertical,1,0.999987891868309,green,4,2,545,600,1055,600,800,855,1055,600,800,345,545,600,0,0,0,0,0,6,6,4,NaN,NaN,vertical,horizontal,horizontal,vertical,none,none
1b,18,100211,2,18,82,23,M,NA,constant,heterogeneous,6,present,1.92015790939331,1,vertical,vertical,1,1.03528094115081,green,3,6,942.594190385041,388.595418998464,657.405809614959,811.404581001536,911.784642431215,829.192481806288,1054.37883281626,617.787900804752,942.594190385041,388.595418998464,688.215357568785,370.807518193712,545.621167183745,582.212099195248,657.405809614959,811.404581001536,6,5,4,0,0,6,vertical,vertical,vertical,vertical,vertical,horizontal
1b,18,100211,2,19,83,23,M,NA,constant,heterogeneous,6,present,NaN,0,vertical,none,0,0.611764349760833,green,6,2,545,600,927.5,820.836477965032,672.5,820.836477965032,927.5,820.836477965032,1055,600,927.5,379.163522034968,672.5,379.163522034968,545,600,0,5,3,0,6,4,horizontal,vertical,vertical,vertical,vertical,vertical
1b,18,100211,2,20,84,23,M,NA,constant,heterogeneous,6,present,1.81885099411011,1,horizontal,horizontal,1,0.988223542107476,green,4,6,887.215136548046,360.378381699593,548.874022981887,644.280285305067,712.784863451954,839.621618300407,963.910840470068,795.341332995339,1051.12597701811,555.719714694933,887.215136548046,360.378381699593,636.089159529932,404.658667004661,548.874022981887,644.280285305067,6,3,0,4,5,0,horizontal,vertical,vertical,horizontal,vertical,horizontal
1b,18,100211,2,21,85,23,M,NA,constant,heterogeneous,6,present,1.88067889213562,0,horizontal,vertical,1,1.05880964067247,green,4,6,808.899371659138,345.155339110131,574.848363820974,719.715248510402,791.100628340862,854.844660889869,1016.25226451989,735.129412379467,1025.15163617903,480.284751489598,808.899371659138,345.155339110131,583.747735480111,464.870587620533,574.848363820974,719.715248510402,5,0,3,4,6,6,horizontal,horizontal,horizontal,horizontal,vertical,horizontal
1b,18,100211,2,22,86,23,M,NA,constant,heterogeneous,6,present,1.08925008773804,1,horizontal,horizontal,1,0.941166143064146,green,6,1,572.793336331966,715.767577433584,786.654331158049,854.650531362416,786.654331158049,854.650531362416,1013.86099482608,738.882953928832,1027.20666366803,484.232422566416,813.345668841951,345.349468637584,586.139005173917,461.117046071168,572.793336331966,715.767577433584,6,3,0,3,6,4,vertical,vertical,vertical,vertical,vertical,horizontal
1b,18,100211,2,23,87,23,M,NA,constant,heterogeneous,6,absent,1.76507997512817,1,vertical,vertical,1,0.694114798086661,green,4,NaN,708.616172865948,361.936991243214,NaN,NaN,891.383827134052,838.063008756786,1051.86052685176,639.890788585259,960.476699717708,401.827779828472,708.616172865948,361.936991243214,548.13947314824,560.109211414741,639.523300282292,798.172220171528,3,6,3,4,5,0,horizontal,vertical,horizontal,vertical,horizontal,horizontal
1b,18,100211,2,24,88,23,M,NA,constant,heterogeneous,3,present,1.13357615470886,0,vertical,horizontal,1,0.64705739904333,green,2,3,1020.83647796503,727.5,800,345,579.163522034968,727.5,1020.83647796503,727.5,800,345,0,0,0,0,0,0,5,4,5,NaN,NaN,NaN,horizontal,vertical,vertical,none,none,none
1b,18,100211,2,25,89,23,M,NA,constant,heterogeneous,3,absent,1.46916484832764,1,vertical,vertical,1,0.635293049282498,green,2,NaN,923.626453162816,376.971974679454,NaN,NaN,931.334709102064,818.577661679039,923.626453162816,376.971974679454,545.03883773512,604.450363641507,0,0,0,0,0,0,3,4,0,NaN,NaN,NaN,vertical,vertical,vertical,none,none,none
1b,18,100211,2,26,90,23,M,NA,constant,heterogeneous,5,present,1.05825519561768,1,horizontal,horizontal,1,0.976459192346643,green,5,1,548.874022981887,644.280285305067,764.510859255183,852.518357529101,764.510859255183,852.518357529101,1029.19248180629,711.784642431215,977.137884467044,416.568350913644,680.284751489598,374.848363820974,548.874022981887,644.280285305067,0,0,5,0,0,3,4,NaN,horizontal,horizontal,vertical,horizontal,horizontal,none
1b,18,100211,2,27,91,23,M,NA,constant,heterogeneous,5,absent,0.907764911651611,1,vertical,vertical,1,0.999987891868309,green,1,NaN,760.109211414741,851.86052685176,NaN,NaN,760.109211414741,851.86052685176,1027.20666366803,715.767577433584,980.31222920257,419.68777079743,684.232422566416,372.793336331966,548.13947314824,639.890788585259,0,0,4,3,0,3,6,NaN,vertical,horizontal,vertical,horizontal,vertical,none
1b,18,100211,2,28,92,23,M,NA,constant,heterogeneous,5,present,1.17145419120789,1,vertical,vertical,1,1.05880964067247,green,4,1,601.827779828472,439.523300282291,865.998856501143,846.311085703712,865.998856501143,846.311085703712,1054.65053136242,613.345668841951,891.383827134052,361.936991243214,601.827779828472,439.523300282291,586.139005173917,738.882953928832,0,0,3,0,3,4,0,NaN,horizontal,vertical,horizontal,vertical,vertical,none
1b,18,100211,2,29,93,23,M,NA,constant,heterogeneous,4,absent,1.646320104599,1,vertical,vertical,1,0.764700896651657,green,2,NaN,1053.60308331891,626.654758133252,NaN,NaN,773.345241866748,853.60308331891,1053.60308331891,626.654758133252,826.654758133252,346.39691668109,546.39691668109,573.345241866748,0,0,0,0,5,4,3,3,NaN,NaN,vertical,vertical,vertical,horizontal,none,none
1b,18,100211,2,30,94,23,M,NA,constant,heterogeneous,5,absent,1.09531021118164,1,vertical,vertical,1,0.988223542107476,green,1,NaN,704.475318678942,836.431882914531,NaN,NaN,704.475318678942,836.431882914531,995.341332995339,763.910840470068,1016.25226451989,464.870587620533,738.309916622085,352.574589799621,545.621167183745,582.212099195248,0,0,4,3,5,6,0,NaN,vertical,vertical,horizontal,vertical,vertical,none
1b,18,100211,2,31,95,23,M,NA,constant,heterogeneous,5,absent,1.33064007759094,1,vertical,vertical,1,1.05880964067247,green,4,NaN,721.200666434388,357.480588344736,NaN,NaN,721.200666434388,842.519411655264,1006.29933356561,749.885239334581,1006.29933356561,450.114760665419,721.200666434388,357.480588344736,545,600,0,0,0,6,3,4,5,NaN,vertical,horizontal,horizontal,vertical,vertical,none
1b,18,100211,2,32,96,23,M,NA,constant,heterogeneous,4,present,0.837536096572876,1,vertical,vertical,1,0.799993945934154,green,2,3,1032.95409169886,703.717843984329,903.717843984329,367.045908301137,696.282156015671,832.954091698863,1032.95409169886,703.717843984329,903.717843984329,367.045908301137,567.045908301137,496.282156015671,0,0,0,0,3,4,6,6,NaN,NaN,vertical,vertical,horizontal,vertical,none,none
1b,18,100211,2,33,97,23,M,NA,constant,heterogeneous,4,present,0.640874147415161,1,vertical,vertical,1,0.91763744354248,green,4,3,565.271262369628,699.636437764765,700.363562235235,365.271262369628,899.636437764765,834.728737630372,1034.72873763037,500.363562235235,700.363562235235,365.271262369628,565.271262369628,699.636437764765,0,0,0,0,0,3,3,4,NaN,NaN,vertical,horizontal,horizontal,vertical,none,none
1b,18,100211,2,34,98,23,M,NA,constant,heterogeneous,4,absent,0.755759954452515,1,horizontal,horizontal,1,0.694114798086661,green,2,NaN,1008.88377129369,746.261991269517,NaN,NaN,653.738008730483,808.883771293693,1008.88377129369,746.261991269517,946.261991269517,391.116228706307,591.116228706307,453.738008730483,0,0,0,0,3,4,6,6,NaN,NaN,vertical,horizontal,vertical,vertical,none,none
1b,18,100211,2,35,99,23,M,NA,constant,heterogeneous,5,present,0.941755056381226,1,vertical,vertical,1,0.729407847369159,green,3,1,1039.62161830041,512.784863451954,657.405809614959,811.404581001536,657.405809614959,811.404581001536,956.993676208043,800.942742169714,1039.62161830041,512.784863451954,791.100628340862,345.155339110131,554.878267535729,529.712474266665,0,0,6,5,4,3,0,NaN,vertical,horizontal,vertical,vertical,vertical,none
1b,18,100211,2,36,100,23,M,NA,constant,heterogeneous,4,absent,1.29452800750732,1,horizontal,horizontal,1,0.694114798086661,green,2,NaN,1011.40458100154,742.594190385041,NaN,NaN,657.405809614959,811.404581001536,1011.40458100154,742.594190385041,942.594190385041,388.595418998464,588.595418998464,457.40580961496,0,0,0,0,3,4,5,5,NaN,NaN,vertical,horizontal,vertical,horizontal,none,none
1b,18,100211,2,37,101,23,M,NA,constant,heterogeneous,3,present,0.717658996582031,1,horizontal,horizontal,1,1.04704529091164,green,2,3,1052.5183575291,635.489140744817,704.475318678942,363.568117085469,643.006323791957,800.942742169714,1052.5183575291,635.489140744817,704.475318678942,363.568117085469,0,0,0,0,0,0,0,4,3,NaN,NaN,NaN,vertical,horizontal,vertical,none,none,none
1b,18,100211,2,38,102,23,M,NA,constant,heterogeneous,4,absent,0.89843487739563,1,horizontal,horizontal,1,0.705879147847494,green,1,NaN,777.775285599347,854.029648013395,NaN,NaN,777.775285599347,854.029648013395,1054.0296480134,622.224714400653,822.224714400653,345.970351986605,545.970351986605,577.775285599347,0,0,0,0,4,6,5,0,NaN,NaN,horizontal,horizontal,vertical,horizontal,none,none
1b,18,100211,2,39,103,23,M,NA,constant,heterogeneous,5,absent,1.358726978302,1,horizontal,horizontal,1,0.905873093781648,green,2,NaN,1049.42763818712,546.982518841471,NaN,NaN,927.5,820.836477965032,1049.42763818712,546.982518841471,826.654758133252,346.39691668109,567.045908301137,496.282156015671,629.371695378491,789.501930496736,0,0,5,4,3,5,6,NaN,horizontal,horizontal,horizontal,vertical,horizontal,none
1b,18,100211,2,40,104,23,M,NA,constant,heterogeneous,6,absent,0.798722982406616,1,vertical,vertical,1,1.03528094115081,green,2,NaN,1000.94274216971,756.993676208043,NaN,NaN,764.510859255183,852.518357529101,1000.94274216971,756.993676208043,1036.43188291453,504.475318678942,835.489140744817,347.4816424709,599.057257830286,443.006323791957,563.568117085469,695.524681321058,6,4,0,3,5,3,horizontal,vertical,horizontal,horizontal,vertical,horizontal
1b,18,100211,2,41,105,23,M,NA,constant,heterogeneous,6,absent,1.14378595352173,1,vertical,vertical,1,1.03528094115081,green,6,NaN,567.045908301137,703.717843984329,NaN,NaN,773.345241866748,853.60308331891,1006.29933356561,749.885239334581,1032.95409169886,496.282156015671,826.654758133252,346.39691668109,593.700666434388,450.114760665419,567.045908301137,703.717843984329,6,3,0,5,3,4,horizontal,horizontal,vertical,horizontal,vertical,vertical
1b,18,100211,2,42,106,23,M,NA,constant,heterogeneous,4,present,0.915174961090088,1,horizontal,horizontal,1,0.611764349760833,green,4,2,549.685068220846,648.656293821019,1050.31493177915,551.343706178981,848.656293821019,850.314931779154,1050.31493177915,551.343706178981,751.343706178981,349.685068220846,549.685068220846,648.656293821019,0,0,0,0,0,6,5,4,NaN,NaN,vertical,horizontal,horizontal,horizontal,none,none
1b,18,100211,2,43,107,23,M,NA,constant,heterogeneous,3,present,0.793298006057739,1,horizontal,horizontal,1,0.788229596173322,green,2,1,848.656293821019,349.685068220846,992.450942956807,767.295052392579,992.450942956807,767.295052392579,848.656293821019,349.685068220846,558.892763222174,683.019879386575,0,0,0,0,0,0,5,4,6,NaN,NaN,NaN,vertical,horizontal,horizontal,none,none,none
1b,18,100211,2,44,108,23,M,NA,constant,heterogeneous,3,absent,0.967336177825928,1,horizontal,horizontal,1,0.705879147847494,green,2,NaN,1006.29933356561,450.114760665419,NaN,NaN,826.654758133252,853.60308331891,1006.29933356561,450.114760665419,567.045908301137,496.282156015671,0,0,0,0,0,0,5,4,6,NaN,NaN,NaN,horizontal,horizontal,horizontal,none,none,none
1b,18,100211,2,45,109,23,M,NA,constant,heterogeneous,3,present,0.914955139160156,1,horizontal,horizontal,1,1.01175224162914,green,3,2,721.200666434388,357.480588344736,1049.42763818712,653.017481158529,629.371695378491,789.501930496736,1049.42763818712,653.017481158529,721.200666434388,357.480588344736,0,0,0,0,0,0,5,3,4,NaN,NaN,NaN,vertical,vertical,horizontal,none,none,none
1b,18,100211,2,46,110,23,M,NA,constant,heterogeneous,6,present,1.07930088043213,1,vertical,vertical,1,0.87058004449915,green,6,3,607.549057043193,767.295052392579,992.450942956807,432.704947607421,848.656293821019,850.314931779154,1041.10723677783,683.019879386575,992.450942956807,432.704947607421,751.343706178981,349.685068220846,558.892763222174,516.980120613425,607.549057043193,767.295052392579,0,6,6,0,3,4,vertical,horizontal,vertical,horizontal,horizontal,vertical
1b,18,100211,2,47,111,23,M,NA,constant,heterogeneous,3,present,0.83345103263855,1,vertical,vertical,1,0.635293049282498,green,3,1,581.422338320961,468.665290897936,795.549636358493,854.96116226488,795.549636358493,854.96116226488,1023.02802532055,476.373546837184,581.422338320961,468.665290897936,0,0,0,0,0,0,5,6,4,NaN,NaN,NaN,vertical,horizontal,vertical,none,none,none
1b,18,100211,2,48,112,23,M,NA,constant,heterogeneous,6,absent,NaN,0,horizontal,none,0,0.87058004449915,green,3,NaN,1038.06300875679,508.616172865948,NaN,NaN,760.109211414741,851.86052685176,998.172220171528,760.476699717708,1038.06300875679,508.616172865948,839.890788585259,348.13947314824,601.827779828472,439.523300282291,561.936991243214,691.383827134052,5,6,4,0,0,3,horizontal,vertical,horizontal,vertical,horizontal,horizontal
1b,18,100211,2,49,113,23,M,NA,constant,heterogeneous,4,present,0.782055854797363,1,horizontal,horizontal,1,0.894108744020815,green,2,1,1046.31108570371,665.998856501143,734.001143498857,846.311085703712,734.001143498857,846.311085703712,1046.31108570371,665.998856501143,865.998856501143,353.688914296288,553.688914296288,534.001143498857,0,0,0,0,3,4,5,0,NaN,NaN,horizontal,horizontal,horizontal,horizontal,none,none
1b,18,100211,2,50,114,23,M,NA,constant,heterogeneous,5,absent,1.77616500854492,1,horizontal,horizontal,1,0.729407847369159,green,1,NaN,650.114760665419,806.299333565612,NaN,NaN,650.114760665419,806.299333565612,949.885239334581,806.299333565612,1042.51941165526,521.200666434388,800,345,557.480588344736,521.200666434388,0,0,4,0,6,3,0,NaN,horizontal,horizontal,vertical,vertical,horizontal,none
1b,18,100211,2,51,115,23,M,NA,constant,heterogeneous,3,absent,0.660640954971313,1,vertical,vertical,1,1.02351659138997,green,3,NaN,551.535633479765,542.637481142314,NaN,NaN,874.554784704298,843.857712770574,973.909581815937,413.504806087112,551.535633479765,542.637481142314,0,0,0,0,0,0,0,6,4,NaN,NaN,NaN,horizontal,horizontal,vertical,none,none,none
1b,18,100211,2,52,116,23,M,NA,constant,heterogeneous,4,present,0.871605157852173,1,horizontal,horizontal,1,1.0705739904333,green,3,1,839.890788585259,348.13947314824,760.109211414741,851.86052685176,760.109211414741,851.86052685176,1051.86052685176,639.890788585259,839.890788585259,348.13947314824,548.13947314824,560.109211414741,0,0,0,0,3,6,4,0,NaN,NaN,horizontal,horizontal,horizontal,vertical,none,none
1b,18,100211,2,53,117,23,M,NA,constant,heterogeneous,3,absent,0.605359077453613,0,vertical,horizontal,1,0.999987891868309,green,3,NaN,547.481642470899,635.489140744817,NaN,NaN,956.993676208043,800.942742169714,895.524681321058,363.568117085469,547.481642470899,635.489140744817,0,0,0,0,0,0,3,6,4,NaN,NaN,NaN,horizontal,horizontal,vertical,none,none,none
1b,18,100211,2,54,118,23,M,NA,constant,heterogeneous,6,absent,1.02908396720886,1,horizontal,horizontal,1,0.788229596173322,green,6,NaN,556.142287229426,674.554784704298,NaN,NaN,742.637481142314,848.464366520235,986.495193912888,773.909581815937,1043.85771277057,525.445215295702,857.362518857686,351.535633479765,613.504806087112,426.090418184063,556.142287229426,674.554784704298,0,0,5,5,3,4,horizontal,horizontal,horizontal,horizontal,horizontal,horizontal
1b,18,100211,2,55,119,23,M,NA,constant,heterogeneous,5,present,1.50289797782898,1,horizontal,horizontal,1,1.03528094115081,green,1,3,692.232343256122,831.108485694346,1023.02802532055,476.373546837184,692.232343256122,831.108485694346,986.495193912888,773.909581815937,1023.02802532055,476.373546837184,751.343706178981,349.685068220846,546.900731331463,568.923317431687,0,0,4,3,0,5,3,NaN,horizontal,horizontal,vertical,horizontal,horizontal,none
1b,18,100211,2,56,120,23,M,NA,constant,heterogeneous,5,absent,1.01809096336365,1,vertical,vertical,1,0.658821748804163,green,3,NaN,1038.06300875679,508.616172865948,NaN,NaN,661.117046071168,813.860994826083,960.476699717708,798.172220171528,1038.06300875679,508.616172865948,786.654331158049,345.349468637584,553.688914296288,534.001143498857,0,0,3,6,4,5,0,NaN,horizontal,horizontal,vertical,vertical,horizontal,none
1b,18,100211,2,57,121,23,M,NA,constant,heterogeneous,3,present,0.575147867202759,1,vertical,vertical,1,1.03528094115081,green,1,3,629.371695378491,789.501930496736,721.200666434388,357.480588344736,629.371695378491,789.501930496736,1049.42763818712,653.017481158529,721.200666434388,357.480588344736,0,0,0,0,0,0,4,6,0,NaN,NaN,NaN,vertical,vertical,horizontal,none,none,none
1b,18,100211,2,58,122,23,M,NA,constant,heterogeneous,3,present,1.18651795387268,1,horizontal,horizontal,1,0.976459192346643,green,1,3,960.476699717708,798.172220171528,548.13947314824,639.890788585259,960.476699717708,798.172220171528,891.383827134052,361.936991243214,548.13947314824,639.890788585259,0,0,0,0,0,0,4,5,0,NaN,NaN,NaN,horizontal,horizontal,horizontal,none,none,none
1b,18,100211,2,59,123,23,M,NA,constant,heterogeneous,4,present,1.29997491836548,1,vertical,vertical,1,1.08233834019414,green,3,4,755.719714694933,348.874022981887,548.874022981887,644.280285305067,844.280285305067,851.125977018113,1051.12597701811,555.719714694933,755.719714694933,348.874022981887,548.874022981887,644.280285305067,0,0,0,0,0,5,4,6,NaN,NaN,horizontal,vertical,vertical,vertical,none,none
1b,18,100211,2,60,124,23,M,NA,constant,heterogeneous,5,present,1.56767511367798,1,horizontal,horizontal,1,0.682350448325828,green,1,4,800,855,650.114760665419,393.700666434388,800,855,1042.51941165526,678.799333565612,949.885239334581,393.700666434388,650.114760665419,393.700666434388,557.480588344736,678.799333565612,0,0,4,6,3,3,0,NaN,horizontal,vertical,horizontal,vertical,horizontal,none
1b,18,100211,2,61,125,23,M,NA,constant,heterogeneous,3,absent,0.735366106033325,1,vertical,vertical,1,0.6,green,3,NaN,552.574589799621,538.309916622085,NaN,NaN,870.287525733335,845.121732464271,977.137884467044,416.568350913644,552.574589799621,538.309916622085,0,0,0,0,0,0,0,3,4,NaN,NaN,NaN,horizontal,horizontal,vertical,none,none,none
1b,18,100211,2,62,126,23,M,NA,constant,heterogeneous,4,absent,0.922156095504761,0,horizontal,vertical,1,0.799993945934154,green,4,NaN,574.848363820974,480.284751489598,NaN,NaN,680.284751489598,825.151636179026,1025.15163617903,719.715248510402,919.715248510402,374.848363820974,574.848363820974,480.284751489598,0,0,0,0,5,0,0,4,NaN,NaN,horizontal,vertical,horizontal,horizontal,none,none
1b,18,100211,2,63,127,23,M,NA,constant,heterogeneous,5,absent,1.31291604042053,0,horizontal,vertical,1,0.999987891868309,green,4,NaN,572.793336331966,484.232422566416,NaN,NaN,915.767577433584,827.206663668034,1051.86052685176,560.109211414741,839.890788585259,348.13947314824,572.793336331966,484.232422566416,619.68777079743,780.31222920257,0,0,5,6,6,4,3,NaN,vertical,vertical,horizontal,horizontal,vertical,none
1b,18,100211,2,64,128,23,M,NA,constant,heterogeneous,3,absent,0.793552160263062,1,horizontal,horizontal,1,0.705879147847494,green,2,NaN,1051.12597701811,555.719714694933,NaN,NaN,712.784863451954,839.621618300407,1051.12597701811,555.719714694933,636.089159529932,404.658667004661,0,0,0,0,0,0,0,4,0,NaN,NaN,NaN,vertical,horizontal,horizontal,none,none,none
1b,18,100211,3,1,129,23,M,NA,constant,heterogeneous,4,absent,0.669648170471191,1,vertical,vertical,1,0.799993945934154,green,4,NaN,601.827779828472,439.523300282291,NaN,NaN,639.523300282292,798.172220171528,998.172220171528,760.476699717708,960.476699717708,401.827779828472,601.827779828472,439.523300282291,0,0,0,0,5,6,5,4,NaN,NaN,horizontal,vertical,vertical,vertical,none,none
1b,18,100211,3,2,130,23,M,NA,constant,heterogeneous,5,absent,0.957161903381348,1,vertical,vertical,1,1.09410268995497,green,3,NaN,949.885239334581,393.700666434388,NaN,NaN,800,855,1042.51941165526,678.799333565612,949.885239334581,393.700666434388,650.114760665419,393.700666434388,557.480588344736,678.799333565612,0,0,6,5,4,0,3,NaN,vertical,vertical,vertical,vertical,horizontal,none
1b,18,100211,3,3,131,23,M,NA,constant,heterogeneous,4,present,1.10176014900208,1,horizontal,horizontal,1,0.858815694738317,green,2,1,1054.65053136242,586.654331158049,813.345668841951,854.650531362416,813.345668841951,854.650531362416,1054.65053136242,586.654331158049,786.654331158049,345.349468637584,545.349468637584,613.345668841951,0,0,0,0,0,4,3,6,NaN,NaN,vertical,horizontal,horizontal,horizontal,none,none
1b,18,100211,3,4,132,23,M,NA,constant,heterogeneous,3,present,0.665075063705444,1,vertical,vertical,1,0.658821748804163,green,2,3,1053.09926866854,568.923317431687,646.537169096228,396.34794493794,700.363562235235,834.728737630372,1053.09926866854,568.923317431687,646.537169096228,396.34794493794,0,0,0,0,0,0,0,4,6,NaN,NaN,NaN,horizontal,vertical,horizontal,none,none,none
1b,18,100211,3,5,133,23,M,NA,constant,heterogeneous,3,absent,0.607710123062134,1,vertical,vertical,1,0.858815694738317,green,2,NaN,1032.95409169886,703.717843984329,NaN,NaN,593.700666434388,749.885239334581,1032.95409169886,703.717843984329,773.345241866748,346.39691668109,0,0,0,0,0,0,5,4,5,NaN,NaN,NaN,vertical,vertical,vertical,none,none,none
1b,18,100211,3,6,134,23,M,NA,constant,heterogeneous,3,absent,0.597416877746582,1,vertical,vertical,1,0.87058004449915,green,1,NaN,870.287525733335,845.121732464271,NaN,NaN,870.287525733335,845.121732464271,977.137884467044,416.568350913644,552.574589799621,538.309916622085,0,0,0,0,0,0,4,6,6,NaN,NaN,NaN,vertical,horizontal,horizontal,none,none,none
1b,18,100211,3,7,135,23,M,NA,constant,heterogeneous,3,absent,0.686789989471436,1,vertical,vertical,1,1.0705739904333,green,2,NaN,895.524681321058,363.568117085469,NaN,NaN,956.993676208043,800.942742169714,895.524681321058,363.568117085469,547.481642470899,635.489140744817,0,0,0,0,0,0,0,4,6,NaN,NaN,NaN,vertical,vertical,horizontal,none,none,none
1b,18,100211,3,8,136,23,M,NA,constant,heterogeneous,6,present,0.86435604095459,1,horizontal,horizontal,1,0.776465246412489,green,6,4,636.089159529932,795.341332995339,712.784863451954,360.378381699593,887.215136548046,839.621618300407,1051.12597701811,644.280285305067,963.910840470068,404.658667004661,712.784863451954,360.378381699593,548.874022981887,555.719714694933,636.089159529932,795.341332995339,6,3,0,5,3,4,horizontal,vertical,vertical,vertical,horizontal,horizontal
1b,18,100211,3,9,137,23,M,NA,constant,heterogeneous,3,present,0.606451034545898,1,vertical,vertical,1,0.635293049282498,green,1,2,808.899371659138,854.844660889869,1016.25226451989,464.870587620533,808.899371659138,854.844660889869,1016.25226451989,464.870587620533,574.848363820974,480.284751489598,0,0,0,0,0,0,4,6,5,NaN,NaN,NaN,vertical,horizontal,vertical,none,none,none
1b,18,100211,3,10,138,23,M,NA,constant,heterogeneous,6,present,1.63852500915527,1,vertical,vertical,1,1.01175224162914,green,2,6,1053.09926866854,631.076682568313,646.537169096228,803.65205506206,899.636437764765,834.728737630372,1053.09926866854,631.076682568313,953.462830903772,396.34794493794,700.363562235235,365.271262369628,546.900731331463,568.923317431687,646.537169096228,803.65205506206,0,4,3,5,3,6,vertical,vertical,horizontal,vertical,vertical,vertical
1b,18,100211,3,11,139,23,M,NA,constant,heterogeneous,3,present,0.883219003677368,1,horizontal,horizontal,1,0.964694842585811,green,3,1,601.827779828472,439.523300282291,760.109211414741,851.86052685176,760.109211414741,851.86052685176,1038.06300875679,508.616172865948,601.827779828472,439.523300282291,0,0,0,0,0,0,0,3,4,NaN,NaN,NaN,horizontal,vertical,horizontal,none,none,none
1b,18,100211,3,12,140,23,M,NA,constant,heterogeneous,5,absent,0.963172912597656,1,vertical,vertical,1,0.705879147847494,green,2,NaN,1029.19248180629,711.784642431215,NaN,NaN,764.510859255183,852.518357529101,1029.19248180629,711.784642431215,977.137884467044,416.568350913644,680.284751489598,374.848363820974,548.874022981887,644.280285305067,0,0,6,4,6,5,0,NaN,horizontal,vertical,horizontal,vertical,horizontal,none
1b,18,100211,3,13,141,23,M,NA,constant,heterogeneous,6,absent,0.941715002059937,1,vertical,vertical,1,0.752936546890824,green,6,NaN,546.900731331463,631.076682568313,NaN,NaN,700.363562235235,834.728737630372,953.462830903772,803.65205506206,1053.09926866854,568.923317431687,899.636437764765,365.271262369628,646.537169096228,396.34794493794,546.900731331463,631.076682568313,6,0,3,5,3,4,horizontal,vertical,vertical,vertical,vertical,vertical
1b,18,100211,3,14,142,23,M,NA,constant,heterogeneous,3,present,0.576973915100098,1,vertical,vertical,1,0.611764349760833,green,3,1,556.142287229426,674.554784704298,986.495193912888,773.909581815937,986.495193912888,773.909581815937,857.362518857686,351.535633479765,556.142287229426,674.554784704298,0,0,0,0,0,0,6,6,4,NaN,NaN,NaN,vertical,vertical,vertical,none,none,none
1b,18,100211,3,15,143,23,M,NA,constant,heterogeneous,6,present,0.664134979248047,1,vertical,vertical,1,0.764700896651657,green,2,5,983.431649086356,777.137884467044,616.568350913644,422.862115532956,738.309916622085,847.425410200379,983.431649086356,777.137884467044,1045.12173246427,529.712474266665,861.690083377915,352.574589799621,616.568350913644,422.862115532956,554.878267535729,670.287525733335,5,4,5,6,3,6,vertical,vertical,horizontal,horizontal,vertical,vertical
1b,18,100211,3,16,144,23,M,NA,constant,heterogeneous,4,absent,1.44252705574036,1,vertical,vertical,1,1.04704529091164,green,1,NaN,661.117046071168,813.860994826083,NaN,NaN,661.117046071168,813.860994826083,1013.86099482608,738.882953928832,938.882953928832,386.139005173917,586.139005173917,461.117046071168,0,0,0,0,4,0,3,3,NaN,NaN,vertical,horizontal,vertical,vertical,none,none
1b,18,100211,3,17,145,23,M,NA,constant,heterogeneous,5,absent,0.801261901855469,1,vertical,vertical,1,0.682350448325828,green,5,NaN,560.378381699593,687.215136548046,NaN,NaN,808.899371659138,854.844660889869,1045.12173246427,670.287525733335,942.594190385041,388.595418998464,643.006323791957,399.057257830286,560.378381699593,687.215136548046,0,0,3,5,6,0,4,NaN,horizontal,horizontal,vertical,vertical,vertical,none
1b,18,100211,3,18,146,23,M,NA,constant,heterogeneous,3,present,0.642622947692871,1,horizontal,horizontal,1,1.05880964067247,green,1,2,822.224714400653,854.029648013395,1008.88377129369,453.738008730483,822.224714400653,854.029648013395,1008.88377129369,453.738008730483,568.891514305654,492.232343256122,0,0,0,0,0,0,4,0,6,NaN,NaN,NaN,horizontal,horizontal,vertical,none,none,none
1b,18,100211,3,19,147,23,M,NA,constant,heterogeneous,4,present,1.32585191726685,1,horizontal,horizontal,1,0.717643497608326,green,3,2,865.998856501143,353.688914296288,1046.31108570371,665.998856501143,734.001143498857,846.311085703712,1046.31108570371,665.998856501143,865.998856501143,353.688914296288,553.688914296288,534.001143498857,0,0,0,0,3,6,4,0,NaN,NaN,horizontal,horizontal,horizontal,vertical,none,none
1b,18,100211,3,20,148,23,M,NA,constant,heterogeneous,4,present,0.911398887634277,1,vertical,vertical,1,0.941166143064146,green,1,2,919.715248510402,825.151636179026,1025.15163617903,480.284751489598,919.715248510402,825.151636179026,1025.15163617903,480.284751489598,680.284751489598,374.848363820974,574.848363820974,719.715248510402,0,0,0,0,4,0,5,3,NaN,NaN,vertical,vertical,horizontal,horizontal,none,none
1b,18,100211,3,21,149,23,M,NA,constant,heterogeneous,3,absent,0.743619203567505,1,horizontal,horizontal,1,0.882344394259983,green,2,NaN,1053.60308331891,626.654758133252,NaN,NaN,650.114760665419,806.299333565612,1053.60308331891,626.654758133252,696.282156015671,367.045908301137,0,0,0,0,0,0,0,4,5,NaN,NaN,NaN,vertical,horizontal,horizontal,none,none,none
1b,18,100211,3,22,150,23,M,NA,constant,heterogeneous,6,present,0.885143995285034,1,vertical,vertical,1,0.929401793303313,green,4,1,907.767656743878,368.891514305654,692.232343256122,831.108485694346,692.232343256122,831.108485694346,946.261991269517,808.883771293693,1054.0296480134,577.775285599347,907.767656743878,368.891514305654,653.738008730483,391.116228706307,545.970351986605,622.224714400653,5,3,3,4,6,6,horizontal,horizontal,vertical,vertical,horizontal,horizontal
1b,18,100211,3,23,151,23,M,NA,constant,heterogeneous,5,absent,0.80452299118042,1,horizontal,horizontal,1,0.882344394259983,green,4,NaN,791.100628340862,345.155339110131,NaN,NaN,657.405809614959,811.404581001536,956.993676208043,800.942742169714,1039.62161830041,512.784863451954,791.100628340862,345.155339110131,554.878267535729,529.712474266665,0,0,6,3,5,4,0,NaN,vertical,vertical,horizontal,horizontal,vertical,none
1b,18,100211,3,24,152,23,M,NA,constant,heterogeneous,4,present,0.607481956481934,1,vertical,vertical,1,0.729407847369159,green,3,4,817.787900804752,345.621167183745,545.621167183745,582.212099195248,782.212099195248,854.378832816255,1054.37883281626,617.787900804752,817.787900804752,345.621167183745,545.621167183745,582.212099195248,0,0,0,0,5,6,4,0,NaN,NaN,horizontal,vertical,vertical,vertical,none,none
1b,18,100211,3,25,153,23,M,NA,constant,heterogeneous,4,present,1.67014718055725,0,vertical,horizontal,1,0.91763744354248,green,2,1,1051.12597701811,644.280285305067,755.719714694933,851.125977018113,755.719714694933,851.125977018113,1051.12597701811,644.280285305067,844.280285305067,348.874022981887,548.874022981887,555.719714694933,0,0,0,0,3,4,6,5,NaN,NaN,horizontal,vertical,vertical,horizontal,none,none
1b,18,100211,3,26,154,23,M,NA,constant,heterogeneous,4,absent,0.682971954345703,1,horizontal,horizontal,1,0.952930492824978,green,2,NaN,1047.42541020038,661.690083377915,NaN,NaN,738.309916622085,847.425410200379,1047.42541020038,661.690083377915,861.690083377915,352.574589799621,552.574589799621,538.309916622085,0,0,0,0,3,4,6,5,NaN,NaN,horizontal,horizontal,horizontal,horizontal,none,none
1b,18,100211,3,27,155,23,M,NA,constant,heterogeneous,6,absent,1.26091718673706,1,vertical,vertical,1,0.999987891868309,green,6,NaN,581.422338320961,731.334709102064,NaN,NaN,804.450363641507,854.96116226488,1023.02802532055,723.626453162816,1018.57766167904,468.665290897936,795.549636358493,345.03883773512,576.971974679454,476.373546837184,581.422338320961,731.334709102064,3,3,5,6,5,4,horizontal,horizontal,vertical,vertical,horizontal,vertical
1b,18,100211,3,28,156,23,M,NA,constant,heterogeneous,6,present,0.79335880279541,1,vertical,vertical,1,0.941166143064146,green,5,2,548.13947314824,560.109211414741,1051.86052685176,639.890788585259,891.383827134052,838.063008756786,1051.86052685176,639.890788585259,960.476699717708,401.827779828472,708.616172865948,361.936991243214,548.13947314824,560.109211414741,639.523300282292,798.172220171528,0,5,3,6,4,5,vertical,horizontal,vertical,horizontal,vertical,vertical
1b,18,100211,3,29,157,23,M,NA,constant,heterogeneous,6,present,1.28816795349121,1,horizontal,horizontal,1,0.752936546890824,green,2,6,1008.88377129369,746.261991269517,568.891514305654,707.767656743878,777.775285599347,854.029648013395,1008.88377129369,746.261991269517,1031.10848569435,492.232343256122,822.224714400653,345.970351986605,591.116228706307,453.738008730483,568.891514305654,707.767656743878,0,4,5,3,3,5,horizontal,horizontal,horizontal,horizontal,vertical,vertical
1b,18,100211,3,30,158,23,M,NA,constant,heterogeneous,4,absent,0.803548812866211,1,horizontal,horizontal,1,0.87058004449915,green,4,NaN,551.535633479765,657.362518857686,NaN,NaN,857.362518857686,848.464366520235,1048.46436652023,542.637481142314,742.637481142314,351.535633479765,551.535633479765,657.362518857686,0,0,0,0,0,6,5,4,NaN,NaN,horizontal,horizontal,vertical,horizontal,none,none
1b,18,100211,3,31,159,23,M,NA,constant,heterogeneous,5,present,1.02106118202209,1,horizontal,horizontal,1,0.858815694738317,green,2,4,1053.09926866854,631.076682568313,613.504806087112,426.090418184063,848.656293821019,850.314931779154,1053.09926866854,631.076682568313,907.767656743878,368.891514305654,613.504806087112,426.090418184063,576.971974679454,723.626453162816,0,0,3,4,5,5,6,NaN,vertical,horizontal,horizontal,horizontal,horizontal,none
1b,18,100211,3,32,160,23,M,NA,constant,heterogeneous,5,present,0.58912181854248,1,horizontal,horizontal,1,0.976459192346643,green,3,1,973.909581815937,413.504806087112,768.923317431687,853.099268668537,768.923317431687,853.099268668537,1031.10848569435,707.767656743878,973.909581815937,413.504806087112,676.373546837184,376.971974679454,549.685068220846,648.656293821019,0,0,3,5,4,6,0,NaN,vertical,horizontal,horizontal,vertical,horizontal,none
1b,18,100211,3,33,161,23,M,NA,constant,heterogeneous,6,absent,1.24187803268433,1,vertical,vertical,1,1.03528094115081,green,1,NaN,688.215357568785,829.192481806288,NaN,NaN,688.215357568785,829.192481806288,942.594190385041,811.404581001536,1054.37883281626,582.212099195248,911.784642431215,370.807518193712,657.405809614959,388.595418998464,545.621167183745,617.787900804752,4,5,3,5,6,6,vertical,vertical,horizontal,vertical,horizontal,horizontal
1b,18,100211,3,34,162,23,M,NA,constant,heterogeneous,3,present,0.701725006103516,1,horizontal,horizontal,1,0.941166143064146,green,3,2,545.349468637584,613.345668841951,915.767577433584,372.793336331966,938.882953928832,813.860994826083,915.767577433584,372.793336331966,545.349468637584,613.345668841951,0,0,0,0,0,0,5,6,4,NaN,NaN,NaN,horizontal,vertical,horizontal,none,none,none
1b,18,100211,3,35,163,23,M,NA,constant,heterogeneous,4,present,0.656070947647095,1,horizontal,horizontal,1,0.811758295694987,green,4,1,570.807518193712,488.215357568785,688.215357568785,829.192481806288,688.215357568785,829.192481806288,1029.19248180629,711.784642431215,911.784642431215,370.807518193712,570.807518193712,488.215357568785,0,0,0,0,5,0,3,4,NaN,NaN,horizontal,vertical,horizontal,horizontal,none,none
1b,18,100211,3,36,164,23,M,NA,constant,heterogeneous,3,absent,1.06743693351746,1,horizontal,horizontal,1,0.705879147847494,green,3,NaN,795.549636358493,345.03883773512,NaN,NaN,581.422338320961,731.334709102064,1023.02802532055,723.626453162816,795.549636358493,345.03883773512,0,0,0,0,0,0,5,6,4,NaN,NaN,NaN,vertical,horizontal,horizontal,none,none,none
1b,18,100211,3,37,165,23,M,NA,constant,heterogeneous,5,absent,0.647632122039795,1,vertical,vertical,1,0.741172197129991,green,1,NaN,895.524681321058,836.431882914531,NaN,NaN,895.524681321058,836.431882914531,1054.37883281626,582.212099195248,861.690083377915,352.574589799621,583.747735480111,464.870587620533,604.658667004661,763.910840470068,0,0,4,0,6,3,0,NaN,vertical,horizontal,horizontal,horizontal,horizontal,none
1b,18,100211,3,38,166,23,M,NA,constant,heterogeneous,5,present,0.833809852600098,1,vertical,vertical,1,0.658821748804163,green,4,3,708.616172865948,361.936991243214,998.172220171528,439.523300282291,734.001143498857,846.311085703712,1013.86099482608,738.882953928832,998.172220171528,439.523300282291,708.616172865948,361.936991243214,545.349468637584,613.345668841951,0,0,0,3,6,4,5,NaN,vertical,horizontal,horizontal,vertical,vertical,none
1b,18,100211,3,39,167,23,M,NA,constant,heterogeneous,5,absent,1.97920894622803,1,horizontal,horizontal,1,0.999987891868309,green,1,NaN,738.309916622085,847.425410200379,NaN,NaN,738.309916622085,847.425410200379,1016.25226451989,735.129412379467,995.341332995339,436.089159529932,704.475318678942,363.568117085469,545.621167183745,617.787900804752,0,0,4,3,5,0,6,NaN,horizontal,vertical,horizontal,vertical,vertical,none
1b,18,100211,3,40,168,23,M,NA,constant,heterogeneous,4,absent,0.771315097808838,1,horizontal,horizontal,1,0.611764349760833,green,4,NaN,596.34794493794,446.537169096228,NaN,NaN,646.537169096228,803.65205506206,1003.65205506206,753.462830903772,953.462830903772,396.34794493794,596.34794493794,446.537169096228,0,0,0,0,3,5,3,4,NaN,NaN,vertical,horizontal,horizontal,horizontal,none,none
1b,18,100211,3,41,169,23,M,NA,constant,heterogeneous,6,absent,1.58860516548157,1,horizontal,horizontal,1,0.694114798086661,green,2,NaN,942.594190385041,811.404581001536,NaN,NaN,688.215357568785,829.192481806288,942.594190385041,811.404581001536,1054.37883281626,582.212099195248,911.784642431215,370.807518193712,657.405809614959,388.595418998464,545.621167183745,617.787900804752,3,4,5,3,0,5,vertical,horizontal,vertical,vertical,vertical,horizontal
1b,18,100211,3,42,170,23,M,NA,constant,heterogeneous,4,absent,0.83387017250061,1,vertical,vertical,1,1.05880964067247,green,4,NaN,551.535633479765,657.362518857686,NaN,NaN,857.362518857686,848.464366520235,1048.46436652023,542.637481142314,742.637481142314,351.535633479765,551.535633479765,657.362518857686,0,0,0,0,5,5,0,4,NaN,NaN,vertical,vertical,vertical,vertical,none,none
1b,18,100211,3,43,171,23,M,NA,constant,heterogeneous,3,absent,0.692225933074951,1,vertical,vertical,1,0.670586098564996,green,2,NaN,1013.86099482608,461.117046071168,NaN,NaN,813.345668841951,854.650531362416,1013.86099482608,461.117046071168,572.793336331966,484.232422566416,0,0,0,0,0,0,6,4,0,NaN,NaN,NaN,horizontal,vertical,vertical,none,none,none
1b,18,100211,3,44,172,23,M,NA,constant,heterogeneous,5,present,0.959568023681641,1,horizontal,horizontal,1,1.0705739904333,green,5,3,557.480588344736,521.200666434388,1042.51941165526,521.200666434388,650.114760665419,806.299333565612,949.885239334581,806.299333565612,1042.51941165526,521.200666434388,800,345,557.480588344736,521.200666434388,0,0,3,5,6,5,4,NaN,vertical,horizontal,horizontal,vertical,horizontal,none
1b,18,100211,3,45,173,23,M,NA,constant,heterogeneous,4,absent,0.944557189941406,1,vertical,vertical,1,1.08233834019414,green,2,NaN,1013.86099482608,461.117046071168,NaN,NaN,938.882953928832,813.860994826083,1013.86099482608,461.117046071168,661.117046071168,386.139005173917,586.139005173917,738.882953928832,0,0,0,0,0,4,3,0,NaN,NaN,horizontal,vertical,horizontal,horizontal,none,none
1b,18,100211,3,46,174,23,M,NA,constant,heterogeneous,5,present,0.732392072677612,1,vertical,vertical,1,0.635293049282498,green,1,4,800,855,650.114760665419,393.700666434388,800,855,1042.51941165526,678.799333565612,949.885239334581,393.700666434388,650.114760665419,393.700666434388,557.480588344736,678.799333565612,0,0,4,6,5,0,6,NaN,vertical,horizontal,horizontal,horizontal,horizontal,none
1b,18,100211,3,47,175,23,M,NA,constant,heterogeneous,3,present,0.55761981010437,1,vertical,vertical,1,0.905873093781648,green,3,1,561.936991243214,508.616172865948,839.890788585259,851.86052685176,839.890788585259,851.86052685176,998.172220171528,439.523300282291,561.936991243214,508.616172865948,0,0,0,0,0,0,6,5,4,NaN,NaN,NaN,horizontal,horizontal,vertical,none,none,none
1b,18,100211,3,48,176,23,M,NA,constant,heterogeneous,6,absent,1.796954870224,1,horizontal,horizontal,1,0.611764349760833,green,5,NaN,545.03883773512,595.549636358493,NaN,NaN,923.626453162816,823.028025320546,1054.96116226488,604.450363641507,931.334709102064,381.422338320961,676.373546837184,376.971974679454,545.03883773512,595.549636358493,668.665290897936,818.577661679039,3,3,6,6,4,5,vertical,horizontal,vertical,horizontal,horizontal,vertical
1b,18,100211,3,49,177,23,M,NA,constant,heterogeneous,4,present,0.779632806777954,1,horizontal,horizontal,1,0.929401793303313,green,1,4,692.232343256122,831.108485694346,568.891514305654,492.232343256122,692.232343256122,831.108485694346,1031.10848569435,707.767656743878,907.767656743878,368.891514305654,568.891514305654,492.232343256122,0,0,0,0,4,6,5,0,NaN,NaN,horizontal,vertical,horizontal,horizontal,none,none
1b,18,100211,3,50,178,23,M,NA,constant,heterogeneous,3,present,0.978624105453491,1,horizontal,horizontal,1,0.964694842585811,green,1,2,746.982518841471,849.42763818712,1042.51941165526,521.200666434388,746.982518841471,849.42763818712,1042.51941165526,521.200666434388,610.498069503264,429.371695378491,0,0,0,0,0,0,4,5,3,NaN,NaN,NaN,horizontal,horizontal,vertical,none,none,none
1b,18,100211,3,51,179,23,M,NA,constant,heterogeneous,5,absent,0.934010028839111,1,horizontal,horizontal,1,0.976459192346643,green,2,NaN,1018.57766167904,731.334709102064,NaN,NaN,742.637481142314,848.464366520235,1018.57766167904,731.334709102064,992.450942956807,432.704947607421,700.363562235235,365.271262369628,545.970351986605,622.224714400653,0,0,3,4,0,5,3,NaN,vertical,horizontal,vertical,vertical,vertical,none
1b,18,100211,3,52,180,23,M,NA,constant,heterogeneous,3,absent,0.746289014816284,1,horizontal,horizontal,1,0.670586098564996,green,3,NaN,636.089159529932,404.658667004661,NaN,NaN,712.784863451954,839.621618300407,1051.12597701811,555.719714694933,636.089159529932,404.658667004661,0,0,0,0,0,0,3,0,4,NaN,NaN,NaN,horizontal,horizontal,horizontal,none,none,none
1b,18,100211,3,53,181,23,M,NA,constant,heterogeneous,5,present,0.672430038452148,1,vertical,vertical,1,0.952930492824978,green,1,5,942.594190385041,811.404581001536,643.006323791957,800.942742169714,942.594190385041,811.404581001536,1045.12173246427,529.712474266665,808.899371659138,345.155339110131,560.378381699593,512.784863451954,643.006323791957,800.942742169714,0,0,4,5,5,6,0,NaN,vertical,horizontal,vertical,vertical,vertical,none
1b,18,100211,3,54,182,23,M,NA,constant,heterogeneous,5,present,0.731853008270264,0,horizontal,vertical,1,0.682350448325828,green,1,3,684.232422566416,827.206663668034,1027.20666366803,484.232422566416,684.232422566416,827.206663668034,980.31222920257,780.31222920257,1027.20666366803,484.232422566416,760.109211414741,348.13947314824,548.13947314824,560.109211414741,0,0,4,6,3,5,5,NaN,horizontal,horizontal,vertical,vertical,vertical,none
1b,18,100211,3,55,183,23,M,NA,constant,heterogeneous,6,absent,1.10637784004211,1,horizontal,horizontal,1,1.01175224162914,green,1,NaN,831.076682568313,853.099268668537,NaN,NaN,831.076682568313,853.099268668537,1034.72873763037,699.636437764765,1003.65205506206,446.537169096228,768.923317431687,346.900731331463,565.271262369628,500.363562235235,596.34794493794,753.462830903772,4,6,3,5,0,3,horizontal,vertical,vertical,horizontal,horizontal,vertical
1b,18,100211,3,56,184,23,M,NA,constant,heterogeneous,6,absent,1.13050389289856,1,vertical,vertical,1,0.858815694738317,green,3,NaN,1051.12597701811,555.719714694933,NaN,NaN,712.784863451954,839.621618300407,963.910840470068,795.341332995339,1051.12597701811,555.719714694933,887.215136548046,360.378381699593,636.089159529932,404.658667004661,548.874022981887,644.280285305067,3,5,4,6,3,5,horizontal,horizontal,vertical,vertical,horizontal,horizontal
1b,18,100211,3,57,185,23,M,NA,constant,heterogeneous,5,absent,1.84685492515564,1,horizontal,horizontal,1,0.670586098564996,green,3,NaN,826.654758133252,346.39691668109,NaN,NaN,927.5,820.836477965032,1049.42763818712,546.982518841471,826.654758133252,346.39691668109,567.045908301137,496.282156015671,629.371695378491,789.501930496736,0,0,3,5,4,0,6,NaN,vertical,horizontal,horizontal,vertical,horizontal,none
1b,18,100211,3,58,186,23,M,NA,constant,heterogeneous,6,absent,1.36866998672485,1,horizontal,horizontal,1,0.635293049282498,green,4,NaN,891.383827134052,361.936991243214,NaN,NaN,708.616172865948,838.063008756786,960.476699717708,798.172220171528,1051.86052685176,560.109211414741,891.383827134052,361.936991243214,639.523300282292,401.827779828472,548.13947314824,639.890788585259,0,6,5,4,3,5,horizontal,horizontal,vertical,horizontal,horizontal,horizontal
1b,18,100211,3,59,187,23,M,NA,constant,heterogeneous,6,present,1.8383629322052,0,horizontal,vertical,1,0.905873093781648,green,4,6,831.076682568313,346.900731331463,565.271262369628,699.636437764765,768.923317431687,853.099268668537,1003.65205506206,753.462830903772,1034.72873763037,500.363562235235,831.076682568313,346.900731331463,596.34794493794,446.537169096228,565.271262369628,699.636437764765,3,5,0,4,3,6,vertical,vertical,vertical,horizontal,horizontal,horizontal
1b,18,100211,3,60,188,23,M,NA,constant,heterogeneous,5,present,0.915174961090088,1,vertical,vertical,1,0.788229596173322,green,4,2,561.936991243214,508.616172865948,1046.31108570371,534.001143498857,938.882953928832,813.860994826083,1046.31108570371,534.001143498857,813.345668841951,345.349468637584,561.936991243214,508.616172865948,639.523300282292,798.172220171528,0,0,3,5,5,4,0,NaN,horizontal,horizontal,horizontal,vertical,vertical,none
1b,18,100211,3,61,189,23,M,NA,constant,heterogeneous,3,absent,0.931216955184937,1,horizontal,horizontal,1,0.682350448325828,green,1,NaN,963.910840470068,795.341332995339,NaN,NaN,963.910840470068,795.341332995339,887.215136548046,360.378381699593,548.874022981887,644.280285305067,0,0,0,0,0,0,4,0,6,NaN,NaN,NaN,horizontal,vertical,vertical,none,none,none
1b,18,100211,3,62,190,23,M,NA,constant,heterogeneous,6,present,1.16232204437256,0,horizontal,vertical,1,0.811758295694987,green,3,4,977.137884467044,416.568350913644,729.712474266665,354.878267535729,870.287525733335,845.121732464271,1047.42541020038,661.690083377915,977.137884467044,416.568350913644,729.712474266665,354.878267535729,552.574589799621,538.309916622085,622.862115532956,783.431649086356,3,5,4,0,5,6,horizontal,vertical,horizontal,vertical,horizontal,horizontal
1b,18,100211,3,63,191,23,M,NA,constant,heterogeneous,4,absent,1.03242492675781,1,horizontal,horizontal,1,0.741172197129991,green,1,NaN,632.704947607421,792.450942956807,NaN,NaN,632.704947607421,792.450942956807,992.450942956807,767.295052392579,967.295052392579,407.549057043193,607.549057043193,432.704947607421,0,0,0,0,4,6,0,0,NaN,NaN,horizontal,horizontal,horizontal,vertical,none,none
1b,18,100211,3,64,192,23,M,NA,constant,heterogeneous,4,present,0.873058080673218,1,vertical,vertical,1,1.01175224162914,green,1,4,870.287525733335,845.121732464271,554.878267535729,670.287525733335,870.287525733335,845.121732464271,1045.12173246427,529.712474266665,729.712474266665,354.878267535729,554.878267535729,670.287525733335,0,0,0,0,4,3,6,5,NaN,NaN,vertical,vertical,vertical,vertical,none,none
1b,18,100211,4,1,193,23,M,NA,constant,heterogeneous,3,absent,0.890902996063232,1,horizontal,horizontal,1,0.776465246412489,green,1,NaN,653.738008730483,808.883771293693,NaN,NaN,653.738008730483,808.883771293693,1054.0296480134,622.224714400653,692.232343256122,368.891514305654,0,0,0,0,0,0,4,5,6,NaN,NaN,NaN,horizontal,vertical,horizontal,none,none,none
1b,18,100211,4,2,194,23,M,NA,constant,heterogeneous,5,absent,1.22263216972351,1,horizontal,horizontal,1,1.09410268995497,green,2,NaN,1053.09926866854,631.076682568313,NaN,NaN,848.656293821019,850.314931779154,1053.09926866854,631.076682568313,907.767656743878,368.891514305654,613.504806087112,426.090418184063,576.971974679454,723.626453162816,0,0,6,4,5,3,3,NaN,horizontal,horizontal,horizontal,horizontal,vertical,none
1b,18,100211,4,3,195,23,M,NA,constant,heterogeneous,3,absent,0.78245210647583,1,vertical,vertical,1,0.741172197129991,green,1,NaN,650.114760665419,806.299333565612,NaN,NaN,650.114760665419,806.299333565612,1053.60308331891,626.654758133252,696.282156015671,367.045908301137,0,0,0,0,0,0,4,5,3,NaN,NaN,NaN,vertical,vertical,horizontal,none,none,none
1b,18,100211,4,4,196,23,M,NA,constant,heterogeneous,4,absent,0.664870023727417,1,vertical,vertical,1,0.929401793303313,green,1,NaN,773.345241866748,853.60308331891,NaN,NaN,773.345241866748,853.60308331891,1053.60308331891,626.654758133252,826.654758133252,346.39691668109,546.39691668109,573.345241866748,0,0,0,0,4,3,5,0,NaN,NaN,vertical,horizontal,horizontal,horizontal,none,none
1b,18,100211,4,5,197,23,M,NA,constant,heterogeneous,4,absent,0.974798917770386,1,horizontal,horizontal,1,1.03528094115081,green,3,NaN,831.076682568313,346.900731331463,NaN,NaN,768.923317431687,853.099268668537,1053.09926866854,631.076682568313,831.076682568313,346.900731331463,546.900731331463,568.923317431687,0,0,0,0,5,0,4,3,NaN,NaN,horizontal,vertical,horizontal,horizontal,none,none
1b,18,100211,4,6,198,23,M,NA,constant,heterogeneous,6,present,0.725491046905518,1,vertical,vertical,1,0.952930492824978,green,4,2,878.799333565612,357.480588344736,970.628304621509,789.501930496736,721.200666434388,842.519411655264,970.628304621509,789.501930496736,1049.42763818712,546.982518841471,878.799333565612,357.480588344736,629.371695378491,410.498069503264,550.57236181288,653.017481158529,5,3,0,4,3,6,horizontal,vertical,horizontal,vertical,horizontal,horizontal
1b,18,100211,4,7,199,23,M,NA,constant,heterogeneous,6,absent,0.981015205383301,1,horizontal,horizontal,1,1.04704529091164,green,1,NaN,919.715248510402,825.151636179026,NaN,NaN,919.715248510402,825.151636179026,1054.84466088987,608.899371659138,935.129412379467,383.747735480111,680.284751489598,374.848363820974,545.155339110131,591.100628340862,664.870587620533,816.252264519889,4,6,3,3,6,5,horizontal,horizontal,vertical,vertical,vertical,vertical
1b,18,100211,4,8,200,23,M,NA,constant,heterogeneous,5,absent,0.768476009368896,1,vertical,vertical,1,0.776465246412489,green,1,NaN,764.510859255183,852.518357529101,NaN,NaN,764.510859255183,852.518357529101,1029.19248180629,711.784642431215,977.137884467044,416.568350913644,680.284751489598,374.848363820974,548.874022981887,644.280285305067,0,0,4,3,3,5,6,NaN,vertical,horizontal,horizontal,horizontal,vertical,none
1b,18,100211,4,9,201,23,M,NA,constant,heterogeneous,6,absent,1.07009315490723,1,vertical,vertical,1,0.905873093781648,green,6,NaN,546.900731331463,631.076682568313,NaN,NaN,700.363562235235,834.728737630372,953.462830903772,803.65205506206,1053.09926866854,568.923317431687,899.636437764765,365.271262369628,646.537169096228,396.34794493794,546.900731331463,631.076682568313,3,5,6,0,0,4,vertical,vertical,horizontal,vertical,horizontal,vertical
1b,18,100211,4,10,202,23,M,NA,constant,heterogeneous,3,absent,0.807991981506348,1,vertical,vertical,1,0.811758295694987,green,2,NaN,986.495193912888,426.090418184063,NaN,NaN,857.362518857686,848.464366520235,986.495193912888,426.090418184063,556.142287229426,525.445215295702,0,0,0,0,0,0,0,4,3,NaN,NaN,NaN,vertical,vertical,vertical,none,none,none
1b,18,100211,4,11,203,23,M,NA,constant,heterogeneous,4,present,0.672967195510864,1,horizontal,horizontal,1,1.03528094115081,green,2,4,1046.31108570371,534.001143498857,553.688914296288,665.998856501143,865.998856501143,846.311085703712,1046.31108570371,534.001143498857,734.001143498857,353.688914296288,553.688914296288,665.998856501143,0,0,0,0,6,4,0,5,NaN,NaN,vertical,horizontal,vertical,vertical,none,none
1b,18,100211,4,12,204,23,M,NA,constant,heterogeneous,4,absent,0.781283855438232,1,vertical,vertical,1,0.729407847369159,green,2,NaN,1013.86099482608,738.882953928832,NaN,NaN,661.117046071168,813.860994826083,1013.86099482608,738.882953928832,938.882953928832,386.139005173917,586.139005173917,461.117046071168,0,0,0,0,3,4,6,0,NaN,NaN,vertical,vertical,vertical,vertical,none,none
1b,18,100211,4,13,205,23,M,NA,constant,heterogeneous,4,present,0.926205158233643,1,horizontal,horizontal,1,0.858815694738317,green,3,1,980.31222920257,419.68777079743,619.68777079743,780.31222920257,619.68777079743,780.31222920257,980.31222920257,780.31222920257,980.31222920257,419.68777079743,619.68777079743,419.68777079743,0,0,0,0,3,0,4,3,NaN,NaN,horizontal,horizontal,horizontal,vertical,none,none
1b,18,100211,4,14,206,23,M,NA,constant,heterogeneous,4,absent,0.807875871658325,1,vertical,vertical,1,0.741172197129991,green,1,NaN,831.076682568313,853.099268668537,NaN,NaN,831.076682568313,853.099268668537,1053.09926866854,568.923317431687,768.923317431687,346.900731331463,546.900731331463,631.076682568313,0,0,0,0,4,3,5,6,NaN,NaN,vertical,horizontal,horizontal,vertical,none,none
1b,18,100211,4,15,207,23,M,NA,constant,heterogeneous,6,present,0.665620088577271,1,vertical,vertical,1,0.882344394259983,green,3,4,1003.65205506206,446.537169096228,768.923317431687,346.900731331463,831.076682568313,853.099268668537,1034.72873763037,699.636437764765,1003.65205506206,446.537169096228,768.923317431687,346.900731331463,565.271262369628,500.363562235235,596.34794493794,753.462830903772,6,3,4,5,6,0,horizontal,vertical,vertical,horizontal,horizontal,vertical
1b,18,100211,4,16,208,23,M,NA,constant,heterogeneous,3,absent,0.784722089767456,1,horizontal,horizontal,1,1.08233834019414,green,3,NaN,716.980120613425,358.892763222174,NaN,NaN,632.704947607421,792.450942956807,1050.31493177915,648.656293821019,716.980120613425,358.892763222174,0,0,0,0,0,0,3,0,4,NaN,NaN,NaN,vertical,horizontal,horizontal,none,none,none
1b,18,100211,4,17,209,23,M,NA,constant,heterogeneous,5,present,1.25949788093567,1,vertical,vertical,1,0.752936546890824,green,1,3,907.767656743878,831.108485694346,848.656293821019,349.685068220846,907.767656743878,831.108485694346,1053.09926866854,568.923317431687,848.656293821019,349.685068220846,576.971974679454,476.373546837184,613.504806087112,773.909581815937,0,0,4,5,3,3,5,NaN,vertical,horizontal,vertical,horizontal,vertical,none
1b,18,100211,4,18,210,23,M,NA,constant,heterogeneous,5,absent,0.806485176086426,1,vertical,vertical,1,1.0705739904333,green,3,NaN,1041.10723677783,516.980120613425,NaN,NaN,653.738008730483,808.883771293693,953.462830903772,803.65205506206,1041.10723677783,516.980120613425,795.549636358493,345.03883773512,556.142287229426,525.445215295702,0,0,5,3,4,6,3,NaN,horizontal,horizontal,vertical,vertical,vertical,none
1b,18,100211,4,19,211,23,M,NA,constant,heterogeneous,4,present,0.636992931365967,1,vertical,vertical,1,0.717643497608326,green,2,3,1053.09926866854,568.923317431687,768.923317431687,346.900731331463,831.076682568313,853.099268668537,1053.09926866854,568.923317431687,768.923317431687,346.900731331463,546.900731331463,631.076682568313,0,0,0,0,0,4,0,3,NaN,NaN,vertical,vertical,horizontal,vertical,none,none
1b,18,100211,4,20,212,23,M,NA,constant,heterogeneous,4,present,0.614968776702881,1,vertical,vertical,1,0.847051344977485,green,1,4,942.594190385041,811.404581001536,588.595418998464,742.594190385041,942.594190385041,811.404581001536,1011.40458100154,457.40580961496,657.405809614959,388.595418998464,588.595418998464,742.594190385041,0,0,0,0,4,0,5,0,NaN,NaN,vertical,horizontal,horizontal,vertical,none,none
1b,18,100211,4,21,213,23,M,NA,constant,heterogeneous,6,absent,0.944522142410278,1,horizontal,horizontal,1,0.64705739904333,green,1,NaN,907.767656743878,831.108485694346,NaN,NaN,907.767656743878,831.108485694346,1054.0296480134,622.224714400653,946.261991269517,391.116228706307,692.232343256122,368.891514305654,545.970351986605,577.775285599347,653.738008730483,808.883771293693,4,6,3,5,5,0,horizontal,horizontal,horizontal,vertical,vertical,horizontal
1b,18,100211,4,22,214,23,M,NA,constant,heterogeneous,3,absent,0.636229038238525,1,vertical,vertical,1,1.03528094115081,green,2,NaN,1041.10723677783,683.019879386575,NaN,NaN,607.549057043193,767.295052392579,1041.10723677783,683.019879386575,751.343706178981,349.685068220846,0,0,0,0,0,0,3,4,6,NaN,NaN,NaN,vertical,vertical,vertical,none,none,none
1b,18,100211,4,23,215,23,M,NA,constant,heterogeneous,5,absent,0.813656091690063,1,horizontal,horizontal,1,0.82352264545582,green,4,NaN,668.665290897936,381.422338320961,NaN,NaN,777.775285599347,854.029648013395,1034.72873763037,699.636437764765,967.295052392579,407.549057043193,668.665290897936,381.422338320961,551.535633479765,657.362518857686,0,0,5,3,0,4,6,NaN,horizontal,horizontal,horizontal,horizontal,horizontal,none
1b,18,100211,4,24,216,23,M,NA,constant,heterogeneous,5,absent,0.852751016616821,1,vertical,vertical,1,0.929401793303313,green,2,NaN,1054.65053136242,613.345668841951,NaN,NaN,865.998856501143,846.311085703712,1054.65053136242,613.345668841951,891.383827134052,361.936991243214,601.827779828472,439.523300282291,586.139005173917,738.882953928832,0,0,5,4,0,3,0,NaN,horizontal,vertical,vertical,vertical,vertical,none
1b,18,100211,4,25,217,23,M,NA,constant,heterogeneous,3,present,0.625453948974609,1,vertical,vertical,1,0.776465246412489,green,3,2,688.215357568785,370.807518193712,1054.37883281626,617.787900804752,657.405809614959,811.404581001536,1054.37883281626,617.787900804752,688.215357568785,370.807518193712,0,0,0,0,0,0,3,0,4,NaN,NaN,NaN,horizontal,horizontal,vertical,none,none,none
1b,18,100211,4,26,218,23,M,NA,constant,heterogeneous,4,absent,0.758747816085815,1,vertical,vertical,1,0.623528699521665,green,4,NaN,601.827779828472,760.476699717708,NaN,NaN,960.476699717708,798.172220171528,998.172220171528,439.523300282291,639.523300282292,401.827779828472,601.827779828472,760.476699717708,0,0,0,0,0,5,0,4,NaN,NaN,vertical,vertical,horizontal,vertical,none,none
1b,18,100211,4,27,219,23,M,NA,constant,heterogeneous,5,present,1.02653694152832,1,vertical,vertical,1,0.82352264545582,green,1,2,782.212099195248,854.378832816255,1036.43188291453,695.524681321058,782.212099195248,854.378832816255,1036.43188291453,695.524681321058,963.910840470068,404.658667004661,664.870587620533,383.747735480111,552.574589799621,661.690083377915,0,0,4,0,3,3,6,NaN,vertical,vertical,horizontal,horizontal,horizontal,none
1b,18,100211,4,28,220,23,M,NA,constant,heterogeneous,4,present,0.96587610244751,1,horizontal,horizontal,1,0.929401793303313,green,3,1,935.129412379467,383.747735480111,664.870587620533,816.252264519889,664.870587620533,816.252264519889,1016.25226451989,735.129412379467,935.129412379467,383.747735480111,583.747735480111,464.870587620533,0,0,0,0,3,3,4,0,NaN,NaN,vertical,vertical,horizontal,vertical,none,none
1b,18,100211,4,29,221,23,M,NA,constant,heterogeneous,5,absent,1.2604649066925,1,horizontal,horizontal,1,0.952930492824978,green,5,NaN,622.862115532956,783.431649086356,NaN,NaN,919.715248510402,825.151636179026,1051.12597701811,555.719714694933,835.489140744817,347.4816424709,570.807518193712,488.215357568785,622.862115532956,783.431649086356,0,0,3,0,3,5,4,NaN,horizontal,vertical,horizontal,horizontal,horizontal,none
1b,18,100211,4,30,222,23,M,NA,constant,heterogeneous,6,present,0.636106967926025,1,vertical,vertical,1,0.905873093781648,green,6,5,546.900731331463,631.076682568313,646.537169096228,396.34794493794,700.363562235235,834.728737630372,953.462830903772,803.65205506206,1053.09926866854,568.923317431687,899.636437764765,365.271262369628,646.537169096228,396.34794493794,546.900731331463,631.076682568313,5,5,0,0,3,4,vertical,horizontal,horizontal,horizontal,vertical,vertical
1b,18,100211,4,31,223,23,M,NA,constant,heterogeneous,5,absent,1.03754782676697,1,horizontal,horizontal,1,0.82352264545582,green,3,NaN,883.019879386575,358.892763222174,NaN,NaN,874.554784704298,843.857712770574,1054.96116226488,604.450363641507,883.019879386575,358.892763222174,596.34794493794,446.537169096228,591.116228706307,746.261991269517,0,0,0,3,4,3,6,NaN,horizontal,horizontal,horizontal,vertical,horizontal,none
1b,18,100211,4,32,224,23,M,NA,constant,heterogeneous,4,present,0.91544508934021,1,vertical,vertical,1,0.835286995216652,green,3,2,725.445215295702,356.142287229426,1043.85771277057,525.445215295702,874.554784704298,843.857712770574,1043.85771277057,525.445215295702,725.445215295702,356.142287229426,556.142287229426,674.554784704298,0,0,0,0,6,0,4,3,NaN,NaN,horizontal,vertical,vertical,horizontal,none,none
1b,18,100211,4,33,225,23,M,NA,constant,heterogeneous,4,present,0.600994825363159,1,vertical,vertical,1,0.964694842585811,green,3,1,835.489140744817,347.4816424709,764.510859255183,852.518357529101,764.510859255183,852.518357529101,1052.5183575291,635.489140744817,835.489140744817,347.4816424709,547.481642470899,564.510859255183,0,0,0,0,5,5,4,3,NaN,NaN,vertical,horizontal,vertical,horizontal,none,none
1b,18,100211,4,34,226,23,M,NA,constant,heterogeneous,4,present,0.615575790405273,1,horizontal,horizontal,1,0.717643497608326,green,2,1,1013.86099482608,738.882953928832,661.117046071168,813.860994826083,661.117046071168,813.860994826083,1013.86099482608,738.882953928832,938.882953928832,386.139005173917,586.139005173917,461.117046071168,0,0,0,0,3,4,5,6,NaN,NaN,vertical,horizontal,horizontal,horizontal,none,none
1b,18,100211,4,35,227,23,M,NA,constant,heterogeneous,5,absent,0.648591041564941,1,vertical,vertical,1,1.02351659138997,green,2,NaN,992.450942956807,767.295052392579,NaN,NaN,700.363562235235,834.728737630372,992.450942956807,767.295052392579,1018.57766167904,468.665290897936,742.637481142314,351.535633479765,545.970351986605,577.775285599347,0,0,0,4,0,5,3,NaN,vertical,vertical,vertical,horizontal,vertical,none
1b,18,100211,4,36,228,23,M,NA,constant,heterogeneous,5,present,1.1078679561615,1,vertical,vertical,1,0.705879147847494,green,3,4,865.998856501143,353.688914296288,586.139005173917,461.117046071168,891.383827134052,838.063008756786,1054.65053136242,586.654331158049,865.998856501143,353.688914296288,586.139005173917,461.117046071168,601.827779828472,760.476699717708,0,0,3,5,4,5,3,NaN,vertical,vertical,vertical,horizontal,vertical,none
1b,18,100211,4,37,229,23,M,NA,constant,heterogeneous,6,present,0.875013113021851,0,horizontal,vertical,1,0.635293049282498,green,2,3,931.334709102064,818.577661679039,1054.96116226488,595.549636358493,676.373546837184,823.028025320546,931.334709102064,818.577661679039,1054.96116226488,595.549636358493,923.626453162816,376.971974679454,668.665290897936,381.422338320961,545.03883773512,604.450363641507,3,4,0,0,6,5,horizontal,horizontal,horizontal,horizontal,vertical,horizontal
1b,18,100211,4,38,230,23,M,NA,constant,heterogeneous,6,absent,0.731369018554688,1,vertical,vertical,1,0.941166143064146,green,6,NaN,632.704947607421,792.450942956807,NaN,NaN,883.019879386575,841.107236777826,1050.31493177915,648.656293821019,967.295052392579,407.549057043193,716.980120613425,358.892763222174,549.685068220846,551.343706178981,632.704947607421,792.450942956807,0,3,0,6,3,4,vertical,horizontal,horizontal,horizontal,horizontal,vertical
1b,18,100211,4,39,231,23,M,NA,constant,heterogeneous,3,present,0.667926073074341,1,horizontal,horizontal,1,0.682350448325828,green,3,2,661.117046071168,386.139005173917,1054.65053136242,586.654331158049,684.232422566416,827.206663668034,1054.65053136242,586.654331158049,661.117046071168,386.139005173917,0,0,0,0,0,0,6,5,4,NaN,NaN,NaN,horizontal,horizontal,horizontal,none,none,none
1b,18,100211,4,40,232,23,M,NA,constant,heterogeneous,6,absent,0.693859100341797,1,horizontal,horizontal,1,0.82352264545582,green,5,NaN,547.481642470899,564.510859255183,NaN,NaN,895.524681321058,836.431882914531,1052.5183575291,635.489140744817,956.993676208043,399.057257830286,704.475318678942,363.568117085469,547.481642470899,564.510859255183,643.006323791957,800.942742169714,3,6,6,5,4,0,horizontal,vertical,horizontal,horizontal,horizontal,vertical
1b,18,100211,4,41,233,23,M,NA,constant,heterogeneous,5,present,0.640792846679688,1,horizontal,horizontal,1,0.835286995216652,green,5,2,545.03883773512,604.450363641507,1008.88377129369,746.261991269517,725.445215295702,843.857712770574,1008.88377129369,746.261991269517,1003.65205506206,446.537169096228,716.980120613425,358.892763222174,545.03883773512,604.450363641507,0,0,0,5,3,5,4,NaN,horizontal,vertical,vertical,vertical,horizontal,none
1b,18,100211,4,42,234,23,M,NA,constant,heterogeneous,4,absent,1.39745903015137,1,horizontal,horizontal,1,0.788229596173322,green,1,NaN,672.5,820.836477965032,NaN,NaN,672.5,820.836477965032,1020.83647796503,727.5,927.5,379.163522034968,579.163522034968,472.5,0,0,0,0,4,3,0,3,NaN,NaN,horizontal,vertical,vertical,vertical,none,none
1b,18,100211,4,43,235,23,M,NA,constant,heterogeneous,3,absent,1.44671893119812,1,horizontal,horizontal,1,0.64705739904333,green,3,NaN,581.422338320961,468.665290897936,NaN,NaN,795.549636358493,854.96116226488,1023.02802532055,476.373546837184,581.422338320961,468.665290897936,0,0,0,0,0,0,5,3,4,NaN,NaN,NaN,horizontal,horizontal,horizontal,none,none,none
1b,18,100211,4,44,236,23,M,NA,constant,heterogeneous,5,present,0.865625858306885,1,horizontal,horizontal,1,0.705879147847494,green,5,3,610.498069503264,770.628304621509,853.017481158529,350.57236181288,903.717843984329,832.954091698863,1053.60308331891,573.345241866748,853.017481158529,350.57236181288,579.163522034968,472.5,610.498069503264,770.628304621509,0,0,5,5,0,6,4,NaN,vertical,vertical,horizontal,vertical,horizontal,none
1b,18,100211,4,45,237,23,M,NA,constant,heterogeneous,6,present,0.75002908706665,1,vertical,vertical,1,0.941166143064146,green,1,2,903.717843984329,832.954091698863,1053.60308331891,626.654758133252,903.717843984329,832.954091698863,1053.60308331891,626.654758133252,949.885239334581,393.700666434388,696.282156015671,367.045908301137,546.39691668109,573.345241866748,650.114760665419,806.299333565612,4,6,5,0,5,3,vertical,vertical,horizontal,vertical,horizontal,horizontal
1b,18,100211,4,46,238,23,M,NA,constant,heterogeneous,4,absent,0.835870981216431,1,horizontal,horizontal,1,0.729407847369159,green,1,NaN,878.799333565612,842.519411655264,NaN,NaN,878.799333565612,842.519411655264,1042.51941165526,521.200666434388,721.200666434388,357.480588344736,557.480588344736,678.799333565612,0,0,0,0,4,0,0,5,NaN,NaN,horizontal,vertical,horizontal,vertical,none,none
1b,18,100211,4,47,239,23,M,NA,constant,heterogeneous,3,absent,0.813309907913208,1,vertical,vertical,1,0.82352264545582,green,3,NaN,800,345,NaN,NaN,579.163522034968,727.5,1020.83647796503,727.5,800,345,0,0,0,0,0,0,0,6,4,NaN,NaN,NaN,horizontal,horizontal,vertical,none,none,none
1b,18,100211,4,48,240,23,M,NA,constant,heterogeneous,3,present,0.759697914123535,1,horizontal,horizontal,1,0.894108744020815,green,3,2,546.900731331463,568.923317431687,953.462830903772,396.34794493794,899.636437764765,834.728737630372,953.462830903772,396.34794493794,546.900731331463,568.923317431687,0,0,0,0,0,0,5,3,4,NaN,NaN,NaN,horizontal,vertical,horizontal,none,none,none
1b,18,100211,4,49,241,23,M,NA,constant,heterogeneous,3,present,0.755027055740356,1,horizontal,horizontal,1,0.999987891868309,green,1,2,895.524681321058,836.431882914531,956.993676208043,399.057257830286,895.524681321058,836.431882914531,956.993676208043,399.057257830286,547.481642470899,564.510859255183,0,0,0,0,0,0,4,3,3,NaN,NaN,NaN,horizontal,horizontal,vertical,none,none,none
1b,18,100211,4,50,242,23,M,NA,constant,heterogeneous,5,present,0.746015071868896,1,horizontal,horizontal,1,0.988223542107476,green,5,2,548.874022981887,644.280285305067,1029.19248180629,711.784642431215,764.510859255183,852.518357529101,1029.19248180629,711.784642431215,977.137884467044,416.568350913644,680.284751489598,374.848363820974,548.874022981887,644.280285305067,0,0,3,5,6,0,4,NaN,horizontal,horizontal,horizontal,vertical,horizontal,none
1b,18,100211,4,51,243,23,M,NA,constant,heterogeneous,6,present,1.15179896354675,1,horizontal,horizontal,1,0.729407847369159,green,3,1,1053.60308331891,573.345241866748,696.282156015671,832.954091698863,696.282156015671,832.954091698863,949.885239334581,806.299333565612,1053.60308331891,573.345241866748,903.717843984329,367.045908301137,650.114760665419,393.700666434388,546.39691668109,626.654758133252,0,3,4,0,5,3,horizontal,horizontal,horizontal,horizontal,vertical,vertical
