experiment,subject,uniqueID,block,trial,trial_cumulative,age,gender,color_cond_blocking,color_history,shape_type,set_size,distractor,rt,acc,target_orient,response_key,response_made,iti,target_color,target_item,distractor_item,target_X,target_Y,distractor_X,distractor_Y,item1_X,item1_Y,item2_X,item2_Y,item3_X,item3_Y,item4_X,item4_Y,item5_X,item5_Y,item6_X,item6_Y,item1_shape,item2_shape,item3_shape,item4_shape,item5_shape,item6_shape,item1_line,item2_line,item3_line,item4_line,item5_line,item6_line
1b,19,100214,1,1,1,20,F,NA,constant,heterogeneous,6,present,1.90175414085388,1,vertical,vertical,1,0.635293410806095,green,2,6,1048.46436652023,657.362518857686,626.090418184063,786.495193912888,874.554784704298,843.857712770574,1048.46436652023,657.362518857686,973.909581815937,413.504806087112,725.445215295702,356.142287229426,551.535633479765,542.637481142314,626.090418184063,786.495193912888,6,4,6,3,0,3,horizontal,vertical,horizontal,vertical,vertical,horizontal
1b,19,100214,1,2,2,20,F,NA,constant,heterogeneous,6,absent,NaN,0,horizontal,none,0,0.976463048598346,green,3,NaN,1054.0296480134,577.775285599347,NaN,NaN,692.232343256122,831.108485694346,946.261991269517,808.883771293693,1054.0296480134,577.775285599347,907.767656743878,368.891514305654,653.738008730483,391.116228706307,545.970351986605,622.224714400653,3,5,4,5,6,0,vertical,horizontal,horizontal,horizontal,horizontal,horizontal
1b,19,100214,1,3,3,20,F,NA,constant,heterogeneous,6,present,1.98779106140137,1,vertical,vertical,1,0.811760464836569,green,6,3,554.878267535729,670.287525733335,1045.12173246427,529.712474266665,738.309916622085,847.425410200379,983.431649086356,777.137884467044,1045.12173246427,529.712474266665,861.690083377915,352.574589799621,616.568350913644,422.862115532956,554.878267535729,670.287525733335,6,3,5,0,5,4,vertical,horizontal,horizontal,horizontal,horizontal,vertical
1b,19,100214,1,4,4,20,F,NA,constant,heterogeneous,4,present,1.5237979888916,1,horizontal,horizontal,1,0.999991989135742,green,4,1,561.936991243214,508.616172865948,708.616172865948,838.063008756786,708.616172865948,838.063008756786,1038.06300875679,691.383827134052,891.383827134052,361.936991243214,561.936991243214,508.616172865948,0,0,0,0,6,0,5,4,NaN,NaN,horizontal,vertical,vertical,horizontal,none,none
1b,19,100214,1,5,5,20,F,NA,constant,heterogeneous,6,absent,NaN,0,horizontal,none,0,0.658822351343491,green,2,NaN,1055,600,NaN,NaN,927.5,820.836477965032,1055,600,927.5,379.163522034968,672.5,379.163522034968,545,600,672.5,820.836477965032,6,4,0,3,6,5,horizontal,horizontal,horizontal,horizontal,vertical,horizontal
1b,19,100214,1,6,6,20,F,NA,constant,heterogeneous,3,absent,1.02677297592163,1,vertical,vertical,1,0.752938113493078,green,1,NaN,643.006323791957,800.942742169714,NaN,NaN,643.006323791957,800.942742169714,1052.5183575291,635.489140744817,704.475318678942,363.568117085469,0,0,0,0,0,0,4,5,0,NaN,NaN,NaN,vertical,horizontal,horizontal,none,none,none
1b,19,100214,1,7,7,20,F,NA,constant,heterogeneous,5,absent,1.56131911277771,0,vertical,horizontal,1,1.09410775128533,green,2,NaN,1020.83647796503,727.5,NaN,NaN,746.982518841471,849.42763818712,1020.83647796503,727.5,989.501930496736,429.371695378491,696.282156015671,367.045908301137,546.39691668109,626.654758133252,0,0,0,4,0,5,3,NaN,vertical,vertical,vertical,horizontal,vertical,none
1b,19,100214,1,8,8,20,F,NA,constant,heterogeneous,6,present,NaN,0,horizontal,none,0,1.08234328101663,green,6,3,596.34794493794,753.462830903772,1003.65205506206,446.537169096228,831.076682568313,853.099268668537,1034.72873763037,699.636437764765,1003.65205506206,446.537169096228,768.923317431687,346.900731331463,565.271262369628,500.363562235235,596.34794493794,753.462830903772,5,3,6,6,0,4,vertical,horizontal,horizontal,horizontal,vertical,horizontal
1b,19,100214,1,9,9,20,F,NA,constant,heterogeneous,5,absent,1.48079586029053,1,vertical,vertical,1,0.917640697254854,green,4,NaN,581.422338320961,468.665290897936,NaN,NaN,899.636437764765,834.728737630372,1054.0296480134,577.775285599347,857.362518857686,351.535633479765,581.422338320961,468.665290897936,607.549057043193,767.295052392579,0,0,0,0,5,4,3,NaN,horizontal,horizontal,horizontal,vertical,vertical,none
1b,19,100214,1,10,10,20,F,NA,constant,heterogeneous,5,absent,1.67300891876221,1,horizontal,horizontal,1,0.705880232418285,green,3,NaN,1016.25226451989,464.870587620533,NaN,NaN,704.475318678942,836.431882914531,995.341332995339,763.910840470068,1016.25226451989,464.870587620533,738.309916622085,352.574589799621,545.621167183745,582.212099195248,0,0,0,5,4,3,0,NaN,vertical,horizontal,horizontal,horizontal,horizontal,none
1b,19,100214,1,11,11,20,F,NA,constant,heterogeneous,5,absent,1.63172197341919,1,horizontal,horizontal,1,1.04704987021054,green,2,NaN,963.910840470068,795.341332995339,NaN,NaN,664.870587620533,816.252264519889,963.910840470068,795.341332995339,1036.43188291453,504.475318678942,782.212099195248,345.621167183745,552.574589799621,538.309916622085,0,0,5,4,0,6,3,NaN,vertical,horizontal,horizontal,vertical,vertical,none
1b,19,100214,1,12,12,20,F,NA,constant,heterogeneous,5,present,0.745457172393799,1,horizontal,horizontal,1,0.858818345911363,green,2,5,956.993676208043,800.942742169714,554.878267535729,529.712474266665,657.405809614959,811.404581001536,956.993676208043,800.942742169714,1039.62161830041,512.784863451954,791.100628340862,345.155339110131,554.878267535729,529.712474266665,0,0,6,4,5,3,3,NaN,horizontal,horizontal,horizontal,vertical,horizontal,none
1b,19,100214,1,13,13,20,F,NA,constant,heterogeneous,4,present,1.23025703430176,1,vertical,vertical,1,1.08234328101663,green,1,2,629.371695378491,789.501930496736,989.501930496736,770.628304621509,629.371695378491,789.501930496736,989.501930496736,770.628304621509,970.628304621509,410.498069503264,610.498069503264,429.371695378491,0,0,0,0,4,6,0,5,NaN,NaN,vertical,horizontal,horizontal,vertical,none,none
1b,19,100214,1,14,14,20,F,NA,constant,heterogeneous,3,absent,1.16574597358704,1,vertical,vertical,1,0.74117364322438,green,3,NaN,596.34794493794,446.537169096228,NaN,NaN,768.923317431687,853.099268668537,1034.72873763037,500.363562235235,596.34794493794,446.537169096228,0,0,0,0,0,0,6,5,4,NaN,NaN,NaN,horizontal,horizontal,vertical,none,none,none
1b,19,100214,1,15,15,20,F,NA,constant,heterogeneous,6,present,1.14193511009216,1,vertical,vertical,1,0.623528940537397,green,4,2,751.343706178981,349.685068220846,1041.10723677783,683.019879386575,848.656293821019,850.314931779154,1041.10723677783,683.019879386575,992.450942956807,432.704947607421,751.343706178981,349.685068220846,558.892763222174,516.980120613425,607.549057043193,767.295052392579,5,0,5,4,3,0,horizontal,horizontal,vertical,vertical,vertical,horizontal
1b,19,100214,1,16,16,20,F,NA,constant,heterogeneous,6,absent,1.47439098358154,1,horizontal,horizontal,1,0.858818345911363,green,3,NaN,1032.95409169886,496.282156015671,NaN,NaN,773.345241866748,853.60308331891,1006.29933356561,749.885239334581,1032.95409169886,496.282156015671,826.654758133252,346.39691668109,593.700666434388,450.114760665419,567.045908301137,703.717843984329,3,3,4,6,5,5,horizontal,horizontal,horizontal,horizontal,vertical,vertical
1b,19,100214,1,17,17,20,F,NA,constant,heterogeneous,5,present,NaN,0,vertical,none,0,1.05881434047923,green,4,2,563.568117085469,504.475318678942,1047.42541020038,538.309916622085,935.129412379467,816.252264519889,1047.42541020038,538.309916622085,817.787900804752,345.621167183745,563.568117085469,504.475318678942,636.089159529932,795.341332995339,0,0,0,0,6,4,3,NaN,vertical,horizontal,vertical,vertical,vertical,none
1b,19,100214,1,18,18,20,F,NA,constant,heterogeneous,5,present,0.885233879089355,1,horizontal,horizontal,1,0.988227518867044,green,5,2,546.39691668109,626.654758133252,1020.83647796503,727.5,746.982518841471,849.42763818712,1020.83647796503,727.5,989.501930496736,429.371695378491,696.282156015671,367.045908301137,546.39691668109,626.654758133252,0,0,3,0,0,6,4,NaN,vertical,vertical,vertical,horizontal,horizontal,none
1b,19,100214,1,19,19,20,F,NA,constant,heterogeneous,5,absent,NaN,0,vertical,none,0,0.647057881074793,green,2,NaN,1042.51941165526,521.200666434388,NaN,NaN,949.885239334581,806.299333565612,1042.51941165526,521.200666434388,800,345,557.480588344736,521.200666434388,650.114760665419,806.299333565612,0,0,6,4,5,5,6,NaN,horizontal,vertical,vertical,vertical,vertical,none
1b,19,100214,1,20,20,20,F,NA,constant,heterogeneous,3,absent,1.77086591720581,1,vertical,vertical,1,0.729409172955681,green,1,NaN,742.637481142314,848.464366520235,NaN,NaN,742.637481142314,848.464366520235,1043.85771277057,525.445215295702,613.504806087112,426.090418184063,0,0,0,0,0,0,4,3,3,NaN,NaN,NaN,vertical,horizontal,horizontal,none,none,none
1b,19,100214,1,21,21,20,F,NA,constant,heterogeneous,4,absent,1.28755402565002,1,horizontal,horizontal,1,1.05881434047923,green,2,NaN,1036.43188291453,695.524681321058,NaN,NaN,704.475318678942,836.431882914531,1036.43188291453,695.524681321058,895.524681321058,363.568117085469,563.568117085469,504.475318678942,0,0,0,0,5,4,5,0,NaN,NaN,horizontal,horizontal,vertical,vertical,none,none
1b,19,100214,1,22,22,20,F,NA,constant,heterogeneous,4,present,1.458251953125,1,vertical,vertical,1,0.847053875642664,green,3,4,636.089159529932,404.658667004661,604.658667004661,763.910840470068,963.910840470068,795.341332995339,995.341332995339,436.089159529932,636.089159529932,404.658667004661,604.658667004661,763.910840470068,0,0,0,0,6,6,4,0,NaN,NaN,vertical,vertical,vertical,horizontal,none,none
1b,19,100214,1,23,23,20,F,NA,constant,heterogeneous,3,absent,0.980698823928833,1,horizontal,horizontal,1,1.04704987021054,green,3,NaN,551.535633479765,542.637481142314,NaN,NaN,874.554784704298,843.857712770574,973.909581815937,413.504806087112,551.535633479765,542.637481142314,0,0,0,0,0,0,0,6,4,NaN,NaN,NaN,vertical,horizontal,horizontal,none,none,none
1b,19,100214,1,24,24,20,F,NA,constant,heterogeneous,5,absent,0.930768013000488,1,horizontal,horizontal,1,0.917640697254854,green,2,NaN,1046.31108570371,665.998856501143,NaN,NaN,813.345668841951,854.650531362416,1046.31108570371,665.998856501143,938.882953928832,386.139005173917,639.523300282292,401.827779828472,561.936991243214,691.383827134052,0,0,6,4,5,5,6,NaN,vertical,horizontal,vertical,horizontal,vertical,none
1b,19,100214,1,25,25,20,F,NA,constant,heterogeneous,6,absent,NaN,0,horizontal,none,0,0.811760464836569,green,5,NaN,653.738008730483,391.116228706307,NaN,NaN,692.232343256122,831.108485694346,946.261991269517,808.883771293693,1054.0296480134,577.775285599347,907.767656743878,368.891514305654,653.738008730483,391.116228706307,545.970351986605,622.224714400653,6,3,5,0,4,6,horizontal,vertical,vertical,horizontal,horizontal,horizontal
1b,19,100214,1,26,26,20,F,NA,constant,heterogeneous,5,absent,0.903724908828735,1,vertical,vertical,1,1.07057881074793,green,2,NaN,1053.09926866854,631.076682568313,NaN,NaN,848.656293821019,850.314931779154,1053.09926866854,631.076682568313,907.767656743878,368.891514305654,613.504806087112,426.090418184063,576.971974679454,723.626453162816,0,0,3,4,0,0,5,NaN,vertical,vertical,horizontal,vertical,horizontal,none
1b,19,100214,1,27,27,20,F,NA,constant,heterogeneous,6,absent,0.876979112625122,1,vertical,vertical,1,0.752938113493078,green,2,NaN,1043.85771277057,674.554784704298,NaN,NaN,857.362518857686,848.464366520235,1043.85771277057,674.554784704298,986.495193912888,426.090418184063,742.637481142314,351.535633479765,556.142287229426,525.445215295702,613.504806087112,773.909581815937,5,4,3,0,6,6,horizontal,vertical,horizontal,horizontal,horizontal,vertical
1b,19,100214,1,28,28,20,F,NA,constant,heterogeneous,3,absent,1.15559196472168,1,horizontal,horizontal,1,0.647057881074793,green,1,NaN,653.738008730483,808.883771293693,NaN,NaN,653.738008730483,808.883771293693,1054.0296480134,622.224714400653,692.232343256122,368.891514305654,0,0,0,0,0,0,4,5,6,NaN,NaN,NaN,horizontal,horizontal,horizontal,none,none,none
1b,19,100214,1,29,29,20,F,NA,constant,heterogeneous,6,present,1.80783104896545,1,vertical,vertical,1,1.04704987021054,green,5,3,599.057257830286,443.006323791957,1036.43188291453,504.475318678942,764.510859255183,852.518357529101,1000.94274216971,756.993676208043,1036.43188291453,504.475318678942,835.489140744817,347.4816424709,599.057257830286,443.006323791957,563.568117085469,695.524681321058,3,5,3,0,4,6,vertical,vertical,horizontal,vertical,vertical,horizontal
1b,19,100214,1,30,30,20,F,NA,constant,heterogeneous,3,present,0.81303596496582,1,vertical,vertical,1,0.647057881074793,green,3,1,751.343706178981,349.685068220846,607.549057043193,767.295052392579,607.549057043193,767.295052392579,1041.10723677783,683.019879386575,751.343706178981,349.685068220846,0,0,0,0,0,0,3,5,4,NaN,NaN,NaN,vertical,vertical,vertical,none,none,none
1b,19,100214,1,31,31,20,F,NA,constant,heterogeneous,5,present,0.746326923370361,1,vertical,vertical,1,0.635293410806095,green,2,5,980.31222920257,780.31222920257,548.13947314824,560.109211414741,684.232422566416,827.206663668034,980.31222920257,780.31222920257,1027.20666366803,484.232422566416,760.109211414741,348.13947314824,548.13947314824,560.109211414741,0,0,3,4,0,5,5,NaN,vertical,vertical,vertical,horizontal,vertical,none
1b,19,100214,1,32,32,20,F,NA,constant,heterogeneous,4,present,1.24593710899353,1,vertical,vertical,1,0.835289405373966,green,3,4,800,345,545,600,800,855,1055,600,800,345,545,600,0,0,0,0,3,3,4,5,NaN,NaN,horizontal,vertical,vertical,vertical,none,none
1b,19,100214,1,33,33,20,F,NA,constant,heterogeneous,4,absent,1.80603504180908,1,vertical,vertical,1,0.74117364322438,green,2,NaN,1008.88377129369,746.261991269517,NaN,NaN,653.738008730483,808.883771293693,1008.88377129369,746.261991269517,946.261991269517,391.116228706307,591.116228706307,453.738008730483,0,0,0,0,3,4,0,5,NaN,NaN,vertical,vertical,vertical,horizontal,none,none
1b,19,100214,1,34,34,20,F,NA,constant,heterogeneous,3,present,0.748463153839111,1,vertical,vertical,1,0.894111756717457,green,1,2,949.885239334581,806.299333565612,903.717843984329,367.045908301137,949.885239334581,806.299333565612,903.717843984329,367.045908301137,546.39691668109,626.654758133252,0,0,0,0,0,0,4,6,0,NaN,NaN,NaN,vertical,vertical,horizontal,none,none,none
1b,19,100214,1,35,35,20,F,NA,constant,heterogeneous,3,present,0.847738981246948,1,horizontal,horizontal,1,0.611764470268698,green,1,3,746.982518841471,849.42763818712,610.498069503264,429.371695378491,746.982518841471,849.42763818712,1042.51941165526,521.200666434388,610.498069503264,429.371695378491,0,0,0,0,0,0,4,5,3,NaN,NaN,NaN,horizontal,horizontal,horizontal,none,none,none
1b,19,100214,1,36,36,20,F,NA,constant,heterogeneous,3,present,1.58117699623108,1,vertical,vertical,1,0.623528940537397,green,2,3,870.287525733335,354.878267535729,552.574589799621,661.690083377915,977.137884467044,783.431649086356,870.287525733335,354.878267535729,552.574589799621,661.690083377915,0,0,0,0,0,0,6,4,5,NaN,NaN,NaN,vertical,vertical,horizontal,none,none,none
1b,19,100214,1,37,37,20,F,NA,constant,heterogeneous,5,present,0.793983936309814,1,vertical,vertical,1,0.647057881074793,green,2,4,1049.42763818712,653.017481158529,629.371695378491,410.498069503264,826.654758133252,853.60308331891,1049.42763818712,653.017481158529,927.5,379.163522034968,629.371695378491,410.498069503264,567.045908301137,703.717843984329,0,0,6,4,0,0,5,NaN,horizontal,vertical,vertical,vertical,horizontal,none
1b,19,100214,1,38,38,20,F,NA,constant,heterogeneous,6,present,1.05007100105286,1,horizontal,horizontal,1,0.799995994567871,green,5,4,557.480588344736,521.200666434388,746.982518841471,350.57236181288,853.017481158529,849.42763818712,1042.51941165526,678.799333565612,989.501930496736,429.371695378491,746.982518841471,350.57236181288,557.480588344736,521.200666434388,610.498069503264,770.628304621509,6,6,3,3,4,5,vertical,horizontal,vertical,horizontal,horizontal,vertical
1b,19,100214,1,39,39,20,F,NA,constant,heterogeneous,4,present,1.98233699798584,0,horizontal,vertical,1,0.752938113493078,green,3,1,738.309916622085,352.574589799621,861.690083377915,847.425410200379,861.690083377915,847.425410200379,1047.42541020038,538.309916622085,738.309916622085,352.574589799621,552.574589799621,661.690083377915,0,0,0,0,3,0,4,6,NaN,NaN,vertical,vertical,horizontal,horizontal,none,none
1b,19,100214,1,40,40,20,F,NA,constant,heterogeneous,4,present,1.21929812431335,1,horizontal,horizontal,1,0.870582816180061,green,4,3,552.574589799621,661.690083377915,738.309916622085,352.574589799621,861.690083377915,847.425410200379,1047.42541020038,538.309916622085,738.309916622085,352.574589799621,552.574589799621,661.690083377915,0,0,0,0,5,3,0,4,NaN,NaN,horizontal,vertical,horizontal,horizontal,none,none
1b,19,100214,1,41,41,20,F,NA,constant,heterogeneous,3,present,1.13251495361328,1,horizontal,horizontal,1,1.02352092967314,green,1,3,696.282156015671,832.954091698863,650.114760665419,393.700666434388,696.282156015671,832.954091698863,1053.60308331891,573.345241866748,650.114760665419,393.700666434388,0,0,0,0,0,0,4,0,5,NaN,NaN,NaN,horizontal,vertical,vertical,none,none,none
1b,19,100214,1,42,42,20,F,NA,constant,heterogeneous,3,present,1.07448601722717,1,horizontal,horizontal,1,0.964698578329647,green,1,2,931.334709102064,818.577661679039,923.626453162816,376.971974679454,931.334709102064,818.577661679039,923.626453162816,376.971974679454,545.03883773512,604.450363641507,0,0,0,0,0,0,4,3,5,NaN,NaN,NaN,horizontal,horizontal,horizontal,none,none,none
1b,19,100214,1,43,43,20,F,NA,constant,heterogeneous,5,present,NaN,0,horizontal,none,0,0.811760464836569,green,2,1,1027.20666366803,715.767577433584,760.109211414741,851.86052685176,760.109211414741,851.86052685176,1027.20666366803,715.767577433584,980.31222920257,419.68777079743,684.232422566416,372.793336331966,548.13947314824,639.890788585259,0,0,5,4,6,5,3,NaN,horizontal,horizontal,vertical,horizontal,vertical,none
1b,19,100214,1,44,44,20,F,NA,constant,heterogeneous,6,absent,1.11514902114868,1,vertical,vertical,1,0.717644702686983,green,1,NaN,708.616172865948,838.063008756786,NaN,NaN,708.616172865948,838.063008756786,960.476699717708,798.172220171528,1051.86052685176,560.109211414741,891.383827134052,361.936991243214,639.523300282292,401.827779828472,548.13947314824,639.890788585259,4,6,0,5,5,3,vertical,vertical,vertical,horizontal,vertical,vertical
1b,19,100214,1,45,45,20,F,NA,constant,heterogeneous,6,present,NaN,0,horizontal,none,0,0.823524935105268,green,5,1,639.523300282292,401.827779828472,708.616172865948,838.063008756786,708.616172865948,838.063008756786,960.476699717708,798.172220171528,1051.86052685176,560.109211414741,891.383827134052,361.936991243214,639.523300282292,401.827779828472,548.13947314824,639.890788585259,0,5,0,3,4,6,horizontal,vertical,horizontal,horizontal,horizontal,horizontal
1b,19,100214,1,46,46,20,F,NA,constant,heterogeneous,4,absent,1.55107307434082,1,horizontal,horizontal,1,0.635293410806095,green,1,NaN,795.549636358493,854.96116226488,NaN,NaN,795.549636358493,854.96116226488,1054.96116226488,604.450363641507,804.450363641507,345.03883773512,545.03883773512,595.549636358493,0,0,0,0,4,5,0,5,NaN,NaN,horizontal,horizontal,horizontal,horizontal,none,none
1b,19,100214,1,47,47,20,F,NA,constant,heterogeneous,5,present,1.43899893760681,1,vertical,vertical,1,0.647057881074793,green,3,2,895.524681321058,363.568117085469,1054.37883281626,617.787900804752,861.690083377915,847.425410200379,1054.37883281626,617.787900804752,895.524681321058,363.568117085469,604.658667004661,436.089159529932,583.747735480111,735.129412379467,0,0,0,0,4,6,3,NaN,vertical,vertical,vertical,horizontal,horizontal,none
1b,19,100214,1,48,48,20,F,NA,constant,heterogeneous,4,absent,1.25713801383972,1,vertical,vertical,1,0.847053875642664,green,1,NaN,632.704947607421,792.450942956807,NaN,NaN,632.704947607421,792.450942956807,992.450942956807,767.295052392579,967.295052392579,407.549057043193,607.549057043193,432.704947607421,0,0,0,0,4,6,5,3,NaN,NaN,vertical,horizontal,horizontal,horizontal,none,none
1b,19,100214,1,49,49,20,F,NA,constant,heterogeneous,4,absent,1.43964195251465,1,horizontal,horizontal,1,1.07057881074793,green,4,NaN,588.595418998464,457.40580961496,NaN,NaN,657.405809614959,811.404581001536,1011.40458100154,742.594190385041,942.594190385041,388.595418998464,588.595418998464,457.40580961496,0,0,0,0,0,3,0,4,NaN,NaN,vertical,vertical,vertical,horizontal,none,none
1b,19,100214,1,50,50,20,F,NA,constant,heterogeneous,3,absent,1.5413191318512,0,vertical,horizontal,1,0.635293410806095,green,2,NaN,949.885239334581,393.700666434388,NaN,NaN,903.717843984329,832.954091698863,949.885239334581,393.700666434388,546.39691668109,573.345241866748,0,0,0,0,0,0,3,4,0,NaN,NaN,NaN,vertical,vertical,vertical,none,none,none
1b,19,100214,1,51,51,20,F,NA,constant,heterogeneous,5,absent,1.48149585723877,1,horizontal,horizontal,1,0.858818345911363,green,4,NaN,596.34794493794,446.537169096228,NaN,NaN,874.554784704298,843.857712770574,1054.96116226488,604.450363641507,883.019879386575,358.892763222174,596.34794493794,446.537169096228,591.116228706307,746.261991269517,0,0,5,3,6,4,0,NaN,vertical,vertical,vertical,horizontal,horizontal,none
1b,19,100214,1,52,52,20,F,NA,constant,heterogeneous,6,absent,NaN,0,vertical,none,0,0.964698578329647,green,4,NaN,786.654331158049,345.349468637584,NaN,NaN,813.345668841951,854.650531362416,1027.20666366803,715.767577433584,1013.86099482608,461.117046071168,786.654331158049,345.349468637584,572.793336331966,484.232422566416,586.139005173917,738.882953928832,6,5,0,4,6,3,horizontal,vertical,horizontal,vertical,horizontal,vertical
1b,19,100214,1,53,53,20,F,NA,constant,heterogeneous,5,present,1.09096884727478,1,horizontal,horizontal,1,0.6,green,5,3,548.874022981887,555.719714694933,1029.19248180629,488.215357568785,680.284751489598,825.151636179026,977.137884467044,783.431649086356,1029.19248180629,488.215357568785,764.510859255183,347.4816424709,548.874022981887,555.719714694933,0,0,6,5,3,0,4,NaN,vertical,horizontal,vertical,vertical,horizontal,none
1b,19,100214,1,54,54,20,F,NA,constant,heterogeneous,4,absent,1.54948496818542,1,horizontal,horizontal,1,0.823524935105268,green,2,NaN,1000.94274216971,756.993676208043,NaN,NaN,643.006323791957,800.942742169714,1000.94274216971,756.993676208043,956.993676208043,399.057257830286,599.057257830286,443.006323791957,0,0,0,0,5,4,3,0,NaN,NaN,vertical,horizontal,horizontal,horizontal,none,none
1b,19,100214,1,55,55,20,F,NA,constant,heterogeneous,6,present,1.22499799728394,1,horizontal,horizontal,1,0.811760464836569,green,5,1,646.537169096228,396.34794493794,700.363562235235,834.728737630372,700.363562235235,834.728737630372,953.462830903772,803.65205506206,1053.09926866854,568.923317431687,899.636437764765,365.271262369628,646.537169096228,396.34794493794,546.900731331463,631.076682568313,5,5,0,6,4,3,vertical,vertical,vertical,horizontal,horizontal,vertical
1b,19,100214,1,56,56,20,F,NA,constant,heterogeneous,4,absent,0.756208896636963,1,vertical,vertical,1,0.929405167523552,green,4,NaN,586.139005173917,461.117046071168,NaN,NaN,661.117046071168,813.860994826083,1013.86099482608,738.882953928832,938.882953928832,386.139005173917,586.139005173917,461.117046071168,0,0,0,0,6,5,6,4,NaN,NaN,horizontal,horizontal,vertical,vertical,none,none
1b,19,100214,1,57,57,20,F,NA,constant,heterogeneous,3,present,0.937294960021973,1,horizontal,horizontal,1,0.694115762149586,green,3,1,586.139005173917,461.117046071168,786.654331158049,854.650531362416,786.654331158049,854.650531362416,1027.20666366803,484.232422566416,586.139005173917,461.117046071168,0,0,0,0,0,0,5,0,4,NaN,NaN,NaN,vertical,horizontal,horizontal,none,none,none
1b,19,100214,1,58,58,20,F,NA,constant,heterogeneous,6,absent,1.95378017425537,1,vertical,vertical,1,1.08234328101663,green,1,NaN,672.5,820.836477965032,NaN,NaN,672.5,820.836477965032,927.5,820.836477965032,1055,600,927.5,379.163522034968,672.5,379.163522034968,545,600,4,0,6,0,5,3,vertical,vertical,vertical,horizontal,vertical,horizontal
1b,19,100214,1,59,59,20,F,NA,constant,heterogeneous,3,present,1.19799304008484,1,vertical,vertical,1,0.647057881074793,green,3,1,604.658667004661,436.089159529932,755.719714694933,851.125977018113,755.719714694933,851.125977018113,1039.62161830041,512.784863451954,604.658667004661,436.089159529932,0,0,0,0,0,0,5,0,4,NaN,NaN,NaN,vertical,horizontal,vertical,none,none,none
1b,19,100214,1,60,60,20,F,NA,constant,heterogeneous,4,present,0.776959896087646,1,horizontal,horizontal,1,0.74117364322438,green,4,2,547.481642470899,635.489140744817,1052.5183575291,564.510859255183,835.489140744817,852.518357529101,1052.5183575291,564.510859255183,764.510859255183,347.4816424709,547.481642470899,635.489140744817,0,0,0,0,3,6,3,4,NaN,NaN,horizontal,vertical,vertical,horizontal,none,none
1b,19,100214,1,61,61,20,F,NA,constant,heterogeneous,4,present,1.65739798545837,1,vertical,vertical,1,1.03528539994184,green,1,3,643.006323791957,800.942742169714,956.993676208043,399.057257830286,643.006323791957,800.942742169714,1000.94274216971,756.993676208043,956.993676208043,399.057257830286,599.057257830286,443.006323791957,0,0,0,0,4,5,0,6,NaN,NaN,vertical,horizontal,horizontal,horizontal,none,none
1b,19,100214,1,62,62,20,F,NA,constant,heterogeneous,4,absent,0.919152021408081,1,vertical,vertical,1,0.811760464836569,green,3,NaN,760.109211414741,348.13947314824,NaN,NaN,839.890788585259,851.86052685176,1051.86052685176,560.109211414741,760.109211414741,348.13947314824,548.13947314824,639.890788585259,0,0,0,0,6,6,4,0,NaN,NaN,horizontal,horizontal,vertical,horizontal,none,none
1b,19,100214,1,63,63,20,F,NA,constant,heterogeneous,3,absent,1.5740761756897,1,horizontal,horizontal,1,0.823524935105268,green,1,NaN,593.700666434388,749.885239334581,NaN,NaN,593.700666434388,749.885239334581,1032.95409169886,703.717843984329,773.345241866748,346.39691668109,0,0,0,0,0,0,4,3,6,NaN,NaN,NaN,horizontal,vertical,horizontal,none,none,none
1b,19,100214,1,64,64,20,F,NA,constant,heterogeneous,3,absent,1.97059798240662,0,horizontal,vertical,1,1.03528539994184,green,3,NaN,636.089159529932,404.658667004661,NaN,NaN,712.784863451954,839.621618300407,1051.12597701811,555.719714694933,636.089159529932,404.658667004661,0,0,0,0,0,0,5,5,4,NaN,NaN,NaN,horizontal,horizontal,horizontal,none,none,none
1b,19,100214,2,1,65,20,F,NA,constant,heterogeneous,4,present,1.81916904449463,1,horizontal,horizontal,1,0.905876226986156,green,1,3,755.719714694933,851.125977018113,844.280285305067,348.874022981887,755.719714694933,851.125977018113,1051.12597701811,644.280285305067,844.280285305067,348.874022981887,548.874022981887,555.719714694933,0,0,0,0,4,0,6,6,NaN,NaN,horizontal,horizontal,horizontal,vertical,none,none
1b,19,100214,2,2,66,20,F,NA,constant,heterogeneous,6,present,1.67195391654968,1,horizontal,horizontal,1,0.611764470268698,green,1,3,755.719714694933,851.125977018113,1039.62161830041,512.784863451954,755.719714694933,851.125977018113,995.341332995339,763.910840470068,1039.62161830041,512.784863451954,844.280285305067,348.874022981887,604.658667004661,436.089159529932,560.378381699593,687.215136548046,4,0,3,3,5,0,horizontal,vertical,vertical,horizontal,horizontal,horizontal
1b,19,100214,2,3,67,20,F,NA,constant,heterogeneous,6,present,NaN,0,horizontal,none,0,1.08234328101663,green,3,4,938.882953928832,386.139005173917,684.232422566416,372.793336331966,915.767577433584,827.206663668034,1054.65053136242,613.345668841951,938.882953928832,386.139005173917,684.232422566416,372.793336331966,545.349468637584,586.654331158049,661.117046071168,813.860994826083,6,3,4,5,0,3,horizontal,horizontal,horizontal,vertical,vertical,horizontal
1b,19,100214,2,4,68,20,F,NA,constant,heterogeneous,4,absent,1.65942311286926,1,vertical,vertical,1,1.01175645940444,green,4,NaN,581.422338320961,468.665290897936,NaN,NaN,668.665290897936,818.577661679039,1018.57766167904,731.334709102064,931.334709102064,381.422338320961,581.422338320961,468.665290897936,0,0,0,0,0,6,3,4,NaN,NaN,vertical,horizontal,vertical,vertical,none,none
1b,19,100214,2,5,69,20,F,NA,constant,heterogeneous,6,absent,NaN,0,vertical,none,0,0.882347286448759,green,2,NaN,1051.12597701811,644.280285305067,NaN,NaN,887.215136548046,839.621618300407,1051.12597701811,644.280285305067,963.910840470068,404.658667004661,712.784863451954,360.378381699593,548.874022981887,555.719714694933,636.089159529932,795.341332995339,3,4,3,6,5,5,vertical,vertical,vertical,horizontal,horizontal,vertical
1b,19,100214,2,6,70,20,F,NA,constant,heterogeneous,5,present,0.940252780914307,1,vertical,vertical,1,0.658822351343491,green,4,5,676.373546837184,376.971974679454,549.685068220846,648.656293821019,768.923317431687,853.099268668537,1031.10848569435,707.767656743878,973.909581815937,413.504806087112,676.373546837184,376.971974679454,549.685068220846,648.656293821019,0,0,3,6,3,4,0,NaN,horizontal,horizontal,vertical,vertical,vertical,none
1b,19,100214,2,7,71,20,F,NA,constant,heterogeneous,4,absent,1.19537806510925,1,horizontal,horizontal,1,0.799995994567871,green,4,NaN,547.481642470899,564.510859255183,NaN,NaN,764.510859255183,852.518357529101,1052.5183575291,635.489140744817,835.489140744817,347.4816424709,547.481642470899,564.510859255183,0,0,0,0,0,6,3,4,NaN,NaN,horizontal,horizontal,vertical,horizontal,none,none
1b,19,100214,2,8,72,20,F,NA,constant,heterogeneous,6,present,NaN,0,vertical,none,0,0.941169637792251,green,1,3,915.767577433584,827.206663668034,938.882953928832,386.139005173917,915.767577433584,827.206663668034,1054.65053136242,613.345668841951,938.882953928832,386.139005173917,684.232422566416,372.793336331966,545.349468637584,586.654331158049,661.117046071168,813.860994826083,4,6,0,6,5,3,vertical,horizontal,horizontal,vertical,vertical,horizontal
1b,19,100214,2,9,73,20,F,NA,constant,heterogeneous,5,present,1.8477029800415,1,horizontal,horizontal,1,0.858818345911363,green,3,5,895.524681321058,363.568117085469,583.747735480111,735.129412379467,861.690083377915,847.425410200379,1054.37883281626,617.787900804752,895.524681321058,363.568117085469,604.658667004661,436.089159529932,583.747735480111,735.129412379467,0,0,5,3,4,0,0,NaN,vertical,horizontal,horizontal,horizontal,vertical,none
1b,19,100214,2,10,74,20,F,NA,constant,heterogeneous,3,absent,0.866142988204956,1,vertical,vertical,1,1.05881434047923,green,3,NaN,680.284751489598,374.848363820974,NaN,NaN,664.870587620533,816.252264519889,1054.84466088987,608.899371659138,680.284751489598,374.848363820974,0,0,0,0,0,0,0,5,4,NaN,NaN,NaN,vertical,horizontal,vertical,none,none,none
1b,19,100214,2,11,75,20,F,NA,constant,heterogeneous,3,absent,1.6854829788208,1,vertical,vertical,1,1.09410775128533,green,2,NaN,995.341332995339,436.089159529932,NaN,NaN,844.280285305067,851.125977018113,995.341332995339,436.089159529932,560.378381699593,512.784863451954,0,0,0,0,0,0,3,4,3,NaN,NaN,NaN,vertical,vertical,horizontal,none,none,none
1b,19,100214,2,12,76,20,F,NA,constant,heterogeneous,6,absent,NaN,0,horizontal,none,0,0.811760464836569,green,6,NaN,607.549057043193,767.295052392579,NaN,NaN,848.656293821019,850.314931779154,1041.10723677783,683.019879386575,992.450942956807,432.704947607421,751.343706178981,349.685068220846,558.892763222174,516.980120613425,607.549057043193,767.295052392579,0,0,5,5,3,4,vertical,horizontal,horizontal,vertical,horizontal,horizontal
1b,19,100214,2,13,77,20,F,NA,constant,heterogeneous,3,present,1.18909120559692,1,vertical,vertical,1,1.05881434047923,green,2,3,1032.95409169886,496.282156015671,593.700666434388,450.114760665419,773.345241866748,853.60308331891,1032.95409169886,496.282156015671,593.700666434388,450.114760665419,0,0,0,0,0,0,6,4,0,NaN,NaN,NaN,horizontal,vertical,horizontal,none,none,none
1b,19,100214,2,14,78,20,F,NA,constant,heterogeneous,6,present,0.823206901550293,1,vertical,vertical,1,0.917640697254854,green,3,6,1039.62161830041,512.784863451954,560.378381699593,687.215136548046,755.719714694933,851.125977018113,995.341332995339,763.910840470068,1039.62161830041,512.784863451954,844.280285305067,348.874022981887,604.658667004661,436.089159529932,560.378381699593,687.215136548046,6,5,4,6,5,3,vertical,horizontal,vertical,horizontal,vertical,horizontal
1b,19,100214,2,15,79,20,F,NA,constant,heterogeneous,6,absent,1.59485292434692,1,horizontal,horizontal,1,0.729409172955681,green,2,NaN,1029.19248180629,711.784642431215,NaN,NaN,817.787900804752,854.378832816255,1029.19248180629,711.784642431215,1011.40458100154,457.40580961496,782.212099195248,345.621167183745,570.807518193712,488.215357568785,588.595418998464,742.594190385041,5,4,3,5,0,0,horizontal,horizontal,horizontal,vertical,horizontal,horizontal
1b,19,100214,2,16,80,20,F,NA,constant,heterogeneous,4,present,1.10792207717896,1,horizontal,horizontal,1,1.04704987021054,green,1,2,760.109211414741,851.86052685176,1051.86052685176,639.890788585259,760.109211414741,851.86052685176,1051.86052685176,639.890788585259,839.890788585259,348.13947314824,548.13947314824,560.109211414741,0,0,0,0,4,5,3,0,NaN,NaN,horizontal,horizontal,horizontal,vertical,none,none
1b,19,100214,2,17,81,20,F,NA,constant,heterogeneous,3,absent,1.0592098236084,0,vertical,horizontal,1,1.05881434047923,green,2,NaN,1049.42763818712,546.982518841471,NaN,NaN,721.200666434388,842.519411655264,1049.42763818712,546.982518841471,629.371695378491,410.498069503264,0,0,0,0,0,0,6,4,5,NaN,NaN,NaN,horizontal,vertical,horizontal,none,none,none
1b,19,100214,2,18,82,20,F,NA,constant,heterogeneous,5,absent,1.94143295288086,1,vertical,vertical,1,0.623528940537397,green,4,NaN,601.827779828472,439.523300282291,NaN,NaN,865.998856501143,846.311085703712,1054.65053136242,613.345668841951,891.383827134052,361.936991243214,601.827779828472,439.523300282291,586.139005173917,738.882953928832,0,0,3,0,3,4,0,NaN,vertical,horizontal,vertical,vertical,vertical,none
1b,19,100214,2,19,83,20,F,NA,constant,heterogeneous,4,present,1.51540398597717,1,horizontal,horizontal,1,0.952934108060949,green,2,3,1051.12597701811,555.719714694933,755.719714694933,348.874022981887,844.280285305067,851.125977018113,1051.12597701811,555.719714694933,755.719714694933,348.874022981887,548.874022981887,644.280285305067,0,0,0,0,5,4,6,6,NaN,NaN,vertical,horizontal,vertical,horizontal,none,none
1b,19,100214,2,20,84,20,F,NA,constant,heterogeneous,3,present,1.86291003227234,1,horizontal,horizontal,1,0.847053875642664,green,1,2,653.738008730483,808.883771293693,1054.0296480134,622.224714400653,653.738008730483,808.883771293693,1054.0296480134,622.224714400653,692.232343256122,368.891514305654,0,0,0,0,0,0,4,0,6,NaN,NaN,NaN,horizontal,vertical,vertical,none,none,none
1b,19,100214,2,21,85,20,F,NA,constant,heterogeneous,6,absent,1.86008095741272,0,vertical,horizontal,1,1.01175645940444,green,5,NaN,636.089159529932,404.658667004661,NaN,NaN,712.784863451954,839.621618300407,963.910840470068,795.341332995339,1051.12597701811,555.719714694933,887.215136548046,360.378381699593,636.089159529932,404.658667004661,548.874022981887,644.280285305067,6,5,6,0,4,0,horizontal,horizontal,horizontal,vertical,vertical,horizontal
1b,19,100214,2,22,86,20,F,NA,constant,heterogeneous,4,present,1.76359701156616,1,vertical,vertical,1,1.08234328101663,green,3,2,755.719714694933,348.874022981887,1051.12597701811,555.719714694933,844.280285305067,851.125977018113,1051.12597701811,555.719714694933,755.719714694933,348.874022981887,548.874022981887,644.280285305067,0,0,0,0,3,6,4,6,NaN,NaN,vertical,vertical,vertical,horizontal,none,none
1b,19,100214,2,23,87,20,F,NA,constant,heterogeneous,5,absent,NaN,0,horizontal,none,0,0.764702583761776,green,2,NaN,986.495193912888,773.909581815937,NaN,NaN,692.232343256122,831.108485694346,986.495193912888,773.909581815937,1023.02802532055,476.373546837184,751.343706178981,349.685068220846,546.900731331463,568.923317431687,0,0,3,4,3,5,0,NaN,horizontal,horizontal,horizontal,horizontal,horizontal,none
1b,19,100214,2,24,88,20,F,NA,constant,heterogeneous,6,present,NaN,0,vertical,none,0,0.658822351343491,green,5,3,545.621167183745,582.212099195248,942.594190385041,388.595418998464,911.784642431215,829.192481806288,1054.37883281626,617.787900804752,942.594190385041,388.595418998464,688.215357568785,370.807518193712,545.621167183745,582.212099195248,657.405809614959,811.404581001536,6,6,5,5,4,3,vertical,horizontal,vertical,vertical,vertical,horizontal
1b,19,100214,2,25,89,20,F,NA,constant,heterogeneous,6,absent,1.93386912345886,1,horizontal,horizontal,1,0.894111756717457,green,1,NaN,684.232422566416,827.206663668034,NaN,NaN,684.232422566416,827.206663668034,938.882953928832,813.860994826083,1054.65053136242,586.654331158049,915.767577433584,372.793336331966,661.117046071168,386.139005173917,545.349468637584,613.345668841951,4,0,5,0,6,3,horizontal,horizontal,vertical,vertical,horizontal,horizontal
1b,19,100214,2,26,90,20,F,NA,constant,heterogeneous,5,absent,1.18823909759521,1,vertical,vertical,1,0.764702583761776,green,3,NaN,1000.94274216971,443.006323791957,NaN,NaN,729.712474266665,845.121732464271,1011.40458100154,742.594190385041,1000.94274216971,443.006323791957,712.784863451954,360.378381699593,545.155339110131,608.899371659138,0,0,0,5,4,6,3,NaN,horizontal,horizontal,vertical,vertical,horizontal,none
1b,19,100214,2,27,91,20,F,NA,constant,heterogeneous,4,present,1.15439891815186,1,horizontal,horizontal,1,0.905876226986156,green,3,1,786.654331158049,345.349468637584,813.345668841951,854.650531362416,813.345668841951,854.650531362416,1054.65053136242,586.654331158049,786.654331158049,345.349468637584,545.349468637584,613.345668841951,0,0,0,0,6,6,4,0,NaN,NaN,vertical,vertical,horizontal,horizontal,none,none
1b,19,100214,2,28,92,20,F,NA,constant,heterogeneous,5,present,0.974256038665771,1,vertical,vertical,1,1.02352092967314,green,4,2,764.510859255183,347.4816424709,977.137884467044,783.431649086356,680.284751489598,825.151636179026,977.137884467044,783.431649086356,1029.19248180629,488.215357568785,764.510859255183,347.4816424709,548.874022981887,555.719714694933,0,0,6,3,5,4,0,NaN,horizontal,horizontal,horizontal,vertical,vertical,none
1b,19,100214,2,29,93,20,F,NA,constant,heterogeneous,4,present,1.16214513778687,1,vertical,vertical,1,0.811760464836569,green,2,3,1048.46436652023,657.362518857686,857.362518857686,351.535633479765,742.637481142314,848.464366520235,1048.46436652023,657.362518857686,857.362518857686,351.535633479765,551.535633479765,542.637481142314,0,0,0,0,0,4,6,6,NaN,NaN,horizontal,vertical,horizontal,horizontal,none,none
1b,19,100214,2,30,94,20,F,NA,constant,heterogeneous,3,present,0.775093793869019,1,horizontal,horizontal,1,0.894111756717457,green,2,3,813.345668841951,345.349468637584,572.793336331966,715.767577433584,1013.86099482608,738.882953928832,813.345668841951,345.349468637584,572.793336331966,715.767577433584,0,0,0,0,0,0,5,4,3,NaN,NaN,NaN,horizontal,horizontal,vertical,none,none,none
1b,19,100214,2,31,95,20,F,NA,constant,heterogeneous,3,absent,NaN,0,vertical,none,0,1.02352092967314,green,2,NaN,1036.43188291453,695.524681321058,NaN,NaN,599.057257830286,756.993676208043,1036.43188291453,695.524681321058,764.510859255183,347.4816424709,0,0,0,0,0,0,5,4,0,NaN,NaN,NaN,vertical,vertical,horizontal,none,none,none
1b,19,100214,2,32,96,20,F,NA,constant,heterogeneous,4,present,1.65761518478394,1,vertical,vertical,1,0.694115762149586,green,4,1,591.116228706307,746.261991269517,946.261991269517,808.883771293693,946.261991269517,808.883771293693,1008.88377129369,453.738008730483,653.738008730483,391.116228706307,591.116228706307,746.261991269517,0,0,0,0,6,0,5,4,NaN,NaN,vertical,horizontal,vertical,vertical,none,none
1b,19,100214,2,33,97,20,F,NA,constant,heterogeneous,4,absent,0.917037010192871,1,vertical,vertical,1,0.694115762149586,green,2,NaN,1043.85771277057,674.554784704298,NaN,NaN,725.445215295702,843.857712770574,1043.85771277057,674.554784704298,874.554784704298,356.142287229426,556.142287229426,525.445215295702,0,0,0,0,5,4,0,3,NaN,NaN,horizontal,vertical,horizontal,vertical,none,none
1b,19,100214,2,34,98,20,F,NA,constant,heterogeneous,5,present,1.36929988861084,1,horizontal,horizontal,1,0.882347286448759,green,1,3,768.923317431687,853.099268668537,973.909581815937,413.504806087112,768.923317431687,853.099268668537,1031.10848569435,707.767656743878,973.909581815937,413.504806087112,676.373546837184,376.971974679454,549.685068220846,648.656293821019,0,0,4,6,0,3,6,NaN,horizontal,horizontal,vertical,vertical,vertical,none
1b,19,100214,2,35,99,20,F,NA,constant,heterogeneous,3,present,1.44453811645508,1,vertical,vertical,1,0.988227518867044,green,1,3,755.719714694933,851.125977018113,604.658667004661,436.089159529932,755.719714694933,851.125977018113,1039.62161830041,512.784863451954,604.658667004661,436.089159529932,0,0,0,0,0,0,4,6,5,NaN,NaN,NaN,vertical,vertical,vertical,none,none,none
1b,19,100214,2,36,100,20,F,NA,constant,heterogeneous,5,absent,1.00310516357422,1,vertical,vertical,1,0.882347286448759,green,5,NaN,572.793336331966,715.767577433584,NaN,NaN,839.890788585259,851.86052685176,1051.86052685176,639.890788585259,915.767577433584,372.793336331966,619.68777079743,419.68777079743,572.793336331966,715.767577433584,0,0,6,6,5,3,4,NaN,horizontal,vertical,vertical,vertical,vertical,none
1b,19,100214,2,37,101,20,F,NA,constant,heterogeneous,3,absent,0.965204954147339,1,horizontal,horizontal,1,1.08234328101663,green,3,NaN,545.621167183745,582.212099195248,NaN,NaN,911.784642431215,829.192481806288,942.594190385041,388.595418998464,545.621167183745,582.212099195248,0,0,0,0,0,0,3,6,4,NaN,NaN,NaN,horizontal,horizontal,horizontal,none,none,none
1b,19,100214,2,38,102,20,F,NA,constant,heterogeneous,6,absent,1.36436796188354,1,vertical,vertical,1,0.776467054030474,green,4,NaN,684.232422566416,372.793336331966,NaN,NaN,915.767577433584,827.206663668034,1054.65053136242,613.345668841951,938.882953928832,386.139005173917,684.232422566416,372.793336331966,545.349468637584,586.654331158049,661.117046071168,813.860994826083,0,0,6,4,3,5,vertical,vertical,vertical,vertical,horizontal,horizontal
1b,19,100214,2,39,103,20,F,NA,constant,heterogeneous,5,present,1.24005794525146,1,vertical,vertical,1,0.811760464836569,green,5,4,545.970351986605,577.775285599347,742.637481142314,351.535633479765,700.363562235235,834.728737630372,992.450942956807,767.295052392579,1018.57766167904,468.665290897936,742.637481142314,351.535633479765,545.970351986605,577.775285599347,0,0,5,6,0,3,4,NaN,horizontal,horizontal,horizontal,vertical,vertical,none
1b,19,100214,2,40,104,20,F,NA,constant,heterogeneous,6,absent,1.68843984603882,1,vertical,vertical,1,0.976463048598346,green,6,NaN,547.481642470899,635.489140744817,NaN,NaN,704.475318678942,836.431882914531,956.993676208043,800.942742169714,1052.5183575291,564.510859255183,895.524681321058,363.568117085469,643.006323791957,399.057257830286,547.481642470899,635.489140744817,3,5,0,6,5,4,vertical,vertical,vertical,horizontal,vertical,vertical
1b,19,100214,2,41,105,20,F,NA,constant,heterogeneous,4,present,1.70880198478699,1,vertical,vertical,1,0.717644702686983,green,1,4,839.890788585259,851.86052685176,548.13947314824,639.890788585259,839.890788585259,851.86052685176,1051.86052685176,560.109211414741,760.109211414741,348.13947314824,548.13947314824,639.890788585259,0,0,0,0,4,3,3,5,NaN,NaN,vertical,horizontal,vertical,horizontal,none,none
1b,19,100214,2,42,106,20,F,NA,constant,heterogeneous,6,absent,0.872486114501953,1,horizontal,horizontal,1,0.67058682161219,green,1,NaN,848.656293821019,850.314931779154,NaN,NaN,848.656293821019,850.314931779154,1041.10723677783,683.019879386575,992.450942956807,432.704947607421,751.343706178981,349.685068220846,558.892763222174,516.980120613425,607.549057043193,767.295052392579,4,3,5,6,0,0,horizontal,vertical,horizontal,vertical,horizontal,horizontal
1b,19,100214,2,43,107,20,F,NA,constant,heterogeneous,5,present,NaN,0,horizontal,none,0,0.905876226986156,green,5,1,546.900731331463,631.076682568313,751.343706178981,850.314931779154,751.343706178981,850.314931779154,1023.02802532055,723.626453162816,986.495193912888,426.090418184063,692.232343256122,368.891514305654,546.900731331463,631.076682568313,0,0,0,5,0,3,4,NaN,horizontal,vertical,vertical,vertical,horizontal,none
1b,19,100214,2,44,108,20,F,NA,constant,heterogeneous,6,present,NaN,0,vertical,none,0,0.658822351343491,green,3,6,931.334709102064,381.422338320961,668.665290897936,818.577661679039,923.626453162816,823.028025320546,1054.96116226488,604.450363641507,931.334709102064,381.422338320961,676.373546837184,376.971974679454,545.03883773512,595.549636358493,668.665290897936,818.577661679039,6,6,4,5,3,0,horizontal,vertical,vertical,horizontal,vertical,vertical
1b,19,100214,2,45,109,20,F,NA,constant,heterogeneous,5,present,1.67881107330322,1,horizontal,horizontal,1,1.03528539994184,green,3,2,973.909581815937,413.504806087112,1031.10848569435,707.767656743878,768.923317431687,853.099268668537,1031.10848569435,707.767656743878,973.909581815937,413.504806087112,676.373546837184,376.971974679454,549.685068220846,648.656293821019,0,0,0,5,4,0,6,NaN,vertical,horizontal,horizontal,horizontal,horizontal,none
1b,19,100214,2,46,110,20,F,NA,constant,heterogeneous,3,absent,1.8228600025177,1,horizontal,horizontal,1,0.717644702686983,green,2,NaN,878.799333565612,357.480588344736,NaN,NaN,970.628304621509,789.501930496736,878.799333565612,357.480588344736,550.57236181288,653.017481158529,0,0,0,0,0,0,6,4,3,NaN,NaN,NaN,horizontal,horizontal,vertical,none,none,none
1b,19,100214,2,47,111,20,F,NA,constant,heterogeneous,3,present,1.37351894378662,1,vertical,vertical,1,0.894111756717457,green,3,2,664.870587620533,383.747735480111,1054.84466088987,591.100628340862,680.284751489598,825.151636179026,1054.84466088987,591.100628340862,664.870587620533,383.747735480111,0,0,0,0,0,0,3,6,4,NaN,NaN,NaN,horizontal,vertical,vertical,none,none,none
1b,19,100214,2,48,112,20,F,NA,constant,heterogeneous,6,present,1.50855302810669,1,horizontal,horizontal,1,0.976463048598346,green,3,5,1053.60308331891,573.345241866748,650.114760665419,393.700666434388,696.282156015671,832.954091698863,949.885239334581,806.299333565612,1053.60308331891,573.345241866748,903.717843984329,367.045908301137,650.114760665419,393.700666434388,546.39691668109,626.654758133252,0,6,4,3,5,6,horizontal,vertical,horizontal,horizontal,vertical,vertical
1b,19,100214,2,49,113,20,F,NA,constant,heterogeneous,5,absent,1.80142498016357,1,horizontal,horizontal,1,0.717644702686983,green,2,NaN,970.628304621509,789.501930496736,NaN,NaN,672.5,820.836477965032,970.628304621509,789.501930496736,1032.95409169886,496.282156015671,773.345241866748,346.39691668109,550.57236181288,546.982518841471,0,0,0,4,5,0,6,NaN,vertical,horizontal,vertical,horizontal,vertical,none
1b,19,100214,2,50,114,20,F,NA,constant,heterogeneous,3,present,1.43104791641235,1,vertical,vertical,1,0.67058682161219,green,3,1,568.891514305654,492.232343256122,822.224714400653,854.029648013395,822.224714400653,854.029648013395,1008.88377129369,453.738008730483,568.891514305654,492.232343256122,0,0,0,0,0,0,0,6,4,NaN,NaN,NaN,horizontal,horizontal,vertical,none,none,none
1b,19,100214,2,51,115,20,F,NA,constant,heterogeneous,3,absent,1.56151294708252,1,horizontal,horizontal,1,0.682351291880888,green,1,NaN,1016.25226451989,735.129412379467,NaN,NaN,1016.25226451989,735.129412379467,808.899371659138,345.155339110131,574.848363820974,719.715248510402,0,0,0,0,0,0,4,5,3,NaN,NaN,NaN,horizontal,horizontal,horizontal,none,none,none
1b,19,100214,2,52,116,20,F,NA,constant,heterogeneous,6,present,1.25888204574585,1,horizontal,horizontal,1,0.705880232418285,green,6,4,613.504806087112,773.909581815937,742.637481142314,351.535633479765,857.362518857686,848.464366520235,1043.85771277057,674.554784704298,986.495193912888,426.090418184063,742.637481142314,351.535633479765,556.142287229426,525.445215295702,613.504806087112,773.909581815937,5,5,0,3,0,4,vertical,horizontal,vertical,horizontal,horizontal,horizontal
1b,19,100214,2,53,117,20,F,NA,constant,heterogeneous,4,absent,1.24056911468506,0,horizontal,vertical,1,0.811760464836569,green,2,NaN,980.31222920257,419.68777079743,NaN,NaN,980.31222920257,780.31222920257,980.31222920257,419.68777079743,619.68777079743,419.68777079743,619.68777079743,780.31222920257,0,0,0,0,0,4,5,0,NaN,NaN,vertical,horizontal,horizontal,vertical,none,none
1b,19,100214,2,54,118,20,F,NA,constant,heterogeneous,5,present,1.63692903518677,1,vertical,vertical,1,0.964698578329647,green,3,2,1013.86099482608,461.117046071168,998.172220171528,760.476699717708,708.616172865948,838.063008756786,998.172220171528,760.476699717708,1013.86099482608,461.117046071168,734.001143498857,353.688914296288,545.349468637584,586.654331158049,0,0,3,3,4,6,0,NaN,vertical,horizontal,vertical,vertical,horizontal,none
1b,19,100214,2,55,119,20,F,NA,constant,heterogeneous,4,absent,1.95741200447083,1,vertical,vertical,1,0.776467054030474,green,1,NaN,688.215357568785,829.192481806288,NaN,NaN,688.215357568785,829.192481806288,1029.19248180629,711.784642431215,911.784642431215,370.807518193712,570.807518193712,488.215357568785,0,0,0,0,4,5,6,0,NaN,NaN,vertical,vertical,vertical,horizontal,none,none
1b,19,100214,2,56,120,20,F,NA,constant,heterogeneous,3,absent,1.09346795082092,1,horizontal,horizontal,1,0.635293410806095,green,2,NaN,1053.60308331891,573.345241866748,NaN,NaN,696.282156015671,832.954091698863,1053.60308331891,573.345241866748,650.114760665419,393.700666434388,0,0,0,0,0,0,5,4,3,NaN,NaN,NaN,horizontal,horizontal,horizontal,none,none,none
1b,19,100214,2,57,121,20,F,NA,constant,heterogeneous,5,absent,1.55091285705566,1,vertical,vertical,1,0.764702583761776,green,5,NaN,619.68777079743,780.31222920257,NaN,NaN,915.767577433584,827.206663668034,1051.86052685176,560.109211414741,839.890788585259,348.13947314824,572.793336331966,484.232422566416,619.68777079743,780.31222920257,0,0,0,3,6,6,4,NaN,vertical,vertical,vertical,horizontal,vertical,none
1b,19,100214,2,58,122,20,F,NA,constant,heterogeneous,5,absent,0.991468906402588,1,horizontal,horizontal,1,0.870582816180061,green,5,NaN,554.878267535729,670.287525733335,NaN,NaN,791.100628340862,854.844660889869,1039.62161830041,687.215136548046,956.993676208043,399.057257830286,657.405809614959,388.595418998464,554.878267535729,670.287525733335,0,0,6,3,6,5,4,NaN,vertical,vertical,vertical,vertical,horizontal,none
1b,19,100214,2,59,123,20,F,NA,constant,heterogeneous,3,present,0.95612907409668,1,horizontal,horizontal,1,0.835289405373966,green,2,1,1055,600,672.5,820.836477965032,672.5,820.836477965032,1055,600,672.5,379.163522034968,0,0,0,0,0,0,3,4,6,NaN,NaN,NaN,horizontal,horizontal,vertical,none,none,none
1b,19,100214,2,60,124,20,F,NA,constant,heterogeneous,3,present,1.04362297058105,1,horizontal,horizontal,1,1.01175645940444,green,1,3,1018.57766167904,731.334709102064,576.971974679454,723.626453162816,1018.57766167904,731.334709102064,804.450363641507,345.03883773512,576.971974679454,723.626453162816,0,0,0,0,0,0,4,3,6,NaN,NaN,NaN,horizontal,vertical,horizontal,none,none,none
1b,19,100214,2,61,125,20,F,NA,constant,heterogeneous,5,absent,1.39717602729797,1,horizontal,horizontal,1,0.823524935105268,green,1,NaN,853.017481158529,849.42763818712,NaN,NaN,853.017481158529,849.42763818712,1053.60308331891,626.654758133252,903.717843984329,367.045908301137,610.498069503264,429.371695378491,579.163522034968,727.5,0,0,4,0,3,3,6,NaN,horizontal,vertical,horizontal,horizontal,vertical,none
1b,19,100214,2,62,126,20,F,NA,constant,heterogeneous,4,absent,0.910974025726318,1,horizontal,horizontal,1,1.09410775128533,green,2,NaN,1025.15163617903,480.284751489598,NaN,NaN,919.715248510402,825.151636179026,1025.15163617903,480.284751489598,680.284751489598,374.848363820974,574.848363820974,719.715248510402,0,0,0,0,0,4,5,5,NaN,NaN,vertical,horizontal,horizontal,vertical,none,none
1b,19,100214,2,63,127,20,F,NA,constant,heterogeneous,4,absent,NaN,0,vertical,none,0,0.811760464836569,green,1,NaN,883.019879386575,841.107236777826,NaN,NaN,883.019879386575,841.107236777826,1041.10723677783,516.980120613425,716.980120613425,358.892763222174,558.892763222174,683.019879386575,0,0,0,0,4,0,3,6,NaN,NaN,vertical,vertical,vertical,vertical,none,none
1b,19,100214,2,64,128,20,F,NA,constant,heterogeneous,4,absent,1.33989691734314,1,horizontal,horizontal,1,1.09410775128533,green,1,NaN,672.5,820.836477965032,NaN,NaN,672.5,820.836477965032,1020.83647796503,727.5,927.5,379.163522034968,579.163522034968,472.5,0,0,0,0,4,5,6,3,NaN,NaN,horizontal,horizontal,horizontal,horizontal,none,none
1b,19,100214,3,1,129,20,F,NA,constant,heterogeneous,6,present,1.14089798927307,1,vertical,vertical,1,0.729409172955681,green,4,5,684.232422566416,372.793336331966,545.349468637584,586.654331158049,915.767577433584,827.206663668034,1054.65053136242,613.345668841951,938.882953928832,386.139005173917,684.232422566416,372.793336331966,545.349468637584,586.654331158049,661.117046071168,813.860994826083,6,5,3,4,0,3,vertical,horizontal,horizontal,vertical,horizontal,horizontal
1b,19,100214,3,2,130,20,F,NA,constant,heterogeneous,3,present,0.863831996917725,1,vertical,vertical,1,0.788231524299173,green,3,2,548.13947314824,639.890788585259,891.383827134052,361.936991243214,960.476699717708,798.172220171528,891.383827134052,361.936991243214,548.13947314824,639.890788585259,0,0,0,0,0,0,3,6,4,NaN,NaN,NaN,vertical,vertical,vertical,none,none,none
1b,19,100214,3,3,131,20,F,NA,constant,heterogeneous,3,present,0.763586044311523,1,horizontal,horizontal,1,0.917640697254854,green,3,2,626.090418184063,413.504806087112,1048.46436652023,542.637481142314,725.445215295702,843.857712770574,1048.46436652023,542.637481142314,626.090418184063,413.504806087112,0,0,0,0,0,0,0,5,4,NaN,NaN,NaN,horizontal,horizontal,horizontal,none,none,none
1b,19,100214,3,4,132,20,F,NA,constant,heterogeneous,4,absent,1.7259681224823,0,horizontal,vertical,1,0.941169637792251,green,4,NaN,593.700666434388,749.885239334581,NaN,NaN,949.885239334581,806.299333565612,1006.29933356561,450.114760665419,650.114760665419,393.700666434388,593.700666434388,749.885239334581,0,0,0,0,3,5,6,4,NaN,NaN,vertical,horizontal,vertical,horizontal,none,none
1b,19,100214,3,5,133,20,F,NA,constant,heterogeneous,6,absent,0.995602130889893,1,vertical,vertical,1,0.752938113493078,green,1,NaN,878.799333565612,842.519411655264,NaN,NaN,878.799333565612,842.519411655264,1049.42763818712,653.017481158529,970.628304621509,410.498069503264,721.200666434388,357.480588344736,550.57236181288,546.982518841471,629.371695378491,789.501930496736,4,5,3,0,6,5,vertical,vertical,vertical,horizontal,vertical,horizontal
1b,19,100214,3,6,134,20,F,NA,constant,heterogeneous,4,present,1.33305597305298,1,horizontal,horizontal,1,0.67058682161219,green,3,2,755.719714694933,348.874022981887,1051.12597701811,555.719714694933,844.280285305067,851.125977018113,1051.12597701811,555.719714694933,755.719714694933,348.874022981887,548.874022981887,644.280285305067,0,0,0,0,6,0,4,6,NaN,NaN,vertical,vertical,horizontal,vertical,none,none
1b,19,100214,3,7,135,20,F,NA,constant,heterogeneous,5,present,1.69148111343384,1,horizontal,horizontal,1,0.964698578329647,green,4,3,558.892763222174,516.980120613425,804.450363641507,345.03883773512,946.261991269517,808.883771293693,1043.85771277057,525.445215295702,804.450363641507,345.03883773512,558.892763222174,516.980120613425,646.537169096228,803.65205506206,0,0,6,3,5,4,0,NaN,horizontal,horizontal,horizontal,horizontal,horizontal,none
1b,19,100214,3,8,136,20,F,NA,constant,heterogeneous,4,absent,1.64225387573242,1,horizontal,horizontal,1,1.05881434047923,green,2,NaN,1008.88377129369,746.261991269517,NaN,NaN,653.738008730483,808.883771293693,1008.88377129369,746.261991269517,946.261991269517,391.116228706307,591.116228706307,453.738008730483,0,0,0,0,6,4,3,5,NaN,NaN,vertical,horizontal,vertical,vertical,none,none
1b,19,100214,3,9,137,20,F,NA,constant,heterogeneous,6,present,1.71774101257324,1,horizontal,horizontal,1,0.917640697254854,green,4,2,680.284751489598,374.848363820974,1054.84466088987,608.899371659138,919.715248510402,825.151636179026,1054.84466088987,608.899371659138,935.129412379467,383.747735480111,680.284751489598,374.848363820974,545.155339110131,591.100628340862,664.870587620533,816.252264519889,5,6,6,4,0,0,vertical,horizontal,horizontal,horizontal,horizontal,vertical
1b,19,100214,3,10,138,20,F,NA,constant,heterogeneous,3,present,0.786947011947632,1,vertical,vertical,1,0.929405167523552,green,2,3,1038.06300875679,691.383827134052,760.109211414741,348.13947314824,601.827779828472,760.476699717708,1038.06300875679,691.383827134052,760.109211414741,348.13947314824,0,0,0,0,0,0,0,4,6,NaN,NaN,NaN,horizontal,vertical,horizontal,none,none,none
1b,19,100214,3,11,139,20,F,NA,constant,heterogeneous,4,present,1.16360902786255,1,horizontal,horizontal,1,0.823524935105268,green,2,1,1020.83647796503,472.5,927.5,820.836477965032,927.5,820.836477965032,1020.83647796503,472.5,672.5,379.163522034968,579.163522034968,727.5,0,0,0,0,5,4,0,5,NaN,NaN,vertical,horizontal,horizontal,vertical,none,none
1b,19,100214,3,12,140,20,F,NA,constant,heterogeneous,3,absent,0.87363600730896,1,horizontal,horizontal,1,0.729409172955681,green,1,NaN,613.504806087112,773.909581815937,NaN,NaN,613.504806087112,773.909581815937,1043.85771277057,674.554784704298,742.637481142314,351.535633479765,0,0,0,0,0,0,4,0,0,NaN,NaN,NaN,horizontal,vertical,horizontal,none,none,none
1b,19,100214,3,13,141,20,F,NA,constant,heterogeneous,4,present,1.42761898040771,1,vertical,vertical,1,0.611764470268698,green,2,4,980.31222920257,419.68777079743,619.68777079743,780.31222920257,980.31222920257,780.31222920257,980.31222920257,419.68777079743,619.68777079743,419.68777079743,619.68777079743,780.31222920257,0,0,0,0,3,4,0,6,NaN,NaN,vertical,vertical,vertical,vertical,none,none
1b,19,100214,3,14,142,20,F,NA,constant,heterogeneous,5,absent,0.991997003555298,1,vertical,vertical,1,0.799995994567871,green,5,NaN,572.793336331966,715.767577433584,NaN,NaN,839.890788585259,851.86052685176,1051.86052685176,639.890788585259,915.767577433584,372.793336331966,619.68777079743,419.68777079743,572.793336331966,715.767577433584,0,0,5,3,3,6,4,NaN,vertical,vertical,horizontal,vertical,vertical,none
1b,19,100214,3,15,143,20,F,NA,constant,heterogeneous,6,absent,1.62992787361145,1,horizontal,horizontal,1,0.882347286448759,green,2,NaN,1054.96116226488,604.450363641507,NaN,NaN,923.626453162816,823.028025320546,1054.96116226488,604.450363641507,931.334709102064,381.422338320961,676.373546837184,376.971974679454,545.03883773512,595.549636358493,668.665290897936,818.577661679039,6,4,5,5,0,3,horizontal,horizontal,horizontal,vertical,vertical,vertical
1b,19,100214,3,16,144,20,F,NA,constant,heterogeneous,6,present,0.766935110092163,1,horizontal,horizontal,1,0.811760464836569,green,5,3,583.747735480111,464.870587620533,1025.15163617903,480.284751489598,791.100628340862,854.844660889869,1016.25226451989,735.129412379467,1025.15163617903,480.284751489598,808.899371659138,345.155339110131,583.747735480111,464.870587620533,574.848363820974,719.715248510402,6,0,3,3,4,5,vertical,horizontal,vertical,horizontal,horizontal,horizontal
1b,19,100214,3,17,145,20,F,NA,constant,heterogeneous,3,present,0.899811029434204,1,vertical,vertical,1,0.858818345911363,green,1,2,755.719714694933,851.125977018113,1039.62161830041,512.784863451954,755.719714694933,851.125977018113,1039.62161830041,512.784863451954,604.658667004661,436.089159529932,0,0,0,0,0,0,4,3,0,NaN,NaN,NaN,vertical,horizontal,vertical,none,none,none
1b,19,100214,3,18,146,20,F,NA,constant,heterogeneous,5,absent,1.17074704170227,1,vertical,vertical,1,0.847053875642664,green,1,NaN,676.373546837184,823.028025320546,NaN,NaN,676.373546837184,823.028025320546,973.909581815937,786.495193912888,1031.10848569435,492.232343256122,768.923317431687,346.900731331463,549.685068220846,551.343706178981,0,0,4,5,3,3,5,NaN,vertical,vertical,horizontal,horizontal,vertical,none
1b,19,100214,3,19,147,20,F,NA,constant,heterogeneous,6,present,1.74864792823792,0,vertical,horizontal,1,0.917640697254854,green,5,4,549.685068220846,551.343706178981,716.980120613425,358.892763222174,883.019879386575,841.107236777826,1050.31493177915,648.656293821019,967.295052392579,407.549057043193,716.980120613425,358.892763222174,549.685068220846,551.343706178981,632.704947607421,792.450942956807,0,6,3,0,4,5,horizontal,vertical,vertical,vertical,vertical,vertical
1b,19,100214,3,20,148,20,F,NA,constant,heterogeneous,5,present,1.29605913162231,1,vertical,vertical,1,0.811760464836569,green,4,3,558.892763222174,516.980120613425,804.450363641507,345.03883773512,946.261991269517,808.883771293693,1043.85771277057,525.445215295702,804.450363641507,345.03883773512,558.892763222174,516.980120613425,646.537169096228,803.65205506206,0,0,3,0,0,4,5,NaN,vertical,horizontal,vertical,vertical,vertical,none
1b,19,100214,3,21,149,20,F,NA,constant,heterogeneous,6,absent,1.08185601234436,1,vertical,vertical,1,0.988227518867044,green,5,NaN,643.006323791957,399.057257830286,NaN,NaN,704.475318678942,836.431882914531,956.993676208043,800.942742169714,1052.5183575291,564.510859255183,895.524681321058,363.568117085469,643.006323791957,399.057257830286,547.481642470899,635.489140744817,3,6,5,3,4,0,horizontal,horizontal,horizontal,vertical,vertical,vertical
1b,19,100214,3,22,150,20,F,NA,constant,heterogeneous,5,absent,NaN,0,horizontal,none,0,0.952934108060949,green,5,NaN,553.688914296288,534.001143498857,NaN,NaN,661.117046071168,813.860994826083,960.476699717708,798.172220171528,1038.06300875679,508.616172865948,786.654331158049,345.349468637584,553.688914296288,534.001143498857,0,0,3,6,0,5,4,NaN,horizontal,horizontal,horizontal,horizontal,horizontal,none
1b,19,100214,3,23,151,20,F,NA,constant,heterogeneous,4,absent,1.12422323226929,1,vertical,vertical,1,0.858818345911363,green,2,NaN,1027.20666366803,484.232422566416,NaN,NaN,915.767577433584,827.206663668034,1027.20666366803,484.232422566416,684.232422566416,372.793336331966,572.793336331966,715.767577433584,0,0,0,0,6,4,5,0,NaN,NaN,vertical,vertical,horizontal,vertical,none,none
1b,19,100214,3,24,152,20,F,NA,constant,heterogeneous,6,absent,1.23917198181152,1,vertical,vertical,1,0.611764470268698,green,4,NaN,773.345241866748,346.39691668109,NaN,NaN,826.654758133252,853.60308331891,1032.95409169886,703.717843984329,1006.29933356561,450.114760665419,773.345241866748,346.39691668109,567.045908301137,496.282156015671,593.700666434388,749.885239334581,0,0,5,4,5,3,vertical,horizontal,horizontal,vertical,vertical,vertical
1b,19,100214,3,25,153,20,F,NA,constant,heterogeneous,3,absent,0.732962846755981,1,horizontal,horizontal,1,0.635293410806095,green,3,NaN,729.712474266665,354.878267535729,NaN,NaN,622.862115532956,783.431649086356,1047.42541020038,661.690083377915,729.712474266665,354.878267535729,0,0,0,0,0,0,0,6,4,NaN,NaN,NaN,vertical,horizontal,horizontal,none,none,none
1b,19,100214,3,26,154,20,F,NA,constant,heterogeneous,4,absent,1.31974601745605,1,horizontal,horizontal,1,0.799995994567871,green,2,NaN,1038.06300875679,508.616172865948,NaN,NaN,891.383827134052,838.063008756786,1038.06300875679,508.616172865948,708.616172865948,361.936991243214,561.936991243214,691.383827134052,0,0,0,0,5,4,6,3,NaN,NaN,horizontal,horizontal,horizontal,vertical,none,none
1b,19,100214,3,27,155,20,F,NA,constant,heterogeneous,5,absent,NaN,0,horizontal,none,0,0.894111756717457,green,1,NaN,795.549636358493,854.96116226488,NaN,NaN,795.549636358493,854.96116226488,1041.10723677783,683.019879386575,953.462830903772,396.34794493794,653.738008730483,391.116228706307,556.142287229426,674.554784704298,0,0,4,6,3,5,3,NaN,horizontal,vertical,vertical,vertical,horizontal,none
1b,19,100214,3,28,156,20,F,NA,constant,heterogeneous,6,absent,NaN,0,horizontal,none,0,1.07057881074793,green,4,NaN,903.717843984329,367.045908301137,NaN,NaN,696.282156015671,832.954091698863,949.885239334581,806.299333565612,1053.60308331891,573.345241866748,903.717843984329,367.045908301137,650.114760665419,393.700666434388,546.39691668109,626.654758133252,5,5,6,4,3,3,vertical,vertical,horizontal,horizontal,vertical,horizontal
1b,19,100214,3,29,157,20,F,NA,constant,heterogeneous,4,absent,0.943032026290894,1,vertical,vertical,1,0.835289405373966,green,2,NaN,1042.51941165526,678.799333565612,NaN,NaN,721.200666434388,842.519411655264,1042.51941165526,678.799333565612,878.799333565612,357.480588344736,557.480588344736,521.200666434388,0,0,0,0,0,4,5,0,NaN,NaN,vertical,vertical,horizontal,horizontal,none,none
1b,19,100214,3,30,158,20,F,NA,constant,heterogeneous,4,present,1.16236591339111,1,vertical,vertical,1,0.811760464836569,green,2,4,1054.84466088987,591.100628340862,545.155339110131,608.899371659138,808.899371659138,854.844660889869,1054.84466088987,591.100628340862,791.100628340862,345.155339110131,545.155339110131,608.899371659138,0,0,0,0,0,4,3,5,NaN,NaN,vertical,vertical,horizontal,horizontal,none,none
1b,19,100214,3,31,159,20,F,NA,constant,heterogeneous,4,present,1.53175282478333,1,horizontal,horizontal,1,0.905876226986156,green,3,2,622.862115532956,416.568350913644,983.431649086356,422.862115532956,977.137884467044,783.431649086356,983.431649086356,422.862115532956,622.862115532956,416.568350913644,616.568350913644,777.137884467044,0,0,0,0,3,6,4,6,NaN,NaN,horizontal,horizontal,horizontal,horizontal,none,none
1b,19,100214,3,32,160,20,F,NA,constant,heterogeneous,6,absent,1.3496150970459,1,horizontal,horizontal,1,0.952934108060949,green,2,NaN,1008.88377129369,746.261991269517,NaN,NaN,777.775285599347,854.029648013395,1008.88377129369,746.261991269517,1031.10848569435,492.232343256122,822.224714400653,345.970351986605,591.116228706307,453.738008730483,568.891514305654,707.767656743878,6,4,3,5,3,0,vertical,horizontal,vertical,vertical,vertical,horizontal
1b,19,100214,3,33,161,20,F,NA,constant,heterogeneous,5,present,NaN,0,vertical,none,0,0.74117364322438,green,5,3,563.568117085469,695.524681321058,935.129412379467,383.747735480111,817.787900804752,854.378832816255,1047.42541020038,661.690083377915,935.129412379467,383.747735480111,636.089159529932,404.658667004661,563.568117085469,695.524681321058,0,0,6,0,0,3,4,NaN,horizontal,horizontal,horizontal,horizontal,vertical,none
1b,19,100214,3,34,162,20,F,NA,constant,heterogeneous,4,present,0.841017007827759,1,vertical,vertical,1,0.858818345911363,green,3,1,646.537169096228,396.34794493794,953.462830903772,803.65205506206,953.462830903772,803.65205506206,1003.65205506206,446.537169096228,646.537169096228,396.34794493794,596.34794493794,753.462830903772,0,0,0,0,3,3,4,6,NaN,NaN,horizontal,vertical,vertical,horizontal,none,none
1b,19,100214,3,35,163,20,F,NA,constant,heterogeneous,6,present,1.50269818305969,1,horizontal,horizontal,1,1.03528539994184,green,2,4,1027.20666366803,715.767577433584,786.654331158049,345.349468637584,813.345668841951,854.650531362416,1027.20666366803,715.767577433584,1013.86099482608,461.117046071168,786.654331158049,345.349468637584,572.793336331966,484.232422566416,586.139005173917,738.882953928832,5,4,6,0,6,3,vertical,horizontal,horizontal,horizontal,vertical,horizontal
1b,19,100214,3,36,164,20,F,NA,constant,heterogeneous,4,absent,1.29292488098145,1,vertical,vertical,1,0.799995994567871,green,1,NaN,742.637481142314,848.464366520235,NaN,NaN,742.637481142314,848.464366520235,1048.46436652023,657.362518857686,857.362518857686,351.535633479765,551.535633479765,542.637481142314,0,0,0,0,4,0,6,5,NaN,NaN,vertical,vertical,horizontal,horizontal,none,none
1b,19,100214,3,37,165,20,F,NA,constant,heterogeneous,3,absent,1.37581396102905,1,vertical,vertical,1,1.03528539994184,green,1,NaN,1008.88377129369,746.261991269517,NaN,NaN,1008.88377129369,746.261991269517,822.224714400653,345.970351986605,568.891514305654,707.767656743878,0,0,0,0,0,0,4,0,3,NaN,NaN,NaN,vertical,vertical,vertical,none,none,none
1b,19,100214,3,38,166,20,F,NA,constant,heterogeneous,5,absent,1.23647880554199,1,horizontal,horizontal,1,1.04704987021054,green,4,NaN,581.422338320961,468.665290897936,NaN,NaN,899.636437764765,834.728737630372,1054.0296480134,577.775285599347,857.362518857686,351.535633479765,581.422338320961,468.665290897936,607.549057043193,767.295052392579,0,0,5,0,6,4,3,NaN,horizontal,vertical,horizontal,horizontal,vertical,none
1b,19,100214,3,39,167,20,F,NA,constant,heterogeneous,3,absent,1.13719916343689,1,vertical,vertical,1,1.01175645940444,green,3,NaN,764.510859255183,347.4816424709,NaN,NaN,599.057257830286,756.993676208043,1036.43188291453,695.524681321058,764.510859255183,347.4816424709,0,0,0,0,0,0,5,0,4,NaN,NaN,NaN,horizontal,horizontal,vertical,none,none,none
1b,19,100214,3,40,168,20,F,NA,constant,heterogeneous,6,present,1.74963688850403,0,vertical,horizontal,1,0.647057881074793,green,1,6,708.616172865948,838.063008756786,548.13947314824,639.890788585259,708.616172865948,838.063008756786,960.476699717708,798.172220171528,1051.86052685176,560.109211414741,891.383827134052,361.936991243214,639.523300282292,401.827779828472,548.13947314824,639.890788585259,4,0,0,5,5,6,vertical,vertical,horizontal,horizontal,horizontal,vertical
1b,19,100214,3,41,169,20,F,NA,constant,heterogeneous,3,absent,1.35694789886475,1,vertical,vertical,1,0.823524935105268,green,1,NaN,804.450363641507,854.96116226488,NaN,NaN,804.450363641507,854.96116226488,1018.57766167904,468.665290897936,576.971974679454,476.373546837184,0,0,0,0,0,0,4,3,6,NaN,NaN,NaN,vertical,horizontal,vertical,none,none,none
1b,19,100214,3,42,170,20,F,NA,constant,heterogeneous,5,present,1.33405709266663,1,horizontal,horizontal,1,0.682351291880888,green,1,3,668.665290897936,818.577661679039,1034.72873763037,500.363562235235,668.665290897936,818.577661679039,967.295052392579,792.450942956807,1034.72873763037,500.363562235235,777.775285599347,345.970351986605,551.535633479765,542.637481142314,0,0,4,6,6,0,3,NaN,horizontal,vertical,vertical,vertical,horizontal,none
1b,19,100214,3,43,171,20,F,NA,constant,heterogeneous,5,absent,1.1558039188385,1,vertical,vertical,1,0.941169637792251,green,2,NaN,1042.51941165526,678.799333565612,NaN,NaN,800,855,1042.51941165526,678.799333565612,949.885239334581,393.700666434388,650.114760665419,393.700666434388,557.480588344736,678.799333565612,0,0,0,4,6,6,3,NaN,horizontal,vertical,horizontal,vertical,vertical,none
1b,19,100214,3,44,172,20,F,NA,constant,heterogeneous,5,present,1.26412320137024,1,horizontal,horizontal,1,0.847053875642664,green,5,2,570.807518193712,711.784642431215,1051.12597701811,644.280285305067,835.489140744817,852.518357529101,1051.12597701811,644.280285305067,919.715248510402,374.848363820974,622.862115532956,416.568350913644,570.807518193712,711.784642431215,0,0,5,3,0,0,4,NaN,horizontal,vertical,horizontal,vertical,horizontal,none
1b,19,100214,3,45,173,20,F,NA,constant,heterogeneous,6,absent,1.49981904029846,1,vertical,vertical,1,0.917640697254854,green,5,NaN,604.658667004661,436.089159529932,NaN,NaN,755.719714694933,851.125977018113,995.341332995339,763.910840470068,1039.62161830041,512.784863451954,844.280285305067,348.874022981887,604.658667004661,436.089159529932,560.378381699593,687.215136548046,3,6,5,6,4,3,horizontal,vertical,horizontal,vertical,vertical,vertical
1b,19,100214,3,46,174,20,F,NA,constant,heterogeneous,5,present,1.24714398384094,1,vertical,vertical,1,0.658822351343491,green,3,2,848.656293821019,349.685068220846,1053.09926866854,568.923317431687,907.767656743878,831.108485694346,1053.09926866854,568.923317431687,848.656293821019,349.685068220846,576.971974679454,476.373546837184,613.504806087112,773.909581815937,0,0,5,6,4,0,3,NaN,horizontal,horizontal,vertical,vertical,vertical,none
1b,19,100214,3,47,175,20,F,NA,constant,heterogeneous,4,absent,1.7966890335083,0,horizontal,vertical,1,1.02352092967314,green,3,NaN,795.549636358493,345.03883773512,NaN,NaN,804.450363641507,854.96116226488,1054.96116226488,595.549636358493,795.549636358493,345.03883773512,545.03883773512,604.450363641507,0,0,0,0,5,3,4,0,NaN,NaN,horizontal,vertical,horizontal,horizontal,none,none
1b,19,100214,3,48,176,20,F,NA,constant,heterogeneous,3,absent,1.28714489936829,1,horizontal,horizontal,1,0.917640697254854,green,2,NaN,938.882953928832,386.139005173917,NaN,NaN,915.767577433584,827.206663668034,938.882953928832,386.139005173917,545.349468637584,586.654331158049,0,0,0,0,0,0,0,4,6,NaN,NaN,NaN,horizontal,horizontal,horizontal,none,none,none
1b,19,100214,3,49,177,20,F,NA,constant,heterogeneous,6,present,1.27077388763428,1,vertical,vertical,1,0.882347286448759,green,5,6,560.378381699593,512.784863451954,604.658667004661,763.910840470068,844.280285305067,851.125977018113,1039.62161830041,687.215136548046,995.341332995339,436.089159529932,755.719714694933,348.874022981887,560.378381699593,512.784863451954,604.658667004661,763.910840470068,0,5,0,6,4,5,vertical,horizontal,vertical,horizontal,vertical,vertical
1b,19,100214,3,50,178,20,F,NA,constant,heterogeneous,6,present,1.79605102539062,1,horizontal,horizontal,1,0.976463048598346,green,2,6,1053.09926866854,631.076682568313,646.537169096228,803.65205506206,899.636437764765,834.728737630372,1053.09926866854,631.076682568313,953.462830903772,396.34794493794,700.363562235235,365.271262369628,546.900731331463,568.923317431687,646.537169096228,803.65205506206,5,4,0,6,3,0,vertical,horizontal,horizontal,horizontal,horizontal,horizontal
1b,19,100214,3,51,179,20,F,NA,constant,heterogeneous,4,present,0.919371128082275,1,vertical,vertical,1,0.964698578329647,green,3,4,626.090418184063,413.504806087112,613.504806087112,773.909581815937,973.909581815937,786.495193912888,986.495193912888,426.090418184063,626.090418184063,413.504806087112,613.504806087112,773.909581815937,0,0,0,0,5,6,4,3,NaN,NaN,horizontal,horizontal,vertical,horizontal,none,none
1b,19,100214,3,52,180,20,F,NA,constant,heterogeneous,3,present,1.32956600189209,1,horizontal,horizontal,1,0.788231524299173,green,2,1,970.628304621509,410.498069503264,878.799333565612,842.519411655264,878.799333565612,842.519411655264,970.628304621509,410.498069503264,550.57236181288,546.982518841471,0,0,0,0,0,0,6,4,3,NaN,NaN,NaN,horizontal,horizontal,horizontal,none,none,none
1b,19,100214,3,53,181,20,F,NA,constant,heterogeneous,5,present,0.819664001464844,1,horizontal,horizontal,1,0.752938113493078,green,4,1,786.654331158049,345.349468637584,661.117046071168,813.860994826083,661.117046071168,813.860994826083,960.476699717708,798.172220171528,1038.06300875679,508.616172865948,786.654331158049,345.349468637584,553.688914296288,534.001143498857,0,0,6,3,0,4,6,NaN,vertical,horizontal,horizontal,horizontal,horizontal,none
1b,19,100214,3,54,182,20,F,NA,constant,heterogeneous,5,present,1.1706211566925,1,vertical,vertical,1,0.729409172955681,green,3,1,980.31222920257,419.68777079743,760.109211414741,851.86052685176,760.109211414741,851.86052685176,1027.20666366803,715.767577433584,980.31222920257,419.68777079743,684.232422566416,372.793336331966,548.13947314824,639.890788585259,0,0,5,0,4,5,0,NaN,vertical,horizontal,vertical,horizontal,vertical,none
1b,19,100214,3,55,183,20,F,NA,constant,heterogeneous,3,present,1.23890900611877,1,horizontal,horizontal,1,0.835289405373966,green,3,2,550.57236181288,653.017481158529,878.799333565612,357.480588344736,970.628304621509,789.501930496736,878.799333565612,357.480588344736,550.57236181288,653.017481158529,0,0,0,0,0,0,0,5,4,NaN,NaN,NaN,horizontal,horizontal,horizontal,none,none,none
1b,19,100214,3,56,184,20,F,NA,constant,heterogeneous,3,absent,0.960509061813354,1,vertical,vertical,1,0.823524935105268,green,3,NaN,548.874022981887,644.280285305067,NaN,NaN,963.910840470068,795.341332995339,887.215136548046,360.378381699593,548.874022981887,644.280285305067,0,0,0,0,0,0,0,6,4,NaN,NaN,NaN,horizontal,horizontal,vertical,none,none,none
1b,19,100214,3,57,185,20,F,NA,constant,heterogeneous,3,absent,1.88764905929565,1,horizontal,horizontal,1,0.788231524299173,green,2,NaN,998.172220171528,439.523300282291,NaN,NaN,839.890788585259,851.86052685176,998.172220171528,439.523300282291,561.936991243214,508.616172865948,0,0,0,0,0,0,6,4,3,NaN,NaN,NaN,horizontal,horizontal,horizontal,none,none,none
1b,19,100214,3,58,186,20,F,NA,constant,heterogeneous,5,absent,1.73091793060303,1,horizontal,horizontal,1,1.07057881074793,green,5,NaN,546.39691668109,573.345241866748,NaN,NaN,696.282156015671,832.954091698863,989.501930496736,770.628304621509,1020.83647796503,472.5,746.982518841471,350.57236181288,546.39691668109,573.345241866748,0,0,0,0,6,5,4,NaN,horizontal,vertical,horizontal,horizontal,horizontal,none
1b,19,100214,3,59,187,20,F,NA,constant,heterogeneous,6,absent,1.91109991073608,1,horizontal,horizontal,1,0.67058682161219,green,3,NaN,1025.15163617903,480.284751489598,NaN,NaN,791.100628340862,854.844660889869,1016.25226451989,735.129412379467,1025.15163617903,480.284751489598,808.899371659138,345.155339110131,583.747735480111,464.870587620533,574.848363820974,719.715248510402,0,6,4,5,6,0,horizontal,horizontal,horizontal,horizontal,vertical,horizontal
1b,19,100214,3,60,188,20,F,NA,constant,heterogeneous,3,present,0.794104099273682,1,horizontal,horizontal,1,0.823524935105268,green,3,2,546.39691668109,626.654758133252,903.717843984329,367.045908301137,949.885239334581,806.299333565612,903.717843984329,367.045908301137,546.39691668109,626.654758133252,0,0,0,0,0,0,0,3,4,NaN,NaN,NaN,horizontal,horizontal,horizontal,none,none,none
1b,19,100214,3,61,189,20,F,NA,constant,heterogeneous,4,absent,1.15829586982727,1,vertical,vertical,1,0.811760464836569,green,3,NaN,716.980120613425,358.892763222174,NaN,NaN,883.019879386575,841.107236777826,1041.10723677783,516.980120613425,716.980120613425,358.892763222174,558.892763222174,683.019879386575,0,0,0,0,6,5,4,0,NaN,NaN,horizontal,horizontal,vertical,horizontal,none,none
1b,19,100214,3,62,190,20,F,NA,constant,heterogeneous,3,present,0.671438932418823,1,vertical,vertical,1,0.682351291880888,green,2,1,980.31222920257,419.68777079743,865.998856501143,846.311085703712,865.998856501143,846.311085703712,980.31222920257,419.68777079743,553.688914296288,534.001143498857,0,0,0,0,0,0,5,4,0,NaN,NaN,NaN,horizontal,vertical,vertical,none,none,none
1b,19,100214,3,63,191,20,F,NA,constant,heterogeneous,5,absent,0.78525185585022,1,vertical,vertical,1,0.611764470268698,green,3,NaN,899.636437764765,365.271262369628,NaN,NaN,857.362518857686,848.464366520235,1054.0296480134,622.224714400653,899.636437764765,365.271262369628,607.549057043193,432.704947607421,581.422338320961,731.334709102064,0,0,3,0,4,5,6,NaN,horizontal,horizontal,vertical,vertical,vertical,none
1b,19,100214,3,64,192,20,F,NA,constant,heterogeneous,4,present,1.30046796798706,1,horizontal,horizontal,1,0.776467054030474,green,2,1,1008.88377129369,453.738008730483,946.261991269517,808.883771293693,946.261991269517,808.883771293693,1008.88377129369,453.738008730483,653.738008730483,391.116228706307,591.116228706307,746.261991269517,0,0,0,0,5,4,0,3,NaN,NaN,vertical,horizontal,horizontal,vertical,none,none
1b,19,100214,4,1,193,20,F,NA,constant,heterogeneous,5,absent,1.82248902320862,1,vertical,vertical,1,1.02352092967314,green,2,NaN,998.172220171528,760.476699717708,NaN,NaN,708.616172865948,838.063008756786,998.172220171528,760.476699717708,1013.86099482608,461.117046071168,734.001143498857,353.688914296288,545.349468637584,586.654331158049,0,0,5,4,6,5,0,NaN,vertical,vertical,vertical,horizontal,horizontal,none
1b,19,100214,4,2,194,20,F,NA,constant,heterogeneous,3,absent,0.801798105239868,1,horizontal,horizontal,1,0.729409172955681,green,3,NaN,570.807518193712,711.784642431215,NaN,NaN,1011.40458100154,742.594190385041,817.787900804752,345.621167183745,570.807518193712,711.784642431215,0,0,0,0,0,0,6,0,4,NaN,NaN,NaN,horizontal,vertical,horizontal,none,none,none
1b,19,100214,4,3,195,20,F,NA,constant,heterogeneous,4,absent,1.29429912567139,1,vertical,vertical,1,0.823524935105268,green,2,NaN,1018.57766167904,731.334709102064,NaN,NaN,668.665290897936,818.577661679039,1018.57766167904,731.334709102064,931.334709102064,381.422338320961,581.422338320961,468.665290897936,0,0,0,0,5,4,6,0,NaN,NaN,vertical,vertical,horizontal,horizontal,none,none
1b,19,100214,4,4,196,20,F,NA,constant,heterogeneous,4,present,1.03294086456299,1,vertical,vertical,1,0.611764470268698,green,2,1,989.501930496736,429.371695378491,970.628304621509,789.501930496736,970.628304621509,789.501930496736,989.501930496736,429.371695378491,629.371695378491,410.498069503264,610.498069503264,770.628304621509,0,0,0,0,3,4,0,6,NaN,NaN,vertical,vertical,horizontal,horizontal,none,none
1b,19,100214,4,5,197,20,F,NA,constant,heterogeneous,3,absent,1.81933999061584,1,vertical,vertical,1,0.682351291880888,green,3,NaN,572.793336331966,484.232422566416,NaN,NaN,813.345668841951,854.650531362416,1013.86099482608,461.117046071168,572.793336331966,484.232422566416,0,0,0,0,0,0,0,6,4,NaN,NaN,NaN,horizontal,horizontal,vertical,none,none,none
1b,19,100214,4,6,198,20,F,NA,constant,heterogeneous,3,absent,1.21395397186279,1,horizontal,horizontal,1,0.917640697254854,green,1,NaN,878.799333565612,842.519411655264,NaN,NaN,878.799333565612,842.519411655264,970.628304621509,410.498069503264,550.57236181288,546.982518841471,0,0,0,0,0,0,4,5,3,NaN,NaN,NaN,horizontal,vertical,vertical,none,none,none
1b,19,100214,4,7,199,20,F,NA,constant,heterogeneous,4,absent,1.32297801971436,1,horizontal,horizontal,1,0.811760464836569,green,4,NaN,545.155339110131,608.899371659138,NaN,NaN,808.899371659138,854.844660889869,1054.84466088987,591.100628340862,791.100628340862,345.155339110131,545.155339110131,608.899371659138,0,0,0,0,0,3,6,4,NaN,NaN,vertical,vertical,vertical,horizontal,none,none
1b,19,100214,4,8,200,20,F,NA,constant,heterogeneous,4,present,1.21054792404175,1,horizontal,horizontal,1,0.647057881074793,green,3,1,639.523300282292,401.827779828472,960.476699717708,798.172220171528,960.476699717708,798.172220171528,998.172220171528,439.523300282291,639.523300282292,401.827779828472,601.827779828472,760.476699717708,0,0,0,0,3,6,4,0,NaN,NaN,vertical,vertical,horizontal,horizontal,none,none
1b,19,100214,4,9,201,20,F,NA,constant,heterogeneous,6,present,1.81183815002441,1,horizontal,horizontal,1,0.647057881074793,green,1,3,903.717843984329,832.954091698863,949.885239334581,393.700666434388,903.717843984329,832.954091698863,1053.60308331891,626.654758133252,949.885239334581,393.700666434388,696.282156015671,367.045908301137,546.39691668109,573.345241866748,650.114760665419,806.299333565612,4,0,6,5,5,0,horizontal,horizontal,vertical,vertical,vertical,vertical
1b,19,100214,4,10,202,20,F,NA,constant,heterogeneous,3,absent,1.01049184799194,1,horizontal,horizontal,1,0.705880232418285,green,1,NaN,692.232343256122,831.108485694346,NaN,NaN,692.232343256122,831.108485694346,1054.0296480134,577.775285599347,653.738008730483,391.116228706307,0,0,0,0,0,0,4,3,6,NaN,NaN,NaN,horizontal,horizontal,horizontal,none,none,none
1b,19,100214,4,11,203,20,F,NA,constant,heterogeneous,3,present,1.65140891075134,1,horizontal,horizontal,1,0.823524935105268,green,2,3,813.345668841951,345.349468637584,572.793336331966,715.767577433584,1013.86099482608,738.882953928832,813.345668841951,345.349468637584,572.793336331966,715.767577433584,0,0,0,0,0,0,3,4,5,NaN,NaN,NaN,vertical,horizontal,horizontal,none,none,none
1b,19,100214,4,12,204,20,F,NA,constant,heterogeneous,4,absent,0.933027029037476,1,vertical,vertical,1,0.811760464836569,green,3,NaN,942.594190385041,388.595418998464,NaN,NaN,657.405809614959,811.404581001536,1011.40458100154,742.594190385041,942.594190385041,388.595418998464,588.595418998464,457.40580961496,0,0,0,0,5,5,4,3,NaN,NaN,vertical,horizontal,vertical,vertical,none,none
1b,19,100214,4,13,205,20,F,NA,constant,heterogeneous,6,absent,1.76597189903259,0,horizontal,vertical,1,0.705880232418285,green,3,NaN,1053.60308331891,573.345241866748,NaN,NaN,696.282156015671,832.954091698863,949.885239334581,806.299333565612,1053.60308331891,573.345241866748,903.717843984329,367.045908301137,650.114760665419,393.700666434388,546.39691668109,626.654758133252,0,5,4,6,0,6,horizontal,vertical,horizontal,horizontal,vertical,horizontal
1b,19,100214,4,14,206,20,F,NA,constant,heterogeneous,6,absent,1.76321411132812,1,vertical,vertical,1,0.682351291880888,green,5,NaN,622.862115532956,416.568350913644,NaN,NaN,729.712474266665,845.121732464271,977.137884467044,783.431649086356,1047.42541020038,538.309916622085,870.287525733335,354.878267535729,622.862115532956,416.568350913644,552.574589799621,661.690083377915,3,3,0,5,4,6,horizontal,vertical,horizontal,horizontal,vertical,horizontal
1b,19,100214,4,15,207,20,F,NA,constant,heterogeneous,3,present,0.970664024353027,1,horizontal,horizontal,1,0.611764470268698,green,1,3,844.280285305067,851.125977018113,560.378381699593,512.784863451954,844.280285305067,851.125977018113,995.341332995339,436.089159529932,560.378381699593,512.784863451954,0,0,0,0,0,0,4,0,0,NaN,NaN,NaN,horizontal,horizontal,vertical,none,none,none
1b,19,100214,4,16,208,20,F,NA,constant,heterogeneous,6,present,NaN,0,vertical,none,0,0.67058682161219,green,3,5,1016.25226451989,464.870587620533,574.848363820974,480.284751489598,808.899371659138,854.844660889869,1025.15163617903,719.715248510402,1016.25226451989,464.870587620533,791.100628340862,345.155339110131,574.848363820974,480.284751489598,583.747735480111,735.129412379467,5,6,4,3,3,5,vertical,vertical,vertical,horizontal,horizontal,horizontal
1b,19,100214,4,17,209,20,F,NA,constant,heterogeneous,5,absent,1.65324902534485,1,vertical,vertical,1,0.658822351343491,green,4,NaN,632.704947607421,407.549057043193,NaN,NaN,822.224714400653,854.029648013395,1048.46436652023,657.362518857686,931.334709102064,381.422338320961,632.704947607421,407.549057043193,565.271262369628,699.636437764765,0,0,0,3,6,4,5,NaN,horizontal,horizontal,vertical,vertical,vertical,none
1b,19,100214,4,18,210,20,F,NA,constant,heterogeneous,4,absent,1.41606903076172,1,horizontal,horizontal,1,1.08234328101663,green,2,NaN,995.341332995339,763.910840470068,NaN,NaN,636.089159529932,795.341332995339,995.341332995339,763.910840470068,963.910840470068,404.658667004661,604.658667004661,436.089159529932,0,0,0,0,5,4,6,3,NaN,NaN,vertical,horizontal,vertical,horizontal,none,none
1b,19,100214,4,19,211,20,F,NA,constant,heterogeneous,6,absent,NaN,0,vertical,none,0,0.870582816180061,green,5,NaN,616.568350913644,422.862115532956,NaN,NaN,738.309916622085,847.425410200379,983.431649086356,777.137884467044,1045.12173246427,529.712474266665,861.690083377915,352.574589799621,616.568350913644,422.862115532956,554.878267535729,670.287525733335,0,6,5,5,4,3,vertical,vertical,vertical,horizontal,vertical,vertical
1b,19,100214,4,20,212,20,F,NA,constant,heterogeneous,5,absent,NaN,0,horizontal,none,0,0.917640697254854,green,3,NaN,998.172220171528,439.523300282291,NaN,NaN,734.001143498857,846.311085703712,1013.86099482608,738.882953928832,998.172220171528,439.523300282291,708.616172865948,361.936991243214,545.349468637584,613.345668841951,0,0,0,6,4,0,6,NaN,horizontal,horizontal,horizontal,vertical,vertical,none
1b,19,100214,4,21,213,20,F,NA,constant,heterogeneous,3,absent,1.34563612937927,1,horizontal,horizontal,1,0.635293410806095,green,2,NaN,1049.42763818712,546.982518841471,NaN,NaN,721.200666434388,842.519411655264,1049.42763818712,546.982518841471,629.371695378491,410.498069503264,0,0,0,0,0,0,5,4,3,NaN,NaN,NaN,vertical,horizontal,horizontal,none,none,none
1b,19,100214,4,22,214,20,F,NA,constant,heterogeneous,4,present,0.864826917648315,1,vertical,vertical,1,0.999991989135742,green,3,2,826.654758133252,346.39691668109,1053.60308331891,626.654758133252,773.345241866748,853.60308331891,1053.60308331891,626.654758133252,826.654758133252,346.39691668109,546.39691668109,573.345241866748,0,0,0,0,5,5,4,6,NaN,NaN,horizontal,horizontal,vertical,horizontal,none,none
1b,19,100214,4,23,215,20,F,NA,constant,heterogeneous,4,absent,1.5231339931488,1,horizontal,horizontal,1,0.847053875642664,green,1,NaN,751.343706178981,850.314931779154,NaN,NaN,751.343706178981,850.314931779154,1050.31493177915,648.656293821019,848.656293821019,349.685068220846,549.685068220846,551.343706178981,0,0,0,0,4,0,6,0,NaN,NaN,horizontal,vertical,vertical,vertical,none,none
1b,19,100214,4,24,216,20,F,NA,constant,heterogeneous,4,present,1.12781500816345,1,horizontal,horizontal,1,0.705880232418285,green,3,1,721.200666434388,357.480588344736,878.799333565612,842.519411655264,878.799333565612,842.519411655264,1042.51941165526,521.200666434388,721.200666434388,357.480588344736,557.480588344736,678.799333565612,0,0,0,0,5,6,4,0,NaN,NaN,horizontal,horizontal,horizontal,vertical,none,none
1b,19,100214,4,25,217,20,F,NA,constant,heterogeneous,4,present,0.948065042495728,1,horizontal,horizontal,1,1.08234328101663,green,3,2,680.284751489598,374.848363820974,1025.15163617903,480.284751489598,919.715248510402,825.151636179026,1025.15163617903,480.284751489598,680.284751489598,374.848363820974,574.848363820974,719.715248510402,0,0,0,0,5,3,4,0,NaN,NaN,vertical,horizontal,horizontal,vertical,none,none
1b,19,100214,4,26,218,20,F,NA,constant,heterogeneous,4,absent,0.862441062927246,1,horizontal,horizontal,1,0.964698578329647,green,3,NaN,704.475318678942,363.568117085469,NaN,NaN,895.524681321058,836.431882914531,1036.43188291453,504.475318678942,704.475318678942,363.568117085469,563.568117085469,695.524681321058,0,0,0,0,5,6,4,3,NaN,NaN,horizontal,horizontal,horizontal,vertical,none,none
1b,19,100214,4,27,219,20,F,NA,constant,heterogeneous,3,absent,0.86782693862915,1,vertical,vertical,1,1.01175645940444,green,2,NaN,1054.65053136242,613.345668841951,NaN,NaN,661.117046071168,813.860994826083,1054.65053136242,613.345668841951,684.232422566416,372.793336331966,0,0,0,0,0,0,5,4,0,NaN,NaN,NaN,horizontal,vertical,horizontal,none,none,none
1b,19,100214,4,28,220,20,F,NA,constant,heterogeneous,3,present,1.50811409950256,1,vertical,vertical,1,0.929405167523552,green,1,3,643.006323791957,800.942742169714,704.475318678942,363.568117085469,643.006323791957,800.942742169714,1052.5183575291,635.489140744817,704.475318678942,363.568117085469,0,0,0,0,0,0,4,6,3,NaN,NaN,NaN,vertical,horizontal,horizontal,none,none,none
1b,19,100214,4,29,221,20,F,NA,constant,heterogeneous,6,present,1.55164885520935,1,vertical,vertical,1,0.647057881074793,green,1,6,700.363562235235,834.728737630372,546.900731331463,631.076682568313,700.363562235235,834.728737630372,953.462830903772,803.65205506206,1053.09926866854,568.923317431687,899.636437764765,365.271262369628,646.537169096228,396.34794493794,546.900731331463,631.076682568313,4,3,0,6,5,6,vertical,horizontal,horizontal,horizontal,horizontal,horizontal
1b,19,100214,4,30,222,20,F,NA,constant,heterogeneous,6,present,1.40015697479248,1,vertical,vertical,1,0.858818345911363,green,3,6,986.495193912888,426.090418184063,613.504806087112,773.909581815937,857.362518857686,848.464366520235,1043.85771277057,674.554784704298,986.495193912888,426.090418184063,742.637481142314,351.535633479765,556.142287229426,525.445215295702,613.504806087112,773.909581815937,3,6,4,0,6,5,vertical,vertical,vertical,horizontal,vertical,vertical
1b,19,100214,4,31,223,20,F,NA,constant,heterogeneous,5,present,1.78041195869446,1,vertical,vertical,1,0.799995994567871,green,2,5,1013.86099482608,738.882953928832,545.349468637584,613.345668841951,734.001143498857,846.311085703712,1013.86099482608,738.882953928832,998.172220171528,439.523300282291,708.616172865948,361.936991243214,545.349468637584,613.345668841951,0,0,0,4,3,5,6,NaN,horizontal,vertical,horizontal,vertical,vertical,none
1b,19,100214,4,32,224,20,F,NA,constant,heterogeneous,6,absent,1.22228217124939,1,vertical,vertical,1,0.905876226986156,green,4,NaN,782.212099195248,345.621167183745,NaN,NaN,817.787900804752,854.378832816255,1029.19248180629,711.784642431215,1011.40458100154,457.40580961496,782.212099195248,345.621167183745,570.807518193712,488.215357568785,588.595418998464,742.594190385041,5,0,5,4,3,6,vertical,vertical,vertical,vertical,horizontal,vertical
1b,19,100214,4,33,225,20,F,NA,constant,heterogeneous,4,present,1.04057002067566,1,horizontal,horizontal,1,1.08234328101663,green,3,2,967.295052392579,407.549057043193,992.450942956807,767.295052392579,632.704947607421,792.450942956807,992.450942956807,767.295052392579,967.295052392579,407.549057043193,607.549057043193,432.704947607421,0,0,0,0,5,6,4,0,NaN,NaN,horizontal,vertical,horizontal,vertical,none,none
1b,19,100214,4,34,226,20,F,NA,constant,heterogeneous,3,present,0.834120035171509,1,horizontal,horizontal,1,1.02352092967314,green,2,3,1016.25226451989,464.870587620533,574.848363820974,480.284751489598,808.899371659138,854.844660889869,1016.25226451989,464.870587620533,574.848363820974,480.284751489598,0,0,0,0,0,0,0,4,3,NaN,NaN,NaN,vertical,horizontal,horizontal,none,none,none
1b,19,100214,4,35,227,20,F,NA,constant,heterogeneous,5,absent,1.457524061203,0,vertical,horizontal,1,0.929405167523552,green,5,NaN,545.970351986605,622.224714400653,NaN,NaN,742.637481142314,848.464366520235,1018.57766167904,731.334709102064,992.450942956807,432.704947607421,700.363562235235,365.271262369628,545.970351986605,622.224714400653,0,0,5,6,3,6,4,NaN,vertical,horizontal,horizontal,vertical,vertical,none
1b,19,100214,4,36,228,20,F,NA,constant,heterogeneous,4,present,1.83604311943054,1,vertical,vertical,1,0.847053875642664,green,3,2,696.282156015671,367.045908301137,1032.95409169886,496.282156015671,903.717843984329,832.954091698863,1032.95409169886,496.282156015671,696.282156015671,367.045908301137,567.045908301137,703.717843984329,0,0,0,0,5,0,4,3,NaN,NaN,vertical,horizontal,vertical,horizontal,none,none
1b,19,100214,4,37,229,20,F,NA,constant,heterogeneous,5,present,1.30662202835083,1,vertical,vertical,1,0.882347286448759,green,4,3,604.658667004661,436.089159529932,895.524681321058,363.568117085469,861.690083377915,847.425410200379,1054.37883281626,617.787900804752,895.524681321058,363.568117085469,604.658667004661,436.089159529932,583.747735480111,735.129412379467,0,0,6,5,6,4,0,NaN,horizontal,horizontal,vertical,vertical,horizontal,none
1b,19,100214,4,38,230,20,F,NA,constant,heterogeneous,6,absent,NaN,0,horizontal,none,0,1.08234328101663,green,6,NaN,591.116228706307,746.261991269517,NaN,NaN,822.224714400653,854.029648013395,1031.10848569435,707.767656743878,1008.88377129369,453.738008730483,777.775285599347,345.970351986605,568.891514305654,492.232343256122,591.116228706307,746.261991269517,3,0,6,0,5,4,vertical,vertical,horizontal,horizontal,horizontal,horizontal
1b,19,100214,4,39,231,20,F,NA,constant,heterogeneous,5,present,1.17878389358521,1,horizontal,horizontal,1,0.988227518867044,green,1,2,688.215357568785,829.192481806288,983.431649086356,777.137884467044,688.215357568785,829.192481806288,983.431649086356,777.137884467044,1025.15163617903,480.284751489598,755.719714694933,348.874022981887,547.481642470899,564.510859255183,0,0,4,5,3,0,5,NaN,horizontal,vertical,horizontal,horizontal,vertical,none
1b,19,100214,4,40,232,20,F,NA,constant,heterogeneous,6,absent,NaN,0,horizontal,none,0,0.635293410806095,green,5,NaN,545.970351986605,577.775285599347,NaN,NaN,907.767656743878,831.108485694346,1054.0296480134,622.224714400653,946.261991269517,391.116228706307,692.232343256122,368.891514305654,545.970351986605,577.775285599347,653.738008730483,808.883771293693,5,6,3,0,4,3,vertical,vertical,vertical,vertical,horizontal,horizontal
1b,19,100214,4,41,233,20,F,NA,constant,heterogeneous,5,present,1.50736904144287,1,horizontal,horizontal,1,0.988227518867044,green,2,4,1052.5183575291,635.489140744817,616.568350913644,422.862115532956,844.280285305067,851.125977018113,1052.5183575291,635.489140744817,911.784642431215,370.807518193712,616.568350913644,422.862115532956,574.848363820974,719.715248510402,0,0,6,4,3,3,5,NaN,vertical,horizontal,horizontal,vertical,horizontal,none
1b,19,100214,4,42,234,20,F,NA,constant,heterogeneous,5,absent,0.938424825668335,1,horizontal,horizontal,1,1.03528539994184,green,2,NaN,983.431649086356,777.137884467044,NaN,NaN,688.215357568785,829.192481806288,983.431649086356,777.137884467044,1025.15163617903,480.284751489598,755.719714694933,348.874022981887,547.481642470899,564.510859255183,0,0,6,4,0,5,6,NaN,horizontal,horizontal,horizontal,vertical,horizontal,none
1b,19,100214,4,43,235,20,F,NA,constant,heterogeneous,5,absent,0.565829038619995,1,horizontal,horizontal,1,0.823524935105268,green,2,NaN,986.495193912888,773.909581815937,NaN,NaN,692.232343256122,831.108485694346,986.495193912888,773.909581815937,1023.02802532055,476.373546837184,751.343706178981,349.685068220846,546.900731331463,568.923317431687,0,0,0,4,6,3,3,NaN,vertical,horizontal,vertical,horizontal,vertical,none
1b,19,100214,4,44,236,20,F,NA,constant,heterogeneous,5,present,1.42705917358398,1,horizontal,horizontal,1,1.08234328101663,green,5,1,626.090418184063,786.495193912888,923.626453162816,823.028025320546,923.626453162816,823.028025320546,1050.31493177915,551.343706178981,831.076682568313,346.900731331463,568.891514305654,492.232343256122,626.090418184063,786.495193912888,0,0,6,5,5,3,4,NaN,vertical,vertical,horizontal,vertical,horizontal,none
1b,19,100214,4,45,237,20,F,NA,constant,heterogeneous,3,present,1.10234594345093,1,vertical,vertical,1,0.729409172955681,green,3,1,629.371695378491,410.498069503264,721.200666434388,842.519411655264,721.200666434388,842.519411655264,1049.42763818712,546.982518841471,629.371695378491,410.498069503264,0,0,0,0,0,0,3,5,4,NaN,NaN,NaN,horizontal,horizontal,vertical,none,none,none
1b,19,100214,4,46,238,20,F,NA,constant,heterogeneous,6,absent,1.46514391899109,1,horizontal,horizontal,1,1.03528539994184,green,2,NaN,1047.42541020038,661.690083377915,NaN,NaN,870.287525733335,845.121732464271,1047.42541020038,661.690083377915,977.137884467044,416.568350913644,729.712474266665,354.878267535729,552.574589799621,538.309916622085,622.862115532956,783.431649086356,5,4,5,0,3,6,vertical,horizontal,vertical,vertical,horizontal,vertical
1b,19,100214,4,47,239,20,F,NA,constant,heterogeneous,4,absent,1.26809883117676,1,vertical,vertical,1,1.07057881074793,green,4,NaN,567.045908301137,703.717843984329,NaN,NaN,903.717843984329,832.954091698863,1032.95409169886,496.282156015671,696.282156015671,367.045908301137,567.045908301137,703.717843984329,0,0,0,0,3,6,3,4,NaN,NaN,horizontal,vertical,vertical,vertical,none,none
1b,19,100214,4,48,240,20,F,NA,constant,heterogeneous,6,present,1.90543699264526,1,horizontal,horizontal,1,0.988227518867044,green,4,2,895.524681321058,363.568117085469,956.993676208043,800.942742169714,704.475318678942,836.431882914531,956.993676208043,800.942742169714,1052.5183575291,564.510859255183,895.524681321058,363.568117085469,643.006323791957,399.057257830286,547.481642470899,635.489140744817,6,5,6,4,3,3,horizontal,vertical,vertical,horizontal,vertical,horizontal
1b,19,100214,4,49,241,20,F,NA,constant,heterogeneous,3,absent,0.729307174682617,1,vertical,vertical,1,0.682351291880888,green,2,NaN,835.489140744817,347.4816424709,NaN,NaN,1000.94274216971,756.993676208043,835.489140744817,347.4816424709,563.568117085469,695.524681321058,0,0,0,0,0,0,0,4,6,NaN,NaN,NaN,vertical,vertical,horizontal,none,none,none
1b,19,100214,4,50,242,20,F,NA,constant,heterogeneous,5,absent,NaN,0,vertical,none,0,0.870582816180061,green,2,NaN,1051.12597701811,555.719714694933,NaN,NaN,919.715248510402,825.151636179026,1051.12597701811,555.719714694933,835.489140744817,347.4816424709,570.807518193712,488.215357568785,622.862115532956,783.431649086356,0,0,3,4,3,6,6,NaN,horizontal,vertical,vertical,horizontal,vertical,none
1b,19,100214,4,51,243,20,F,NA,constant,heterogeneous,5,present,0.923789024353027,1,vertical,vertical,1,1.09410775128533,green,4,3,591.116228706307,453.738008730483,874.554784704298,356.142287229426,883.019879386575,841.107236777826,1054.96116226488,595.549636358493,874.554784704298,356.142287229426,591.116228706307,453.738008730483,596.34794493794,753.462830903772,0,0,0,0,6,4,6,NaN,horizontal,vertical,vertical,vertical,vertical,none
1b,19,100214,4,52,244,20,F,NA,constant,heterogeneous,6,present,NaN,0,vertical,none,0,0.917640697254854,green,2,5,1034.72873763037,699.636437764765,565.271262369628,500.363562235235,831.076682568313,853.099268668537,1034.72873763037,699.636437764765,1003.65205506206,446.537169096228,768.923317431687,346.900731331463,565.271262369628,500.363562235235,596.34794493794,753.462830903772,5,4,3,0,5,3,horizontal,vertical,horizontal,horizontal,vertical,vertical
