experiment,subject,uniqueID,block,trial,trial_cumulative,age,gender,color_cond_blocking,color_history,shape_type,set_size,distractor,rt,acc,target_orient,response_key,response_made,iti,target_color,target_item,distractor_item,target_X,target_Y,distractor_X,distractor_Y,item1_X,item1_Y,item2_X,item2_Y,item3_X,item3_Y,item4_X,item4_Y,item5_X,item5_Y,item6_X,item6_Y,item1_shape,item2_shape,item3_shape,item4_shape,item5_shape,item6_shape,item1_line,item2_line,item3_line,item4_line,item5_line,item6_line
1b,1,100173,1,1,1,19,F,NA,constant,heterogeneous,6,present,1.79500508308411,1,vertical,vertical,1,1.09410730361938,green,1,6,915.767577433584,827.206663668034,661.117046071168,813.860994826083,915.767577433584,827.206663668034,1054.65053136242,613.345668841951,938.882953928832,386.139005173917,684.232422566416,372.793336331966,545.349468637584,586.654331158049,661.117046071168,813.860994826083,4,3,5,0,5,0,vertical,horizontal,vertical,horizontal,horizontal,horizontal
1b,1,100173,1,2,2,19,F,NA,constant,heterogeneous,5,present,NaN,0,horizontal,none,0,0.941169328689575,green,5,1,552.574589799621,661.690083377915,782.212099195248,854.378832816255,782.212099195248,854.378832816255,1036.43188291453,695.524681321058,963.910840470068,404.658667004661,664.870587620533,383.747735480111,552.574589799621,661.690083377915,0,0,6,0,0,5,4,NaN,horizontal,vertical,vertical,vertical,horizontal,none
1b,1,100173,1,3,3,19,F,NA,constant,heterogeneous,5,present,NaN,0,horizontal,none,0,0.705880136489868,green,2,3,1039.62161830041,687.215136548046,956.993676208043,399.057257830286,791.100628340862,854.844660889869,1039.62161830041,687.215136548046,956.993676208043,399.057257830286,657.405809614959,388.595418998464,554.878267535729,670.287525733335,0,0,6,4,0,6,5,NaN,horizontal,horizontal,horizontal,vertical,horizontal,none
1b,1,100173,1,4,4,19,F,NA,constant,heterogeneous,4,present,0.785529851913452,1,vertical,vertical,1,0.882347030639648,green,4,2,551.535633479765,657.362518857686,1048.46436652023,542.637481142314,857.362518857686,848.464366520235,1048.46436652023,542.637481142314,742.637481142314,351.535633479765,551.535633479765,657.362518857686,0,0,0,0,0,3,6,4,NaN,NaN,vertical,horizontal,vertical,vertical,none,none
1b,1,100173,1,5,5,19,F,NA,constant,heterogeneous,6,present,1.65123701095581,1,horizontal,horizontal,1,1.0823428440094,green,1,3,817.787900804752,854.378832816255,1011.40458100154,457.40580961496,817.787900804752,854.378832816255,1029.19248180629,711.784642431215,1011.40458100154,457.40580961496,782.212099195248,345.621167183745,570.807518193712,488.215357568785,588.595418998464,742.594190385041,4,0,0,6,3,5,horizontal,vertical,vertical,horizontal,vertical,horizontal
1b,1,100173,1,6,6,19,F,NA,constant,heterogeneous,3,present,1.35783004760742,1,vertical,vertical,1,0.682351217269897,green,1,2,992.450942956807,767.295052392579,848.656293821019,349.685068220846,992.450942956807,767.295052392579,848.656293821019,349.685068220846,558.892763222174,683.019879386575,0,0,0,0,0,0,4,0,3,NaN,NaN,NaN,vertical,horizontal,vertical,none,none,none
1b,1,100173,1,7,7,19,F,NA,constant,heterogeneous,3,absent,1.07280015945435,1,horizontal,horizontal,1,0.77646689414978,green,1,NaN,712.784863451954,839.621618300407,NaN,NaN,712.784863451954,839.621618300407,1051.12597701811,555.719714694933,636.089159529932,404.658667004661,0,0,0,0,0,0,4,5,0,NaN,NaN,NaN,horizontal,vertical,horizontal,none,none,none
1b,1,100173,1,8,8,19,F,NA,constant,heterogeneous,5,present,0.798876047134399,1,vertical,vertical,1,0.823524732589722,green,2,5,1051.86052685176,560.109211414741,619.68777079743,780.31222920257,915.767577433584,827.206663668034,1051.86052685176,560.109211414741,839.890788585259,348.13947314824,572.793336331966,484.232422566416,619.68777079743,780.31222920257,0,0,5,4,6,0,3,NaN,horizontal,vertical,horizontal,vertical,vertical,none
1b,1,100173,1,9,9,19,F,NA,constant,heterogeneous,6,absent,1.20024418830872,1,vertical,vertical,1,0.658822298049927,green,1,NaN,696.282156015671,832.954091698863,NaN,NaN,696.282156015671,832.954091698863,949.885239334581,806.299333565612,1053.60308331891,573.345241866748,903.717843984329,367.045908301137,650.114760665419,393.700666434388,546.39691668109,626.654758133252,4,6,0,5,3,6,vertical,vertical,vertical,horizontal,horizontal,vertical
1b,1,100173,1,10,10,19,F,NA,constant,heterogeneous,5,absent,0.906718015670776,1,vertical,vertical,1,0.905875949859619,green,5,NaN,576.971974679454,723.626453162816,NaN,NaN,848.656293821019,850.314931779154,1053.09926866854,631.076682568313,907.767656743878,368.891514305654,613.504806087112,426.090418184063,576.971974679454,723.626453162816,0,0,6,5,6,3,4,NaN,horizontal,vertical,vertical,vertical,vertical,none
1b,1,100173,1,11,11,19,F,NA,constant,heterogeneous,4,absent,0.878848075866699,1,vertical,vertical,1,1.09410730361938,green,3,NaN,725.445215295702,356.142287229426,NaN,NaN,874.554784704298,843.857712770574,1043.85771277057,525.445215295702,725.445215295702,356.142287229426,556.142287229426,674.554784704298,0,0,0,0,5,6,4,3,NaN,NaN,vertical,horizontal,vertical,horizontal,none,none
1b,1,100173,1,12,12,19,F,NA,constant,heterogeneous,5,absent,1.06868100166321,1,vertical,vertical,1,0.799995813369751,green,2,NaN,1054.65053136242,613.345668841951,NaN,NaN,865.998856501143,846.311085703712,1054.65053136242,613.345668841951,891.383827134052,361.936991243214,601.827779828472,439.523300282291,586.139005173917,738.882953928832,0,0,0,4,6,5,6,NaN,horizontal,vertical,vertical,vertical,vertical,none
1b,1,100173,1,13,13,19,F,NA,constant,heterogeneous,4,absent,0.610842943191528,1,vertical,vertical,1,1.03528500556946,green,4,NaN,593.700666434388,749.885239334581,NaN,NaN,949.885239334581,806.299333565612,1006.29933356561,450.114760665419,650.114760665419,393.700666434388,593.700666434388,749.885239334581,0,0,0,0,0,6,5,4,NaN,NaN,horizontal,vertical,horizontal,vertical,none,none
1b,1,100173,1,14,14,19,F,NA,constant,heterogeneous,4,absent,0.620275974273682,1,vertical,vertical,1,1.04704946517944,green,3,NaN,857.362518857686,351.535633479765,NaN,NaN,742.637481142314,848.464366520235,1048.46436652023,657.362518857686,857.362518857686,351.535633479765,551.535633479765,542.637481142314,0,0,0,0,6,0,4,6,NaN,NaN,vertical,vertical,vertical,horizontal,none,none
1b,1,100173,1,15,15,19,F,NA,constant,heterogeneous,3,present,1.01367592811584,1,horizontal,horizontal,1,0.647057838439941,green,1,3,596.34794493794,753.462830903772,768.923317431687,346.900731331463,596.34794493794,753.462830903772,1034.72873763037,699.636437764765,768.923317431687,346.900731331463,0,0,0,0,0,0,4,0,6,NaN,NaN,NaN,horizontal,horizontal,horizontal,none,none,none
1b,1,100173,1,16,16,19,F,NA,constant,heterogeneous,6,absent,1.73184895515442,1,horizontal,horizontal,1,0.882347030639648,green,5,NaN,563.568117085469,504.475318678942,NaN,NaN,835.489140744817,852.518357529101,1036.43188291453,695.524681321058,1000.94274216971,443.006323791957,764.510859255183,347.4816424709,563.568117085469,504.475318678942,599.057257830286,756.993676208043,6,3,0,5,4,3,horizontal,vertical,horizontal,vertical,horizontal,horizontal
1b,1,100173,1,17,17,19,F,NA,constant,heterogeneous,5,absent,1.20764017105103,1,horizontal,horizontal,1,0.847053651809692,green,3,NaN,1039.62161830041,512.784863451954,NaN,NaN,657.405809614959,811.404581001536,956.993676208043,800.942742169714,1039.62161830041,512.784863451954,791.100628340862,345.155339110131,554.878267535729,529.712474266665,0,0,0,0,4,6,5,NaN,horizontal,vertical,horizontal,horizontal,horizontal,none
1b,1,100173,1,18,18,19,F,NA,constant,heterogeneous,4,present,0.759236812591553,1,vertical,vertical,1,0.964698247909546,green,2,4,1053.09926866854,568.923317431687,546.900731331463,631.076682568313,831.076682568313,853.099268668537,1053.09926866854,568.923317431687,768.923317431687,346.900731331463,546.900731331463,631.076682568313,0,0,0,0,3,4,5,6,NaN,NaN,vertical,vertical,vertical,vertical,none,none
1b,1,100173,1,19,19,19,F,NA,constant,heterogeneous,5,absent,1.8150749206543,1,horizontal,horizontal,1,0.835289192199707,green,1,NaN,923.626453162816,823.028025320546,NaN,NaN,923.626453162816,823.028025320546,1050.31493177915,551.343706178981,831.076682568313,346.900731331463,568.891514305654,492.232343256122,626.090418184063,786.495193912888,0,0,4,6,3,3,5,NaN,horizontal,vertical,horizontal,horizontal,vertical,none
1b,1,100173,1,20,20,19,F,NA,constant,heterogeneous,6,absent,1.72599697113037,1,vertical,vertical,1,0.905875949859619,green,2,NaN,1054.84466088987,608.899371659138,NaN,NaN,919.715248510402,825.151636179026,1054.84466088987,608.899371659138,935.129412379467,383.747735480111,680.284751489598,374.848363820974,545.155339110131,591.100628340862,664.870587620533,816.252264519889,6,4,5,3,0,0,horizontal,vertical,horizontal,vertical,vertical,vertical
1b,1,100173,1,21,21,19,F,NA,constant,heterogeneous,6,absent,1.98437309265137,1,horizontal,horizontal,1,0.988227167129517,green,3,NaN,1008.88377129369,453.738008730483,NaN,NaN,822.224714400653,854.029648013395,1031.10848569435,707.767656743878,1008.88377129369,453.738008730483,777.775285599347,345.970351986605,568.891514305654,492.232343256122,591.116228706307,746.261991269517,0,5,4,5,3,0,vertical,vertical,horizontal,vertical,vertical,vertical
1b,1,100173,1,22,22,19,F,NA,constant,heterogeneous,3,absent,1.05261206626892,1,horizontal,horizontal,1,0.623528919219971,green,3,NaN,554.878267535729,670.287525733335,NaN,NaN,983.431649086356,777.137884467044,861.690083377915,352.574589799621,554.878267535729,670.287525733335,0,0,0,0,0,0,6,0,4,NaN,NaN,NaN,vertical,vertical,horizontal,none,none,none
1b,1,100173,1,23,23,19,F,NA,constant,heterogeneous,3,present,1.33450198173523,1,vertical,vertical,1,0.835289192199707,green,1,2,915.767577433584,827.206663668034,938.882953928832,386.139005173917,915.767577433584,827.206663668034,938.882953928832,386.139005173917,545.349468637584,586.654331158049,0,0,0,0,0,0,4,5,3,NaN,NaN,NaN,vertical,horizontal,horizontal,none,none,none
1b,1,100173,1,24,24,19,F,NA,constant,heterogeneous,4,present,1.36322593688965,1,vertical,vertical,1,1.09410730361938,green,2,3,983.431649086356,777.137884467044,977.137884467044,416.568350913644,622.862115532956,783.431649086356,983.431649086356,777.137884467044,977.137884467044,416.568350913644,616.568350913644,422.862115532956,0,0,0,0,3,4,0,0,NaN,NaN,horizontal,vertical,vertical,horizontal,none,none
1b,1,100173,1,25,25,19,F,NA,constant,heterogeneous,5,absent,NaN,0,vertical,none,0,0.92940486907959,green,3,NaN,942.594190385041,388.595418998464,NaN,NaN,808.899371659138,854.844660889869,1045.12173246427,670.287525733335,942.594190385041,388.595418998464,643.006323791957,399.057257830286,560.378381699593,687.215136548046,0,0,0,6,4,5,3,NaN,horizontal,vertical,vertical,horizontal,horizontal,none
1b,1,100173,1,26,26,19,F,NA,constant,heterogeneous,4,present,0.989538908004761,1,vertical,vertical,1,0.999991626739502,green,4,2,563.568117085469,504.475318678942,1036.43188291453,695.524681321058,704.475318678942,836.431882914531,1036.43188291453,695.524681321058,895.524681321058,363.568117085469,563.568117085469,504.475318678942,0,0,0,0,5,0,6,4,NaN,NaN,horizontal,vertical,horizontal,vertical,none,none
1b,1,100173,1,27,27,19,F,NA,constant,heterogeneous,6,present,1.51413989067078,1,horizontal,horizontal,1,0.811760272979736,green,1,5,708.616172865948,838.063008756786,639.523300282292,401.827779828472,708.616172865948,838.063008756786,960.476699717708,798.172220171528,1051.86052685176,560.109211414741,891.383827134052,361.936991243214,639.523300282292,401.827779828472,548.13947314824,639.890788585259,4,3,0,5,5,3,horizontal,horizontal,vertical,horizontal,horizontal,horizontal
1b,1,100173,1,28,28,19,F,NA,constant,heterogeneous,4,present,1.10964012145996,0,horizontal,vertical,1,0.870582571029663,green,2,1,1039.62161830041,512.784863451954,887.215136548046,839.621618300407,887.215136548046,839.621618300407,1039.62161830041,512.784863451954,712.784863451954,360.378381699593,560.378381699593,687.215136548046,0,0,0,0,3,4,5,0,NaN,NaN,horizontal,horizontal,horizontal,vertical,none,none
1b,1,100173,1,29,29,19,F,NA,constant,heterogeneous,5,present,1.92437887191772,0,vertical,horizontal,1,0.611764459609985,green,2,1,1051.86052685176,560.109211414741,915.767577433584,827.206663668034,915.767577433584,827.206663668034,1051.86052685176,560.109211414741,839.890788585259,348.13947314824,572.793336331966,484.232422566416,619.68777079743,780.31222920257,0,0,3,4,0,5,3,NaN,vertical,vertical,vertical,vertical,horizontal,none
1b,1,100173,1,30,30,19,F,NA,constant,heterogeneous,6,absent,NaN,0,horizontal,none,0,0.917640409469604,green,6,NaN,547.481642470899,635.489140744817,NaN,NaN,704.475318678942,836.431882914531,956.993676208043,800.942742169714,1052.5183575291,564.510859255183,895.524681321058,363.568117085469,643.006323791957,399.057257830286,547.481642470899,635.489140744817,3,0,3,5,5,4,horizontal,horizontal,vertical,vertical,horizontal,horizontal
1b,1,100173,1,31,31,19,F,NA,constant,heterogeneous,3,absent,1.34603118896484,0,horizontal,vertical,1,0.823524732589722,green,1,NaN,977.137884467044,783.431649086356,NaN,NaN,977.137884467044,783.431649086356,870.287525733335,354.878267535729,552.574589799621,661.690083377915,0,0,0,0,0,0,4,0,5,NaN,NaN,NaN,horizontal,horizontal,horizontal,none,none,none
1b,1,100173,1,32,32,19,F,NA,constant,heterogeneous,5,absent,1.73537397384644,1,horizontal,horizontal,1,0.705880136489868,green,3,NaN,1027.20666366803,484.232422566416,NaN,NaN,684.232422566416,827.206663668034,980.31222920257,780.31222920257,1027.20666366803,484.232422566416,760.109211414741,348.13947314824,548.13947314824,560.109211414741,0,0,5,5,4,0,6,NaN,vertical,vertical,horizontal,vertical,vertical,none
1b,1,100173,1,33,33,19,F,NA,constant,heterogeneous,3,present,0.756504058837891,1,horizontal,horizontal,1,0.917640409469604,green,2,3,1054.65053136242,613.345668841951,684.232422566416,372.793336331966,661.117046071168,813.860994826083,1054.65053136242,613.345668841951,684.232422566416,372.793336331966,0,0,0,0,0,0,6,4,5,NaN,NaN,NaN,vertical,horizontal,horizontal,none,none,none
1b,1,100173,1,34,34,19,F,NA,constant,heterogeneous,5,present,1.21817088127136,1,horizontal,horizontal,1,0.917640409469604,green,1,3,791.100628340862,854.844660889869,956.993676208043,399.057257830286,791.100628340862,854.844660889869,1039.62161830041,687.215136548046,956.993676208043,399.057257830286,657.405809614959,388.595418998464,554.878267535729,670.287525733335,0,0,4,5,5,3,0,NaN,horizontal,horizontal,horizontal,horizontal,vertical,none
1b,1,100173,1,35,35,19,F,NA,constant,heterogeneous,3,present,1.24648690223694,1,vertical,vertical,1,0.988227167129517,green,2,3,817.787900804752,345.621167183745,570.807518193712,711.784642431215,1011.40458100154,742.594190385041,817.787900804752,345.621167183745,570.807518193712,711.784642431215,0,0,0,0,0,0,3,4,6,NaN,NaN,NaN,horizontal,vertical,vertical,none,none,none
1b,1,100173,1,36,36,19,F,NA,constant,heterogeneous,6,present,1.63848400115967,1,vertical,vertical,1,0.941169328689575,green,5,6,646.537169096228,396.34794493794,546.900731331463,631.076682568313,700.363562235235,834.728737630372,953.462830903772,803.65205506206,1053.09926866854,568.923317431687,899.636437764765,365.271262369628,646.537169096228,396.34794493794,546.900731331463,631.076682568313,0,5,6,6,4,3,horizontal,horizontal,vertical,vertical,vertical,vertical
1b,1,100173,1,37,37,19,F,NA,constant,heterogeneous,3,absent,0.792314052581787,0,vertical,horizontal,1,0.847053651809692,green,1,NaN,826.654758133252,853.60308331891,NaN,NaN,826.654758133252,853.60308331891,1006.29933356561,450.114760665419,567.045908301137,496.282156015671,0,0,0,0,0,0,4,3,0,NaN,NaN,NaN,vertical,horizontal,vertical,none,none,none
1b,1,100173,1,38,38,19,F,NA,constant,heterogeneous,6,present,1.59279584884644,1,vertical,vertical,1,0.623528919219971,green,2,3,1003.65205506206,753.462830903772,1034.72873763037,500.363562235235,768.923317431687,853.099268668537,1003.65205506206,753.462830903772,1034.72873763037,500.363562235235,831.076682568313,346.900731331463,596.34794493794,446.537169096228,565.271262369628,699.636437764765,5,4,3,0,6,5,horizontal,vertical,horizontal,vertical,vertical,vertical
1b,1,100173,1,39,39,19,F,NA,constant,heterogeneous,6,absent,1.51156902313232,1,vertical,vertical,1,0.92940486907959,green,5,NaN,607.549057043193,432.704947607421,NaN,NaN,751.343706178981,850.314931779154,992.450942956807,767.295052392579,1041.10723677783,516.980120613425,848.656293821019,349.685068220846,607.549057043193,432.704947607421,558.892763222174,683.019879386575,5,0,6,0,4,3,horizontal,horizontal,vertical,horizontal,vertical,vertical
1b,1,100173,1,40,40,19,F,NA,constant,heterogeneous,3,present,1.49929904937744,1,horizontal,horizontal,1,1.07057838439941,green,2,1,878.799333565612,357.480588344736,970.628304621509,789.501930496736,970.628304621509,789.501930496736,878.799333565612,357.480588344736,550.57236181288,653.017481158529,0,0,0,0,0,0,0,4,6,NaN,NaN,NaN,horizontal,horizontal,horizontal,none,none,none
1b,1,100173,1,41,41,19,F,NA,constant,heterogeneous,6,present,1.16195106506348,1,vertical,vertical,1,1.02352054595947,green,4,3,672.5,379.163522034968,927.5,379.163522034968,927.5,820.836477965032,1055,600,927.5,379.163522034968,672.5,379.163522034968,545,600,672.5,820.836477965032,0,5,0,4,6,5,vertical,vertical,vertical,vertical,horizontal,vertical
1b,1,100173,1,42,42,19,F,NA,constant,heterogeneous,5,present,1.10604000091553,1,vertical,vertical,1,1.03528500556946,green,4,5,572.793336331966,484.232422566416,619.68777079743,780.31222920257,915.767577433584,827.206663668034,1051.86052685176,560.109211414741,839.890788585259,348.13947314824,572.793336331966,484.232422566416,619.68777079743,780.31222920257,0,0,6,6,3,4,5,NaN,vertical,vertical,horizontal,vertical,vertical,none
1b,1,100173,1,43,43,19,F,NA,constant,heterogeneous,3,absent,0.884744882583618,1,vertical,vertical,1,0.623528919219971,green,3,NaN,574.848363820974,480.284751489598,NaN,NaN,808.899371659138,854.844660889869,1016.25226451989,464.870587620533,574.848363820974,480.284751489598,0,0,0,0,0,0,6,5,4,NaN,NaN,NaN,vertical,vertical,vertical,none,none,none
1b,1,100173,1,44,44,19,F,NA,constant,heterogeneous,6,absent,1.6632821559906,1,vertical,vertical,1,0.823524732589722,green,6,NaN,549.685068220846,648.656293821019,NaN,NaN,716.980120613425,841.107236777826,967.295052392579,792.450942956807,1050.31493177915,551.343706178981,883.019879386575,358.892763222174,632.704947607421,407.549057043193,549.685068220846,648.656293821019,3,5,0,3,6,4,vertical,vertical,vertical,vertical,horizontal,vertical
1b,1,100173,1,45,45,19,F,NA,constant,heterogeneous,5,absent,NaN,0,horizontal,none,0,0.77646689414978,green,5,NaN,556.142287229426,525.445215295702,NaN,NaN,653.738008730483,808.883771293693,953.462830903772,803.65205506206,1041.10723677783,516.980120613425,795.549636358493,345.03883773512,556.142287229426,525.445215295702,0,0,3,5,5,6,4,NaN,horizontal,vertical,vertical,vertical,horizontal,none
1b,1,100173,1,46,46,19,F,NA,constant,heterogeneous,5,present,1.67788696289062,0,vertical,horizontal,1,0.870582571029663,green,3,4,835.489140744817,347.4816424709,570.807518193712,488.215357568785,919.715248510402,825.151636179026,1051.12597701811,555.719714694933,835.489140744817,347.4816424709,570.807518193712,488.215357568785,622.862115532956,783.431649086356,0,0,3,3,4,0,5,NaN,horizontal,vertical,vertical,horizontal,horizontal,none
1b,1,100173,1,47,47,19,F,NA,constant,heterogeneous,6,present,1.23950695991516,1,horizontal,horizontal,1,1.01175608634949,green,3,6,1053.09926866854,568.923317431687,546.900731331463,631.076682568313,700.363562235235,834.728737630372,953.462830903772,803.65205506206,1053.09926866854,568.923317431687,899.636437764765,365.271262369628,646.537169096228,396.34794493794,546.900731331463,631.076682568313,0,0,4,6,6,3,horizontal,horizontal,horizontal,vertical,horizontal,horizontal
1b,1,100173,1,48,48,19,F,NA,constant,heterogeneous,5,present,NaN,0,horizontal,none,0,0.635293378829956,green,5,2,583.747735480111,735.129412379467,1054.37883281626,617.787900804752,861.690083377915,847.425410200379,1054.37883281626,617.787900804752,895.524681321058,363.568117085469,604.658667004661,436.089159529932,583.747735480111,735.129412379467,0,0,3,5,0,6,4,NaN,horizontal,horizontal,horizontal,vertical,horizontal,none
1b,1,100173,1,49,49,19,F,NA,constant,heterogeneous,4,present,1.7824010848999,1,horizontal,horizontal,1,0.635293378829956,green,4,1,552.574589799621,538.309916622085,738.309916622085,847.425410200379,738.309916622085,847.425410200379,1047.42541020038,661.690083377915,861.690083377915,352.574589799621,552.574589799621,538.309916622085,0,0,0,0,3,5,0,4,NaN,NaN,horizontal,horizontal,vertical,horizontal,none,none
1b,1,100173,1,50,50,19,F,NA,constant,heterogeneous,4,absent,1.1012179851532,1,horizontal,horizontal,1,0.941169328689575,green,1,NaN,899.636437764765,834.728737630372,NaN,NaN,899.636437764765,834.728737630372,1034.72873763037,500.363562235235,700.363562235235,365.271262369628,565.271262369628,699.636437764765,0,0,0,0,4,6,5,0,NaN,NaN,horizontal,vertical,vertical,horizontal,none,none
1b,1,100173,1,51,51,19,F,NA,constant,heterogeneous,3,present,0.99434494972229,1,vertical,vertical,1,0.952933788299561,green,2,3,927.5,379.163522034968,545,600,927.5,820.836477965032,927.5,379.163522034968,545,600,0,0,0,0,0,0,5,4,3,NaN,NaN,NaN,horizontal,vertical,vertical,none,none,none
1b,1,100173,1,52,52,19,F,NA,constant,heterogeneous,6,absent,1.62735199928284,1,horizontal,horizontal,1,0.847053651809692,green,3,NaN,1011.40458100154,457.40580961496,NaN,NaN,817.787900804752,854.378832816255,1029.19248180629,711.784642431215,1011.40458100154,457.40580961496,782.212099195248,345.621167183745,570.807518193712,488.215357568785,588.595418998464,742.594190385041,3,6,4,5,6,3,vertical,horizontal,horizontal,vertical,vertical,horizontal
1b,1,100173,1,53,53,19,F,NA,constant,heterogeneous,4,absent,NaN,0,horizontal,none,0,0.658822298049927,green,1,NaN,923.626453162816,823.028025320546,NaN,NaN,923.626453162816,823.028025320546,1023.02802532055,476.373546837184,676.373546837184,376.971974679454,576.971974679454,723.626453162816,0,0,0,0,4,5,0,3,NaN,NaN,horizontal,vertical,horizontal,vertical,none,none
1b,1,100173,1,54,54,19,F,NA,constant,heterogeneous,4,present,1.09237194061279,1,horizontal,horizontal,1,0.741173515319824,green,2,1,1018.57766167904,468.665290897936,931.334709102064,818.577661679039,931.334709102064,818.577661679039,1018.57766167904,468.665290897936,668.665290897936,381.422338320961,581.422338320961,731.334709102064,0,0,0,0,0,4,6,3,NaN,NaN,horizontal,horizontal,vertical,vertical,none,none
1b,1,100173,1,55,55,19,F,NA,constant,heterogeneous,3,absent,1.27544903755188,1,vertical,vertical,1,1.05881392478943,green,3,NaN,545,600,NaN,NaN,927.5,820.836477965032,927.5,379.163522034968,545,600,0,0,0,0,0,0,5,3,4,NaN,NaN,NaN,horizontal,vertical,vertical,none,none,none
1b,1,100173,1,56,56,19,F,NA,constant,heterogeneous,3,absent,1.06754899024963,1,vertical,vertical,1,0.717644596099854,green,3,NaN,786.654331158049,345.349468637584,NaN,NaN,586.139005173917,738.882953928832,1027.20666366803,715.767577433584,786.654331158049,345.349468637584,0,0,0,0,0,0,5,6,4,NaN,NaN,NaN,horizontal,horizontal,vertical,none,none,none
1b,1,100173,1,57,57,19,F,NA,constant,heterogeneous,6,present,1.76503491401672,1,horizontal,horizontal,1,0.6,green,5,1,586.139005173917,461.117046071168,786.654331158049,854.650531362416,786.654331158049,854.650531362416,1013.86099482608,738.882953928832,1027.20666366803,484.232422566416,813.345668841951,345.349468637584,586.139005173917,461.117046071168,572.793336331966,715.767577433584,6,3,6,3,4,5,vertical,horizontal,vertical,horizontal,horizontal,horizontal
1b,1,100173,1,58,58,19,F,NA,constant,heterogeneous,4,absent,1.97428202629089,1,horizontal,horizontal,1,0.894111490249634,green,1,NaN,791.100628340862,854.844660889869,NaN,NaN,791.100628340862,854.844660889869,1054.84466088987,608.899371659138,808.899371659138,345.155339110131,545.155339110131,591.100628340862,0,0,0,0,4,5,3,6,NaN,NaN,horizontal,vertical,horizontal,horizontal,none,none
1b,1,100173,1,59,59,19,F,NA,constant,heterogeneous,4,absent,1.1108820438385,1,vertical,vertical,1,0.647057838439941,green,2,NaN,1047.42541020038,538.309916622085,NaN,NaN,861.690083377915,847.425410200379,1047.42541020038,538.309916622085,738.309916622085,352.574589799621,552.574589799621,661.690083377915,0,0,0,0,0,4,5,6,NaN,NaN,horizontal,vertical,vertical,vertical,none,none
1b,1,100173,1,60,60,19,F,NA,constant,heterogeneous,5,absent,1.82254099845886,1,vertical,vertical,1,0.858818111419678,green,1,NaN,848.656293821019,850.314931779154,NaN,NaN,848.656293821019,850.314931779154,1053.09926866854,631.076682568313,907.767656743878,368.891514305654,613.504806087112,426.090418184063,576.971974679454,723.626453162816,0,0,4,0,0,6,5,NaN,vertical,vertical,vertical,vertical,horizontal,none
1b,1,100173,1,61,61,19,F,NA,constant,heterogeneous,3,absent,1.76839709281921,0,horizontal,vertical,1,0.858818111419678,green,3,NaN,546.39691668109,573.345241866748,NaN,NaN,903.717843984329,832.954091698863,949.885239334581,393.700666434388,546.39691668109,573.345241866748,0,0,0,0,0,0,3,5,4,NaN,NaN,NaN,vertical,horizontal,horizontal,none,none,none
1b,1,100173,1,62,62,19,F,NA,constant,heterogeneous,4,present,1.26207900047302,1,horizontal,horizontal,1,0.905875949859619,green,2,1,1053.09926866854,631.076682568313,768.923317431687,853.099268668537,768.923317431687,853.099268668537,1053.09926866854,631.076682568313,831.076682568313,346.900731331463,546.900731331463,568.923317431687,0,0,0,0,6,4,3,0,NaN,NaN,horizontal,horizontal,vertical,vertical,none,none
1b,1,100173,1,63,63,19,F,NA,constant,heterogeneous,3,present,1.9994649887085,1,horizontal,horizontal,1,0.999991626739502,green,1,2,751.343706178981,850.314931779154,1041.10723677783,516.980120613425,751.343706178981,850.314931779154,1041.10723677783,516.980120613425,607.549057043193,432.704947607421,0,0,0,0,0,0,4,0,6,NaN,NaN,NaN,horizontal,vertical,vertical,none,none,none
1b,1,100173,1,64,64,19,F,NA,constant,heterogeneous,4,absent,1.09869694709778,1,horizontal,horizontal,1,0.952933788299561,green,1,NaN,716.980120613425,841.107236777826,NaN,NaN,716.980120613425,841.107236777826,1041.10723677783,683.019879386575,883.019879386575,358.892763222174,558.892763222174,516.980120613425,0,0,0,0,4,6,3,5,NaN,NaN,horizontal,vertical,horizontal,horizontal,none,none
1b,1,100173,2,1,65,19,F,NA,constant,heterogeneous,5,absent,1.90077114105225,1,vertical,vertical,1,0.741173515319824,green,3,NaN,915.767577433584,372.793336331966,NaN,NaN,839.890788585259,851.86052685176,1051.86052685176,639.890788585259,915.767577433584,372.793336331966,619.68777079743,419.68777079743,572.793336331966,715.767577433584,0,0,3,5,4,0,6,NaN,horizontal,vertical,vertical,vertical,vertical,none
1b,1,100173,2,2,66,19,F,NA,constant,heterogeneous,6,absent,1.71155214309692,1,horizontal,horizontal,1,1.03528500556946,green,1,NaN,676.373546837184,823.028025320546,NaN,NaN,676.373546837184,823.028025320546,931.334709102064,818.577661679039,1054.96116226488,595.549636358493,923.626453162816,376.971974679454,668.665290897936,381.422338320961,545.03883773512,604.450363641507,4,0,0,5,3,6,horizontal,horizontal,horizontal,vertical,vertical,horizontal
1b,1,100173,2,3,67,19,F,NA,constant,heterogeneous,4,present,1.09137296676636,1,horizontal,horizontal,1,0.870582571029663,green,3,2,808.899371659138,345.155339110131,1054.84466088987,608.899371659138,791.100628340862,854.844660889869,1054.84466088987,608.899371659138,808.899371659138,345.155339110131,545.155339110131,591.100628340862,0,0,0,0,0,3,4,5,NaN,NaN,horizontal,vertical,horizontal,vertical,none,none
1b,1,100173,2,4,68,19,F,NA,constant,heterogeneous,4,present,0.77386999130249,1,vertical,vertical,1,0.823524732589722,green,1,2,826.654758133252,853.60308331891,1053.60308331891,573.345241866748,826.654758133252,853.60308331891,1053.60308331891,573.345241866748,773.345241866748,346.39691668109,546.39691668109,626.654758133252,0,0,0,0,4,5,6,5,NaN,NaN,vertical,horizontal,vertical,horizontal,none,none
1b,1,100173,2,5,69,19,F,NA,constant,heterogeneous,5,present,0.908938884735107,1,vertical,vertical,1,0.976462707519531,green,2,3,1053.09926866854,631.076682568313,907.767656743878,368.891514305654,848.656293821019,850.314931779154,1053.09926866854,631.076682568313,907.767656743878,368.891514305654,613.504806087112,426.090418184063,576.971974679454,723.626453162816,0,0,0,4,6,5,5,NaN,horizontal,vertical,horizontal,vertical,horizontal,none
1b,1,100173,2,6,70,19,F,NA,constant,heterogeneous,3,present,1.22757697105408,1,vertical,vertical,1,0.811760272979736,green,2,3,822.224714400653,345.970351986605,568.891514305654,707.767656743878,1008.88377129369,746.261991269517,822.224714400653,345.970351986605,568.891514305654,707.767656743878,0,0,0,0,0,0,6,4,5,NaN,NaN,NaN,horizontal,vertical,horizontal,none,none,none
1b,1,100173,2,7,71,19,F,NA,constant,heterogeneous,4,absent,0.917493104934692,1,vertical,vertical,1,1.05881392478943,green,3,NaN,646.537169096228,396.34794493794,NaN,NaN,953.462830903772,803.65205506206,1003.65205506206,446.537169096228,646.537169096228,396.34794493794,596.34794493794,753.462830903772,0,0,0,0,6,0,4,5,NaN,NaN,horizontal,horizontal,vertical,horizontal,none,none
1b,1,100173,2,8,72,19,F,NA,constant,heterogeneous,5,absent,1.49307703971863,0,horizontal,vertical,1,0.847053651809692,green,1,NaN,831.076682568313,853.099268668537,NaN,NaN,831.076682568313,853.099268668537,1050.31493177915,648.656293821019,923.626453162816,376.971974679454,626.090418184063,413.504806087112,568.891514305654,707.767656743878,0,0,4,3,5,5,0,NaN,horizontal,horizontal,horizontal,horizontal,horizontal,none
1b,1,100173,2,9,73,19,F,NA,constant,heterogeneous,6,present,1.62396788597107,1,horizontal,horizontal,1,1.03528500556946,green,6,4,626.090418184063,786.495193912888,725.445215295702,356.142287229426,874.554784704298,843.857712770574,1048.46436652023,657.362518857686,973.909581815937,413.504806087112,725.445215295702,356.142287229426,551.535633479765,542.637481142314,626.090418184063,786.495193912888,6,6,5,5,3,4,horizontal,horizontal,horizontal,vertical,horizontal,horizontal
1b,1,100173,2,10,74,19,F,NA,constant,heterogeneous,6,absent,NaN,0,vertical,none,0,1.05881392478943,green,5,NaN,593.700666434388,450.114760665419,NaN,NaN,773.345241866748,853.60308331891,1006.29933356561,749.885239334581,1032.95409169886,496.282156015671,826.654758133252,346.39691668109,593.700666434388,450.114760665419,567.045908301137,703.717843984329,5,3,3,0,4,6,vertical,vertical,vertical,horizontal,vertical,vertical
1b,1,100173,2,11,75,19,F,NA,constant,heterogeneous,5,absent,1.89971709251404,1,vertical,vertical,1,0.682351217269897,green,1,NaN,808.899371659138,854.844660889869,NaN,NaN,808.899371659138,854.844660889869,1045.12173246427,670.287525733335,942.594190385041,388.595418998464,643.006323791957,399.057257830286,560.378381699593,687.215136548046,0,0,4,6,6,0,3,NaN,vertical,horizontal,vertical,vertical,horizontal,none
1b,1,100173,2,12,76,19,F,NA,constant,heterogeneous,3,absent,1.1258499622345,1,vertical,vertical,1,1.01175608634949,green,1,NaN,639.523300282292,798.172220171528,NaN,NaN,639.523300282292,798.172220171528,1051.86052685176,639.890788585259,708.616172865948,361.936991243214,0,0,0,0,0,0,4,0,6,NaN,NaN,NaN,vertical,horizontal,vertical,none,none,none
1b,1,100173,2,13,77,19,F,NA,constant,heterogeneous,5,absent,1.02115106582642,1,horizontal,horizontal,1,1.02352054595947,green,3,NaN,1031.10848569435,492.232343256122,NaN,NaN,676.373546837184,823.028025320546,973.909581815937,786.495193912888,1031.10848569435,492.232343256122,768.923317431687,346.900731331463,549.685068220846,551.343706178981,0,0,5,6,4,0,0,NaN,vertical,vertical,horizontal,horizontal,vertical,none
1b,1,100173,2,14,78,19,F,NA,constant,heterogeneous,3,absent,1.34644889831543,0,horizontal,vertical,1,1.03528500556946,green,3,NaN,601.827779828472,439.523300282291,NaN,NaN,760.109211414741,851.86052685176,1038.06300875679,508.616172865948,601.827779828472,439.523300282291,0,0,0,0,0,0,3,5,4,NaN,NaN,NaN,vertical,vertical,horizontal,none,none,none
1b,1,100173,2,15,79,19,F,NA,constant,heterogeneous,5,present,1.69188213348389,1,vertical,vertical,1,0.717644596099854,green,5,3,581.422338320961,731.334709102064,899.636437764765,365.271262369628,857.362518857686,848.464366520235,1054.0296480134,622.224714400653,899.636437764765,365.271262369628,607.549057043193,432.704947607421,581.422338320961,731.334709102064,0,0,6,3,5,0,4,NaN,vertical,horizontal,vertical,horizontal,vertical,none
1b,1,100173,2,16,80,19,F,NA,constant,heterogeneous,3,present,0.995015144348145,1,horizontal,horizontal,1,0.858818111419678,green,1,2,899.636437764765,834.728737630372,953.462830903772,396.34794493794,899.636437764765,834.728737630372,953.462830903772,396.34794493794,546.900731331463,568.923317431687,0,0,0,0,0,0,4,6,5,NaN,NaN,NaN,horizontal,horizontal,vertical,none,none,none
1b,1,100173,2,17,81,19,F,NA,constant,heterogeneous,6,present,1.7083911895752,1,horizontal,horizontal,1,1.07057838439941,green,6,3,560.378381699593,687.215136548046,1039.62161830041,512.784863451954,755.719714694933,851.125977018113,995.341332995339,763.910840470068,1039.62161830041,512.784863451954,844.280285305067,348.874022981887,604.658667004661,436.089159529932,560.378381699593,687.215136548046,0,5,6,0,3,4,vertical,vertical,horizontal,vertical,horizontal,horizontal
1b,1,100173,2,18,82,19,F,NA,constant,heterogeneous,4,present,1.2166531085968,1,vertical,vertical,1,1.09410730361938,green,3,1,963.910840470068,404.658667004661,636.089159529932,795.341332995339,636.089159529932,795.341332995339,995.341332995339,763.910840470068,963.910840470068,404.658667004661,604.658667004661,436.089159529932,0,0,0,0,6,3,4,6,NaN,NaN,horizontal,horizontal,vertical,horizontal,none,none
1b,1,100173,2,19,83,19,F,NA,constant,heterogeneous,6,absent,1.72009515762329,1,horizontal,horizontal,1,0.75293797492981,green,3,NaN,1054.84466088987,591.100628340862,NaN,NaN,680.284751489598,825.151636179026,935.129412379467,816.252264519889,1054.84466088987,591.100628340862,919.715248510402,374.848363820974,664.870587620533,383.747735480111,545.155339110131,608.899371659138,5,6,4,3,0,6,vertical,vertical,horizontal,vertical,vertical,horizontal
1b,1,100173,2,20,84,19,F,NA,constant,heterogeneous,3,absent,1.2840850353241,1,horizontal,horizontal,1,0.658822298049927,green,2,NaN,1036.43188291453,695.524681321058,NaN,NaN,599.057257830286,756.993676208043,1036.43188291453,695.524681321058,764.510859255183,347.4816424709,0,0,0,0,0,0,0,4,3,NaN,NaN,NaN,horizontal,horizontal,horizontal,none,none,none
1b,1,100173,2,21,85,19,F,NA,constant,heterogeneous,5,present,1.71365594863892,1,vertical,vertical,1,0.788231353759766,green,3,1,800,345,949.885239334581,806.299333565612,949.885239334581,806.299333565612,1042.51941165526,521.200666434388,800,345,557.480588344736,521.200666434388,650.114760665419,806.299333565612,0,0,5,6,4,3,0,NaN,vertical,horizontal,vertical,horizontal,horizontal,none
1b,1,100173,2,22,86,19,F,NA,constant,heterogeneous,4,absent,1.31896114349365,1,vertical,vertical,1,0.741173515319824,green,2,NaN,1050.31493177915,648.656293821019,NaN,NaN,751.343706178981,850.314931779154,1050.31493177915,648.656293821019,848.656293821019,349.685068220846,549.685068220846,551.343706178981,0,0,0,0,5,4,3,0,NaN,NaN,horizontal,vertical,vertical,horizontal,none,none
1b,1,100173,2,23,87,19,F,NA,constant,heterogeneous,4,absent,1.03021788597107,1,horizontal,horizontal,1,1.02352054595947,green,3,NaN,848.656293821019,349.685068220846,NaN,NaN,751.343706178981,850.314931779154,1050.31493177915,648.656293821019,848.656293821019,349.685068220846,549.685068220846,551.343706178981,0,0,0,0,6,3,4,0,NaN,NaN,horizontal,horizontal,horizontal,vertical,none,none
1b,1,100173,2,24,88,19,F,NA,constant,heterogeneous,4,present,1.64325308799744,0,horizontal,vertical,1,0.623528919219971,green,2,3,986.495193912888,426.090418184063,626.090418184063,413.504806087112,973.909581815937,786.495193912888,986.495193912888,426.090418184063,626.090418184063,413.504806087112,613.504806087112,773.909581815937,0,0,0,0,5,4,0,3,NaN,NaN,vertical,horizontal,vertical,vertical,none,none
1b,1,100173,2,25,89,19,F,NA,constant,heterogeneous,3,absent,1.16667199134827,1,horizontal,horizontal,1,0.717644596099854,green,2,NaN,911.784642431215,370.807518193712,NaN,NaN,942.594190385041,811.404581001536,911.784642431215,370.807518193712,545.621167183745,617.787900804752,0,0,0,0,0,0,5,4,0,NaN,NaN,NaN,vertical,horizontal,horizontal,none,none,none
1b,1,100173,2,26,90,19,F,NA,constant,heterogeneous,5,absent,1.85150599479675,1,horizontal,horizontal,1,0.858818111419678,green,2,NaN,1043.85771277057,525.445215295702,NaN,NaN,946.261991269517,808.883771293693,1043.85771277057,525.445215295702,804.450363641507,345.03883773512,558.892763222174,516.980120613425,646.537169096228,803.65205506206,0,0,6,4,5,3,0,NaN,horizontal,horizontal,horizontal,vertical,horizontal,none
1b,1,100173,2,27,91,19,F,NA,constant,heterogeneous,5,present,0.841558933258057,1,horizontal,horizontal,1,0.847053651809692,green,3,5,1025.15163617903,480.284751489598,547.481642470899,564.510859255183,688.215357568785,829.192481806288,983.431649086356,777.137884467044,1025.15163617903,480.284751489598,755.719714694933,348.874022981887,547.481642470899,564.510859255183,0,0,6,0,4,3,5,NaN,horizontal,vertical,horizontal,horizontal,vertical,none
1b,1,100173,2,28,92,19,F,NA,constant,heterogeneous,3,absent,0.997354030609131,1,vertical,vertical,1,0.964698247909546,green,2,NaN,1020.83647796503,472.5,NaN,NaN,800,855,1020.83647796503,472.5,579.163522034968,472.5,0,0,0,0,0,0,3,4,6,NaN,NaN,NaN,horizontal,vertical,vertical,none,none,none
1b,1,100173,2,29,93,19,F,NA,constant,heterogeneous,6,absent,NaN,0,horizontal,none,0,1.03528500556946,green,1,NaN,848.656293821019,850.314931779154,NaN,NaN,848.656293821019,850.314931779154,1041.10723677783,683.019879386575,992.450942956807,432.704947607421,751.343706178981,349.685068220846,558.892763222174,516.980120613425,607.549057043193,767.295052392579,4,0,0,5,6,3,horizontal,horizontal,vertical,horizontal,vertical,horizontal
1b,1,100173,2,30,94,19,F,NA,constant,heterogeneous,3,present,1.20919799804688,1,vertical,vertical,1,0.717644596099854,green,2,3,1016.25226451989,464.870587620533,574.848363820974,480.284751489598,808.899371659138,854.844660889869,1016.25226451989,464.870587620533,574.848363820974,480.284751489598,0,0,0,0,0,0,6,4,0,NaN,NaN,NaN,horizontal,vertical,horizontal,none,none,none
1b,1,100173,2,31,95,19,F,NA,constant,heterogeneous,6,present,1.50189089775085,0,horizontal,vertical,1,0.623528919219971,green,1,5,688.215357568785,829.192481806288,657.405809614959,388.595418998464,688.215357568785,829.192481806288,942.594190385041,811.404581001536,1054.37883281626,582.212099195248,911.784642431215,370.807518193712,657.405809614959,388.595418998464,545.621167183745,617.787900804752,4,3,6,5,6,0,horizontal,vertical,horizontal,horizontal,vertical,vertical
1b,1,100173,2,32,96,19,F,NA,constant,heterogeneous,3,present,1.25715494155884,0,horizontal,vertical,1,0.658822298049927,green,2,3,1050.31493177915,648.656293821019,716.980120613425,358.892763222174,632.704947607421,792.450942956807,1050.31493177915,648.656293821019,716.980120613425,358.892763222174,0,0,0,0,0,0,0,4,5,NaN,NaN,NaN,horizontal,horizontal,vertical,none,none,none
1b,1,100173,2,33,97,19,F,NA,constant,heterogeneous,6,absent,1.87897086143494,1,vertical,vertical,1,0.823524732589722,green,2,NaN,931.334709102064,818.577661679039,NaN,NaN,676.373546837184,823.028025320546,931.334709102064,818.577661679039,1054.96116226488,595.549636358493,923.626453162816,376.971974679454,668.665290897936,381.422338320961,545.03883773512,604.450363641507,0,4,3,6,5,0,vertical,vertical,horizontal,horizontal,horizontal,horizontal
1b,1,100173,2,34,98,19,F,NA,constant,heterogeneous,5,absent,1.62112498283386,0,vertical,horizontal,1,0.823524732589722,green,1,NaN,755.719714694933,851.125977018113,NaN,NaN,755.719714694933,851.125977018113,1025.15163617903,719.715248510402,983.431649086356,422.862115532956,688.215357568785,370.807518193712,547.481642470899,635.489140744817,0,0,4,5,3,0,6,NaN,vertical,horizontal,horizontal,vertical,vertical,none
1b,1,100173,2,35,99,19,F,NA,constant,heterogeneous,6,present,1.7391529083252,1,vertical,vertical,1,0.882347030639648,green,4,5,684.232422566416,372.793336331966,545.349468637584,586.654331158049,915.767577433584,827.206663668034,1054.65053136242,613.345668841951,938.882953928832,386.139005173917,684.232422566416,372.793336331966,545.349468637584,586.654331158049,661.117046071168,813.860994826083,6,0,6,4,3,3,vertical,horizontal,horizontal,vertical,horizontal,vertical
1b,1,100173,2,36,100,19,F,NA,constant,heterogeneous,3,present,0.98776388168335,1,horizontal,horizontal,1,0.882347030639648,green,1,3,755.719714694933,851.125977018113,604.658667004661,436.089159529932,755.719714694933,851.125977018113,1039.62161830041,512.784863451954,604.658667004661,436.089159529932,0,0,0,0,0,0,4,5,3,NaN,NaN,NaN,horizontal,horizontal,horizontal,none,none,none
1b,1,100173,2,37,101,19,F,NA,constant,heterogeneous,3,present,1.37370085716248,1,vertical,vertical,1,0.694115676879883,green,2,1,1006.29933356561,450.114760665419,826.654758133252,853.60308331891,826.654758133252,853.60308331891,1006.29933356561,450.114760665419,567.045908301137,496.282156015671,0,0,0,0,0,0,5,4,6,NaN,NaN,NaN,horizontal,vertical,vertical,none,none,none
1b,1,100173,2,38,102,19,F,NA,constant,heterogeneous,6,absent,1.5930700302124,1,vertical,vertical,1,1.01175608634949,green,6,NaN,646.537169096228,803.65205506206,NaN,NaN,899.636437764765,834.728737630372,1053.09926866854,631.076682568313,953.462830903772,396.34794493794,700.363562235235,365.271262369628,546.900731331463,568.923317431687,646.537169096228,803.65205506206,6,6,0,5,5,4,vertical,vertical,horizontal,vertical,vertical,vertical
1b,1,100173,2,39,103,19,F,NA,constant,heterogeneous,4,absent,1.81568789482117,1,horizontal,horizontal,1,0.705880136489868,green,1,NaN,874.554784704298,843.857712770574,NaN,NaN,874.554784704298,843.857712770574,1043.85771277057,525.445215295702,725.445215295702,356.142287229426,556.142287229426,674.554784704298,0,0,0,0,4,5,3,0,NaN,NaN,horizontal,vertical,horizontal,horizontal,none,none
1b,1,100173,2,40,104,19,F,NA,constant,heterogeneous,3,absent,0.894638061523438,1,horizontal,horizontal,1,0.729409055709839,green,2,NaN,963.910840470068,404.658667004661,NaN,NaN,887.215136548046,839.621618300407,963.910840470068,404.658667004661,548.874022981887,555.719714694933,0,0,0,0,0,0,6,4,3,NaN,NaN,NaN,vertical,horizontal,horizontal,none,none,none
1b,1,100173,2,41,105,19,F,NA,constant,heterogeneous,6,present,0.663711786270142,1,horizontal,horizontal,1,0.941169328689575,green,3,5,992.450942956807,432.704947607421,558.892763222174,516.980120613425,848.656293821019,850.314931779154,1041.10723677783,683.019879386575,992.450942956807,432.704947607421,751.343706178981,349.685068220846,558.892763222174,516.980120613425,607.549057043193,767.295052392579,3,0,4,0,5,3,vertical,horizontal,horizontal,horizontal,horizontal,vertical
1b,1,100173,2,42,106,19,F,NA,constant,heterogeneous,5,present,1.60505509376526,1,vertical,vertical,1,1.01175608634949,green,2,5,1048.46436652023,657.362518857686,565.271262369628,699.636437764765,822.224714400653,854.029648013395,1048.46436652023,657.362518857686,931.334709102064,381.422338320961,632.704947607421,407.549057043193,565.271262369628,699.636437764765,0,0,3,4,5,0,3,NaN,vertical,vertical,vertical,horizontal,horizontal,none
1b,1,100173,2,43,107,19,F,NA,constant,heterogeneous,4,absent,1.12551808357239,1,horizontal,horizontal,1,1.01175608634949,green,2,NaN,1043.85771277057,674.554784704298,NaN,NaN,725.445215295702,843.857712770574,1043.85771277057,674.554784704298,874.554784704298,356.142287229426,556.142287229426,525.445215295702,0,0,0,0,6,4,6,5,NaN,NaN,horizontal,horizontal,vertical,horizontal,none,none
1b,1,100173,2,44,108,19,F,NA,constant,heterogeneous,3,absent,0.882066011428833,1,vertical,vertical,1,0.682351217269897,green,2,NaN,1036.43188291453,695.524681321058,NaN,NaN,599.057257830286,756.993676208043,1036.43188291453,695.524681321058,764.510859255183,347.4816424709,0,0,0,0,0,0,0,4,5,NaN,NaN,NaN,horizontal,vertical,vertical,none,none,none
1b,1,100173,2,45,109,19,F,NA,constant,heterogeneous,5,present,1.24862289428711,1,horizontal,horizontal,1,0.835289192199707,green,2,4,1049.42763818712,546.982518841471,567.045908301137,496.282156015671,927.5,820.836477965032,1049.42763818712,546.982518841471,826.654758133252,346.39691668109,567.045908301137,496.282156015671,629.371695378491,789.501930496736,0,0,3,4,5,0,6,NaN,horizontal,horizontal,horizontal,vertical,horizontal,none
1b,1,100173,2,46,110,19,F,NA,constant,heterogeneous,6,present,1.08413505554199,1,vertical,vertical,1,0.905875949859619,green,2,3,1036.43188291453,695.524681321058,1000.94274216971,443.006323791957,835.489140744817,852.518357529101,1036.43188291453,695.524681321058,1000.94274216971,443.006323791957,764.510859255183,347.4816424709,563.568117085469,504.475318678942,599.057257830286,756.993676208043,3,4,6,0,3,5,vertical,vertical,vertical,vertical,horizontal,horizontal
1b,1,100173,2,47,111,19,F,NA,constant,heterogeneous,5,present,0.919862985610962,1,horizontal,horizontal,1,0.894111490249634,green,3,1,907.767656743878,368.891514305654,848.656293821019,850.314931779154,848.656293821019,850.314931779154,1053.09926866854,631.076682568313,907.767656743878,368.891514305654,613.504806087112,426.090418184063,576.971974679454,723.626453162816,0,0,0,0,4,6,3,NaN,vertical,horizontal,horizontal,horizontal,vertical,none
1b,1,100173,2,48,112,19,F,NA,constant,heterogeneous,4,present,1.01970410346985,1,horizontal,horizontal,1,0.858818111419678,green,2,3,1047.42541020038,538.309916622085,738.309916622085,352.574589799621,861.690083377915,847.425410200379,1047.42541020038,538.309916622085,738.309916622085,352.574589799621,552.574589799621,661.690083377915,0,0,0,0,6,4,0,0,NaN,NaN,vertical,horizontal,horizontal,vertical,none,none
1b,1,100173,2,49,113,19,F,NA,constant,heterogeneous,4,present,1.36225295066833,1,vertical,vertical,1,0.905875949859619,green,4,2,591.116228706307,746.261991269517,1008.88377129369,453.738008730483,946.261991269517,808.883771293693,1008.88377129369,453.738008730483,653.738008730483,391.116228706307,591.116228706307,746.261991269517,0,0,0,0,5,6,3,4,NaN,NaN,vertical,vertical,vertical,vertical,none,none
1b,1,100173,2,50,114,19,F,NA,constant,heterogeneous,6,absent,1.81364488601685,1,vertical,vertical,1,0.999991626739502,green,5,NaN,552.574589799621,538.309916622085,NaN,NaN,870.287525733335,845.121732464271,1047.42541020038,661.690083377915,977.137884467044,416.568350913644,729.712474266665,354.878267535729,552.574589799621,538.309916622085,622.862115532956,783.431649086356,0,5,3,5,4,6,horizontal,vertical,vertical,vertical,vertical,horizontal
1b,1,100173,2,51,115,19,F,NA,constant,heterogeneous,4,absent,1.79160499572754,1,horizontal,horizontal,1,0.870582571029663,green,1,NaN,865.998856501143,846.311085703712,NaN,NaN,865.998856501143,846.311085703712,1046.31108570371,534.001143498857,734.001143498857,353.688914296288,553.688914296288,665.998856501143,0,0,0,0,4,6,5,3,NaN,NaN,horizontal,vertical,horizontal,vertical,none,none
1b,1,100173,2,52,116,19,F,NA,constant,heterogeneous,5,present,1.12479901313782,1,horizontal,horizontal,1,1.05881392478943,green,5,4,551.535633479765,657.362518857686,668.665290897936,381.422338320961,777.775285599347,854.029648013395,1034.72873763037,699.636437764765,967.295052392579,407.549057043193,668.665290897936,381.422338320961,551.535633479765,657.362518857686,0,0,3,0,5,0,4,NaN,vertical,vertical,horizontal,vertical,horizontal,none
1b,1,100173,2,53,117,19,F,NA,constant,heterogeneous,5,absent,1.28057098388672,1,vertical,vertical,1,0.858818111419678,green,2,NaN,1036.43188291453,695.524681321058,NaN,NaN,782.212099195248,854.378832816255,1036.43188291453,695.524681321058,963.910840470068,404.658667004661,664.870587620533,383.747735480111,552.574589799621,661.690083377915,0,0,5,4,5,3,0,NaN,horizontal,vertical,horizontal,horizontal,horizontal,none
1b,1,100173,2,54,118,19,F,NA,constant,heterogeneous,4,present,1.35921096801758,1,vertical,vertical,1,0.847053651809692,green,4,1,545.970351986605,622.224714400653,822.224714400653,854.029648013395,822.224714400653,854.029648013395,1054.0296480134,577.775285599347,777.775285599347,345.970351986605,545.970351986605,622.224714400653,0,0,0,0,5,3,5,4,NaN,NaN,vertical,horizontal,horizontal,vertical,none,none
1b,1,100173,2,55,119,19,F,NA,constant,heterogeneous,3,absent,1.57144212722778,1,vertical,vertical,1,1.04704946517944,green,3,NaN,632.704947607421,407.549057043193,NaN,NaN,716.980120613425,841.107236777826,1050.31493177915,551.343706178981,632.704947607421,407.549057043193,0,0,0,0,0,0,3,0,4,NaN,NaN,NaN,vertical,horizontal,vertical,none,none,none
1b,1,100173,2,56,120,19,F,NA,constant,heterogeneous,4,present,0.996374845504761,1,horizontal,horizontal,1,0.870582571029663,green,2,1,1052.5183575291,564.510859255183,835.489140744817,852.518357529101,835.489140744817,852.518357529101,1052.5183575291,564.510859255183,764.510859255183,347.4816424709,547.481642470899,635.489140744817,0,0,0,0,6,4,0,5,NaN,NaN,horizontal,horizontal,horizontal,horizontal,none,none
1b,1,100173,2,57,121,19,F,NA,constant,heterogeneous,6,present,1.20578217506409,1,vertical,vertical,1,0.870582571029663,green,2,3,1055,600,927.5,379.163522034968,927.5,820.836477965032,1055,600,927.5,379.163522034968,672.5,379.163522034968,545,600,672.5,820.836477965032,6,4,3,6,5,0,vertical,vertical,horizontal,horizontal,horizontal,horizontal
1b,1,100173,2,58,122,19,F,NA,constant,heterogeneous,5,absent,1.38214802742004,1,horizontal,horizontal,1,1.01175608634949,green,1,NaN,688.215357568785,829.192481806288,NaN,NaN,688.215357568785,829.192481806288,983.431649086356,777.137884467044,1025.15163617903,480.284751489598,755.719714694933,348.874022981887,547.481642470899,564.510859255183,0,0,4,6,3,3,5,NaN,horizontal,horizontal,horizontal,horizontal,horizontal,none
1b,1,100173,2,59,123,19,F,NA,constant,heterogeneous,4,absent,1.13653993606567,1,vertical,vertical,1,0.729409055709839,green,4,NaN,550.57236181288,653.017481158529,NaN,NaN,853.017481158529,849.42763818712,1049.42763818712,546.982518841471,746.982518841471,350.57236181288,550.57236181288,653.017481158529,0,0,0,0,0,3,0,4,NaN,NaN,vertical,horizontal,horizontal,vertical,none,none
1b,1,100173,2,60,124,19,F,NA,constant,heterogeneous,3,present,0.944756031036377,1,horizontal,horizontal,1,0.858818111419678,green,3,1,550.57236181288,653.017481158529,970.628304621509,789.501930496736,970.628304621509,789.501930496736,878.799333565612,357.480588344736,550.57236181288,653.017481158529,0,0,0,0,0,0,0,0,4,NaN,NaN,NaN,horizontal,vertical,horizontal,none,none,none
1b,1,100173,2,61,125,19,F,NA,constant,heterogeneous,6,present,1.79289698600769,1,vertical,vertical,1,1.04704946517944,green,4,6,742.637481142314,351.535633479765,613.504806087112,773.909581815937,857.362518857686,848.464366520235,1043.85771277057,674.554784704298,986.495193912888,426.090418184063,742.637481142314,351.535633479765,556.142287229426,525.445215295702,613.504806087112,773.909581815937,6,0,6,4,3,3,vertical,vertical,vertical,vertical,horizontal,horizontal
1b,1,100173,2,62,126,19,F,NA,constant,heterogeneous,3,present,0.773569107055664,1,vertical,vertical,1,0.835289192199707,green,3,2,563.568117085469,504.475318678942,1000.94274216971,443.006323791957,835.489140744817,852.518357529101,1000.94274216971,443.006323791957,563.568117085469,504.475318678942,0,0,0,0,0,0,3,6,4,NaN,NaN,NaN,horizontal,horizontal,vertical,none,none,none
1b,1,100173,2,63,127,19,F,NA,constant,heterogeneous,4,absent,0.865727186203003,1,vertical,vertical,1,0.635293378829956,green,4,NaN,568.891514305654,707.767656743878,NaN,NaN,907.767656743878,831.108485694346,1031.10848569435,492.232343256122,692.232343256122,368.891514305654,568.891514305654,707.767656743878,0,0,0,0,0,3,0,4,NaN,NaN,vertical,vertical,horizontal,vertical,none,none
1b,1,100173,2,64,128,19,F,NA,constant,heterogeneous,6,absent,NaN,0,horizontal,none,0,0.717644596099854,green,5,NaN,565.271262369628,500.363562235235,NaN,NaN,831.076682568313,853.099268668537,1034.72873763037,699.636437764765,1003.65205506206,446.537169096228,768.923317431687,346.900731331463,565.271262369628,500.363562235235,596.34794493794,753.462830903772,5,6,3,5,4,6,horizontal,vertical,vertical,vertical,horizontal,horizontal
1b,1,100173,3,1,129,19,F,NA,constant,heterogeneous,4,present,1.19682884216309,0,horizontal,vertical,1,0.823524732589722,green,2,1,986.495193912888,773.909581815937,626.090418184063,786.495193912888,626.090418184063,786.495193912888,986.495193912888,773.909581815937,973.909581815937,413.504806087112,613.504806087112,426.090418184063,0,0,0,0,6,4,5,5,NaN,NaN,vertical,horizontal,vertical,vertical,none,none
1b,1,100173,3,2,130,19,F,NA,constant,heterogeneous,6,absent,1.59351706504822,1,horizontal,horizontal,1,0.835289192199707,green,2,NaN,956.993676208043,800.942742169714,NaN,NaN,704.475318678942,836.431882914531,956.993676208043,800.942742169714,1052.5183575291,564.510859255183,895.524681321058,363.568117085469,643.006323791957,399.057257830286,547.481642470899,635.489140744817,0,4,0,6,3,6,vertical,horizontal,horizontal,horizontal,horizontal,horizontal
1b,1,100173,3,3,131,19,F,NA,constant,heterogeneous,4,absent,1.61461615562439,1,horizontal,horizontal,1,0.858818111419678,green,1,NaN,839.890788585259,851.86052685176,NaN,NaN,839.890788585259,851.86052685176,1051.86052685176,560.109211414741,760.109211414741,348.13947314824,548.13947314824,639.890788585259,0,0,0,0,4,6,3,6,NaN,NaN,horizontal,horizontal,vertical,horizontal,none,none
1b,1,100173,3,4,132,19,F,NA,constant,heterogeneous,4,absent,1.04019689559937,1,vertical,vertical,1,1.04704946517944,green,4,NaN,586.139005173917,738.882953928832,NaN,NaN,938.882953928832,813.860994826083,1013.86099482608,461.117046071168,661.117046071168,386.139005173917,586.139005173917,738.882953928832,0,0,0,0,0,3,5,4,NaN,NaN,horizontal,vertical,vertical,vertical,none,none
1b,1,100173,3,5,133,19,F,NA,constant,heterogeneous,5,absent,1.50897121429443,1,horizontal,horizontal,1,0.788231353759766,green,4,NaN,560.378381699593,512.784863451954,NaN,NaN,942.594190385041,811.404581001536,1045.12173246427,529.712474266665,808.899371659138,345.155339110131,560.378381699593,512.784863451954,643.006323791957,800.942742169714,0,0,5,0,6,4,5,NaN,horizontal,vertical,horizontal,horizontal,horizontal,none
1b,1,100173,3,6,134,19,F,NA,constant,heterogeneous,4,present,1.34134602546692,1,horizontal,horizontal,1,0.905875949859619,green,1,3,923.626453162816,823.028025320546,676.373546837184,376.971974679454,923.626453162816,823.028025320546,1023.02802532055,476.373546837184,676.373546837184,376.971974679454,576.971974679454,723.626453162816,0,0,0,0,4,0,5,6,NaN,NaN,horizontal,horizontal,vertical,horizontal,none,none
1b,1,100173,3,7,135,19,F,NA,constant,heterogeneous,6,present,1.78621220588684,0,horizontal,vertical,1,0.682351217269897,green,1,3,883.019879386575,841.107236777826,967.295052392579,407.549057043193,883.019879386575,841.107236777826,1050.31493177915,648.656293821019,967.295052392579,407.549057043193,716.980120613425,358.892763222174,549.685068220846,551.343706178981,632.704947607421,792.450942956807,4,3,0,6,5,5,horizontal,horizontal,vertical,vertical,vertical,horizontal
1b,1,100173,3,8,136,19,F,NA,constant,heterogeneous,5,absent,1.15138411521912,1,vertical,vertical,1,0.670586757659912,green,1,NaN,680.284751489598,825.151636179026,NaN,NaN,680.284751489598,825.151636179026,977.137884467044,783.431649086356,1029.19248180629,488.215357568785,764.510859255183,347.4816424709,548.874022981887,555.719714694933,0,0,4,0,6,5,3,NaN,vertical,horizontal,horizontal,horizontal,horizontal,none
1b,1,100173,3,9,137,19,F,NA,constant,heterogeneous,5,present,1.47377514839172,1,horizontal,horizontal,1,0.764702434539795,green,3,5,970.628304621509,410.498069503264,550.57236181288,653.017481158529,773.345241866748,853.60308331891,1032.95409169886,703.717843984329,970.628304621509,410.498069503264,672.5,379.163522034968,550.57236181288,653.017481158529,0,0,6,5,4,3,5,NaN,vertical,horizontal,horizontal,vertical,horizontal,none
1b,1,100173,3,10,138,19,F,NA,constant,heterogeneous,4,present,1.34252405166626,1,vertical,vertical,1,0.952933788299561,green,2,1,1054.65053136242,613.345668841951,786.654331158049,854.650531362416,786.654331158049,854.650531362416,1054.65053136242,613.345668841951,813.345668841951,345.349468637584,545.349468637584,586.654331158049,0,0,0,0,6,4,6,5,NaN,NaN,vertical,vertical,vertical,vertical,none,none
1b,1,100173,3,11,139,19,F,NA,constant,heterogeneous,3,absent,1.31905913352966,1,horizontal,horizontal,1,0.670586757659912,green,1,NaN,738.309916622085,847.425410200379,NaN,NaN,738.309916622085,847.425410200379,1045.12173246427,529.712474266665,616.568350913644,422.862115532956,0,0,0,0,0,0,4,6,5,NaN,NaN,NaN,horizontal,vertical,vertical,none,none,none
1b,1,100173,3,12,140,19,F,NA,constant,heterogeneous,5,present,1.47799110412598,1,vertical,vertical,1,1.02352054595947,green,2,1,1054.84466088987,608.899371659138,870.287525733335,845.121732464271,870.287525733335,845.121732464271,1054.84466088987,608.899371659138,887.215136548046,360.378381699593,599.057257830286,443.006323791957,588.595418998464,742.594190385041,0,0,5,4,0,5,0,NaN,horizontal,vertical,horizontal,vertical,horizontal,none
1b,1,100173,3,13,141,19,F,NA,constant,heterogeneous,3,present,0.903674125671387,1,horizontal,horizontal,1,0.788231353759766,green,1,2,998.172220171528,760.476699717708,839.890788585259,348.13947314824,998.172220171528,760.476699717708,839.890788585259,348.13947314824,561.936991243214,691.383827134052,0,0,0,0,0,0,4,3,5,NaN,NaN,NaN,horizontal,vertical,vertical,none,none,none
1b,1,100173,3,14,142,19,F,NA,constant,heterogeneous,6,absent,1.52051401138306,0,horizontal,vertical,1,0.941169328689575,green,4,NaN,672.5,379.163522034968,NaN,NaN,927.5,820.836477965032,1055,600,927.5,379.163522034968,672.5,379.163522034968,545,600,672.5,820.836477965032,0,5,6,4,0,3,horizontal,vertical,horizontal,horizontal,horizontal,horizontal
1b,1,100173,3,15,143,19,F,NA,constant,heterogeneous,3,present,0.897109031677246,1,vertical,vertical,1,0.694115676879883,green,2,3,963.910840470068,404.658667004661,548.874022981887,555.719714694933,887.215136548046,839.621618300407,963.910840470068,404.658667004661,548.874022981887,555.719714694933,0,0,0,0,0,0,6,4,0,NaN,NaN,NaN,horizontal,vertical,vertical,none,none,none
1b,1,100173,3,16,144,19,F,NA,constant,heterogeneous,6,absent,1.2287609577179,1,horizontal,horizontal,1,0.682351217269897,green,1,NaN,704.475318678942,836.431882914531,NaN,NaN,704.475318678942,836.431882914531,956.993676208043,800.942742169714,1052.5183575291,564.510859255183,895.524681321058,363.568117085469,643.006323791957,399.057257830286,547.481642470899,635.489140744817,4,3,0,0,3,5,horizontal,horizontal,vertical,horizontal,horizontal,horizontal
1b,1,100173,3,17,145,19,F,NA,constant,heterogeneous,6,absent,1.39748692512512,1,vertical,vertical,1,1.01175608634949,green,5,NaN,583.747735480111,464.870587620533,NaN,NaN,791.100628340862,854.844660889869,1016.25226451989,735.129412379467,1025.15163617903,480.284751489598,808.899371659138,345.155339110131,583.747735480111,464.870587620533,574.848363820974,719.715248510402,3,5,6,6,4,3,horizontal,vertical,horizontal,vertical,vertical,vertical
1b,1,100173,3,18,146,19,F,NA,constant,heterogeneous,6,absent,1.95995712280273,0,vertical,horizontal,1,0.694115676879883,green,2,NaN,1054.84466088987,608.899371659138,NaN,NaN,919.715248510402,825.151636179026,1054.84466088987,608.899371659138,935.129412379467,383.747735480111,680.284751489598,374.848363820974,545.155339110131,591.100628340862,664.870587620533,816.252264519889,5,4,5,6,3,3,vertical,vertical,horizontal,vertical,horizontal,horizontal
1b,1,100173,3,19,147,19,F,NA,constant,heterogeneous,5,present,1.61468195915222,1,vertical,vertical,1,0.988227167129517,green,5,3,554.878267535729,670.287525733335,956.993676208043,399.057257830286,791.100628340862,854.844660889869,1039.62161830041,687.215136548046,956.993676208043,399.057257830286,657.405809614959,388.595418998464,554.878267535729,670.287525733335,0,0,5,6,3,6,4,NaN,vertical,vertical,vertical,vertical,vertical,none
1b,1,100173,3,20,148,19,F,NA,constant,heterogeneous,6,present,1.68458700180054,1,vertical,vertical,1,0.658822298049927,green,1,6,755.719714694933,851.125977018113,560.378381699593,687.215136548046,755.719714694933,851.125977018113,995.341332995339,763.910840470068,1039.62161830041,512.784863451954,844.280285305067,348.874022981887,604.658667004661,436.089159529932,560.378381699593,687.215136548046,4,5,3,6,0,5,vertical,horizontal,vertical,vertical,vertical,horizontal
1b,1,100173,3,21,149,19,F,NA,constant,heterogeneous,6,absent,0.892393827438354,1,vertical,vertical,1,0.905875949859619,green,2,NaN,977.137884467044,783.431649086356,NaN,NaN,729.712474266665,845.121732464271,977.137884467044,783.431649086356,1047.42541020038,538.309916622085,870.287525733335,354.878267535729,622.862115532956,416.568350913644,552.574589799621,661.690083377915,5,4,6,0,3,6,horizontal,vertical,vertical,vertical,horizontal,horizontal
1b,1,100173,3,22,150,19,F,NA,constant,heterogeneous,3,absent,0.839884042739868,1,vertical,vertical,1,0.870582571029663,green,1,NaN,795.549636358493,854.96116226488,NaN,NaN,795.549636358493,854.96116226488,1023.02802532055,476.373546837184,581.422338320961,468.665290897936,0,0,0,0,0,0,4,0,0,NaN,NaN,NaN,vertical,vertical,horizontal,none,none,none
1b,1,100173,3,23,151,19,F,NA,constant,heterogeneous,6,present,1.28793501853943,0,horizontal,vertical,1,0.75293797492981,green,6,5,616.568350913644,777.137884467044,554.878267535729,529.712474266665,861.690083377915,847.425410200379,1045.12173246427,670.287525733335,983.431649086356,422.862115532956,738.309916622085,352.574589799621,554.878267535729,529.712474266665,616.568350913644,777.137884467044,0,6,6,3,0,4,horizontal,horizontal,horizontal,horizontal,horizontal,horizontal
1b,1,100173,3,24,152,19,F,NA,constant,heterogeneous,4,present,1.92278981208801,1,vertical,vertical,1,0.647057838439941,green,3,2,915.767577433584,372.793336331966,1027.20666366803,715.767577433584,684.232422566416,827.206663668034,1027.20666366803,715.767577433584,915.767577433584,372.793336331966,572.793336331966,484.232422566416,0,0,0,0,3,6,4,0,NaN,NaN,vertical,vertical,vertical,vertical,none,none
1b,1,100173,3,25,153,19,F,NA,constant,heterogeneous,3,present,1.27959084510803,1,horizontal,horizontal,1,0.905875949859619,green,2,3,822.224714400653,345.970351986605,568.891514305654,707.767656743878,1008.88377129369,746.261991269517,822.224714400653,345.970351986605,568.891514305654,707.767656743878,0,0,0,0,0,0,6,4,5,NaN,NaN,NaN,horizontal,horizontal,vertical,none,none,none
1b,1,100173,3,26,154,19,F,NA,constant,heterogeneous,5,absent,1.53471803665161,1,horizontal,horizontal,1,0.670586757659912,green,3,NaN,960.476699717708,401.827779828472,NaN,NaN,786.654331158049,854.650531362416,1038.06300875679,691.383827134052,960.476699717708,401.827779828472,661.117046071168,386.139005173917,553.688914296288,665.998856501143,0,0,3,3,4,6,6,NaN,horizontal,vertical,horizontal,vertical,vertical,none
1b,1,100173,3,27,155,19,F,NA,constant,heterogeneous,6,absent,1.22037196159363,1,vertical,vertical,1,0.741173515319824,green,6,NaN,553.688914296288,665.998856501143,NaN,NaN,734.001143498857,846.311085703712,980.31222920257,780.31222920257,1046.31108570371,534.001143498857,865.998856501143,353.688914296288,619.68777079743,419.68777079743,553.688914296288,665.998856501143,5,5,3,0,0,4,vertical,vertical,vertical,vertical,horizontal,vertical
1b,1,100173,3,28,156,19,F,NA,constant,heterogeneous,5,absent,1.31023406982422,1,horizontal,horizontal,1,1.07057838439941,green,1,NaN,826.654758133252,853.60308331891,NaN,NaN,826.654758133252,853.60308331891,1049.42763818712,653.017481158529,927.5,379.163522034968,629.371695378491,410.498069503264,567.045908301137,703.717843984329,0,0,4,3,5,0,6,NaN,horizontal,horizontal,vertical,horizontal,horizontal,none
1b,1,100173,3,29,157,19,F,NA,constant,heterogeneous,3,absent,0.973168134689331,1,vertical,vertical,1,1.03528500556946,green,3,NaN,553.688914296288,534.001143498857,NaN,NaN,865.998856501143,846.311085703712,980.31222920257,419.68777079743,553.688914296288,534.001143498857,0,0,0,0,0,0,5,5,4,NaN,NaN,NaN,horizontal,vertical,vertical,none,none,none
1b,1,100173,3,30,158,19,F,NA,constant,heterogeneous,4,absent,1.31877088546753,1,horizontal,horizontal,1,0.694115676879883,green,4,NaN,581.422338320961,731.334709102064,NaN,NaN,931.334709102064,818.577661679039,1018.57766167904,468.665290897936,668.665290897936,381.422338320961,581.422338320961,731.334709102064,0,0,0,0,3,3,6,4,NaN,NaN,horizontal,vertical,horizontal,horizontal,none,none
1b,1,100173,3,31,159,19,F,NA,constant,heterogeneous,5,absent,1.8755099773407,0,vertical,horizontal,1,0.705880136489868,green,4,NaN,563.568117085469,504.475318678942,NaN,NaN,935.129412379467,816.252264519889,1047.42541020038,538.309916622085,817.787900804752,345.621167183745,563.568117085469,504.475318678942,636.089159529932,795.341332995339,0,0,0,6,5,4,0,NaN,vertical,horizontal,horizontal,vertical,horizontal,none
1b,1,100173,3,32,160,19,F,NA,constant,heterogeneous,6,absent,NaN,0,horizontal,none,0,1.09410730361938,green,3,NaN,1049.42763818712,546.982518841471,NaN,NaN,721.200666434388,842.519411655264,970.628304621509,789.501930496736,1049.42763818712,546.982518841471,878.799333565612,357.480588344736,629.371695378491,410.498069503264,550.57236181288,653.017481158529,3,0,4,5,6,3,horizontal,horizontal,horizontal,horizontal,vertical,vertical
1b,1,100173,3,33,161,19,F,NA,constant,heterogeneous,6,present,1.5199248790741,1,vertical,vertical,1,0.823524732589722,green,2,6,1055,600,672.5,820.836477965032,927.5,820.836477965032,1055,600,927.5,379.163522034968,672.5,379.163522034968,545,600,672.5,820.836477965032,5,4,6,5,3,0,horizontal,vertical,horizontal,horizontal,horizontal,horizontal
1b,1,100173,3,34,162,19,F,NA,constant,heterogeneous,5,present,1.34440398216248,1,horizontal,horizontal,1,1.09410730361938,green,2,5,1049.42763818712,546.982518841471,629.371695378491,789.501930496736,927.5,820.836477965032,1049.42763818712,546.982518841471,826.654758133252,346.39691668109,567.045908301137,496.282156015671,629.371695378491,789.501930496736,0,0,5,4,6,5,0,NaN,horizontal,horizontal,horizontal,vertical,vertical,none
1b,1,100173,3,35,163,19,F,NA,constant,heterogeneous,4,absent,1.2205958366394,1,horizontal,horizontal,1,1.05881392478943,green,3,NaN,636.089159529932,404.658667004661,NaN,NaN,963.910840470068,795.341332995339,995.341332995339,436.089159529932,636.089159529932,404.658667004661,604.658667004661,763.910840470068,0,0,0,0,5,5,4,3,NaN,NaN,horizontal,horizontal,horizontal,vertical,none,none
1b,1,100173,3,36,164,19,F,NA,constant,heterogeneous,5,present,1.44563007354736,0,horizontal,vertical,1,0.823524732589722,green,4,5,568.891514305654,492.232343256122,626.090418184063,786.495193912888,923.626453162816,823.028025320546,1050.31493177915,551.343706178981,831.076682568313,346.900731331463,568.891514305654,492.232343256122,626.090418184063,786.495193912888,0,0,3,0,6,4,6,NaN,vertical,horizontal,horizontal,horizontal,horizontal,none
1b,1,100173,3,37,165,19,F,NA,constant,heterogeneous,5,present,1.56463193893433,1,vertical,vertical,1,1.09410730361938,green,3,2,1013.86099482608,461.117046071168,998.172220171528,760.476699717708,708.616172865948,838.063008756786,998.172220171528,760.476699717708,1013.86099482608,461.117046071168,734.001143498857,353.688914296288,545.349468637584,586.654331158049,0,0,6,3,4,3,0,NaN,vertical,vertical,vertical,vertical,vertical,none
1b,1,100173,3,38,166,19,F,NA,constant,heterogeneous,4,absent,1.54872584342957,0,vertical,horizontal,1,0.823524732589722,green,3,NaN,626.090418184063,413.504806087112,NaN,NaN,973.909581815937,786.495193912888,986.495193912888,426.090418184063,626.090418184063,413.504806087112,613.504806087112,773.909581815937,0,0,0,0,6,3,4,0,NaN,NaN,vertical,vertical,vertical,horizontal,none,none
1b,1,100173,3,39,167,19,F,NA,constant,heterogeneous,3,present,1.24104905128479,1,vertical,vertical,1,1.05881392478943,green,3,1,626.090418184063,413.504806087112,725.445215295702,843.857712770574,725.445215295702,843.857712770574,1048.46436652023,542.637481142314,626.090418184063,413.504806087112,0,0,0,0,0,0,5,6,4,NaN,NaN,NaN,horizontal,horizontal,vertical,none,none,none
1b,1,100173,3,40,168,19,F,NA,constant,heterogeneous,4,present,0.93144702911377,1,vertical,vertical,1,0.870582571029663,green,2,3,1018.57766167904,731.334709102064,931.334709102064,381.422338320961,668.665290897936,818.577661679039,1018.57766167904,731.334709102064,931.334709102064,381.422338320961,581.422338320961,468.665290897936,0,0,0,0,0,4,6,0,NaN,NaN,vertical,vertical,horizontal,horizontal,none,none
1b,1,100173,3,41,169,19,F,NA,constant,heterogeneous,5,absent,1.33662700653076,1,vertical,vertical,1,0.717644596099854,green,2,NaN,1042.51941165526,521.200666434388,NaN,NaN,949.885239334581,806.299333565612,1042.51941165526,521.200666434388,800,345,557.480588344736,521.200666434388,650.114760665419,806.299333565612,0,0,0,4,5,6,3,NaN,horizontal,vertical,horizontal,vertical,horizontal,none
1b,1,100173,3,42,170,19,F,NA,constant,heterogeneous,6,present,1.16111993789673,1,vertical,vertical,1,0.882347030639648,green,4,6,887.215136548046,360.378381699593,548.874022981887,644.280285305067,712.784863451954,839.621618300407,963.910840470068,795.341332995339,1051.12597701811,555.719714694933,887.215136548046,360.378381699593,636.089159529932,404.658667004661,548.874022981887,644.280285305067,6,3,5,4,6,5,vertical,vertical,horizontal,vertical,horizontal,horizontal
1b,1,100173,3,43,171,19,F,NA,constant,heterogeneous,4,present,0.996335029602051,1,horizontal,horizontal,1,0.6,green,2,3,986.495193912888,773.909581815937,973.909581815937,413.504806087112,626.090418184063,786.495193912888,986.495193912888,773.909581815937,973.909581815937,413.504806087112,613.504806087112,426.090418184063,0,0,0,0,5,4,0,3,NaN,NaN,horizontal,horizontal,horizontal,horizontal,none,none
1b,1,100173,3,44,172,19,F,NA,constant,heterogeneous,4,absent,1.03927206993103,1,horizontal,horizontal,1,0.941169328689575,green,3,NaN,738.309916622085,352.574589799621,NaN,NaN,861.690083377915,847.425410200379,1047.42541020038,538.309916622085,738.309916622085,352.574589799621,552.574589799621,661.690083377915,0,0,0,0,5,5,4,0,NaN,NaN,vertical,vertical,horizontal,vertical,none,none
1b,1,100173,3,45,173,19,F,NA,constant,heterogeneous,5,absent,0.652817964553833,1,horizontal,horizontal,1,1.03528500556946,green,3,NaN,1027.20666366803,484.232422566416,NaN,NaN,684.232422566416,827.206663668034,980.31222920257,780.31222920257,1027.20666366803,484.232422566416,760.109211414741,348.13947314824,548.13947314824,560.109211414741,0,0,5,6,4,0,3,NaN,horizontal,horizontal,horizontal,horizontal,vertical,none
1b,1,100173,3,46,174,19,F,NA,constant,heterogeneous,6,present,0.821465015411377,1,horizontal,horizontal,1,0.964698247909546,green,5,1,553.688914296288,534.001143498857,865.998856501143,846.311085703712,865.998856501143,846.311085703712,1046.31108570371,665.998856501143,980.31222920257,419.68777079743,734.001143498857,353.688914296288,553.688914296288,534.001143498857,619.68777079743,780.31222920257,5,6,6,0,4,5,vertical,horizontal,horizontal,horizontal,horizontal,vertical
1b,1,100173,3,47,175,19,F,NA,constant,heterogeneous,6,present,1.9349730014801,1,vertical,vertical,1,0.847053651809692,green,3,2,1025.15163617903,480.284751489598,1016.25226451989,735.129412379467,791.100628340862,854.844660889869,1016.25226451989,735.129412379467,1025.15163617903,480.284751489598,808.899371659138,345.155339110131,583.747735480111,464.870587620533,574.848363820974,719.715248510402,6,0,4,3,5,5,horizontal,horizontal,vertical,vertical,horizontal,vertical
1b,1,100173,3,48,176,19,F,NA,constant,heterogeneous,3,present,0.834275007247925,1,vertical,vertical,1,0.823524732589722,green,2,1,1025.15163617903,480.284751489598,791.100628340862,854.844660889869,791.100628340862,854.844660889869,1025.15163617903,480.284751489598,583.747735480111,464.870587620533,0,0,0,0,0,0,5,4,6,NaN,NaN,NaN,horizontal,vertical,vertical,none,none,none
1b,1,100173,3,49,177,19,F,NA,constant,heterogeneous,3,absent,0.751482963562012,1,vertical,vertical,1,0.611764459609985,green,2,NaN,1029.19248180629,711.784642431215,NaN,NaN,588.595418998464,742.594190385041,1029.19248180629,711.784642431215,782.212099195248,345.621167183745,0,0,0,0,0,0,3,4,6,NaN,NaN,NaN,vertical,vertical,horizontal,none,none,none
1b,1,100173,3,50,178,19,F,NA,constant,heterogeneous,3,present,0.918061971664429,1,horizontal,horizontal,1,0.77646689414978,green,2,3,895.524681321058,363.568117085469,547.481642470899,635.489140744817,956.993676208043,800.942742169714,895.524681321058,363.568117085469,547.481642470899,635.489140744817,0,0,0,0,0,0,0,4,6,NaN,NaN,NaN,horizontal,horizontal,vertical,none,none,none
1b,1,100173,3,51,179,19,F,NA,constant,heterogeneous,3,absent,1.18915700912476,1,horizontal,horizontal,1,0.623528919219971,green,3,NaN,607.549057043193,432.704947607421,NaN,NaN,751.343706178981,850.314931779154,1041.10723677783,516.980120613425,607.549057043193,432.704947607421,0,0,0,0,0,0,0,5,4,NaN,NaN,NaN,vertical,horizontal,horizontal,none,none,none
1b,1,100173,3,52,180,19,F,NA,constant,heterogeneous,5,present,0.893170118331909,1,vertical,vertical,1,0.999991626739502,green,3,2,804.450363641507,345.03883773512,1043.85771277057,525.445215295702,946.261991269517,808.883771293693,1043.85771277057,525.445215295702,804.450363641507,345.03883773512,558.892763222174,516.980120613425,646.537169096228,803.65205506206,0,0,3,6,4,5,5,NaN,horizontal,vertical,vertical,vertical,vertical,none
1b,1,100173,3,53,181,19,F,NA,constant,heterogeneous,3,present,1.20468592643738,1,vertical,vertical,1,0.670586757659912,green,2,3,1031.10848569435,707.767656743878,777.775285599347,345.970351986605,591.116228706307,746.261991269517,1031.10848569435,707.767656743878,777.775285599347,345.970351986605,0,0,0,0,0,0,3,4,5,NaN,NaN,NaN,vertical,vertical,vertical,none,none,none
1b,1,100173,3,54,182,19,F,NA,constant,heterogeneous,6,present,1.17624807357788,1,horizontal,horizontal,1,0.75293797492981,green,3,2,1011.40458100154,457.40580961496,1029.19248180629,711.784642431215,817.787900804752,854.378832816255,1029.19248180629,711.784642431215,1011.40458100154,457.40580961496,782.212099195248,345.621167183745,570.807518193712,488.215357568785,588.595418998464,742.594190385041,0,5,4,6,0,3,vertical,vertical,horizontal,vertical,vertical,horizontal
1b,1,100173,3,55,183,19,F,NA,constant,heterogeneous,4,present,0.949663162231445,1,vertical,vertical,1,0.894111490249634,green,3,4,857.362518857686,351.535633479765,551.535633479765,542.637481142314,742.637481142314,848.464366520235,1048.46436652023,657.362518857686,857.362518857686,351.535633479765,551.535633479765,542.637481142314,0,0,0,0,0,3,4,5,NaN,NaN,horizontal,horizontal,vertical,horizontal,none,none
1b,1,100173,3,56,184,19,F,NA,constant,heterogeneous,3,absent,1.01989102363586,1,vertical,vertical,1,0.75293797492981,green,2,NaN,1020.83647796503,472.5,NaN,NaN,800,855,1020.83647796503,472.5,579.163522034968,472.5,0,0,0,0,0,0,6,4,0,NaN,NaN,NaN,horizontal,vertical,horizontal,none,none,none
1b,1,100173,3,57,185,19,F,NA,constant,heterogeneous,4,present,1.88486003875732,1,horizontal,horizontal,1,0.623528919219971,green,2,1,1013.86099482608,738.882953928832,661.117046071168,813.860994826083,661.117046071168,813.860994826083,1013.86099482608,738.882953928832,938.882953928832,386.139005173917,586.139005173917,461.117046071168,0,0,0,0,3,4,6,5,NaN,NaN,vertical,horizontal,vertical,vertical,none,none
1b,1,100173,3,58,186,19,F,NA,constant,heterogeneous,4,absent,1.6171190738678,1,vertical,vertical,1,0.917640409469604,green,3,NaN,688.215357568785,370.807518193712,NaN,NaN,911.784642431215,829.192481806288,1029.19248180629,488.215357568785,688.215357568785,370.807518193712,570.807518193712,711.784642431215,0,0,0,0,0,5,4,6,NaN,NaN,horizontal,horizontal,vertical,vertical,none,none
1b,1,100173,3,59,187,19,F,NA,constant,heterogeneous,5,present,0.803056955337524,1,horizontal,horizontal,1,0.870582571029663,green,2,5,1045.12173246427,670.287525733335,560.378381699593,687.215136548046,808.899371659138,854.844660889869,1045.12173246427,670.287525733335,942.594190385041,388.595418998464,643.006323791957,399.057257830286,560.378381699593,687.215136548046,0,0,3,4,5,0,6,NaN,vertical,horizontal,vertical,horizontal,horizontal,none
1b,1,100173,3,60,188,19,F,NA,constant,heterogeneous,5,absent,0.948539018630981,1,vertical,vertical,1,1.05881392478943,green,5,NaN,546.39691668109,573.345241866748,NaN,NaN,696.282156015671,832.954091698863,989.501930496736,770.628304621509,1020.83647796503,472.5,746.982518841471,350.57236181288,546.39691668109,573.345241866748,0,0,6,5,0,6,4,NaN,horizontal,horizontal,horizontal,horizontal,vertical,none
1b,1,100173,3,61,189,19,F,NA,constant,heterogeneous,3,absent,1.14278602600098,1,horizontal,horizontal,1,0.964698247909546,green,3,NaN,692.232343256122,368.891514305654,NaN,NaN,653.738008730483,808.883771293693,1054.0296480134,622.224714400653,692.232343256122,368.891514305654,0,0,0,0,0,0,6,5,4,NaN,NaN,NaN,vertical,vertical,horizontal,none,none,none
1b,1,100173,3,62,190,19,F,NA,constant,heterogeneous,3,present,1.75569105148315,1,horizontal,horizontal,1,0.682351217269897,green,1,3,822.224714400653,854.029648013395,568.891514305654,492.232343256122,822.224714400653,854.029648013395,1008.88377129369,453.738008730483,568.891514305654,492.232343256122,0,0,0,0,0,0,4,5,0,NaN,NaN,NaN,horizontal,horizontal,horizontal,none,none,none
1b,1,100173,3,63,191,19,F,NA,constant,heterogeneous,4,absent,0.789534091949463,1,vertical,vertical,1,0.92940486907959,green,3,NaN,696.282156015671,367.045908301137,NaN,NaN,903.717843984329,832.954091698863,1032.95409169886,496.282156015671,696.282156015671,367.045908301137,567.045908301137,703.717843984329,0,0,0,0,0,5,4,6,NaN,NaN,vertical,vertical,vertical,vertical,none,none
1b,1,100173,3,64,192,19,F,NA,constant,heterogeneous,3,absent,0.948201894760132,1,horizontal,horizontal,1,0.92940486907959,green,1,NaN,919.715248510402,825.151636179026,NaN,NaN,919.715248510402,825.151636179026,935.129412379467,383.747735480111,545.155339110131,591.100628340862,0,0,0,0,0,0,4,0,5,NaN,NaN,NaN,horizontal,horizontal,horizontal,none,none,none
1b,1,100173,4,1,193,19,F,NA,constant,heterogeneous,5,present,1.67716503143311,1,vertical,vertical,1,0.6,green,1,3,935.129412379467,816.252264519889,817.787900804752,345.621167183745,935.129412379467,816.252264519889,1047.42541020038,538.309916622085,817.787900804752,345.621167183745,563.568117085469,504.475318678942,636.089159529932,795.341332995339,0,0,4,5,3,6,5,NaN,vertical,horizontal,horizontal,vertical,vertical,none
1b,1,100173,4,2,194,19,F,NA,constant,heterogeneous,3,present,0.859418869018555,1,horizontal,horizontal,1,1.02352054595947,green,1,2,632.704947607421,792.450942956807,1050.31493177915,648.656293821019,632.704947607421,792.450942956807,1050.31493177915,648.656293821019,716.980120613425,358.892763222174,0,0,0,0,0,0,4,0,3,NaN,NaN,NaN,horizontal,horizontal,vertical,none,none,none
1b,1,100173,4,3,195,19,F,NA,constant,heterogeneous,5,absent,1.66224694252014,1,vertical,vertical,1,0.870582571029663,green,2,NaN,1051.86052685176,639.890788585259,NaN,NaN,839.890788585259,851.86052685176,1051.86052685176,639.890788585259,915.767577433584,372.793336331966,619.68777079743,419.68777079743,572.793336331966,715.767577433584,0,0,6,4,5,3,5,NaN,horizontal,vertical,vertical,vertical,vertical,none
1b,1,100173,4,4,196,19,F,NA,constant,heterogeneous,5,present,0.950740814208984,1,vertical,vertical,1,0.75293797492981,green,2,3,1043.85771277057,674.554784704298,946.261991269517,391.116228706307,804.450363641507,854.96116226488,1043.85771277057,674.554784704298,946.261991269517,391.116228706307,646.537169096228,396.34794493794,558.892763222174,683.019879386575,0,0,3,4,0,3,6,NaN,vertical,vertical,vertical,horizontal,horizontal,none
1b,1,100173,4,5,197,19,F,NA,constant,heterogeneous,3,absent,1.15438914299011,1,horizontal,horizontal,1,0.635293378829956,green,1,NaN,596.34794493794,753.462830903772,NaN,NaN,596.34794493794,753.462830903772,1034.72873763037,699.636437764765,768.923317431687,346.900731331463,0,0,0,0,0,0,4,0,3,NaN,NaN,NaN,horizontal,horizontal,vertical,none,none,none
1b,1,100173,4,6,198,19,F,NA,constant,heterogeneous,4,present,1.02462196350098,1,vertical,vertical,1,0.741173515319824,green,3,1,773.345241866748,346.39691668109,826.654758133252,853.60308331891,826.654758133252,853.60308331891,1053.60308331891,573.345241866748,773.345241866748,346.39691668109,546.39691668109,626.654758133252,0,0,0,0,6,6,4,0,NaN,NaN,vertical,vertical,vertical,vertical,none,none
1b,1,100173,4,7,199,19,F,NA,constant,heterogeneous,6,absent,1.39231896400452,1,vertical,vertical,1,0.741173515319824,green,2,NaN,1031.10848569435,707.767656743878,NaN,NaN,822.224714400653,854.029648013395,1031.10848569435,707.767656743878,1008.88377129369,453.738008730483,777.775285599347,345.970351986605,568.891514305654,492.232343256122,591.116228706307,746.261991269517,0,4,3,5,6,5,vertical,vertical,horizontal,horizontal,horizontal,vertical
1b,1,100173,4,8,200,19,F,NA,constant,heterogeneous,6,present,1.69761300086975,0,vertical,horizontal,1,0.870582571029663,green,3,1,1045.12173246427,529.712474266665,738.309916622085,847.425410200379,738.309916622085,847.425410200379,983.431649086356,777.137884467044,1045.12173246427,529.712474266665,861.690083377915,352.574589799621,616.568350913644,422.862115532956,554.878267535729,670.287525733335,5,0,4,0,3,6,vertical,vertical,vertical,vertical,horizontal,horizontal
1b,1,100173,4,9,201,19,F,NA,constant,heterogeneous,5,absent,NaN,0,horizontal,none,0,0.682351217269897,green,5,NaN,646.537169096228,803.65205506206,NaN,NaN,946.261991269517,808.883771293693,1043.85771277057,525.445215295702,804.450363641507,345.03883773512,558.892763222174,516.980120613425,646.537169096228,803.65205506206,0,0,6,5,3,6,4,NaN,horizontal,vertical,vertical,vertical,horizontal,none
1b,1,100173,4,10,202,19,F,NA,constant,heterogeneous,5,present,1.02808594703674,1,vertical,vertical,1,0.717644596099854,green,3,5,1023.02802532055,476.373546837184,546.900731331463,568.923317431687,692.232343256122,831.108485694346,986.495193912888,773.909581815937,1023.02802532055,476.373546837184,751.343706178981,349.685068220846,546.900731331463,568.923317431687,0,0,3,5,4,5,6,NaN,horizontal,horizontal,vertical,horizontal,vertical,none
1b,1,100173,4,11,203,19,F,NA,constant,heterogeneous,5,absent,1.13207101821899,1,vertical,vertical,1,0.764702434539795,green,5,NaN,548.874022981887,644.280285305067,NaN,NaN,764.510859255183,852.518357529101,1029.19248180629,711.784642431215,977.137884467044,416.568350913644,680.284751489598,374.848363820974,548.874022981887,644.280285305067,0,0,0,3,3,6,4,NaN,vertical,vertical,vertical,vertical,vertical,none
1b,1,100173,4,12,204,19,F,NA,constant,heterogeneous,4,absent,1.09210181236267,1,vertical,vertical,1,0.658822298049927,green,1,NaN,639.523300282292,798.172220171528,NaN,NaN,639.523300282292,798.172220171528,998.172220171528,760.476699717708,960.476699717708,401.827779828472,601.827779828472,439.523300282291,0,0,0,0,4,3,3,0,NaN,NaN,vertical,horizontal,horizontal,vertical,none,none
1b,1,100173,4,13,205,19,F,NA,constant,heterogeneous,6,present,1.24651002883911,1,vertical,vertical,1,0.623528919219971,green,5,3,563.568117085469,504.475318678942,1000.94274216971,443.006323791957,835.489140744817,852.518357529101,1036.43188291453,695.524681321058,1000.94274216971,443.006323791957,764.510859255183,347.4816424709,563.568117085469,504.475318678942,599.057257830286,756.993676208043,6,5,0,5,4,3,horizontal,horizontal,vertical,horizontal,vertical,vertical
1b,1,100173,4,14,206,19,F,NA,constant,heterogeneous,6,absent,1.31188797950745,1,horizontal,horizontal,1,0.611764459609985,green,5,NaN,616.568350913644,422.862115532956,NaN,NaN,738.309916622085,847.425410200379,983.431649086356,777.137884467044,1045.12173246427,529.712474266665,861.690083377915,352.574589799621,616.568350913644,422.862115532956,554.878267535729,670.287525733335,0,6,6,5,4,5,vertical,horizontal,horizontal,horizontal,horizontal,vertical
1b,1,100173,4,15,207,19,F,NA,constant,heterogeneous,5,absent,1.44749808311462,1,horizontal,horizontal,1,1.05881392478943,green,3,NaN,1000.94274216971,443.006323791957,NaN,NaN,729.712474266665,845.121732464271,1011.40458100154,742.594190385041,1000.94274216971,443.006323791957,712.784863451954,360.378381699593,545.155339110131,608.899371659138,0,0,0,0,4,5,3,NaN,vertical,vertical,horizontal,horizontal,vertical,none
1b,1,100173,4,16,208,19,F,NA,constant,heterogeneous,3,present,1.3478319644928,1,horizontal,horizontal,1,0.75293797492981,green,2,1,1054.37883281626,582.212099195248,688.215357568785,829.192481806288,688.215357568785,829.192481806288,1054.37883281626,582.212099195248,657.405809614959,388.595418998464,0,0,0,0,0,0,5,4,5,NaN,NaN,NaN,vertical,horizontal,vertical,none,none,none
1b,1,100173,4,17,209,19,F,NA,constant,heterogeneous,5,present,0.818834066390991,1,horizontal,horizontal,1,0.999991626739502,green,2,5,963.910840470068,795.341332995339,552.574589799621,538.309916622085,664.870587620533,816.252264519889,963.910840470068,795.341332995339,1036.43188291453,504.475318678942,782.212099195248,345.621167183745,552.574589799621,538.309916622085,0,0,5,4,6,0,3,NaN,horizontal,horizontal,vertical,vertical,vertical,none
1b,1,100173,4,18,210,19,F,NA,constant,heterogeneous,6,absent,1.5375440120697,1,horizontal,horizontal,1,0.905875949859619,green,4,NaN,817.787900804752,345.621167183745,NaN,NaN,782.212099195248,854.378832816255,1011.40458100154,742.594190385041,1029.19248180629,488.215357568785,817.787900804752,345.621167183745,588.595418998464,457.40580961496,570.807518193712,711.784642431215,3,0,5,4,6,5,horizontal,vertical,horizontal,horizontal,vertical,vertical
1b,1,100173,4,19,211,19,F,NA,constant,heterogeneous,6,present,1.0858108997345,1,horizontal,horizontal,1,0.670586757659912,green,2,6,967.295052392579,792.450942956807,549.685068220846,648.656293821019,716.980120613425,841.107236777826,967.295052392579,792.450942956807,1050.31493177915,551.343706178981,883.019879386575,358.892763222174,632.704947607421,407.549057043193,549.685068220846,648.656293821019,6,4,0,0,5,3,vertical,horizontal,vertical,vertical,horizontal,vertical
1b,1,100173,4,20,212,19,F,NA,constant,heterogeneous,5,absent,0.975377082824707,1,horizontal,horizontal,1,0.77646689414978,green,2,NaN,989.501930496736,770.628304621509,NaN,NaN,696.282156015671,832.954091698863,989.501930496736,770.628304621509,1020.83647796503,472.5,746.982518841471,350.57236181288,546.39691668109,573.345241866748,0,0,5,4,3,0,5,NaN,horizontal,horizontal,vertical,horizontal,horizontal,none
1b,1,100173,4,21,213,19,F,NA,constant,heterogeneous,4,absent,0.676409959793091,1,horizontal,horizontal,1,1.07057838439941,green,1,NaN,946.261991269517,808.883771293693,NaN,NaN,946.261991269517,808.883771293693,1008.88377129369,453.738008730483,653.738008730483,391.116228706307,591.116228706307,746.261991269517,0,0,0,0,4,3,6,0,NaN,NaN,horizontal,horizontal,horizontal,horizontal,none,none
1b,1,100173,4,22,214,19,F,NA,constant,heterogeneous,5,present,0.883158922195435,1,horizontal,horizontal,1,0.647057838439941,green,2,3,1049.42763818712,653.017481158529,927.5,379.163522034968,826.654758133252,853.60308331891,1049.42763818712,653.017481158529,927.5,379.163522034968,629.371695378491,410.498069503264,567.045908301137,703.717843984329,0,0,6,4,6,5,0,NaN,horizontal,horizontal,horizontal,vertical,horizontal,none
1b,1,100173,4,23,215,19,F,NA,constant,heterogeneous,6,absent,1.4665219783783,1,vertical,vertical,1,1.0823428440094,green,6,NaN,586.139005173917,738.882953928832,NaN,NaN,813.345668841951,854.650531362416,1027.20666366803,715.767577433584,1013.86099482608,461.117046071168,786.654331158049,345.349468637584,572.793336331966,484.232422566416,586.139005173917,738.882953928832,3,5,0,6,5,4,vertical,vertical,vertical,horizontal,horizontal,vertical
1b,1,100173,4,24,216,19,F,NA,constant,heterogeneous,6,absent,1.29097294807434,1,horizontal,horizontal,1,0.75293797492981,green,1,NaN,708.616172865948,838.063008756786,NaN,NaN,708.616172865948,838.063008756786,960.476699717708,798.172220171528,1051.86052685176,560.109211414741,891.383827134052,361.936991243214,639.523300282292,401.827779828472,548.13947314824,639.890788585259,4,0,6,3,6,5,horizontal,vertical,vertical,vertical,vertical,vertical
1b,1,100173,4,25,217,19,F,NA,constant,heterogeneous,6,present,1.16173505783081,1,vertical,vertical,1,0.835289192199707,green,5,2,545.03883773512,595.549636358493,1054.96116226488,604.450363641507,923.626453162816,823.028025320546,1054.96116226488,604.450363641507,931.334709102064,381.422338320961,676.373546837184,376.971974679454,545.03883773512,595.549636358493,668.665290897936,818.577661679039,5,3,6,5,4,3,horizontal,horizontal,vertical,horizontal,vertical,vertical
1b,1,100173,4,26,218,19,F,NA,constant,heterogeneous,4,present,1.10904407501221,1,vertical,vertical,1,0.999991626739502,green,3,4,738.309916622085,352.574589799621,552.574589799621,661.690083377915,861.690083377915,847.425410200379,1047.42541020038,538.309916622085,738.309916622085,352.574589799621,552.574589799621,661.690083377915,0,0,0,0,0,3,4,5,NaN,NaN,vertical,horizontal,vertical,horizontal,none,none
1b,1,100173,4,27,219,19,F,NA,constant,heterogeneous,4,absent,0.740508079528809,1,vertical,vertical,1,1.05881392478943,green,3,NaN,883.019879386575,358.892763222174,NaN,NaN,716.980120613425,841.107236777826,1041.10723677783,683.019879386575,883.019879386575,358.892763222174,558.892763222174,516.980120613425,0,0,0,0,3,6,4,0,NaN,NaN,vertical,vertical,vertical,horizontal,none,none
1b,1,100173,4,28,220,19,F,NA,constant,heterogeneous,6,present,1.40553498268127,1,horizontal,horizontal,1,1.09410730361938,green,1,2,870.287525733335,845.121732464271,1047.42541020038,661.690083377915,870.287525733335,845.121732464271,1047.42541020038,661.690083377915,977.137884467044,416.568350913644,729.712474266665,354.878267535729,552.574589799621,538.309916622085,622.862115532956,783.431649086356,4,3,6,0,6,0,horizontal,horizontal,horizontal,horizontal,vertical,vertical
1b,1,100173,4,29,221,19,F,NA,constant,heterogeneous,5,present,1.45268797874451,1,horizontal,horizontal,1,0.941169328689575,green,5,4,547.481642470899,635.489140744817,688.215357568785,370.807518193712,755.719714694933,851.125977018113,1025.15163617903,719.715248510402,983.431649086356,422.862115532956,688.215357568785,370.807518193712,547.481642470899,635.489140744817,0,0,5,3,3,6,4,NaN,vertical,vertical,horizontal,horizontal,horizontal,none
1b,1,100173,4,30,222,19,F,NA,constant,heterogeneous,5,absent,1.29467797279358,1,vertical,vertical,1,1.03528500556946,green,3,NaN,853.017481158529,350.57236181288,NaN,NaN,903.717843984329,832.954091698863,1053.60308331891,573.345241866748,853.017481158529,350.57236181288,579.163522034968,472.5,610.498069503264,770.628304621509,0,0,0,5,4,3,0,NaN,vertical,vertical,vertical,horizontal,vertical,none
1b,1,100173,4,31,223,19,F,NA,constant,heterogeneous,3,absent,0.851708173751831,1,vertical,vertical,1,0.75293797492981,green,3,NaN,613.504806087112,426.090418184063,NaN,NaN,742.637481142314,848.464366520235,1043.85771277057,525.445215295702,613.504806087112,426.090418184063,0,0,0,0,0,0,3,5,4,NaN,NaN,NaN,vertical,vertical,vertical,none,none,none
1b,1,100173,4,32,224,19,F,NA,constant,heterogeneous,3,absent,1.43212914466858,1,vertical,vertical,1,0.75293797492981,green,2,NaN,1054.84466088987,591.100628340862,NaN,NaN,680.284751489598,825.151636179026,1054.84466088987,591.100628340862,664.870587620533,383.747735480111,0,0,0,0,0,0,5,4,3,NaN,NaN,NaN,horizontal,vertical,vertical,none,none,none
1b,1,100173,4,33,225,19,F,NA,constant,heterogeneous,4,present,0.968794107437134,1,vertical,vertical,1,1.01175608634949,green,2,3,1041.10723677783,683.019879386575,883.019879386575,358.892763222174,716.980120613425,841.107236777826,1041.10723677783,683.019879386575,883.019879386575,358.892763222174,558.892763222174,516.980120613425,0,0,0,0,0,4,5,3,NaN,NaN,vertical,vertical,vertical,horizontal,none,none
1b,1,100173,4,34,226,19,F,NA,constant,heterogeneous,5,absent,0.980379104614258,1,horizontal,horizontal,1,0.788231353759766,green,2,NaN,1041.10723677783,683.019879386575,NaN,NaN,795.549636358493,854.96116226488,1041.10723677783,683.019879386575,953.462830903772,396.34794493794,653.738008730483,391.116228706307,556.142287229426,674.554784704298,0,0,6,4,5,3,0,NaN,vertical,horizontal,horizontal,horizontal,vertical,none
1b,1,100173,4,35,227,19,F,NA,constant,heterogeneous,5,present,1.82941198348999,1,vertical,vertical,1,1.05881392478943,green,1,4,804.450363641507,854.96116226488,646.537169096228,396.34794493794,804.450363641507,854.96116226488,1043.85771277057,674.554784704298,946.261991269517,391.116228706307,646.537169096228,396.34794493794,558.892763222174,683.019879386575,0,0,4,6,5,0,5,NaN,vertical,horizontal,vertical,vertical,vertical,none
1b,1,100173,4,36,228,19,F,NA,constant,heterogeneous,4,present,0.721153020858765,1,vertical,vertical,1,0.952933788299561,green,2,1,989.501930496736,770.628304621509,629.371695378491,789.501930496736,629.371695378491,789.501930496736,989.501930496736,770.628304621509,970.628304621509,410.498069503264,610.498069503264,429.371695378491,0,0,0,0,3,4,0,5,NaN,NaN,vertical,vertical,vertical,horizontal,none,none
1b,1,100173,4,37,229,19,F,NA,constant,heterogeneous,3,present,0.739671945571899,1,horizontal,horizontal,1,1.01175608634949,green,1,2,696.282156015671,832.954091698863,1053.60308331891,573.345241866748,696.282156015671,832.954091698863,1053.60308331891,573.345241866748,650.114760665419,393.700666434388,0,0,0,0,0,0,4,3,5,NaN,NaN,NaN,horizontal,horizontal,horizontal,none,none,none
1b,1,100173,4,38,230,19,F,NA,constant,heterogeneous,3,absent,0.746135950088501,1,horizontal,horizontal,1,0.952933788299561,green,2,NaN,1054.37883281626,582.212099195248,NaN,NaN,688.215357568785,829.192481806288,1054.37883281626,582.212099195248,657.405809614959,388.595418998464,0,0,0,0,0,0,0,4,0,NaN,NaN,NaN,vertical,horizontal,horizontal,none,none,none
1b,1,100173,4,39,231,19,F,NA,constant,heterogeneous,5,present,1.40169715881348,1,horizontal,horizontal,1,1.02352054595947,green,5,3,549.685068220846,551.343706178981,1031.10848569435,492.232343256122,676.373546837184,823.028025320546,973.909581815937,786.495193912888,1031.10848569435,492.232343256122,768.923317431687,346.900731331463,549.685068220846,551.343706178981,0,0,3,3,5,6,4,NaN,vertical,vertical,horizontal,horizontal,horizontal,none
1b,1,100173,4,40,232,19,F,NA,constant,heterogeneous,4,absent,1.23990201950073,1,vertical,vertical,1,0.894111490249634,green,1,NaN,786.654331158049,854.650531362416,NaN,NaN,786.654331158049,854.650531362416,1054.65053136242,613.345668841951,813.345668841951,345.349468637584,545.349468637584,586.654331158049,0,0,0,0,4,5,5,3,NaN,NaN,vertical,horizontal,horizontal,vertical,none,none
1b,1,100173,4,41,233,19,F,NA,constant,heterogeneous,3,absent,0.557600021362305,1,vertical,vertical,1,1.03528500556946,green,3,NaN,734.001143498857,353.688914296288,NaN,NaN,619.68777079743,780.31222920257,1046.31108570371,665.998856501143,734.001143498857,353.688914296288,0,0,0,0,0,0,0,6,4,NaN,NaN,NaN,vertical,horizontal,vertical,none,none,none
1b,1,100173,4,42,234,19,F,NA,constant,heterogeneous,6,present,1.19765615463257,1,horizontal,horizontal,1,1.03528500556946,green,2,6,1008.88377129369,746.261991269517,568.891514305654,707.767656743878,777.775285599347,854.029648013395,1008.88377129369,746.261991269517,1031.10848569435,492.232343256122,822.224714400653,345.970351986605,591.116228706307,453.738008730483,568.891514305654,707.767656743878,6,4,5,0,3,5,vertical,horizontal,horizontal,vertical,vertical,vertical
1b,1,100173,4,43,235,19,F,NA,constant,heterogeneous,6,absent,1.10262703895569,1,vertical,vertical,1,0.847053651809692,green,1,NaN,742.637481142314,848.464366520235,NaN,NaN,742.637481142314,848.464366520235,986.495193912888,773.909581815937,1043.85771277057,525.445215295702,857.362518857686,351.535633479765,613.504806087112,426.090418184063,556.142287229426,674.554784704298,4,0,5,6,0,5,vertical,vertical,vertical,horizontal,horizontal,horizontal
1b,1,100173,4,44,236,19,F,NA,constant,heterogeneous,3,absent,0.815591096878052,0,horizontal,vertical,1,0.941169328689575,green,1,NaN,795.549636358493,854.96116226488,NaN,NaN,795.549636358493,854.96116226488,1023.02802532055,476.373546837184,581.422338320961,468.665290897936,0,0,0,0,0,0,4,6,6,NaN,NaN,NaN,horizontal,horizontal,vertical,none,none,none
1b,1,100173,4,45,237,19,F,NA,constant,heterogeneous,3,present,1.33183908462524,1,horizontal,horizontal,1,0.788231353759766,green,3,1,607.549057043193,432.704947607421,751.343706178981,850.314931779154,751.343706178981,850.314931779154,1041.10723677783,516.980120613425,607.549057043193,432.704947607421,0,0,0,0,0,0,5,3,4,NaN,NaN,NaN,horizontal,vertical,horizontal,none,none,none
1b,1,100173,4,46,238,19,F,NA,constant,heterogeneous,4,absent,0.671640157699585,1,horizontal,horizontal,1,1.04704946517944,green,3,NaN,977.137884467044,416.568350913644,NaN,NaN,622.862115532956,783.431649086356,983.431649086356,777.137884467044,977.137884467044,416.568350913644,616.568350913644,422.862115532956,0,0,0,0,3,0,4,5,NaN,NaN,horizontal,horizontal,horizontal,vertical,none,none
1b,1,100173,4,47,239,19,F,NA,constant,heterogeneous,6,present,1.52253794670105,1,vertical,vertical,1,1.05881392478943,green,1,2,692.232343256122,831.108485694346,946.261991269517,808.883771293693,692.232343256122,831.108485694346,946.261991269517,808.883771293693,1054.0296480134,577.775285599347,907.767656743878,368.891514305654,653.738008730483,391.116228706307,545.970351986605,622.224714400653,4,3,5,0,6,6,vertical,horizontal,vertical,vertical,horizontal,vertical
1b,1,100173,4,48,240,19,F,NA,constant,heterogeneous,4,present,1.02888202667236,1,horizontal,horizontal,1,0.788231353759766,green,3,1,755.719714694933,348.874022981887,844.280285305067,851.125977018113,844.280285305067,851.125977018113,1051.12597701811,555.719714694933,755.719714694933,348.874022981887,548.874022981887,644.280285305067,0,0,0,0,6,5,4,0,NaN,NaN,horizontal,vertical,horizontal,horizontal,none,none
1b,1,100173,4,49,241,19,F,NA,constant,heterogeneous,4,absent,1.1475830078125,1,horizontal,horizontal,1,0.894111490249634,green,2,NaN,1051.12597701811,644.280285305067,NaN,NaN,755.719714694933,851.125977018113,1051.12597701811,644.280285305067,844.280285305067,348.874022981887,548.874022981887,555.719714694933,0,0,0,0,0,4,5,6,NaN,NaN,horizontal,horizontal,vertical,horizontal,none,none
1b,1,100173,4,50,242,19,F,NA,constant,heterogeneous,4,present,0.76211404800415,1,horizontal,horizontal,1,0.976462707519531,green,4,3,574.848363820974,480.284751489598,919.715248510402,374.848363820974,680.284751489598,825.151636179026,1025.15163617903,719.715248510402,919.715248510402,374.848363820974,574.848363820974,480.284751489598,0,0,0,0,3,0,3,4,NaN,NaN,vertical,horizontal,horizontal,horizontal,none,none
1b,1,100173,4,51,243,19,F,NA,constant,heterogeneous,6,absent,0.66063404083252,1,vertical,vertical,1,0.952933788299561,green,3,NaN,927.5,379.163522034968,NaN,NaN,927.5,820.836477965032,1055,600,927.5,379.163522034968,672.5,379.163522034968,545,600,672.5,820.836477965032,3,5,4,6,0,5,vertical,vertical,vertical,vertical,vertical,horizontal
1b,1,100173,4,52,244,19,F,NA,constant,heterogeneous,3,present,1.061359167099,1,vertical,vertical,1,0.976462707519531,green,3,2,552.574589799621,661.690083377915,870.287525733335,354.878267535729,977.137884467044,783.431649086356,870.287525733335,354.878267535729,552.574589799621,661.690083377915,0,0,0,0,0,0,0,3,4,NaN,NaN,NaN,horizontal,vertical,vertical,none,none,none
