experiment,subject,uniqueID,block,trial,trial_cumulative,age,gender,color_cond_blocking,color_history,shape_type,set_size,distractor,rt,acc,target_orient,response_key,response_made,iti,target_color,target_item,distractor_item,target_X,target_Y,distractor_X,distractor_Y,item1_X,item1_Y,item2_X,item2_Y,item3_X,item3_Y,item4_X,item4_Y,item5_X,item5_Y,item6_X,item6_Y,item1_shape,item2_shape,item3_shape,item4_shape,item5_shape,item6_shape,item1_line,item2_line,item3_line,item4_line,item5_line,item6_line
1b,20,100216,1,1,1,18,F,NA,constant,heterogeneous,3,absent,0.662614107131958,1,horizontal,horizontal,1,1.04705417633057,red,3,NaN,565.271262369628,699.636437764765,NaN,NaN,1003.65205506206,753.462830903772,831.076682568313,346.900731331463,565.271262369628,699.636437764765,0,0,0,0,0,0,6,5,4,NaN,NaN,NaN,vertical,horizontal,horizontal,none,none,none
1b,20,100216,1,2,2,18,F,NA,constant,heterogeneous,3,present,0.848742961883545,0,horizontal,vertical,1,0.647058334350586,red,1,2,998.172220171528,760.476699717708,839.890788585259,348.13947314824,998.172220171528,760.476699717708,839.890788585259,348.13947314824,561.936991243214,691.383827134052,0,0,0,0,0,0,4,3,6,NaN,NaN,NaN,horizontal,vertical,horizontal,none,none,none
1b,20,100216,1,3,3,18,F,NA,constant,heterogeneous,5,absent,0.864046812057495,0,vertical,horizontal,1,0.694116668701172,red,3,NaN,883.019879386575,358.892763222174,NaN,NaN,874.554784704298,843.857712770574,1054.96116226488,604.450363641507,883.019879386575,358.892763222174,596.34794493794,446.537169096228,591.116228706307,746.261991269517,0,0,0,3,4,6,3,NaN,vertical,vertical,vertical,vertical,horizontal,none
1b,20,100216,1,4,4,18,F,NA,constant,heterogeneous,4,absent,0.989887952804565,1,vertical,vertical,1,0.635293750762939,red,3,NaN,755.719714694933,348.874022981887,NaN,NaN,844.280285305067,851.125977018113,1051.12597701811,555.719714694933,755.719714694933,348.874022981887,548.874022981887,644.280285305067,0,0,0,0,3,6,4,5,NaN,NaN,vertical,vertical,vertical,vertical,none,none
1b,20,100216,1,5,5,18,F,NA,constant,heterogeneous,6,absent,0.764973878860474,1,horizontal,horizontal,1,0.952937507629394,red,5,NaN,661.117046071168,386.139005173917,NaN,NaN,684.232422566416,827.206663668034,938.882953928832,813.860994826083,1054.65053136242,586.654331158049,915.767577433584,372.793336331966,661.117046071168,386.139005173917,545.349468637584,613.345668841951,6,0,5,6,4,0,vertical,horizontal,vertical,vertical,horizontal,horizontal
1b,20,100216,1,6,6,18,F,NA,constant,heterogeneous,4,present,0.729527950286865,1,vertical,vertical,1,0.858820838928223,red,2,3,1042.51941165526,678.799333565612,878.799333565612,357.480588344736,721.200666434388,842.519411655264,1042.51941165526,678.799333565612,878.799333565612,357.480588344736,557.480588344736,521.200666434388,0,0,0,0,3,4,0,5,NaN,NaN,vertical,vertical,horizontal,vertical,none,none
1b,20,100216,1,7,7,18,F,NA,constant,heterogeneous,3,present,1.44404816627502,1,vertical,vertical,1,0.976466674804688,red,1,2,746.982518841471,849.42763818712,1042.51941165526,521.200666434388,746.982518841471,849.42763818712,1042.51941165526,521.200666434388,610.498069503264,429.371695378491,0,0,0,0,0,0,4,6,0,NaN,NaN,NaN,vertical,horizontal,horizontal,none,none,none
1b,20,100216,1,8,8,18,F,NA,constant,heterogeneous,4,absent,1.28270602226257,1,horizontal,horizontal,1,1.08234792709351,red,1,NaN,967.295052392579,792.450942956807,NaN,NaN,967.295052392579,792.450942956807,992.450942956807,432.704947607421,632.704947607421,407.549057043193,607.549057043193,767.295052392579,0,0,0,0,4,5,3,6,NaN,NaN,horizontal,vertical,horizontal,horizontal,none,none
1b,20,100216,1,9,9,18,F,NA,constant,heterogeneous,4,present,1.02589821815491,1,vertical,vertical,1,0.658822917938232,red,1,3,721.200666434388,842.519411655264,878.799333565612,357.480588344736,721.200666434388,842.519411655264,1042.51941165526,678.799333565612,878.799333565612,357.480588344736,557.480588344736,521.200666434388,0,0,0,0,4,6,0,5,NaN,NaN,vertical,vertical,horizontal,horizontal,none,none
1b,20,100216,1,10,10,18,F,NA,constant,heterogeneous,3,present,0.832511901855469,0,vertical,horizontal,1,1.09411251068115,red,3,1,791.100628340862,345.155339110131,583.747735480111,735.129412379467,583.747735480111,735.129412379467,1025.15163617903,719.715248510402,791.100628340862,345.155339110131,0,0,0,0,0,0,0,5,4,NaN,NaN,NaN,horizontal,vertical,vertical,none,none,none
1b,20,100216,1,11,11,18,F,NA,constant,heterogeneous,6,absent,0.825023174285889,1,horizontal,horizontal,1,1.01176042556763,red,5,NaN,567.045908301137,496.282156015671,NaN,NaN,826.654758133252,853.60308331891,1032.95409169886,703.717843984329,1006.29933356561,450.114760665419,773.345241866748,346.39691668109,567.045908301137,496.282156015671,593.700666434388,749.885239334581,0,5,3,0,4,5,vertical,horizontal,horizontal,vertical,horizontal,vertical
1b,20,100216,1,12,12,18,F,NA,constant,heterogeneous,5,present,0.991952896118164,1,vertical,vertical,1,0.694116668701172,red,1,3,946.261991269517,808.883771293693,804.450363641507,345.03883773512,946.261991269517,808.883771293693,1043.85771277057,525.445215295702,804.450363641507,345.03883773512,558.892763222174,516.980120613425,646.537169096228,803.65205506206,0,0,4,5,0,6,3,NaN,vertical,vertical,horizontal,vertical,vertical,none
1b,20,100216,1,13,13,18,F,NA,constant,heterogeneous,3,present,1.22052407264709,1,horizontal,horizontal,1,0.83529167175293,red,1,3,764.510859255183,852.518357529101,599.057257830286,443.006323791957,764.510859255183,852.518357529101,1036.43188291453,504.475318678942,599.057257830286,443.006323791957,0,0,0,0,0,0,4,0,5,NaN,NaN,NaN,horizontal,vertical,horizontal,none,none,none
1b,20,100216,1,14,14,18,F,NA,constant,heterogeneous,4,absent,1.60045385360718,0,horizontal,vertical,1,0.764704170227051,red,2,NaN,1018.57766167904,731.334709102064,NaN,NaN,668.665290897936,818.577661679039,1018.57766167904,731.334709102064,931.334709102064,381.422338320961,581.422338320961,468.665290897936,0,0,0,0,3,4,6,3,NaN,NaN,vertical,horizontal,vertical,horizontal,none,none
1b,20,100216,1,15,15,18,F,NA,constant,heterogeneous,3,present,1.02313780784607,1,horizontal,horizontal,1,0.917643756866455,red,3,2,545.349468637584,586.654331158049,938.882953928832,386.139005173917,915.767577433584,827.206663668034,938.882953928832,386.139005173917,545.349468637584,586.654331158049,0,0,0,0,0,0,0,0,4,NaN,NaN,NaN,vertical,vertical,horizontal,none,none,none
1b,20,100216,1,16,16,18,F,NA,constant,heterogeneous,3,absent,0.968931913375854,1,horizontal,horizontal,1,0.858820838928223,red,3,NaN,545.970351986605,577.775285599347,NaN,NaN,907.767656743878,831.108485694346,946.261991269517,391.116228706307,545.970351986605,577.775285599347,0,0,0,0,0,0,0,5,4,NaN,NaN,NaN,horizontal,vertical,horizontal,none,none,none
1b,20,100216,1,17,17,18,F,NA,constant,heterogeneous,4,present,0.802343845367432,1,horizontal,horizontal,1,1.09411251068115,red,4,2,565.271262369628,699.636437764765,1034.72873763037,500.363562235235,899.636437764765,834.728737630372,1034.72873763037,500.363562235235,700.363562235235,365.271262369628,565.271262369628,699.636437764765,0,0,0,0,6,5,3,4,NaN,NaN,horizontal,vertical,horizontal,horizontal,none,none
1b,20,100216,1,18,18,18,F,NA,constant,heterogeneous,5,present,1.23204588890076,0,horizontal,vertical,1,0.870585422515869,red,1,4,813.345668841951,854.650531362416,639.523300282292,401.827779828472,813.345668841951,854.650531362416,1046.31108570371,665.998856501143,938.882953928832,386.139005173917,639.523300282292,401.827779828472,561.936991243214,691.383827134052,0,0,4,5,3,3,5,NaN,horizontal,horizontal,vertical,horizontal,horizontal,none
1b,20,100216,1,19,19,18,F,NA,constant,heterogeneous,3,present,0.762574911117554,1,vertical,vertical,1,0.882350006103516,red,2,3,995.341332995339,436.089159529932,560.378381699593,512.784863451954,844.280285305067,851.125977018113,995.341332995339,436.089159529932,560.378381699593,512.784863451954,0,0,0,0,0,0,6,4,5,NaN,NaN,NaN,horizontal,vertical,horizontal,none,none,none
1b,20,100216,1,20,20,18,F,NA,constant,heterogeneous,4,present,0.71497106552124,1,horizontal,horizontal,1,1.05881875991821,red,2,1,1003.65205506206,446.537169096228,953.462830903772,803.65205506206,953.462830903772,803.65205506206,1003.65205506206,446.537169096228,646.537169096228,396.34794493794,596.34794493794,753.462830903772,0,0,0,0,3,4,5,0,NaN,NaN,vertical,horizontal,vertical,horizontal,none,none
1b,20,100216,1,21,21,18,F,NA,constant,heterogeneous,5,present,1.07885098457336,1,horizontal,horizontal,1,0.870585422515869,red,4,2,791.100628340862,345.155339110131,956.993676208043,800.942742169714,657.405809614959,811.404581001536,956.993676208043,800.942742169714,1039.62161830041,512.784863451954,791.100628340862,345.155339110131,554.878267535729,529.712474266665,0,0,5,3,0,4,6,NaN,horizontal,vertical,horizontal,horizontal,horizontal,none
1b,20,100216,1,22,22,18,F,NA,constant,heterogeneous,3,absent,0.981469869613647,1,horizontal,horizontal,1,0.647058334350586,red,3,NaN,570.807518193712,711.784642431215,NaN,NaN,1011.40458100154,742.594190385041,817.787900804752,345.621167183745,570.807518193712,711.784642431215,0,0,0,0,0,0,3,5,4,NaN,NaN,NaN,horizontal,vertical,horizontal,none,none,none
1b,20,100216,1,23,23,18,F,NA,constant,heterogeneous,6,absent,0.7395920753479,1,horizontal,horizontal,1,0.917643756866455,red,5,NaN,622.862115532956,416.568350913644,NaN,NaN,729.712474266665,845.121732464271,977.137884467044,783.431649086356,1047.42541020038,538.309916622085,870.287525733335,354.878267535729,622.862115532956,416.568350913644,552.574589799621,661.690083377915,5,6,3,5,4,6,horizontal,vertical,horizontal,horizontal,horizontal,horizontal
1b,20,100216,1,24,24,18,F,NA,constant,heterogeneous,6,present,0.789753913879395,1,vertical,vertical,1,0.776468753814697,red,5,4,622.862115532956,416.568350913644,870.287525733335,354.878267535729,729.712474266665,845.121732464271,977.137884467044,783.431649086356,1047.42541020038,538.309916622085,870.287525733335,354.878267535729,622.862115532956,416.568350913644,552.574589799621,661.690083377915,0,6,5,6,4,0,vertical,horizontal,horizontal,horizontal,vertical,horizontal
1b,20,100216,1,25,25,18,F,NA,constant,heterogeneous,5,absent,0.913007974624634,0,horizontal,vertical,1,0.741175003051758,red,2,NaN,1029.19248180629,711.784642431215,NaN,NaN,764.510859255183,852.518357529101,1029.19248180629,711.784642431215,977.137884467044,416.568350913644,680.284751489598,374.848363820974,548.874022981887,644.280285305067,0,0,3,4,0,6,5,NaN,horizontal,horizontal,horizontal,horizontal,vertical,none
1b,20,100216,1,26,26,18,F,NA,constant,heterogeneous,6,present,1.39915895462036,0,horizontal,vertical,1,1.01176042556763,red,2,6,938.882953928832,813.860994826083,545.349468637584,613.345668841951,684.232422566416,827.206663668034,938.882953928832,813.860994826083,1054.65053136242,586.654331158049,915.767577433584,372.793336331966,661.117046071168,386.139005173917,545.349468637584,613.345668841951,5,4,6,3,0,3,vertical,horizontal,horizontal,vertical,vertical,horizontal
1b,20,100216,1,27,27,18,F,NA,constant,heterogeneous,4,absent,0.965122938156128,1,horizontal,horizontal,1,1.07058334350586,red,3,NaN,755.719714694933,348.874022981887,NaN,NaN,844.280285305067,851.125977018113,1051.12597701811,555.719714694933,755.719714694933,348.874022981887,548.874022981887,644.280285305067,0,0,0,0,3,6,4,5,NaN,NaN,horizontal,vertical,horizontal,horizontal,none,none
1b,20,100216,1,28,28,18,F,NA,constant,heterogeneous,5,absent,1.43248891830444,1,horizontal,horizontal,1,0.988231258392334,red,1,NaN,684.232422566416,827.206663668034,NaN,NaN,684.232422566416,827.206663668034,980.31222920257,780.31222920257,1027.20666366803,484.232422566416,760.109211414741,348.13947314824,548.13947314824,560.109211414741,0,0,4,3,0,3,0,NaN,horizontal,vertical,vertical,horizontal,horizontal,none
1b,20,100216,1,29,29,18,F,NA,constant,heterogeneous,4,present,0.797578811645508,1,horizontal,horizontal,1,0.623529167175293,red,4,1,548.13947314824,639.890788585259,839.890788585259,851.86052685176,839.890788585259,851.86052685176,1051.86052685176,560.109211414741,760.109211414741,348.13947314824,548.13947314824,639.890788585259,0,0,0,0,3,0,5,4,NaN,NaN,vertical,vertical,horizontal,horizontal,none,none
1b,20,100216,1,30,30,18,F,NA,constant,heterogeneous,5,absent,1.46437788009644,0,vertical,horizontal,1,0.741175003051758,red,4,NaN,561.936991243214,508.616172865948,NaN,NaN,938.882953928832,813.860994826083,1046.31108570371,534.001143498857,813.345668841951,345.349468637584,561.936991243214,508.616172865948,639.523300282292,798.172220171528,0,0,3,6,5,4,0,NaN,horizontal,horizontal,horizontal,vertical,horizontal,none
1b,20,100216,1,31,31,18,F,NA,constant,heterogeneous,6,present,0.89640998840332,1,horizontal,horizontal,1,0.729410419464111,red,5,2,547.481642470899,564.510859255183,1052.5183575291,635.489140744817,895.524681321058,836.431882914531,1052.5183575291,635.489140744817,956.993676208043,399.057257830286,704.475318678942,363.568117085469,547.481642470899,564.510859255183,643.006323791957,800.942742169714,5,0,5,3,4,3,vertical,horizontal,horizontal,horizontal,horizontal,horizontal
1b,20,100216,1,32,32,18,F,NA,constant,heterogeneous,4,absent,1.93140697479248,0,horizontal,vertical,1,1.03528959274292,red,3,NaN,650.114760665419,393.700666434388,NaN,NaN,949.885239334581,806.299333565612,1006.29933356561,450.114760665419,650.114760665419,393.700666434388,593.700666434388,749.885239334581,0,0,0,0,3,3,4,6,NaN,NaN,horizontal,horizontal,horizontal,vertical,none,none
1b,20,100216,1,33,33,18,F,NA,constant,heterogeneous,4,present,0.975618124008179,0,horizontal,vertical,1,0.870585422515869,red,3,1,878.799333565612,357.480588344736,721.200666434388,842.519411655264,721.200666434388,842.519411655264,1042.51941165526,678.799333565612,878.799333565612,357.480588344736,557.480588344736,521.200666434388,0,0,0,0,3,5,4,6,NaN,NaN,horizontal,vertical,horizontal,horizontal,none,none
1b,20,100216,1,34,34,18,F,NA,constant,heterogeneous,6,present,0.49067211151123,0,vertical,horizontal,1,0.952937507629394,red,5,1,646.537169096228,396.34794493794,700.363562235235,834.728737630372,700.363562235235,834.728737630372,953.462830903772,803.65205506206,1053.09926866854,568.923317431687,899.636437764765,365.271262369628,646.537169096228,396.34794493794,546.900731331463,631.076682568313,6,3,0,5,4,6,horizontal,horizontal,vertical,horizontal,vertical,horizontal
1b,20,100216,1,35,35,18,F,NA,constant,heterogeneous,6,absent,NaN,0,vertical,none,0,0.976466674804688,red,3,NaN,1047.42541020038,538.309916622085,NaN,NaN,729.712474266665,845.121732464271,977.137884467044,783.431649086356,1047.42541020038,538.309916622085,870.287525733335,354.878267535729,622.862115532956,416.568350913644,552.574589799621,661.690083377915,0,5,4,0,6,3,horizontal,vertical,vertical,horizontal,vertical,vertical
1b,20,100216,1,36,36,18,F,NA,constant,heterogeneous,4,present,0.987500190734863,1,vertical,vertical,1,0.964702091217041,red,3,1,911.784642431215,370.807518193712,688.215357568785,829.192481806288,688.215357568785,829.192481806288,1029.19248180629,711.784642431215,911.784642431215,370.807518193712,570.807518193712,488.215357568785,0,0,0,0,0,0,4,5,NaN,NaN,vertical,horizontal,vertical,horizontal,none,none
1b,20,100216,1,37,37,18,F,NA,constant,heterogeneous,6,present,1.54900193214417,1,horizontal,horizontal,1,0.870585422515869,red,1,4,676.373546837184,823.028025320546,923.626453162816,376.971974679454,676.373546837184,823.028025320546,931.334709102064,818.577661679039,1054.96116226488,595.549636358493,923.626453162816,376.971974679454,668.665290897936,381.422338320961,545.03883773512,604.450363641507,4,3,6,3,6,5,horizontal,vertical,horizontal,vertical,horizontal,horizontal
1b,20,100216,1,38,38,18,F,NA,constant,heterogeneous,4,absent,NaN,0,vertical,none,0,1.09411251068115,red,2,NaN,1051.86052685176,639.890788585259,NaN,NaN,760.109211414741,851.86052685176,1051.86052685176,639.890788585259,839.890788585259,348.13947314824,548.13947314824,560.109211414741,0,0,0,0,3,4,0,5,NaN,NaN,horizontal,vertical,vertical,vertical,none,none
1b,20,100216,1,39,39,18,F,NA,constant,heterogeneous,6,present,1.75466418266296,1,horizontal,horizontal,1,1.02352500915527,red,1,3,755.719714694933,851.125977018113,1039.62161830041,512.784863451954,755.719714694933,851.125977018113,995.341332995339,763.910840470068,1039.62161830041,512.784863451954,844.280285305067,348.874022981887,604.658667004661,436.089159529932,560.378381699593,687.215136548046,4,3,5,0,3,0,horizontal,vertical,vertical,horizontal,vertical,horizontal
1b,20,100216,1,40,40,18,F,NA,constant,heterogeneous,6,present,NaN,0,vertical,none,0,0.670587501525879,red,2,1,1055,600,927.5,820.836477965032,927.5,820.836477965032,1055,600,927.5,379.163522034968,672.5,379.163522034968,545,600,672.5,820.836477965032,6,4,5,0,3,3,horizontal,vertical,horizontal,vertical,horizontal,vertical
1b,20,100216,1,41,41,18,F,NA,constant,heterogeneous,3,present,1.34261107444763,0,horizontal,vertical,1,0.941172924041748,red,2,1,946.261991269517,391.116228706307,907.767656743878,831.108485694346,907.767656743878,831.108485694346,946.261991269517,391.116228706307,545.970351986605,577.775285599347,0,0,0,0,0,0,3,4,0,NaN,NaN,NaN,vertical,horizontal,horizontal,none,none,none
1b,20,100216,1,42,42,18,F,NA,constant,heterogeneous,6,absent,1.13132381439209,1,vertical,vertical,1,0.682352085113525,red,3,NaN,1046.31108570371,534.001143498857,NaN,NaN,734.001143498857,846.311085703712,980.31222920257,780.31222920257,1046.31108570371,534.001143498857,865.998856501143,353.688914296288,619.68777079743,419.68777079743,553.688914296288,665.998856501143,6,5,4,0,0,3,vertical,vertical,vertical,horizontal,vertical,vertical
1b,20,100216,1,43,43,18,F,NA,constant,heterogeneous,6,absent,0.759577989578247,1,horizontal,horizontal,1,0.670587501525879,red,2,NaN,983.431649086356,777.137884467044,NaN,NaN,738.309916622085,847.425410200379,983.431649086356,777.137884467044,1045.12173246427,529.712474266665,861.690083377915,352.574589799621,616.568350913644,422.862115532956,554.878267535729,670.287525733335,6,4,5,0,5,3,vertical,horizontal,vertical,horizontal,horizontal,horizontal
1b,20,100216,1,44,44,18,F,NA,constant,heterogeneous,5,present,1.37986016273499,0,horizontal,vertical,1,1.04705417633057,red,4,5,680.284751489598,374.848363820974,548.874022981887,644.280285305067,764.510859255183,852.518357529101,1029.19248180629,711.784642431215,977.137884467044,416.568350913644,680.284751489598,374.848363820974,548.874022981887,644.280285305067,0,0,6,5,3,4,5,NaN,horizontal,vertical,horizontal,horizontal,horizontal,none
1b,20,100216,1,45,45,18,F,NA,constant,heterogeneous,5,absent,1.71673393249512,1,horizontal,horizontal,1,0.658822917938232,red,1,NaN,782.212099195248,854.378832816255,NaN,NaN,782.212099195248,854.378832816255,1036.43188291453,695.524681321058,963.910840470068,404.658667004661,664.870587620533,383.747735480111,552.574589799621,661.690083377915,0,0,4,0,3,5,5,NaN,horizontal,horizontal,horizontal,vertical,vertical,none
1b,20,100216,1,46,46,18,F,NA,constant,heterogeneous,3,present,0.840471029281616,1,vertical,vertical,1,0.858820838928223,red,1,3,808.899371659138,854.844660889869,574.848363820974,480.284751489598,808.899371659138,854.844660889869,1016.25226451989,464.870587620533,574.848363820974,480.284751489598,0,0,0,0,0,0,4,6,6,NaN,NaN,NaN,vertical,horizontal,horizontal,none,none,none
1b,20,100216,1,47,47,18,F,NA,constant,heterogeneous,5,absent,1.13103199005127,1,horizontal,horizontal,1,1.07058334350586,red,5,NaN,547.481642470899,635.489140744817,NaN,NaN,755.719714694933,851.125977018113,1025.15163617903,719.715248510402,983.431649086356,422.862115532956,688.215357568785,370.807518193712,547.481642470899,635.489140744817,0,0,5,0,3,0,4,NaN,vertical,horizontal,horizontal,horizontal,horizontal,none
1b,20,100216,1,48,48,18,F,NA,constant,heterogeneous,6,present,1.36153507232666,1,vertical,vertical,1,0.788233337402344,red,2,3,1051.12597701811,644.280285305067,963.910840470068,404.658667004661,887.215136548046,839.621618300407,1051.12597701811,644.280285305067,963.910840470068,404.658667004661,712.784863451954,360.378381699593,548.874022981887,555.719714694933,636.089159529932,795.341332995339,6,4,3,5,0,5,horizontal,vertical,horizontal,horizontal,horizontal,vertical
1b,20,100216,1,49,49,18,F,NA,constant,heterogeneous,3,absent,0.676923990249634,0,vertical,horizontal,1,0.99999584197998,red,1,NaN,599.057257830286,756.993676208043,NaN,NaN,599.057257830286,756.993676208043,1036.43188291453,695.524681321058,764.510859255183,347.4816424709,0,0,0,0,0,0,4,5,6,NaN,NaN,NaN,vertical,horizontal,horizontal,none,none,none
1b,20,100216,1,50,50,18,F,NA,constant,heterogeneous,3,absent,0.737165927886963,1,vertical,vertical,1,0.729410419464111,red,2,NaN,911.784642431215,370.807518193712,NaN,NaN,942.594190385041,811.404581001536,911.784642431215,370.807518193712,545.621167183745,617.787900804752,0,0,0,0,0,0,6,4,0,NaN,NaN,NaN,horizontal,vertical,vertical,none,none,none
1b,20,100216,1,51,51,18,F,NA,constant,heterogeneous,6,absent,0.894917011260986,0,vertical,horizontal,1,0.941172924041748,red,5,NaN,545.970351986605,577.775285599347,NaN,NaN,907.767656743878,831.108485694346,1054.0296480134,622.224714400653,946.261991269517,391.116228706307,692.232343256122,368.891514305654,545.970351986605,577.775285599347,653.738008730483,808.883771293693,0,3,0,5,4,6,horizontal,horizontal,horizontal,horizontal,vertical,horizontal
1b,20,100216,1,52,52,18,F,NA,constant,heterogeneous,4,present,0.907701015472412,1,vertical,vertical,1,0.729410419464111,red,3,1,857.362518857686,351.535633479765,742.637481142314,848.464366520235,742.637481142314,848.464366520235,1048.46436652023,657.362518857686,857.362518857686,351.535633479765,551.535633479765,542.637481142314,0,0,0,0,0,3,4,5,NaN,NaN,vertical,vertical,vertical,horizontal,none,none
1b,20,100216,1,53,53,18,F,NA,constant,heterogeneous,5,absent,0.62719988822937,1,vertical,vertical,1,1.05881875991821,red,3,NaN,963.910840470068,404.658667004661,NaN,NaN,782.212099195248,854.378832816255,1036.43188291453,695.524681321058,963.910840470068,404.658667004661,664.870587620533,383.747735480111,552.574589799621,661.690083377915,0,0,6,6,4,5,3,NaN,vertical,horizontal,vertical,vertical,horizontal,none
1b,20,100216,1,54,54,18,F,NA,constant,heterogeneous,5,present,0.629308223724365,1,vertical,vertical,1,1.05881875991821,red,2,4,1006.29933356561,749.885239334581,721.200666434388,357.480588344736,721.200666434388,842.519411655264,1006.29933356561,749.885239334581,1006.29933356561,450.114760665419,721.200666434388,357.480588344736,545,600,0,0,5,4,0,3,6,NaN,vertical,vertical,horizontal,vertical,horizontal,none
1b,20,100216,1,55,55,18,F,NA,constant,heterogeneous,6,absent,0.741890907287598,1,vertical,vertical,1,0.611764583587647,red,4,NaN,795.549636358493,345.03883773512,NaN,NaN,804.450363641507,854.96116226488,1023.02802532055,723.626453162816,1018.57766167904,468.665290897936,795.549636358493,345.03883773512,576.971974679454,476.373546837184,581.422338320961,731.334709102064,6,5,5,4,0,0,horizontal,vertical,vertical,vertical,vertical,horizontal
1b,20,100216,1,56,56,18,F,NA,constant,heterogeneous,4,absent,0.614662885665894,1,vertical,vertical,1,0.670587501525879,red,4,NaN,545.155339110131,608.899371659138,NaN,NaN,808.899371659138,854.844660889869,1054.84466088987,591.100628340862,791.100628340862,345.155339110131,545.155339110131,608.899371659138,0,0,0,0,3,0,6,4,NaN,NaN,vertical,horizontal,vertical,vertical,none,none
1b,20,100216,1,57,57,18,F,NA,constant,heterogeneous,5,present,0.577873945236206,1,vertical,vertical,1,0.741175003051758,red,4,2,588.595418998464,457.40580961496,1054.84466088987,591.100628340862,887.215136548046,839.621618300407,1054.84466088987,591.100628340862,870.287525733335,354.878267535729,588.595418998464,457.40580961496,599.057257830286,756.993676208043,0,0,0,3,6,4,5,NaN,horizontal,horizontal,vertical,vertical,horizontal,none
1b,20,100216,1,58,58,18,F,NA,constant,heterogeneous,5,present,0.709990978240967,0,horizontal,vertical,1,0.623529167175293,red,2,5,1006.29933356561,749.885239334581,545,600,721.200666434388,842.519411655264,1006.29933356561,749.885239334581,1006.29933356561,450.114760665419,721.200666434388,357.480588344736,545,600,0,0,5,4,3,3,6,NaN,horizontal,horizontal,horizontal,horizontal,vertical,none
1b,20,100216,1,59,59,18,F,NA,constant,heterogeneous,3,absent,0.672330856323242,1,vertical,vertical,1,0.99999584197998,red,2,NaN,804.450363641507,345.03883773512,NaN,NaN,1018.57766167904,731.334709102064,804.450363641507,345.03883773512,576.971974679454,723.626453162816,0,0,0,0,0,0,0,4,5,NaN,NaN,NaN,horizontal,vertical,vertical,none,none,none
1b,20,100216,1,60,60,18,F,NA,constant,heterogeneous,5,absent,0.581743001937866,1,vertical,vertical,1,0.976466674804688,red,2,NaN,1054.37883281626,617.787900804752,NaN,NaN,861.690083377915,847.425410200379,1054.37883281626,617.787900804752,895.524681321058,363.568117085469,604.658667004661,436.089159529932,583.747735480111,735.129412379467,0,0,3,4,0,5,5,NaN,horizontal,vertical,vertical,horizontal,horizontal,none
1b,20,100216,1,61,61,18,F,NA,constant,heterogeneous,5,present,0.461071968078613,1,vertical,vertical,1,0.988231258392334,red,2,1,1042.51941165526,521.200666434388,949.885239334581,806.299333565612,949.885239334581,806.299333565612,1042.51941165526,521.200666434388,800,345,557.480588344736,521.200666434388,650.114760665419,806.299333565612,0,0,5,4,3,6,0,NaN,vertical,vertical,horizontal,vertical,vertical,none
1b,20,100216,1,62,62,18,F,NA,constant,heterogeneous,3,absent,1.01519107818604,1,horizontal,horizontal,1,0.623529167175293,red,3,NaN,636.089159529932,404.658667004661,NaN,NaN,712.784863451954,839.621618300407,1051.12597701811,555.719714694933,636.089159529932,404.658667004661,0,0,0,0,0,0,0,6,4,NaN,NaN,NaN,horizontal,vertical,horizontal,none,none,none
1b,20,100216,1,63,63,18,F,NA,constant,heterogeneous,3,absent,0.879091024398804,1,vertical,vertical,1,0.776468753814697,red,1,NaN,895.524681321058,836.431882914531,NaN,NaN,895.524681321058,836.431882914531,956.993676208043,399.057257830286,547.481642470899,564.510859255183,0,0,0,0,0,0,4,6,3,NaN,NaN,NaN,vertical,vertical,vertical,none,none,none
1b,20,100216,1,64,64,18,F,NA,constant,heterogeneous,4,absent,0.572290897369385,1,vertical,vertical,1,0.976466674804688,red,2,NaN,1027.20666366803,715.767577433584,NaN,NaN,684.232422566416,827.206663668034,1027.20666366803,715.767577433584,915.767577433584,372.793336331966,572.793336331966,484.232422566416,0,0,0,0,0,4,6,3,NaN,NaN,vertical,vertical,horizontal,vertical,none,none
1b,20,100216,2,1,65,18,F,NA,constant,heterogeneous,4,absent,1.73569321632385,1,vertical,vertical,1,0.929408340454102,red,2,NaN,1027.20666366803,484.232422566416,NaN,NaN,915.767577433584,827.206663668034,1027.20666366803,484.232422566416,684.232422566416,372.793336331966,572.793336331966,715.767577433584,0,0,0,0,3,4,0,6,NaN,NaN,horizontal,vertical,vertical,vertical,none,none
1b,20,100216,2,2,66,18,F,NA,constant,heterogeneous,6,present,0.87506103515625,1,horizontal,horizontal,1,0.623529167175293,red,4,2,680.284751489598,374.848363820974,1054.84466088987,608.899371659138,919.715248510402,825.151636179026,1054.84466088987,608.899371659138,935.129412379467,383.747735480111,680.284751489598,374.848363820974,545.155339110131,591.100628340862,664.870587620533,816.252264519889,5,3,6,4,3,6,vertical,horizontal,vertical,horizontal,horizontal,vertical
1b,20,100216,2,3,67,18,F,NA,constant,heterogeneous,6,absent,0.862361907958984,1,vertical,vertical,1,0.682352085113525,red,4,NaN,848.656293821019,349.685068220846,NaN,NaN,751.343706178981,850.314931779154,992.450942956807,767.295052392579,1041.10723677783,516.980120613425,848.656293821019,349.685068220846,607.549057043193,432.704947607421,558.892763222174,683.019879386575,0,3,6,4,0,5,horizontal,horizontal,vertical,vertical,vertical,horizontal
1b,20,100216,2,4,68,18,F,NA,constant,heterogeneous,5,present,0.678859949111938,1,vertical,vertical,1,0.752939586639404,red,2,1,986.495193912888,773.909581815937,692.232343256122,831.108485694346,692.232343256122,831.108485694346,986.495193912888,773.909581815937,1023.02802532055,476.373546837184,751.343706178981,349.685068220846,546.900731331463,568.923317431687,0,0,6,4,5,0,5,NaN,vertical,vertical,vertical,horizontal,vertical,none
1b,20,100216,2,5,69,18,F,NA,constant,heterogeneous,5,absent,0.864698886871338,0,horizontal,vertical,1,0.811762504577637,red,5,NaN,547.481642470899,564.510859255183,NaN,NaN,688.215357568785,829.192481806288,983.431649086356,777.137884467044,1025.15163617903,480.284751489598,755.719714694933,348.874022981887,547.481642470899,564.510859255183,0,0,0,0,3,5,4,NaN,vertical,horizontal,horizontal,vertical,horizontal,none
1b,20,100216,2,6,70,18,F,NA,constant,heterogeneous,5,absent,0.709068059921265,1,vertical,vertical,1,0.741175003051758,red,2,NaN,1053.09926866854,631.076682568313,NaN,NaN,848.656293821019,850.314931779154,1053.09926866854,631.076682568313,907.767656743878,368.891514305654,613.504806087112,426.090418184063,576.971974679454,723.626453162816,0,0,0,4,5,6,5,NaN,horizontal,vertical,vertical,vertical,vertical,none
1b,20,100216,2,7,71,18,F,NA,constant,heterogeneous,6,absent,1.09670805931091,1,horizontal,horizontal,1,1.07058334350586,red,3,NaN,1013.86099482608,461.117046071168,NaN,NaN,813.345668841951,854.650531362416,1027.20666366803,715.767577433584,1013.86099482608,461.117046071168,786.654331158049,345.349468637584,572.793336331966,484.232422566416,586.139005173917,738.882953928832,5,3,4,5,3,0,vertical,horizontal,horizontal,vertical,horizontal,horizontal
1b,20,100216,2,8,72,18,F,NA,constant,heterogeneous,6,present,1.25496292114258,1,horizontal,horizontal,1,0.79999792098999,red,5,1,591.116228706307,453.738008730483,777.775285599347,854.029648013395,777.775285599347,854.029648013395,1008.88377129369,746.261991269517,1031.10848569435,492.232343256122,822.224714400653,345.970351986605,591.116228706307,453.738008730483,568.891514305654,707.767656743878,5,6,0,0,4,3,vertical,horizontal,horizontal,vertical,horizontal,horizontal
1b,20,100216,2,9,73,18,F,NA,constant,heterogeneous,5,absent,0.980231046676636,0,vertical,horizontal,1,0.99999584197998,red,4,NaN,696.282156015671,367.045908301137,NaN,NaN,746.982518841471,849.42763818712,1020.83647796503,727.5,989.501930496736,429.371695378491,696.282156015671,367.045908301137,546.39691668109,626.654758133252,0,0,6,5,3,4,6,NaN,horizontal,vertical,vertical,vertical,horizontal,none
1b,20,100216,2,10,74,18,F,NA,constant,heterogeneous,6,present,1.028235912323,1,vertical,vertical,1,0.611764583587647,red,6,1,657.405809614959,811.404581001536,911.784642431215,829.192481806288,911.784642431215,829.192481806288,1054.37883281626,617.787900804752,942.594190385041,388.595418998464,688.215357568785,370.807518193712,545.621167183745,582.212099195248,657.405809614959,811.404581001536,0,6,0,6,5,4,vertical,vertical,horizontal,vertical,horizontal,vertical
1b,20,100216,2,11,75,18,F,NA,constant,heterogeneous,4,absent,0.772878885269165,1,vertical,vertical,1,1.01176042556763,red,4,NaN,548.874022981887,644.280285305067,NaN,NaN,844.280285305067,851.125977018113,1051.12597701811,555.719714694933,755.719714694933,348.874022981887,548.874022981887,644.280285305067,0,0,0,0,3,5,5,4,NaN,NaN,vertical,vertical,vertical,vertical,none,none
1b,20,100216,2,12,76,18,F,NA,constant,heterogeneous,4,present,0.702128887176514,1,horizontal,horizontal,1,1.07058334350586,red,2,3,1054.37883281626,582.212099195248,782.212099195248,345.621167183745,817.787900804752,854.378832816255,1054.37883281626,582.212099195248,782.212099195248,345.621167183745,545.621167183745,617.787900804752,0,0,0,0,0,4,3,6,NaN,NaN,vertical,horizontal,vertical,horizontal,none,none
1b,20,100216,2,13,77,18,F,NA,constant,heterogeneous,4,absent,0.93233323097229,1,horizontal,horizontal,1,0.99999584197998,red,3,NaN,895.524681321058,363.568117085469,NaN,NaN,704.475318678942,836.431882914531,1036.43188291453,695.524681321058,895.524681321058,363.568117085469,563.568117085469,504.475318678942,0,0,0,0,0,0,4,5,NaN,NaN,horizontal,vertical,horizontal,vertical,none,none
1b,20,100216,2,14,78,18,F,NA,constant,heterogeneous,4,absent,0.707220077514648,1,vertical,vertical,1,1.01176042556763,red,4,NaN,547.481642470899,635.489140744817,NaN,NaN,835.489140744817,852.518357529101,1052.5183575291,564.510859255183,764.510859255183,347.4816424709,547.481642470899,635.489140744817,0,0,0,0,3,6,0,4,NaN,NaN,vertical,horizontal,horizontal,vertical,none,none
1b,20,100216,2,15,79,18,F,NA,constant,heterogeneous,5,absent,0.649502992630005,1,vertical,vertical,1,0.988231258392334,red,3,NaN,1025.15163617903,480.284751489598,NaN,NaN,688.215357568785,829.192481806288,983.431649086356,777.137884467044,1025.15163617903,480.284751489598,755.719714694933,348.874022981887,547.481642470899,564.510859255183,0,0,6,0,4,0,3,NaN,horizontal,horizontal,vertical,vertical,horizontal,none
1b,20,100216,2,16,80,18,F,NA,constant,heterogeneous,6,absent,0.942487955093384,0,horizontal,vertical,1,0.776468753814697,red,5,NaN,643.006323791957,399.057257830286,NaN,NaN,704.475318678942,836.431882914531,956.993676208043,800.942742169714,1052.5183575291,564.510859255183,895.524681321058,363.568117085469,643.006323791957,399.057257830286,547.481642470899,635.489140744817,6,5,0,0,4,6,horizontal,vertical,vertical,vertical,horizontal,horizontal
1b,20,100216,2,17,81,18,F,NA,constant,heterogeneous,3,present,1.43074083328247,1,horizontal,horizontal,1,0.670587501525879,red,2,3,1041.10723677783,683.019879386575,751.343706178981,349.685068220846,607.549057043193,767.295052392579,1041.10723677783,683.019879386575,751.343706178981,349.685068220846,0,0,0,0,0,0,3,4,6,NaN,NaN,NaN,horizontal,horizontal,horizontal,none,none,none
1b,20,100216,2,18,82,18,F,NA,constant,heterogeneous,3,absent,1.4684898853302,1,horizontal,horizontal,1,0.847056255340576,red,1,NaN,782.212099195248,854.378832816255,NaN,NaN,782.212099195248,854.378832816255,1029.19248180629,488.215357568785,588.595418998464,457.40580961496,0,0,0,0,0,0,4,5,0,NaN,NaN,NaN,horizontal,horizontal,vertical,none,none,none
1b,20,100216,2,19,83,18,F,NA,constant,heterogeneous,5,absent,1.04220604896545,1,vertical,vertical,1,0.811762504577637,red,5,NaN,545.349468637584,613.345668841951,NaN,NaN,734.001143498857,846.311085703712,1013.86099482608,738.882953928832,998.172220171528,439.523300282291,708.616172865948,361.936991243214,545.349468637584,613.345668841951,0,0,3,0,0,3,4,NaN,vertical,horizontal,vertical,vertical,vertical,none
1b,20,100216,2,20,84,18,F,NA,constant,heterogeneous,6,absent,1.23984384536743,1,vertical,vertical,1,0.83529167175293,red,3,NaN,949.885239334581,393.700666434388,NaN,NaN,903.717843984329,832.954091698863,1053.60308331891,626.654758133252,949.885239334581,393.700666434388,696.282156015671,367.045908301137,546.39691668109,573.345241866748,650.114760665419,806.299333565612,6,6,4,0,0,3,horizontal,horizontal,vertical,vertical,horizontal,horizontal
1b,20,100216,2,21,85,18,F,NA,constant,heterogeneous,5,absent,0.897925853729248,1,horizontal,horizontal,1,1.04705417633057,red,3,NaN,883.019879386575,358.892763222174,NaN,NaN,874.554784704298,843.857712770574,1054.96116226488,604.450363641507,883.019879386575,358.892763222174,596.34794493794,446.537169096228,591.116228706307,746.261991269517,0,0,5,0,4,3,3,NaN,vertical,vertical,horizontal,horizontal,horizontal,none
1b,20,100216,2,22,86,18,F,NA,constant,heterogeneous,4,present,1.641282081604,1,horizontal,horizontal,1,0.670587501525879,red,1,2,712.784863451954,839.621618300407,1039.62161830041,687.215136548046,712.784863451954,839.621618300407,1039.62161830041,687.215136548046,887.215136548046,360.378381699593,560.378381699593,512.784863451954,0,0,0,0,4,5,0,3,NaN,NaN,horizontal,vertical,vertical,horizontal,none,none
1b,20,100216,2,23,87,18,F,NA,constant,heterogeneous,6,present,0.705355167388916,0,horizontal,vertical,1,0.952937507629394,red,3,1,1006.29933356561,450.114760665419,826.654758133252,853.60308331891,826.654758133252,853.60308331891,1032.95409169886,703.717843984329,1006.29933356561,450.114760665419,773.345241866748,346.39691668109,567.045908301137,496.282156015671,593.700666434388,749.885239334581,3,5,4,0,3,6,horizontal,vertical,horizontal,horizontal,horizontal,horizontal
1b,20,100216,2,24,88,18,F,NA,constant,heterogeneous,3,present,0.81499195098877,0,horizontal,vertical,1,0.964702091217041,red,2,3,1032.95409169886,703.717843984329,773.345241866748,346.39691668109,593.700666434388,749.885239334581,1032.95409169886,703.717843984329,773.345241866748,346.39691668109,0,0,0,0,0,0,0,4,3,NaN,NaN,NaN,vertical,horizontal,vertical,none,none,none
1b,20,100216,2,25,89,18,F,NA,constant,heterogeneous,3,absent,1.04454207420349,0,vertical,horizontal,1,0.658822917938232,red,1,NaN,760.109211414741,851.86052685176,NaN,NaN,760.109211414741,851.86052685176,1038.06300875679,508.616172865948,601.827779828472,439.523300282291,0,0,0,0,0,0,4,6,5,NaN,NaN,NaN,vertical,horizontal,horizontal,none,none,none
1b,20,100216,2,26,90,18,F,NA,constant,heterogeneous,5,present,0.831012010574341,0,vertical,horizontal,1,0.670587501525879,red,2,1,989.501930496736,770.628304621509,696.282156015671,832.954091698863,696.282156015671,832.954091698863,989.501930496736,770.628304621509,1020.83647796503,472.5,746.982518841471,350.57236181288,546.39691668109,573.345241866748,0,0,3,4,0,5,0,NaN,horizontal,vertical,horizontal,horizontal,horizontal,none
1b,20,100216,2,27,91,18,F,NA,constant,heterogeneous,5,present,1.75721883773804,1,horizontal,horizontal,1,1.07058334350586,red,3,2,899.636437764765,365.271262369628,1054.0296480134,622.224714400653,857.362518857686,848.464366520235,1054.0296480134,622.224714400653,899.636437764765,365.271262369628,607.549057043193,432.704947607421,581.422338320961,731.334709102064,0,0,5,6,4,3,6,NaN,vertical,horizontal,horizontal,horizontal,horizontal,none
1b,20,100216,2,28,92,18,F,NA,constant,heterogeneous,6,present,0.578295946121216,1,vertical,vertical,1,1.09411251068115,red,3,2,977.137884467044,416.568350913644,1047.42541020038,661.690083377915,870.287525733335,845.121732464271,1047.42541020038,661.690083377915,977.137884467044,416.568350913644,729.712474266665,354.878267535729,552.574589799621,538.309916622085,622.862115532956,783.431649086356,5,3,4,0,3,6,horizontal,horizontal,vertical,vertical,horizontal,vertical
1b,20,100216,2,29,93,18,F,NA,constant,heterogeneous,3,absent,0.54615306854248,0,horizontal,vertical,1,1.01176042556763,red,2,NaN,857.362518857686,351.535633479765,NaN,NaN,986.495193912888,773.909581815937,857.362518857686,351.535633479765,556.142287229426,674.554784704298,0,0,0,0,0,0,5,4,6,NaN,NaN,NaN,vertical,horizontal,vertical,none,none,none
1b,20,100216,2,30,94,18,F,NA,constant,heterogeneous,4,absent,1.37775278091431,1,horizontal,horizontal,1,0.99999584197998,red,4,NaN,552.574589799621,538.309916622085,NaN,NaN,738.309916622085,847.425410200379,1047.42541020038,661.690083377915,861.690083377915,352.574589799621,552.574589799621,538.309916622085,0,0,0,0,0,3,3,4,NaN,NaN,horizontal,horizontal,horizontal,horizontal,none,none
1b,20,100216,2,31,95,18,F,NA,constant,heterogeneous,3,present,0.658000946044922,1,vertical,vertical,1,0.83529167175293,red,1,2,604.658667004661,763.910840470068,1039.62161830041,687.215136548046,604.658667004661,763.910840470068,1039.62161830041,687.215136548046,755.719714694933,348.874022981887,0,0,0,0,0,0,4,5,0,NaN,NaN,NaN,vertical,horizontal,horizontal,none,none,none
1b,20,100216,2,32,96,18,F,NA,constant,heterogeneous,3,present,0.648037910461426,1,vertical,vertical,1,0.635293750762939,red,3,1,548.13947314824,560.109211414741,891.383827134052,838.063008756786,891.383827134052,838.063008756786,960.476699717708,401.827779828472,548.13947314824,560.109211414741,0,0,0,0,0,0,3,5,4,NaN,NaN,NaN,horizontal,horizontal,vertical,none,none,none
1b,20,100216,2,33,97,18,F,NA,constant,heterogeneous,6,absent,0.740015029907227,1,horizontal,horizontal,1,0.929408340454102,red,5,NaN,557.480588344736,521.200666434388,NaN,NaN,853.017481158529,849.42763818712,1042.51941165526,678.799333565612,989.501930496736,429.371695378491,746.982518841471,350.57236181288,557.480588344736,521.200666434388,610.498069503264,770.628304621509,5,6,3,0,4,0,vertical,horizontal,horizontal,vertical,horizontal,horizontal
1b,20,100216,2,34,98,18,F,NA,constant,heterogeneous,4,absent,0.784230947494507,1,vertical,vertical,1,1.05881875991821,red,2,NaN,1027.20666366803,715.767577433584,NaN,NaN,684.232422566416,827.206663668034,1027.20666366803,715.767577433584,915.767577433584,372.793336331966,572.793336331966,484.232422566416,0,0,0,0,0,4,0,3,NaN,NaN,horizontal,vertical,horizontal,vertical,none,none
1b,20,100216,2,35,99,18,F,NA,constant,heterogeneous,3,present,0.654170036315918,0,vertical,horizontal,1,0.717645835876465,red,3,1,574.848363820974,480.284751489598,808.899371659138,854.844660889869,808.899371659138,854.844660889869,1016.25226451989,464.870587620533,574.848363820974,480.284751489598,0,0,0,0,0,0,6,5,4,NaN,NaN,NaN,horizontal,vertical,vertical,none,none,none
1b,20,100216,2,36,100,18,F,NA,constant,heterogeneous,5,present,0.558489084243774,1,vertical,vertical,1,0.941172924041748,red,4,3,712.784863451954,360.378381699593,1000.94274216971,443.006323791957,729.712474266665,845.121732464271,1011.40458100154,742.594190385041,1000.94274216971,443.006323791957,712.784863451954,360.378381699593,545.155339110131,608.899371659138,0,0,0,6,6,4,0,NaN,horizontal,horizontal,horizontal,vertical,horizontal,none
1b,20,100216,2,37,101,18,F,NA,constant,heterogeneous,3,present,0.717214822769165,1,horizontal,horizontal,1,0.988231258392334,red,1,3,998.172220171528,760.476699717708,561.936991243214,691.383827134052,998.172220171528,760.476699717708,839.890788585259,348.13947314824,561.936991243214,691.383827134052,0,0,0,0,0,0,4,0,5,NaN,NaN,NaN,horizontal,vertical,horizontal,none,none,none
1b,20,100216,2,38,102,18,F,NA,constant,heterogeneous,3,absent,1.15283298492432,0,horizontal,vertical,1,0.83529167175293,red,3,NaN,545.621167183745,617.787900804752,NaN,NaN,942.594190385041,811.404581001536,911.784642431215,370.807518193712,545.621167183745,617.787900804752,0,0,0,0,0,0,3,6,4,NaN,NaN,NaN,horizontal,vertical,horizontal,none,none,none
1b,20,100216,2,39,103,18,F,NA,constant,heterogeneous,6,present,0.838453054428101,1,horizontal,horizontal,1,0.717645835876465,red,2,4,1011.40458100154,742.594190385041,817.787900804752,345.621167183745,782.212099195248,854.378832816255,1011.40458100154,742.594190385041,1029.19248180629,488.215357568785,817.787900804752,345.621167183745,588.595418998464,457.40580961496,570.807518193712,711.784642431215,3,4,6,0,3,5,vertical,horizontal,vertical,vertical,horizontal,horizontal
1b,20,100216,2,40,104,18,F,NA,constant,heterogeneous,6,present,1.62589597702026,0,vertical,horizontal,1,0.717645835876465,red,4,2,804.450363641507,345.03883773512,1018.57766167904,731.334709102064,795.549636358493,854.96116226488,1018.57766167904,731.334709102064,1023.02802532055,476.373546837184,804.450363641507,345.03883773512,581.422338320961,468.665290897936,576.971974679454,723.626453162816,0,5,5,4,3,6,vertical,vertical,vertical,vertical,horizontal,horizontal
1b,20,100216,2,41,105,18,F,NA,constant,heterogeneous,4,present,0.748756885528564,1,vertical,vertical,1,0.905879173278809,red,3,2,817.787900804752,345.621167183745,1054.37883281626,617.787900804752,782.212099195248,854.378832816255,1054.37883281626,617.787900804752,817.787900804752,345.621167183745,545.621167183745,582.212099195248,0,0,0,0,5,6,4,6,NaN,NaN,horizontal,vertical,vertical,vertical,none,none
1b,20,100216,2,42,106,18,F,NA,constant,heterogeneous,6,absent,NaN,0,horizontal,none,0,0.929408340454102,red,4,NaN,716.980120613425,358.892763222174,NaN,NaN,883.019879386575,841.107236777826,1050.31493177915,648.656293821019,967.295052392579,407.549057043193,716.980120613425,358.892763222174,549.685068220846,551.343706178981,632.704947607421,792.450942956807,0,6,3,4,0,3,vertical,vertical,horizontal,horizontal,vertical,vertical
1b,20,100216,2,43,107,18,F,NA,constant,heterogeneous,3,absent,NaN,0,horizontal,none,0,0.858820838928223,red,2,NaN,989.501930496736,429.371695378491,NaN,NaN,853.017481158529,849.42763818712,989.501930496736,429.371695378491,557.480588344736,521.200666434388,0,0,0,0,0,0,0,4,3,NaN,NaN,NaN,horizontal,horizontal,vertical,none,none,none
1b,20,100216,2,44,108,18,F,NA,constant,heterogeneous,3,absent,0.846085071563721,1,vertical,vertical,1,0.905879173278809,red,2,NaN,1054.65053136242,586.654331158049,NaN,NaN,684.232422566416,827.206663668034,1054.65053136242,586.654331158049,661.117046071168,386.139005173917,0,0,0,0,0,0,5,4,5,NaN,NaN,NaN,vertical,vertical,vertical,none,none,none
1b,20,100216,2,45,109,18,F,NA,constant,heterogeneous,4,absent,0.704601049423218,0,horizontal,vertical,1,0.658822917938232,red,2,NaN,1031.10848569435,492.232343256122,NaN,NaN,907.767656743878,831.108485694346,1031.10848569435,492.232343256122,692.232343256122,368.891514305654,568.891514305654,707.767656743878,0,0,0,0,6,4,5,5,NaN,NaN,vertical,horizontal,vertical,vertical,none,none
1b,20,100216,2,46,110,18,F,NA,constant,heterogeneous,5,present,0.763926029205322,1,horizontal,horizontal,1,0.647058334350586,red,2,1,1053.60308331891,573.345241866748,903.717843984329,832.954091698863,903.717843984329,832.954091698863,1053.60308331891,573.345241866748,853.017481158529,350.57236181288,579.163522034968,472.5,610.498069503264,770.628304621509,0,0,6,4,0,3,3,NaN,vertical,horizontal,horizontal,horizontal,horizontal,none
1b,20,100216,2,47,111,18,F,NA,constant,heterogeneous,3,present,0.830146074295044,1,vertical,vertical,1,0.741175003051758,red,3,1,619.68777079743,419.68777079743,734.001143498857,846.311085703712,734.001143498857,846.311085703712,1046.31108570371,534.001143498857,619.68777079743,419.68777079743,0,0,0,0,0,0,6,5,4,NaN,NaN,NaN,vertical,vertical,vertical,none,none,none
1b,20,100216,2,48,112,18,F,NA,constant,heterogeneous,3,present,0.870870113372803,0,horizontal,vertical,1,1.01176042556763,red,3,2,546.900731331463,568.923317431687,953.462830903772,396.34794493794,899.636437764765,834.728737630372,953.462830903772,396.34794493794,546.900731331463,568.923317431687,0,0,0,0,0,0,5,0,4,NaN,NaN,NaN,vertical,horizontal,horizontal,none,none,none
1b,20,100216,2,49,113,18,F,NA,constant,heterogeneous,6,absent,NaN,0,vertical,none,0,0.776468753814697,red,1,NaN,817.787900804752,854.378832816255,NaN,NaN,817.787900804752,854.378832816255,1029.19248180629,711.784642431215,1011.40458100154,457.40580961496,782.212099195248,345.621167183745,570.807518193712,488.215357568785,588.595418998464,742.594190385041,4,5,3,0,6,6,vertical,vertical,horizontal,vertical,vertical,horizontal
1b,20,100216,2,50,114,18,F,NA,constant,heterogeneous,5,present,1.36700892448425,1,horizontal,horizontal,1,0.905879173278809,red,2,1,1045.12173246427,670.287525733335,808.899371659138,854.844660889869,808.899371659138,854.844660889869,1045.12173246427,670.287525733335,942.594190385041,388.595418998464,643.006323791957,399.057257830286,560.378381699593,687.215136548046,0,0,6,4,0,0,3,NaN,vertical,horizontal,vertical,horizontal,horizontal,none
1b,20,100216,2,51,115,18,F,NA,constant,heterogeneous,4,absent,0.754947900772095,1,horizontal,horizontal,1,0.83529167175293,red,2,NaN,1000.94274216971,443.006323791957,NaN,NaN,956.993676208043,800.942742169714,1000.94274216971,443.006323791957,643.006323791957,399.057257830286,599.057257830286,756.993676208043,0,0,0,0,0,4,6,3,NaN,NaN,vertical,horizontal,vertical,vertical,none,none
1b,20,100216,2,52,116,18,F,NA,constant,heterogeneous,3,absent,0.62935209274292,1,vertical,vertical,1,0.752939586639404,red,3,NaN,676.373546837184,376.971974679454,NaN,NaN,668.665290897936,818.577661679039,1054.96116226488,604.450363641507,676.373546837184,376.971974679454,0,0,0,0,0,0,5,0,4,NaN,NaN,NaN,vertical,horizontal,vertical,none,none,none
1b,20,100216,2,53,117,18,F,NA,constant,heterogeneous,3,absent,0.613079071044922,1,vertical,vertical,1,0.741175003051758,red,2,NaN,1050.31493177915,648.656293821019,NaN,NaN,632.704947607421,792.450942956807,1050.31493177915,648.656293821019,716.980120613425,358.892763222174,0,0,0,0,0,0,3,4,6,NaN,NaN,NaN,vertical,vertical,horizontal,none,none,none
1b,20,100216,2,54,118,18,F,NA,constant,heterogeneous,6,present,0.524147033691406,1,vertical,vertical,1,0.729410419464111,red,6,4,554.878267535729,670.287525733335,861.690083377915,352.574589799621,738.309916622085,847.425410200379,983.431649086356,777.137884467044,1045.12173246427,529.712474266665,861.690083377915,352.574589799621,616.568350913644,422.862115532956,554.878267535729,670.287525733335,5,0,3,6,5,4,vertical,horizontal,vertical,vertical,vertical,vertical
1b,20,100216,2,55,119,18,F,NA,constant,heterogeneous,4,present,0.644742965698242,1,vertical,vertical,1,1.09411251068115,red,2,4,986.495193912888,773.909581815937,613.504806087112,426.090418184063,626.090418184063,786.495193912888,986.495193912888,773.909581815937,973.909581815937,413.504806087112,613.504806087112,426.090418184063,0,0,0,0,0,4,6,5,NaN,NaN,vertical,vertical,horizontal,vertical,none,none
1b,20,100216,2,56,120,18,F,NA,constant,heterogeneous,4,present,0.604848146438599,1,vertical,vertical,1,0.752939586639404,red,2,4,1047.42541020038,661.690083377915,552.574589799621,538.309916622085,738.309916622085,847.425410200379,1047.42541020038,661.690083377915,861.690083377915,352.574589799621,552.574589799621,538.309916622085,0,0,0,0,5,4,5,6,NaN,NaN,vertical,vertical,horizontal,horizontal,none,none
1b,20,100216,2,57,121,18,F,NA,constant,heterogeneous,5,present,1.13452315330505,1,horizontal,horizontal,1,0.682352085113525,red,5,1,545.349468637584,613.345668841951,734.001143498857,846.311085703712,734.001143498857,846.311085703712,1013.86099482608,738.882953928832,998.172220171528,439.523300282291,708.616172865948,361.936991243214,545.349468637584,613.345668841951,0,0,3,6,5,0,4,NaN,vertical,vertical,horizontal,horizontal,horizontal,none
1b,20,100216,2,58,122,18,F,NA,constant,heterogeneous,6,absent,1.37260794639587,1,vertical,vertical,1,0.764704170227051,red,5,NaN,619.68777079743,419.68777079743,NaN,NaN,734.001143498857,846.311085703712,980.31222920257,780.31222920257,1046.31108570371,534.001143498857,865.998856501143,353.688914296288,619.68777079743,419.68777079743,553.688914296288,665.998856501143,6,5,3,0,4,0,horizontal,horizontal,horizontal,horizontal,vertical,horizontal
1b,20,100216,2,59,123,18,F,NA,constant,heterogeneous,4,present,1.18162512779236,1,vertical,vertical,1,0.670587501525879,red,3,4,782.212099195248,345.621167183745,545.621167183745,617.787900804752,817.787900804752,854.378832816255,1054.37883281626,582.212099195248,782.212099195248,345.621167183745,545.621167183745,617.787900804752,0,0,0,0,3,5,4,0,NaN,NaN,horizontal,horizontal,vertical,vertical,none,none
1b,20,100216,2,60,124,18,F,NA,constant,heterogeneous,5,absent,1.086266040802,1,horizontal,horizontal,1,0.635293750762939,red,5,NaN,545.970351986605,577.775285599347,NaN,NaN,700.363562235235,834.728737630372,992.450942956807,767.295052392579,1018.57766167904,468.665290897936,742.637481142314,351.535633479765,545.970351986605,577.775285599347,0,0,6,6,3,5,4,NaN,horizontal,horizontal,horizontal,horizontal,horizontal,none
1b,20,100216,2,61,125,18,F,NA,constant,heterogeneous,4,present,1.28391003608704,1,horizontal,horizontal,1,0.788233337402344,red,1,3,646.537169096228,803.65205506206,953.462830903772,396.34794493794,646.537169096228,803.65205506206,1003.65205506206,753.462830903772,953.462830903772,396.34794493794,596.34794493794,446.537169096228,0,0,0,0,4,6,5,3,NaN,NaN,horizontal,horizontal,horizontal,horizontal,none,none
1b,20,100216,2,62,126,18,F,NA,constant,heterogeneous,5,absent,1.45241785049438,1,horizontal,horizontal,1,0.729410419464111,red,4,NaN,558.892763222174,516.980120613425,NaN,NaN,946.261991269517,808.883771293693,1043.85771277057,525.445215295702,804.450363641507,345.03883773512,558.892763222174,516.980120613425,646.537169096228,803.65205506206,0,0,6,6,0,4,3,NaN,vertical,horizontal,vertical,horizontal,horizontal,none
1b,20,100216,2,63,127,18,F,NA,constant,heterogeneous,4,present,0.933358907699585,1,horizontal,horizontal,1,0.788233337402344,red,4,3,588.595418998464,457.40580961496,942.594190385041,388.595418998464,657.405809614959,811.404581001536,1011.40458100154,742.594190385041,942.594190385041,388.595418998464,588.595418998464,457.40580961496,0,0,0,0,3,6,6,4,NaN,NaN,vertical,horizontal,vertical,horizontal,none,none
1b,20,100216,2,64,128,18,F,NA,constant,heterogeneous,5,present,0.762898921966553,1,vertical,vertical,1,0.941172924041748,red,3,2,956.993676208043,399.057257830286,1039.62161830041,687.215136548046,791.100628340862,854.844660889869,1039.62161830041,687.215136548046,956.993676208043,399.057257830286,657.405809614959,388.595418998464,554.878267535729,670.287525733335,0,0,5,0,4,0,3,NaN,vertical,vertical,vertical,vertical,vertical,none
1b,20,100216,3,1,129,18,F,NA,constant,heterogeneous,5,present,0.897722005844116,1,vertical,vertical,1,0.705881252288818,red,4,5,657.405809614959,388.595418998464,554.878267535729,670.287525733335,791.100628340862,854.844660889869,1039.62161830041,687.215136548046,956.993676208043,399.057257830286,657.405809614959,388.595418998464,554.878267535729,670.287525733335,0,0,0,3,5,4,6,NaN,vertical,horizontal,horizontal,vertical,horizontal,none
1b,20,100216,3,2,130,18,F,NA,constant,heterogeneous,6,absent,0.692356109619141,1,vertical,vertical,1,0.83529167175293,red,3,NaN,1054.84466088987,591.100628340862,NaN,NaN,680.284751489598,825.151636179026,935.129412379467,816.252264519889,1054.84466088987,591.100628340862,919.715248510402,374.848363820974,664.870587620533,383.747735480111,545.155339110131,608.899371659138,3,5,4,3,6,5,vertical,vertical,vertical,vertical,horizontal,vertical
1b,20,100216,3,3,131,18,F,NA,constant,heterogeneous,5,present,0.84692907333374,0,horizontal,vertical,1,0.623529167175293,red,5,2,632.704947607421,792.450942956807,1048.46436652023,542.637481142314,931.334709102064,818.577661679039,1048.46436652023,542.637481142314,822.224714400653,345.970351986605,565.271262369628,500.363562235235,632.704947607421,792.450942956807,0,0,6,3,5,5,4,NaN,vertical,vertical,vertical,vertical,horizontal,none
1b,20,100216,3,4,132,18,F,NA,constant,heterogeneous,6,present,0.69874095916748,1,horizontal,horizontal,1,0.729410419464111,red,3,5,1006.29933356561,450.114760665419,567.045908301137,496.282156015671,826.654758133252,853.60308331891,1032.95409169886,703.717843984329,1006.29933356561,450.114760665419,773.345241866748,346.39691668109,567.045908301137,496.282156015671,593.700666434388,749.885239334581,6,0,4,3,6,0,vertical,vertical,horizontal,vertical,horizontal,vertical
1b,20,100216,3,5,133,18,F,NA,constant,heterogeneous,6,present,0.441771984100342,1,horizontal,horizontal,1,0.847056255340576,red,3,2,983.431649086356,422.862115532956,1045.12173246427,670.287525733335,861.690083377915,847.425410200379,1045.12173246427,670.287525733335,983.431649086356,422.862115532956,738.309916622085,352.574589799621,554.878267535729,529.712474266665,616.568350913644,777.137884467044,3,0,4,3,5,6,vertical,horizontal,horizontal,horizontal,vertical,horizontal
1b,20,100216,3,6,134,18,F,NA,constant,heterogeneous,3,absent,0.657875061035156,1,vertical,vertical,1,0.952937507629394,red,3,NaN,680.284751489598,374.848363820974,NaN,NaN,664.870587620533,816.252264519889,1054.84466088987,608.899371659138,680.284751489598,374.848363820974,0,0,0,0,0,0,6,5,4,NaN,NaN,NaN,vertical,vertical,vertical,none,none,none
1b,20,100216,3,7,135,18,F,NA,constant,heterogeneous,4,present,0.538372993469238,1,vertical,vertical,1,0.952937507629394,red,2,3,1038.06300875679,508.616172865948,708.616172865948,361.936991243214,891.383827134052,838.063008756786,1038.06300875679,508.616172865948,708.616172865948,361.936991243214,561.936991243214,691.383827134052,0,0,0,0,6,4,0,0,NaN,NaN,horizontal,vertical,vertical,vertical,none,none
1b,20,100216,3,8,136,18,F,NA,constant,heterogeneous,6,present,0.668357849121094,1,vertical,vertical,1,0.752939586639404,red,4,2,786.654331158049,345.349468637584,1027.20666366803,715.767577433584,813.345668841951,854.650531362416,1027.20666366803,715.767577433584,1013.86099482608,461.117046071168,786.654331158049,345.349468637584,572.793336331966,484.232422566416,586.139005173917,738.882953928832,0,3,6,4,5,3,horizontal,vertical,horizontal,vertical,horizontal,horizontal
1b,20,100216,3,9,137,18,F,NA,constant,heterogeneous,4,absent,0.810893058776855,1,horizontal,horizontal,1,0.658822917938232,red,1,NaN,938.882953928832,813.860994826083,NaN,NaN,938.882953928832,813.860994826083,1013.86099482608,461.117046071168,661.117046071168,386.139005173917,586.139005173917,738.882953928832,0,0,0,0,4,0,0,5,NaN,NaN,horizontal,horizontal,horizontal,vertical,none,none
1b,20,100216,3,10,138,18,F,NA,constant,heterogeneous,5,absent,0.607177019119263,1,horizontal,horizontal,1,0.788233337402344,red,3,NaN,986.495193912888,426.090418184063,NaN,NaN,751.343706178981,850.314931779154,1023.02802532055,723.626453162816,986.495193912888,426.090418184063,692.232343256122,368.891514305654,546.900731331463,631.076682568313,0,0,0,0,4,3,6,NaN,vertical,vertical,horizontal,horizontal,horizontal,none
1b,20,100216,3,11,139,18,F,NA,constant,heterogeneous,3,present,0.652663230895996,0,horizontal,vertical,1,1.07058334350586,red,1,3,729.712474266665,845.121732464271,622.862115532956,416.568350913644,729.712474266665,845.121732464271,1047.42541020038,538.309916622085,622.862115532956,416.568350913644,0,0,0,0,0,0,4,0,3,NaN,NaN,NaN,horizontal,horizontal,vertical,none,none,none
1b,20,100216,3,12,140,18,F,NA,constant,heterogeneous,4,absent,0.553491115570068,0,vertical,horizontal,1,0.976466674804688,red,1,NaN,870.287525733335,845.121732464271,NaN,NaN,870.287525733335,845.121732464271,1045.12173246427,529.712474266665,729.712474266665,354.878267535729,554.878267535729,670.287525733335,0,0,0,0,4,3,5,5,NaN,NaN,vertical,horizontal,vertical,vertical,none,none
1b,20,100216,3,13,141,18,F,NA,constant,heterogeneous,5,absent,0.836251020431519,1,horizontal,horizontal,1,0.976466674804688,red,4,NaN,563.568117085469,504.475318678942,NaN,NaN,935.129412379467,816.252264519889,1047.42541020038,538.309916622085,817.787900804752,345.621167183745,563.568117085469,504.475318678942,636.089159529932,795.341332995339,0,0,6,5,0,4,5,NaN,horizontal,vertical,vertical,horizontal,vertical,none
1b,20,100216,3,14,142,18,F,NA,constant,heterogeneous,5,absent,1.00202989578247,0,vertical,horizontal,1,0.635293750762939,red,1,NaN,938.882953928832,813.860994826083,NaN,NaN,938.882953928832,813.860994826083,1046.31108570371,534.001143498857,813.345668841951,345.349468637584,561.936991243214,508.616172865948,639.523300282292,798.172220171528,0,0,4,0,5,3,5,NaN,vertical,vertical,horizontal,horizontal,horizontal,none
1b,20,100216,3,15,143,18,F,NA,constant,heterogeneous,3,absent,0.613569974899292,0,vertical,horizontal,1,0.752939586639404,red,2,NaN,907.767656743878,368.891514305654,NaN,NaN,946.261991269517,808.883771293693,907.767656743878,368.891514305654,545.970351986605,622.224714400653,0,0,0,0,0,0,6,4,3,NaN,NaN,NaN,vertical,vertical,vertical,none,none,none
1b,20,100216,3,16,144,18,F,NA,constant,heterogeneous,5,absent,1.15738081932068,1,horizontal,horizontal,1,0.976466674804688,red,4,NaN,777.775285599347,345.970351986605,NaN,NaN,668.665290897936,818.577661679039,967.295052392579,792.450942956807,1034.72873763037,500.363562235235,777.775285599347,345.970351986605,551.535633479765,542.637481142314,0,0,3,6,3,4,5,NaN,horizontal,vertical,horizontal,horizontal,vertical,none
1b,20,100216,3,17,145,18,F,NA,constant,heterogeneous,6,present,0.690100908279419,0,vertical,horizontal,1,0.870585422515869,red,5,1,632.704947607421,407.549057043193,716.980120613425,841.107236777826,716.980120613425,841.107236777826,967.295052392579,792.450942956807,1050.31493177915,551.343706178981,883.019879386575,358.892763222174,632.704947607421,407.549057043193,549.685068220846,648.656293821019,5,0,6,0,4,5,vertical,vertical,horizontal,vertical,vertical,vertical
1b,20,100216,3,18,146,18,F,NA,constant,heterogeneous,6,present,1.87269902229309,1,horizontal,horizontal,1,1.03528959274292,red,1,5,848.656293821019,850.314931779154,558.892763222174,516.980120613425,848.656293821019,850.314931779154,1041.10723677783,683.019879386575,992.450942956807,432.704947607421,751.343706178981,349.685068220846,558.892763222174,516.980120613425,607.549057043193,767.295052392579,4,5,5,3,0,0,horizontal,vertical,horizontal,horizontal,vertical,horizontal
1b,20,100216,3,19,147,18,F,NA,constant,heterogeneous,3,absent,0.921413898468018,1,vertical,vertical,1,0.941172924041748,red,3,NaN,795.549636358493,345.03883773512,NaN,NaN,581.422338320961,731.334709102064,1023.02802532055,723.626453162816,795.549636358493,345.03883773512,0,0,0,0,0,0,3,3,4,NaN,NaN,NaN,horizontal,horizontal,vertical,none,none,none
1b,20,100216,3,20,148,18,F,NA,constant,heterogeneous,4,present,0.771663188934326,0,horizontal,vertical,1,0.788233337402344,red,2,3,1023.02802532055,476.373546837184,676.373546837184,376.971974679454,923.626453162816,823.028025320546,1023.02802532055,476.373546837184,676.373546837184,376.971974679454,576.971974679454,723.626453162816,0,0,0,0,0,4,6,6,NaN,NaN,horizontal,horizontal,horizontal,horizontal,none,none
1b,20,100216,3,21,149,18,F,NA,constant,heterogeneous,6,absent,1.1890070438385,0,horizontal,vertical,1,0.694116668701172,red,5,NaN,583.747735480111,464.870587620533,NaN,NaN,791.100628340862,854.844660889869,1016.25226451989,735.129412379467,1025.15163617903,480.284751489598,808.899371659138,345.155339110131,583.747735480111,464.870587620533,574.848363820974,719.715248510402,5,5,6,3,4,6,vertical,vertical,vertical,horizontal,horizontal,horizontal
1b,20,100216,3,22,150,18,F,NA,constant,heterogeneous,4,absent,0.997946977615356,0,vertical,horizontal,1,0.847056255340576,red,3,NaN,942.594190385041,388.595418998464,NaN,NaN,657.405809614959,811.404581001536,1011.40458100154,742.594190385041,942.594190385041,388.595418998464,588.595418998464,457.40580961496,0,0,0,0,0,5,4,0,NaN,NaN,horizontal,vertical,vertical,vertical,none,none
1b,20,100216,3,23,151,18,F,NA,constant,heterogeneous,3,present,1.65481495857239,1,vertical,vertical,1,1.04705417633057,red,3,2,545.349468637584,613.345668841951,915.767577433584,372.793336331966,938.882953928832,813.860994826083,915.767577433584,372.793336331966,545.349468637584,613.345668841951,0,0,0,0,0,0,0,5,4,NaN,NaN,NaN,horizontal,vertical,vertical,none,none,none
1b,20,100216,3,24,152,18,F,NA,constant,heterogeneous,3,present,0.753933906555176,1,vertical,vertical,1,1.08234792709351,red,2,1,1038.06300875679,691.383827134052,601.827779828472,760.476699717708,601.827779828472,760.476699717708,1038.06300875679,691.383827134052,760.109211414741,348.13947314824,0,0,0,0,0,0,0,4,5,NaN,NaN,NaN,vertical,vertical,vertical,none,none,none
1b,20,100216,3,25,153,18,F,NA,constant,heterogeneous,5,present,1.40758109092712,1,horizontal,horizontal,1,0.917643756866455,red,4,1,570.807518193712,488.215357568785,919.715248510402,825.151636179026,919.715248510402,825.151636179026,1051.12597701811,555.719714694933,835.489140744817,347.4816424709,570.807518193712,488.215357568785,622.862115532956,783.431649086356,0,0,5,6,3,4,3,NaN,vertical,horizontal,vertical,horizontal,horizontal,none
1b,20,100216,3,26,154,18,F,NA,constant,heterogeneous,5,absent,1.77006006240845,1,vertical,vertical,1,0.705881252288818,red,2,NaN,1054.65053136242,586.654331158049,NaN,NaN,891.383827134052,838.063008756786,1054.65053136242,586.654331158049,865.998856501143,353.688914296288,586.139005173917,461.117046071168,601.827779828472,760.476699717708,0,0,6,4,6,0,5,NaN,vertical,vertical,horizontal,vertical,vertical,none
1b,20,100216,3,27,155,18,F,NA,constant,heterogeneous,3,absent,1.69001793861389,1,horizontal,horizontal,1,0.623529167175293,red,2,NaN,911.784642431215,370.807518193712,NaN,NaN,942.594190385041,811.404581001536,911.784642431215,370.807518193712,545.621167183745,617.787900804752,0,0,0,0,0,0,3,4,5,NaN,NaN,NaN,vertical,horizontal,horizontal,none,none,none
1b,20,100216,3,28,156,18,F,NA,constant,heterogeneous,6,absent,1.33989191055298,0,vertical,horizontal,1,0.79999792098999,red,1,NaN,831.076682568313,853.099268668537,NaN,NaN,831.076682568313,853.099268668537,1034.72873763037,699.636437764765,1003.65205506206,446.537169096228,768.923317431687,346.900731331463,565.271262369628,500.363562235235,596.34794493794,753.462830903772,4,0,5,6,3,3,vertical,horizontal,horizontal,horizontal,vertical,vertical
1b,20,100216,3,29,157,18,F,NA,constant,heterogeneous,5,absent,1.40690898895264,1,horizontal,horizontal,1,0.788233337402344,red,4,NaN,610.498069503264,429.371695378491,NaN,NaN,853.017481158529,849.42763818712,1053.60308331891,626.654758133252,903.717843984329,367.045908301137,610.498069503264,429.371695378491,579.163522034968,727.5,0,0,3,5,5,4,6,NaN,horizontal,horizontal,vertical,horizontal,vertical,none
1b,20,100216,3,30,158,18,F,NA,constant,heterogeneous,4,absent,1.01097893714905,0,horizontal,vertical,1,0.99999584197998,red,2,NaN,1054.37883281626,617.787900804752,NaN,NaN,782.212099195248,854.378832816255,1054.37883281626,617.787900804752,817.787900804752,345.621167183745,545.621167183745,582.212099195248,0,0,0,0,3,4,0,3,NaN,NaN,vertical,horizontal,horizontal,horizontal,none,none
1b,20,100216,3,31,159,18,F,NA,constant,heterogeneous,6,absent,1.50851082801819,1,horizontal,horizontal,1,0.847056255340576,red,4,NaN,865.998856501143,353.688914296288,NaN,NaN,734.001143498857,846.311085703712,980.31222920257,780.31222920257,1046.31108570371,534.001143498857,865.998856501143,353.688914296288,619.68777079743,419.68777079743,553.688914296288,665.998856501143,5,6,5,4,3,6,vertical,horizontal,horizontal,horizontal,horizontal,vertical
1b,20,100216,3,32,160,18,F,NA,constant,heterogeneous,4,present,1.99571013450623,1,horizontal,horizontal,1,0.635293750762939,red,4,2,549.685068220846,648.656293821019,1050.31493177915,551.343706178981,848.656293821019,850.314931779154,1050.31493177915,551.343706178981,751.343706178981,349.685068220846,549.685068220846,648.656293821019,0,0,0,0,0,3,6,4,NaN,NaN,horizontal,vertical,horizontal,horizontal,none,none
1b,20,100216,3,33,161,18,F,NA,constant,heterogeneous,4,absent,1.62953495979309,1,vertical,vertical,1,0.894114589691162,red,1,NaN,826.654758133252,853.60308331891,NaN,NaN,826.654758133252,853.60308331891,1053.60308331891,573.345241866748,773.345241866748,346.39691668109,546.39691668109,626.654758133252,0,0,0,0,4,0,6,3,NaN,NaN,vertical,horizontal,vertical,vertical,none,none
1b,20,100216,3,34,162,18,F,NA,constant,heterogeneous,5,absent,0.897643089294434,1,vertical,vertical,1,0.776468753814697,red,2,NaN,1031.10848569435,707.767656743878,NaN,NaN,768.923317431687,853.099268668537,1031.10848569435,707.767656743878,973.909581815937,413.504806087112,676.373546837184,376.971974679454,549.685068220846,648.656293821019,0,0,0,4,3,0,3,NaN,horizontal,vertical,vertical,vertical,horizontal,none
1b,20,100216,3,35,163,18,F,NA,constant,heterogeneous,6,absent,1.84124398231506,1,horizontal,horizontal,1,0.870585422515869,red,4,NaN,899.636437764765,365.271262369628,NaN,NaN,700.363562235235,834.728737630372,953.462830903772,803.65205506206,1053.09926866854,568.923317431687,899.636437764765,365.271262369628,646.537169096228,396.34794493794,546.900731331463,631.076682568313,6,0,5,4,5,6,vertical,vertical,horizontal,horizontal,vertical,vertical
1b,20,100216,3,36,164,18,F,NA,constant,heterogeneous,3,present,1.28231596946716,1,horizontal,horizontal,1,0.99999584197998,red,2,1,995.341332995339,436.089159529932,844.280285305067,851.125977018113,844.280285305067,851.125977018113,995.341332995339,436.089159529932,560.378381699593,512.784863451954,0,0,0,0,0,0,5,4,6,NaN,NaN,NaN,horizontal,horizontal,vertical,none,none,none
1b,20,100216,3,37,165,18,F,NA,constant,heterogeneous,6,absent,1.19986200332642,1,horizontal,horizontal,1,0.788233337402344,red,6,NaN,616.568350913644,777.137884467044,NaN,NaN,861.690083377915,847.425410200379,1045.12173246427,670.287525733335,983.431649086356,422.862115532956,738.309916622085,352.574589799621,554.878267535729,529.712474266665,616.568350913644,777.137884467044,0,3,0,5,5,4,horizontal,vertical,vertical,vertical,horizontal,horizontal
1b,20,100216,3,38,166,18,F,NA,constant,heterogeneous,6,present,1.08503794670105,1,vertical,vertical,1,0.647058334350586,red,4,5,907.767656743878,368.891514305654,653.738008730483,391.116228706307,692.232343256122,831.108485694346,946.261991269517,808.883771293693,1054.0296480134,577.775285599347,907.767656743878,368.891514305654,653.738008730483,391.116228706307,545.970351986605,622.224714400653,6,0,6,4,5,0,horizontal,vertical,vertical,vertical,horizontal,horizontal
1b,20,100216,3,39,167,18,F,NA,constant,heterogeneous,6,present,1.71373891830444,0,horizontal,vertical,1,0.741175003051758,red,5,6,596.34794493794,446.537169096228,565.271262369628,699.636437764765,768.923317431687,853.099268668537,1003.65205506206,753.462830903772,1034.72873763037,500.363562235235,831.076682568313,346.900731331463,596.34794493794,446.537169096228,565.271262369628,699.636437764765,5,3,5,6,4,3,vertical,horizontal,vertical,horizontal,horizontal,vertical
1b,20,100216,3,40,168,18,F,NA,constant,heterogeneous,6,present,1.1186089515686,1,vertical,vertical,1,0.717645835876465,red,2,1,953.462830903772,803.65205506206,700.363562235235,834.728737630372,700.363562235235,834.728737630372,953.462830903772,803.65205506206,1053.09926866854,568.923317431687,899.636437764765,365.271262369628,646.537169096228,396.34794493794,546.900731331463,631.076682568313,5,4,6,3,5,0,vertical,vertical,vertical,vertical,vertical,horizontal
1b,20,100216,3,41,169,18,F,NA,constant,heterogeneous,4,absent,0.729920864105225,1,vertical,vertical,1,0.635293750762939,red,1,NaN,835.489140744817,852.518357529101,NaN,NaN,835.489140744817,852.518357529101,1052.5183575291,564.510859255183,764.510859255183,347.4816424709,547.481642470899,635.489140744817,0,0,0,0,4,3,0,3,NaN,NaN,vertical,horizontal,horizontal,vertical,none,none
1b,20,100216,3,42,170,18,F,NA,constant,heterogeneous,5,present,0.991340160369873,1,vertical,vertical,1,0.917643756866455,red,3,4,804.450363641507,345.03883773512,558.892763222174,516.980120613425,946.261991269517,808.883771293693,1043.85771277057,525.445215295702,804.450363641507,345.03883773512,558.892763222174,516.980120613425,646.537169096228,803.65205506206,0,0,5,5,4,3,0,NaN,vertical,vertical,vertical,horizontal,horizontal,none
1b,20,100216,3,43,171,18,F,NA,constant,heterogeneous,4,present,0.699963808059692,0,vertical,horizontal,1,0.635293750762939,red,4,3,576.971974679454,476.373546837184,923.626453162816,376.971974679454,676.373546837184,823.028025320546,1023.02802532055,723.626453162816,923.626453162816,376.971974679454,576.971974679454,476.373546837184,0,0,0,0,5,6,6,4,NaN,NaN,horizontal,horizontal,vertical,vertical,none,none
1b,20,100216,3,44,172,18,F,NA,constant,heterogeneous,3,present,0.575784921646118,0,horizontal,vertical,1,1.08234792709351,red,2,1,938.882953928832,386.139005173917,915.767577433584,827.206663668034,915.767577433584,827.206663668034,938.882953928832,386.139005173917,545.349468637584,586.654331158049,0,0,0,0,0,0,0,4,6,NaN,NaN,NaN,horizontal,horizontal,horizontal,none,none,none
1b,20,100216,3,45,173,18,F,NA,constant,heterogeneous,5,present,1.09912395477295,1,horizontal,horizontal,1,0.776468753814697,red,5,3,546.39691668109,573.345241866748,1020.83647796503,472.5,696.282156015671,832.954091698863,989.501930496736,770.628304621509,1020.83647796503,472.5,746.982518841471,350.57236181288,546.39691668109,573.345241866748,0,0,5,6,0,5,4,NaN,vertical,vertical,horizontal,vertical,horizontal,none
1b,20,100216,3,46,174,18,F,NA,constant,heterogeneous,6,absent,0.889595985412598,1,vertical,vertical,1,1.02352500915527,red,5,NaN,586.139005173917,461.117046071168,NaN,NaN,786.654331158049,854.650531362416,1013.86099482608,738.882953928832,1027.20666366803,484.232422566416,813.345668841951,345.349468637584,586.139005173917,461.117046071168,572.793336331966,715.767577433584,3,6,6,3,4,0,vertical,vertical,vertical,horizontal,vertical,horizontal
1b,20,100216,3,47,175,18,F,NA,constant,heterogeneous,5,present,0.729793071746826,1,horizontal,horizontal,1,0.705881252288818,red,2,3,1023.02802532055,723.626453162816,986.495193912888,426.090418184063,751.343706178981,850.314931779154,1023.02802532055,723.626453162816,986.495193912888,426.090418184063,692.232343256122,368.891514305654,546.900731331463,631.076682568313,0,0,5,4,3,0,3,NaN,horizontal,horizontal,vertical,horizontal,horizontal,none
1b,20,100216,3,48,176,18,F,NA,constant,heterogeneous,5,absent,1.4780900478363,0,vertical,horizontal,1,1.07058334350586,red,4,NaN,568.891514305654,492.232343256122,NaN,NaN,923.626453162816,823.028025320546,1050.31493177915,551.343706178981,831.076682568313,346.900731331463,568.891514305654,492.232343256122,626.090418184063,786.495193912888,0,0,3,3,6,4,0,NaN,horizontal,horizontal,vertical,vertical,horizontal,none
1b,20,100216,3,49,177,18,F,NA,constant,heterogeneous,3,present,1.54060196876526,1,vertical,vertical,1,0.647058334350586,red,3,2,795.549636358493,345.03883773512,1023.02802532055,723.626453162816,581.422338320961,731.334709102064,1023.02802532055,723.626453162816,795.549636358493,345.03883773512,0,0,0,0,0,0,3,6,4,NaN,NaN,NaN,vertical,horizontal,vertical,none,none,none
1b,20,100216,3,50,178,18,F,NA,constant,heterogeneous,3,absent,1.10494494438171,1,horizontal,horizontal,1,1.05881875991821,red,1,NaN,891.383827134052,838.063008756786,NaN,NaN,891.383827134052,838.063008756786,960.476699717708,401.827779828472,548.13947314824,560.109211414741,0,0,0,0,0,0,4,6,3,NaN,NaN,NaN,horizontal,horizontal,vertical,none,none,none
1b,20,100216,3,51,179,18,F,NA,constant,heterogeneous,4,absent,1.48091197013855,1,horizontal,horizontal,1,0.682352085113525,red,3,NaN,782.212099195248,345.621167183745,NaN,NaN,817.787900804752,854.378832816255,1054.37883281626,582.212099195248,782.212099195248,345.621167183745,545.621167183745,617.787900804752,0,0,0,0,3,6,4,3,NaN,NaN,horizontal,horizontal,horizontal,horizontal,none,none
1b,20,100216,3,52,180,18,F,NA,constant,heterogeneous,4,present,0.843805074691772,1,vertical,vertical,1,0.658822917938232,red,2,4,1000.94274216971,443.006323791957,599.057257830286,756.993676208043,956.993676208043,800.942742169714,1000.94274216971,443.006323791957,643.006323791957,399.057257830286,599.057257830286,756.993676208043,0,0,0,0,0,4,5,6,NaN,NaN,horizontal,vertical,horizontal,horizontal,none,none
1b,20,100216,3,53,181,18,F,NA,constant,heterogeneous,4,present,0.795312166213989,1,horizontal,horizontal,1,0.929408340454102,red,4,3,568.891514305654,492.232343256122,907.767656743878,368.891514305654,692.232343256122,831.108485694346,1031.10848569435,707.767656743878,907.767656743878,368.891514305654,568.891514305654,492.232343256122,0,0,0,0,0,0,6,4,NaN,NaN,vertical,horizontal,vertical,horizontal,none,none
1b,20,100216,3,54,182,18,F,NA,constant,heterogeneous,3,absent,0.87251091003418,1,horizontal,horizontal,1,1.05881875991821,red,2,NaN,1049.42763818712,653.017481158529,NaN,NaN,629.371695378491,789.501930496736,1049.42763818712,653.017481158529,721.200666434388,357.480588344736,0,0,0,0,0,0,3,4,0,NaN,NaN,NaN,vertical,horizontal,vertical,none,none,none
1b,20,100216,3,55,183,18,F,NA,constant,heterogeneous,5,present,0.741169929504395,1,vertical,vertical,1,0.752939586639404,red,2,1,1055,600,878.799333565612,842.519411655264,878.799333565612,842.519411655264,1055,600,878.799333565612,357.480588344736,593.700666434388,450.114760665419,593.700666434388,749.885239334581,0,0,3,4,0,5,0,NaN,vertical,vertical,vertical,vertical,vertical,none
1b,20,100216,3,56,184,18,F,NA,constant,heterogeneous,3,absent,0.658000946044922,1,horizontal,horizontal,1,0.882350006103516,red,2,NaN,1053.60308331891,573.345241866748,NaN,NaN,696.282156015671,832.954091698863,1053.60308331891,573.345241866748,650.114760665419,393.700666434388,0,0,0,0,0,0,5,4,0,NaN,NaN,NaN,horizontal,horizontal,horizontal,none,none,none
1b,20,100216,3,57,185,18,F,NA,constant,heterogeneous,4,absent,0.976593971252441,1,horizontal,horizontal,1,0.658822917938232,red,3,NaN,938.882953928832,386.139005173917,NaN,NaN,661.117046071168,813.860994826083,1013.86099482608,738.882953928832,938.882953928832,386.139005173917,586.139005173917,461.117046071168,0,0,0,0,0,5,4,6,NaN,NaN,vertical,horizontal,horizontal,vertical,none,none
1b,20,100216,3,58,186,18,F,NA,constant,heterogeneous,4,present,0.797322988510132,1,horizontal,horizontal,1,0.647058334350586,red,3,1,977.137884467044,416.568350913644,622.862115532956,783.431649086356,622.862115532956,783.431649086356,983.431649086356,777.137884467044,977.137884467044,416.568350913644,616.568350913644,422.862115532956,0,0,0,0,5,0,4,3,NaN,NaN,vertical,vertical,horizontal,vertical,none,none
1b,20,100216,3,59,187,18,F,NA,constant,heterogeneous,3,present,0.590829849243164,1,vertical,vertical,1,0.670587501525879,red,2,3,953.462830903772,396.34794493794,546.900731331463,568.923317431687,899.636437764765,834.728737630372,953.462830903772,396.34794493794,546.900731331463,568.923317431687,0,0,0,0,0,0,0,4,3,NaN,NaN,NaN,vertical,vertical,horizontal,none,none,none
1b,20,100216,3,60,188,18,F,NA,constant,heterogeneous,3,absent,0.556519985198975,0,vertical,horizontal,1,1.08234792709351,red,3,NaN,596.34794493794,446.537169096228,NaN,NaN,768.923317431687,853.099268668537,1034.72873763037,500.363562235235,596.34794493794,446.537169096228,0,0,0,0,0,0,3,0,4,NaN,NaN,NaN,vertical,vertical,vertical,none,none,none
1b,20,100216,3,61,189,18,F,NA,constant,heterogeneous,4,present,0.618945837020874,1,vertical,vertical,1,0.764704170227051,red,3,4,629.371695378491,410.498069503264,610.498069503264,770.628304621509,970.628304621509,789.501930496736,989.501930496736,429.371695378491,629.371695378491,410.498069503264,610.498069503264,770.628304621509,0,0,0,0,5,6,4,6,NaN,NaN,horizontal,vertical,vertical,horizontal,none,none
1b,20,100216,3,62,190,18,F,NA,constant,heterogeneous,3,present,1.224524974823,0,horizontal,vertical,1,0.658822917938232,red,1,3,874.554784704298,843.857712770574,551.535633479765,542.637481142314,874.554784704298,843.857712770574,973.909581815937,413.504806087112,551.535633479765,542.637481142314,0,0,0,0,0,0,4,6,6,NaN,NaN,NaN,horizontal,vertical,horizontal,none,none,none
1b,20,100216,3,63,191,18,F,NA,constant,heterogeneous,6,absent,1.76970982551575,0,vertical,horizontal,1,0.811762504577637,red,6,NaN,586.139005173917,738.882953928832,NaN,NaN,813.345668841951,854.650531362416,1027.20666366803,715.767577433584,1013.86099482608,461.117046071168,786.654331158049,345.349468637584,572.793336331966,484.232422566416,586.139005173917,738.882953928832,0,5,6,3,5,4,horizontal,vertical,vertical,vertical,horizontal,vertical
1b,20,100216,3,64,192,18,F,NA,constant,heterogeneous,5,present,1.0604259967804,0,vertical,horizontal,1,0.964702091217041,red,3,4,857.362518857686,351.535633479765,581.422338320961,468.665290897936,899.636437764765,834.728737630372,1054.0296480134,577.775285599347,857.362518857686,351.535633479765,581.422338320961,468.665290897936,607.549057043193,767.295052392579,0,0,5,5,4,6,6,NaN,horizontal,vertical,vertical,vertical,vertical,none
1b,20,100216,4,1,193,18,F,NA,constant,heterogeneous,5,absent,1.47076606750488,1,horizontal,horizontal,1,0.764704170227051,red,1,NaN,755.719714694933,851.125977018113,NaN,NaN,755.719714694933,851.125977018113,1025.15163617903,719.715248510402,983.431649086356,422.862115532956,688.215357568785,370.807518193712,547.481642470899,635.489140744817,0,0,4,6,3,5,0,NaN,horizontal,horizontal,vertical,vertical,vertical,none
1b,20,100216,4,2,194,18,F,NA,constant,heterogeneous,3,present,1.05840802192688,0,vertical,horizontal,1,0.705881252288818,red,3,1,545.03883773512,595.549636358493,923.626453162816,823.028025320546,923.626453162816,823.028025320546,931.334709102064,381.422338320961,545.03883773512,595.549636358493,0,0,0,0,0,0,0,3,4,NaN,NaN,NaN,vertical,vertical,vertical,none,none,none
1b,20,100216,4,3,195,18,F,NA,constant,heterogeneous,4,absent,1.06520390510559,0,horizontal,vertical,1,0.858820838928223,red,2,NaN,1042.51941165526,521.200666434388,NaN,NaN,878.799333565612,842.519411655264,1042.51941165526,521.200666434388,721.200666434388,357.480588344736,557.480588344736,678.799333565612,0,0,0,0,5,4,3,0,NaN,NaN,vertical,horizontal,vertical,horizontal,none,none
1b,20,100216,4,4,196,18,F,NA,constant,heterogeneous,6,present,1.22705698013306,0,vertical,horizontal,1,0.623529167175293,red,5,4,653.738008730483,391.116228706307,907.767656743878,368.891514305654,692.232343256122,831.108485694346,946.261991269517,808.883771293693,1054.0296480134,577.775285599347,907.767656743878,368.891514305654,653.738008730483,391.116228706307,545.970351986605,622.224714400653,5,0,5,0,4,6,vertical,horizontal,horizontal,horizontal,vertical,vertical
1b,20,100216,4,5,197,18,F,NA,constant,heterogeneous,5,absent,1.75693106651306,0,horizontal,vertical,1,0.858820838928223,red,3,NaN,1003.65205506206,446.537169096228,NaN,NaN,725.445215295702,843.857712770574,1008.88377129369,746.261991269517,1003.65205506206,446.537169096228,716.980120613425,358.892763222174,545.03883773512,604.450363641507,0,0,0,5,4,6,5,NaN,vertical,vertical,horizontal,vertical,horizontal,none
1b,20,100216,4,6,198,18,F,NA,constant,heterogeneous,3,present,0.87224292755127,1,horizontal,horizontal,1,0.79999792098999,red,1,3,844.280285305067,851.125977018113,560.378381699593,512.784863451954,844.280285305067,851.125977018113,995.341332995339,436.089159529932,560.378381699593,512.784863451954,0,0,0,0,0,0,4,0,5,NaN,NaN,NaN,horizontal,vertical,vertical,none,none,none
1b,20,100216,4,7,199,18,F,NA,constant,heterogeneous,4,present,0.670351028442383,1,horizontal,horizontal,1,0.823527088165283,red,4,2,549.685068220846,648.656293821019,1050.31493177915,551.343706178981,848.656293821019,850.314931779154,1050.31493177915,551.343706178981,751.343706178981,349.685068220846,549.685068220846,648.656293821019,0,0,0,0,0,6,5,4,NaN,NaN,vertical,horizontal,vertical,horizontal,none,none
1b,20,100216,4,8,200,18,F,NA,constant,heterogeneous,5,absent,0.781908988952637,0,vertical,horizontal,1,0.694116668701172,red,5,NaN,581.422338320961,731.334709102064,NaN,NaN,857.362518857686,848.464366520235,1054.0296480134,622.224714400653,899.636437764765,365.271262369628,607.549057043193,432.704947607421,581.422338320961,731.334709102064,0,0,5,6,6,3,4,NaN,horizontal,horizontal,vertical,vertical,vertical,none
1b,20,100216,4,9,201,18,F,NA,constant,heterogeneous,4,present,0.668544054031372,1,vertical,vertical,1,0.941172924041748,red,4,3,548.13947314824,639.890788585259,760.109211414741,348.13947314824,839.890788585259,851.86052685176,1051.86052685176,560.109211414741,760.109211414741,348.13947314824,548.13947314824,639.890788585259,0,0,0,0,6,0,3,4,NaN,NaN,vertical,horizontal,vertical,vertical,none,none
1b,20,100216,4,10,202,18,F,NA,constant,heterogeneous,6,present,0.669386148452759,1,vertical,vertical,1,0.976466674804688,red,1,4,760.109211414741,851.86052685176,839.890788585259,348.13947314824,760.109211414741,851.86052685176,998.172220171528,760.476699717708,1038.06300875679,508.616172865948,839.890788585259,348.13947314824,601.827779828472,439.523300282291,561.936991243214,691.383827134052,4,5,5,3,0,6,vertical,horizontal,horizontal,vertical,vertical,vertical
1b,20,100216,4,11,203,18,F,NA,constant,heterogeneous,5,present,1.03006196022034,1,vertical,vertical,1,0.941172924041748,red,4,3,712.784863451954,360.378381699593,1000.94274216971,443.006323791957,729.712474266665,845.121732464271,1011.40458100154,742.594190385041,1000.94274216971,443.006323791957,712.784863451954,360.378381699593,545.155339110131,608.899371659138,0,0,3,0,0,4,5,NaN,vertical,horizontal,horizontal,vertical,vertical,none
1b,20,100216,4,12,204,18,F,NA,constant,heterogeneous,3,present,1.48757815361023,1,horizontal,horizontal,1,0.635293750762939,red,1,2,992.450942956807,767.295052392579,848.656293821019,349.685068220846,992.450942956807,767.295052392579,848.656293821019,349.685068220846,558.892763222174,683.019879386575,0,0,0,0,0,0,4,3,6,NaN,NaN,NaN,horizontal,vertical,horizontal,none,none,none
1b,20,100216,4,13,205,18,F,NA,constant,heterogeneous,4,present,0.768954038619995,1,horizontal,horizontal,1,0.776468753814697,red,3,1,808.899371659138,345.155339110131,791.100628340862,854.844660889869,791.100628340862,854.844660889869,1054.84466088987,608.899371659138,808.899371659138,345.155339110131,545.155339110131,591.100628340862,0,0,0,0,6,5,4,0,NaN,NaN,vertical,horizontal,horizontal,vertical,none,none
1b,20,100216,4,14,206,18,F,NA,constant,heterogeneous,4,absent,1.11281204223633,0,vertical,horizontal,1,1.02352500915527,red,4,NaN,545.621167183745,582.212099195248,NaN,NaN,782.212099195248,854.378832816255,1054.37883281626,617.787900804752,817.787900804752,345.621167183745,545.621167183745,582.212099195248,0,0,0,0,6,5,3,4,NaN,NaN,vertical,horizontal,horizontal,vertical,none,none
1b,20,100216,4,15,207,18,F,NA,constant,heterogeneous,3,present,1.09888195991516,1,vertical,vertical,1,0.976466674804688,red,3,1,550.57236181288,546.982518841471,878.799333565612,842.519411655264,878.799333565612,842.519411655264,970.628304621509,410.498069503264,550.57236181288,546.982518841471,0,0,0,0,0,0,5,6,4,NaN,NaN,NaN,vertical,vertical,vertical,none,none,none
1b,20,100216,4,16,208,18,F,NA,constant,heterogeneous,4,absent,1.19443011283875,1,horizontal,horizontal,1,0.670587501525879,red,4,NaN,604.658667004661,436.089159529932,NaN,NaN,636.089159529932,795.341332995339,995.341332995339,763.910840470068,963.910840470068,404.658667004661,604.658667004661,436.089159529932,0,0,0,0,5,3,5,4,NaN,NaN,vertical,horizontal,vertical,horizontal,none,none
1b,20,100216,4,17,209,18,F,NA,constant,heterogeneous,6,absent,1.86633014678955,1,vertical,vertical,1,0.79999792098999,red,2,NaN,1053.60308331891,626.654758133252,NaN,NaN,903.717843984329,832.954091698863,1053.60308331891,626.654758133252,949.885239334581,393.700666434388,696.282156015671,367.045908301137,546.39691668109,573.345241866748,650.114760665419,806.299333565612,3,4,3,0,0,6,horizontal,vertical,horizontal,horizontal,horizontal,vertical
1b,20,100216,4,18,210,18,F,NA,constant,heterogeneous,3,absent,0.947787046432495,1,horizontal,horizontal,1,0.99999584197998,red,3,NaN,596.34794493794,446.537169096228,NaN,NaN,768.923317431687,853.099268668537,1034.72873763037,500.363562235235,596.34794493794,446.537169096228,0,0,0,0,0,0,3,6,4,NaN,NaN,NaN,vertical,horizontal,horizontal,none,none,none
1b,20,100216,4,19,211,18,F,NA,constant,heterogeneous,6,absent,NaN,0,vertical,none,0,1.04705417633057,red,4,NaN,684.232422566416,372.793336331966,NaN,NaN,915.767577433584,827.206663668034,1054.65053136242,613.345668841951,938.882953928832,386.139005173917,684.232422566416,372.793336331966,545.349468637584,586.654331158049,661.117046071168,813.860994826083,5,3,3,4,6,6,vertical,vertical,horizontal,vertical,vertical,horizontal
1b,20,100216,4,20,212,18,F,NA,constant,heterogeneous,5,absent,0.910730838775635,1,vertical,vertical,1,0.729410419464111,red,3,NaN,891.383827134052,361.936991243214,NaN,NaN,865.998856501143,846.311085703712,1054.65053136242,613.345668841951,891.383827134052,361.936991243214,601.827779828472,439.523300282291,586.139005173917,738.882953928832,0,0,6,0,4,5,3,NaN,vertical,horizontal,vertical,horizontal,horizontal,none
1b,20,100216,4,21,213,18,F,NA,constant,heterogeneous,6,absent,NaN,0,horizontal,none,0,1.04705417633057,red,3,NaN,1053.60308331891,573.345241866748,NaN,NaN,696.282156015671,832.954091698863,949.885239334581,806.299333565612,1053.60308331891,573.345241866748,903.717843984329,367.045908301137,650.114760665419,393.700666434388,546.39691668109,626.654758133252,6,5,4,6,3,5,horizontal,horizontal,horizontal,horizontal,horizontal,vertical
1b,20,100216,4,22,214,18,F,NA,constant,heterogeneous,6,present,1.92756390571594,1,horizontal,horizontal,1,1.07058334350586,red,4,1,764.510859255183,347.4816424709,835.489140744817,852.518357529101,835.489140744817,852.518357529101,1036.43188291453,695.524681321058,1000.94274216971,443.006323791957,764.510859255183,347.4816424709,563.568117085469,504.475318678942,599.057257830286,756.993676208043,0,3,0,4,3,6,horizontal,horizontal,horizontal,horizontal,vertical,vertical
1b,20,100216,4,23,215,18,F,NA,constant,heterogeneous,4,absent,0.670354843139648,1,vertical,vertical,1,0.79999792098999,red,2,NaN,1039.62161830041,512.784863451954,NaN,NaN,887.215136548046,839.621618300407,1039.62161830041,512.784863451954,712.784863451954,360.378381699593,560.378381699593,687.215136548046,0,0,0,0,5,4,0,6,NaN,NaN,horizontal,vertical,vertical,horizontal,none,none
1b,20,100216,4,24,216,18,F,NA,constant,heterogeneous,5,present,NaN,0,horizontal,none,0,1.02352500915527,red,3,2,1042.51941165526,521.200666434388,949.885239334581,806.299333565612,650.114760665419,806.299333565612,949.885239334581,806.299333565612,1042.51941165526,521.200666434388,800,345,557.480588344736,521.200666434388,0,0,0,0,4,6,3,NaN,vertical,vertical,horizontal,horizontal,vertical,none
1b,20,100216,4,25,217,18,F,NA,constant,heterogeneous,4,present,0.98581600189209,1,horizontal,horizontal,1,0.847056255340576,red,3,1,946.261991269517,391.116228706307,653.738008730483,808.883771293693,653.738008730483,808.883771293693,1008.88377129369,746.261991269517,946.261991269517,391.116228706307,591.116228706307,453.738008730483,0,0,0,0,5,5,4,3,NaN,NaN,vertical,vertical,horizontal,vertical,none,none
1b,20,100216,4,26,218,18,F,NA,constant,heterogeneous,5,absent,1.37542295455933,1,horizontal,horizontal,1,0.894114589691162,red,2,NaN,1003.65205506206,753.462830903772,NaN,NaN,716.980120613425,841.107236777826,1003.65205506206,753.462830903772,1008.88377129369,453.738008730483,725.445215295702,356.142287229426,545.03883773512,595.549636358493,0,0,3,4,5,3,0,NaN,vertical,horizontal,horizontal,vertical,vertical,none
1b,20,100216,4,27,219,18,F,NA,constant,heterogeneous,3,absent,0.911213159561157,1,horizontal,horizontal,1,1.01176042556763,red,2,NaN,989.501930496736,429.371695378491,NaN,NaN,853.017481158529,849.42763818712,989.501930496736,429.371695378491,557.480588344736,521.200666434388,0,0,0,0,0,0,0,4,6,NaN,NaN,NaN,vertical,horizontal,horizontal,none,none,none
1b,20,100216,4,28,220,18,F,NA,constant,heterogeneous,5,absent,0.875250816345215,1,vertical,vertical,1,0.670587501525879,red,3,NaN,899.636437764765,365.271262369628,NaN,NaN,857.362518857686,848.464366520235,1054.0296480134,622.224714400653,899.636437764765,365.271262369628,607.549057043193,432.704947607421,581.422338320961,731.334709102064,0,0,6,0,4,5,5,NaN,vertical,horizontal,vertical,horizontal,horizontal,none
1b,20,100216,4,29,221,18,F,NA,constant,heterogeneous,6,present,1.25361609458923,0,horizontal,vertical,1,0.83529167175293,red,1,6,878.799333565612,842.519411655264,629.371695378491,789.501930496736,878.799333565612,842.519411655264,1049.42763818712,653.017481158529,970.628304621509,410.498069503264,721.200666434388,357.480588344736,550.57236181288,546.982518841471,629.371695378491,789.501930496736,4,3,3,0,6,5,horizontal,vertical,vertical,vertical,vertical,horizontal
1b,20,100216,4,30,222,18,F,NA,constant,heterogeneous,5,present,1.34828400611877,1,horizontal,horizontal,1,0.870585422515869,red,1,3,853.017481158529,849.42763818712,903.717843984329,367.045908301137,853.017481158529,849.42763818712,1053.60308331891,626.654758133252,903.717843984329,367.045908301137,610.498069503264,429.371695378491,579.163522034968,727.5,0,0,4,0,3,3,6,NaN,horizontal,horizontal,horizontal,vertical,horizontal,none
1b,20,100216,4,31,223,18,F,NA,constant,heterogeneous,3,absent,0.846655130386353,0,vertical,horizontal,1,0.764704170227051,red,1,NaN,764.510859255183,852.518357529101,NaN,NaN,764.510859255183,852.518357529101,1036.43188291453,504.475318678942,599.057257830286,443.006323791957,0,0,0,0,0,0,4,0,6,NaN,NaN,NaN,vertical,vertical,vertical,none,none,none
1b,20,100216,4,32,224,18,F,NA,constant,heterogeneous,3,absent,0.755910873413086,1,vertical,vertical,1,0.79999792098999,red,1,NaN,581.422338320961,731.334709102064,NaN,NaN,581.422338320961,731.334709102064,1023.02802532055,723.626453162816,795.549636358493,345.03883773512,0,0,0,0,0,0,4,0,0,NaN,NaN,NaN,vertical,vertical,horizontal,none,none,none
1b,20,100216,4,33,225,18,F,NA,constant,heterogeneous,5,present,1.89429998397827,1,horizontal,horizontal,1,0.752939586639404,red,1,4,942.594190385041,811.404581001536,560.378381699593,512.784863451954,942.594190385041,811.404581001536,1045.12173246427,529.712474266665,808.899371659138,345.155339110131,560.378381699593,512.784863451954,643.006323791957,800.942742169714,0,0,4,6,3,5,0,NaN,horizontal,vertical,vertical,horizontal,horizontal,none
1b,20,100216,4,34,226,18,F,NA,constant,heterogeneous,3,present,0.961634874343872,1,vertical,vertical,1,0.658822917938232,red,3,1,746.982518841471,350.57236181288,610.498069503264,770.628304621509,610.498069503264,770.628304621509,1042.51941165526,678.799333565612,746.982518841471,350.57236181288,0,0,0,0,0,0,0,5,4,NaN,NaN,NaN,horizontal,vertical,vertical,none,none,none
1b,20,100216,4,35,227,18,F,NA,constant,heterogeneous,6,present,0.802626132965088,1,vertical,vertical,1,1.08234792709351,red,4,5,696.282156015671,367.045908301137,546.39691668109,573.345241866748,903.717843984329,832.954091698863,1053.60308331891,626.654758133252,949.885239334581,393.700666434388,696.282156015671,367.045908301137,546.39691668109,573.345241866748,650.114760665419,806.299333565612,6,0,5,4,6,0,vertical,vertical,horizontal,vertical,horizontal,vertical
1b,20,100216,4,36,228,18,F,NA,constant,heterogeneous,6,absent,0.75183892250061,1,horizontal,horizontal,1,1.04705417633057,red,4,NaN,742.637481142314,351.535633479765,NaN,NaN,857.362518857686,848.464366520235,1043.85771277057,674.554784704298,986.495193912888,426.090418184063,742.637481142314,351.535633479765,556.142287229426,525.445215295702,613.504806087112,773.909581815937,3,3,0,4,6,6,horizontal,vertical,horizontal,horizontal,horizontal,vertical
1b,20,100216,4,37,229,18,F,NA,constant,heterogeneous,5,present,0.877042055130005,1,vertical,vertical,1,1.09411251068115,red,2,1,1045.12173246427,670.287525733335,808.899371659138,854.844660889869,808.899371659138,854.844660889869,1045.12173246427,670.287525733335,942.594190385041,388.595418998464,643.006323791957,399.057257830286,560.378381699593,687.215136548046,0,0,6,4,5,5,6,NaN,vertical,vertical,vertical,vertical,horizontal,none
1b,20,100216,4,38,230,18,F,NA,constant,heterogeneous,5,present,1.01853704452515,1,vertical,vertical,1,0.79999792098999,red,1,2,650.114760665419,806.299333565612,949.885239334581,806.299333565612,650.114760665419,806.299333565612,949.885239334581,806.299333565612,1042.51941165526,521.200666434388,800,345,557.480588344736,521.200666434388,0,0,4,6,5,0,5,NaN,vertical,vertical,vertical,horizontal,horizontal,none
1b,20,100216,4,39,231,18,F,NA,constant,heterogeneous,4,present,0.873265981674194,1,vertical,vertical,1,0.705881252288818,red,4,1,619.68777079743,780.31222920257,980.31222920257,780.31222920257,980.31222920257,780.31222920257,980.31222920257,419.68777079743,619.68777079743,419.68777079743,619.68777079743,780.31222920257,0,0,0,0,6,0,3,4,NaN,NaN,horizontal,horizontal,vertical,vertical,none,none
1b,20,100216,4,40,232,18,F,NA,constant,heterogeneous,6,present,0.703443050384521,1,vertical,vertical,1,0.823527088165283,red,1,6,800,855,579.163522034968,727.5,800,855,1020.83647796503,727.5,1020.83647796503,472.5,800,345,579.163522034968,472.5,579.163522034968,727.5,4,3,0,6,3,0,vertical,horizontal,vertical,vertical,horizontal,horizontal
1b,20,100216,4,41,233,18,F,NA,constant,heterogeneous,4,present,0.558095932006836,1,vertical,vertical,1,1.02352500915527,red,1,2,622.862115532956,783.431649086356,983.431649086356,777.137884467044,622.862115532956,783.431649086356,983.431649086356,777.137884467044,977.137884467044,416.568350913644,616.568350913644,422.862115532956,0,0,0,0,4,5,3,0,NaN,NaN,vertical,horizontal,horizontal,vertical,none,none
1b,20,100216,4,42,234,18,F,NA,constant,heterogeneous,6,present,0.699270009994507,1,horizontal,horizontal,1,0.894114589691162,red,3,2,963.910840470068,404.658667004661,1051.12597701811,644.280285305067,887.215136548046,839.621618300407,1051.12597701811,644.280285305067,963.910840470068,404.658667004661,712.784863451954,360.378381699593,548.874022981887,555.719714694933,636.089159529932,795.341332995339,6,5,4,3,6,0,horizontal,vertical,horizontal,vertical,vertical,horizontal
1b,20,100216,4,43,235,18,F,NA,constant,heterogeneous,6,absent,1.082927942276,0,vertical,horizontal,1,0.670587501525879,red,1,NaN,725.445215295702,843.857712770574,NaN,NaN,725.445215295702,843.857712770574,973.909581815937,786.495193912888,1048.46436652023,542.637481142314,874.554784704298,356.142287229426,626.090418184063,413.504806087112,551.535633479765,657.362518857686,4,3,3,5,0,6,vertical,horizontal,vertical,horizontal,vertical,vertical
1b,20,100216,4,44,236,18,F,NA,constant,heterogeneous,3,absent,0.855727910995483,1,horizontal,horizontal,1,0.941172924041748,red,1,NaN,983.431649086356,777.137884467044,NaN,NaN,983.431649086356,777.137884467044,861.690083377915,352.574589799621,554.878267535729,670.287525733335,0,0,0,0,0,0,4,6,5,NaN,NaN,NaN,horizontal,horizontal,vertical,none,none,none
1b,20,100216,4,45,237,18,F,NA,constant,heterogeneous,5,present,1.44900584220886,0,vertical,horizontal,1,0.611764583587647,red,4,5,561.936991243214,508.616172865948,639.523300282292,798.172220171528,938.882953928832,813.860994826083,1046.31108570371,534.001143498857,813.345668841951,345.349468637584,561.936991243214,508.616172865948,639.523300282292,798.172220171528,0,0,5,6,3,4,5,NaN,vertical,horizontal,vertical,vertical,vertical,none
1b,20,100216,4,46,238,18,F,NA,constant,heterogeneous,4,absent,NaN,0,horizontal,none,0,0.764704170227051,red,2,NaN,1046.31108570371,665.998856501143,NaN,NaN,734.001143498857,846.311085703712,1046.31108570371,665.998856501143,865.998856501143,353.688914296288,553.688914296288,534.001143498857,0,0,0,0,3,4,0,6,NaN,NaN,vertical,horizontal,vertical,horizontal,none,none
1b,20,100216,4,47,239,18,F,NA,constant,heterogeneous,3,absent,0.956429004669189,1,vertical,vertical,1,0.929408340454102,red,2,NaN,983.431649086356,422.862115532956,NaN,NaN,861.690083377915,847.425410200379,983.431649086356,422.862115532956,554.878267535729,529.712474266665,0,0,0,0,0,0,3,4,6,NaN,NaN,NaN,vertical,vertical,horizontal,none,none,none
1b,20,100216,4,48,240,18,F,NA,constant,heterogeneous,3,absent,0.680126905441284,1,vertical,vertical,1,0.623529167175293,red,1,NaN,1018.57766167904,731.334709102064,NaN,NaN,1018.57766167904,731.334709102064,804.450363641507,345.03883773512,576.971974679454,723.626453162816,0,0,0,0,0,0,4,5,6,NaN,NaN,NaN,vertical,horizontal,vertical,none,none,none
1b,20,100216,4,49,241,18,F,NA,constant,heterogeneous,6,absent,1.28710198402405,1,horizontal,horizontal,1,0.870585422515869,red,4,NaN,764.510859255183,347.4816424709,NaN,NaN,835.489140744817,852.518357529101,1036.43188291453,695.524681321058,1000.94274216971,443.006323791957,764.510859255183,347.4816424709,563.568117085469,504.475318678942,599.057257830286,756.993676208043,5,5,6,4,0,3,vertical,horizontal,vertical,horizontal,horizontal,vertical
1b,20,100216,4,50,242,18,F,NA,constant,heterogeneous,5,absent,NaN,0,vertical,none,0,0.729410419464111,red,3,NaN,887.215136548046,360.378381699593,NaN,NaN,870.287525733335,845.121732464271,1054.84466088987,608.899371659138,887.215136548046,360.378381699593,599.057257830286,443.006323791957,588.595418998464,742.594190385041,0,0,3,3,4,0,6,NaN,vertical,vertical,vertical,horizontal,vertical,none
1b,20,100216,4,51,243,18,F,NA,constant,heterogeneous,3,present,1.64840984344482,1,horizontal,horizontal,1,0.611764583587647,red,1,3,826.654758133252,853.60308331891,567.045908301137,496.282156015671,826.654758133252,853.60308331891,1006.29933356561,450.114760665419,567.045908301137,496.282156015671,0,0,0,0,0,0,4,3,0,NaN,NaN,NaN,horizontal,vertical,vertical,none,none,none
