experiment,subject,uniqueID,block,trial,trial_cumulative,age,gender,color_cond_blocking,color_history,shape_type,set_size,distractor,rt,acc,target_orient,response_key,response_made,iti,target_color,target_item,distractor_item,target_X,target_Y,distractor_X,distractor_Y,item1_X,item1_Y,item2_X,item2_Y,item3_X,item3_Y,item4_X,item4_Y,item5_X,item5_Y,item6_X,item6_Y,item1_shape,item2_shape,item3_shape,item4_shape,item5_shape,item6_shape,item1_line,item2_line,item3_line,item4_line,item5_line,item6_line
1b,21,100215,1,1,1,27,F,NA,constant,heterogeneous,4,absent,0.970471858978271,1,vertical,vertical,1,0.976468522208078,green,2,NaN,1034.72873763037,500.363562235235,NaN,NaN,899.636437764765,834.728737630372,1034.72873763037,500.363562235235,700.363562235235,365.271262369628,565.271262369628,699.636437764765,0,0,0,0,5,4,0,6,NaN,NaN,vertical,vertical,horizontal,horizontal,none,none
1b,21,100215,1,2,2,27,F,NA,constant,heterogeneous,6,present,1.42617511749268,1,vertical,vertical,1,1.02352708748409,green,2,3,1054.37883281626,617.787900804752,942.594190385041,388.595418998464,911.784642431215,829.192481806288,1054.37883281626,617.787900804752,942.594190385041,388.595418998464,688.215357568785,370.807518193712,545.621167183745,582.212099195248,657.405809614959,811.404581001536,3,4,5,6,6,5,horizontal,vertical,vertical,horizontal,horizontal,horizontal
1b,21,100215,1,3,3,27,F,NA,constant,heterogeneous,3,present,0.916912078857422,1,horizontal,horizontal,1,0.882351391656058,green,1,2,729.712474266665,845.121732464271,1047.42541020038,538.309916622085,729.712474266665,845.121732464271,1047.42541020038,538.309916622085,622.862115532956,416.568350913644,0,0,0,0,0,0,4,0,5,NaN,NaN,NaN,horizontal,vertical,vertical,none,none,none
1b,21,100215,1,4,4,27,F,NA,constant,heterogeneous,4,absent,1.33266711235046,1,horizontal,horizontal,1,0.670587847914014,green,4,NaN,563.568117085469,695.524681321058,NaN,NaN,895.524681321058,836.431882914531,1036.43188291453,504.475318678942,704.475318678942,363.568117085469,563.568117085469,695.524681321058,0,0,0,0,3,5,0,4,NaN,NaN,vertical,horizontal,vertical,horizontal,none,none
1b,21,100215,1,5,5,27,F,NA,constant,heterogeneous,3,present,1.07055306434631,1,horizontal,horizontal,1,0.752940337147031,green,1,2,596.34794493794,753.462830903772,1034.72873763037,699.636437764765,596.34794493794,753.462830903772,1034.72873763037,699.636437764765,768.923317431687,346.900731331463,0,0,0,0,0,0,4,0,5,NaN,NaN,NaN,horizontal,horizontal,vertical,none,none,none
1b,21,100215,1,6,6,27,F,NA,constant,heterogeneous,4,present,0.768031120300293,1,vertical,vertical,1,1.01176244616508,green,3,2,915.767577433584,372.793336331966,1027.20666366803,715.767577433584,684.232422566416,827.206663668034,1027.20666366803,715.767577433584,915.767577433584,372.793336331966,572.793336331966,484.232422566416,0,0,0,0,0,5,4,5,NaN,NaN,vertical,vertical,vertical,horizontal,none,none
1b,21,100215,1,7,7,27,F,NA,constant,heterogeneous,6,present,NaN,0,horizontal,none,0,0.799998902423041,green,6,4,579.163522034968,727.5,800,345,800,855,1020.83647796503,727.5,1020.83647796503,472.5,800,345,579.163522034968,472.5,579.163522034968,727.5,0,6,5,0,3,4,horizontal,vertical,vertical,horizontal,horizontal,horizontal
1b,21,100215,1,8,8,27,F,NA,constant,heterogeneous,5,absent,1.64368987083435,1,horizontal,horizontal,1,0.976468522208078,green,5,NaN,616.568350913644,777.137884467044,NaN,NaN,911.784642431215,829.192481806288,1052.5183575291,564.510859255183,844.280285305067,348.874022981887,574.848363820974,480.284751489598,616.568350913644,777.137884467044,0,0,6,0,3,0,4,NaN,horizontal,horizontal,horizontal,vertical,horizontal,none
1b,21,100215,1,9,9,27,F,NA,constant,heterogeneous,3,absent,0.868415117263794,1,vertical,vertical,1,0.976468522208078,green,2,NaN,931.334709102064,381.422338320961,NaN,NaN,923.626453162816,823.028025320546,931.334709102064,381.422338320961,545.03883773512,595.549636358493,0,0,0,0,0,0,0,4,0,NaN,NaN,NaN,vertical,vertical,vertical,none,none,none
1b,21,100215,1,10,10,27,F,NA,constant,heterogeneous,4,present,1.20104002952576,1,vertical,vertical,1,0.964703880889075,green,2,3,1054.96116226488,595.549636358493,795.549636358493,345.03883773512,804.450363641507,854.96116226488,1054.96116226488,595.549636358493,795.549636358493,345.03883773512,545.03883773512,604.450363641507,0,0,0,0,3,4,5,0,NaN,NaN,vertical,vertical,horizontal,horizontal,none,none
1b,21,100215,1,11,11,27,F,NA,constant,heterogeneous,4,present,1.29485511779785,1,horizontal,horizontal,1,0.870586750337056,green,1,2,903.717843984329,832.954091698863,1032.95409169886,496.282156015671,903.717843984329,832.954091698863,1032.95409169886,496.282156015671,696.282156015671,367.045908301137,567.045908301137,703.717843984329,0,0,0,0,4,6,0,6,NaN,NaN,horizontal,vertical,vertical,horizontal,none,none
1b,21,100215,1,12,12,27,F,NA,constant,heterogeneous,3,present,0.976830959320068,0,horizontal,vertical,1,0.788234261104039,green,2,1,935.129412379467,383.747735480111,919.715248510402,825.151636179026,919.715248510402,825.151636179026,935.129412379467,383.747735480111,545.155339110131,591.100628340862,0,0,0,0,0,0,5,4,0,NaN,NaN,NaN,horizontal,horizontal,horizontal,none,none,none
1b,21,100215,1,13,13,27,F,NA,constant,heterogeneous,5,absent,1.38669800758362,1,vertical,vertical,1,0.905880674294063,green,2,NaN,992.450942956807,767.295052392579,NaN,NaN,700.363562235235,834.728737630372,992.450942956807,767.295052392579,1018.57766167904,468.665290897936,742.637481142314,351.535633479765,545.970351986605,577.775285599347,0,0,5,4,3,6,5,NaN,horizontal,vertical,vertical,horizontal,vertical,none
1b,21,100215,1,14,14,27,F,NA,constant,heterogeneous,5,absent,1.07750296592712,0,vertical,horizontal,1,0.752940337147031,green,5,NaN,596.34794493794,753.462830903772,NaN,NaN,883.019879386575,841.107236777826,1054.96116226488,595.549636358493,874.554784704298,356.142287229426,591.116228706307,453.738008730483,596.34794493794,753.462830903772,0,0,6,0,6,5,4,NaN,horizontal,horizontal,horizontal,horizontal,vertical,none
1b,21,100215,1,15,15,27,F,NA,constant,heterogeneous,5,absent,1.13584089279175,1,horizontal,horizontal,1,0.835292826380049,green,1,NaN,688.215357568785,829.192481806288,NaN,NaN,688.215357568785,829.192481806288,983.431649086356,777.137884467044,1025.15163617903,480.284751489598,755.719714694933,348.874022981887,547.481642470899,564.510859255183,0,0,4,5,0,3,6,NaN,horizontal,vertical,horizontal,horizontal,vertical,none
1b,21,100215,1,16,16,27,F,NA,constant,heterogeneous,4,present,1.49263405799866,1,horizontal,horizontal,1,0.694117130552019,green,4,3,572.793336331966,484.232422566416,915.767577433584,372.793336331966,684.232422566416,827.206663668034,1027.20666366803,715.767577433584,915.767577433584,372.793336331966,572.793336331966,484.232422566416,0,0,0,0,0,3,6,4,NaN,NaN,vertical,horizontal,vertical,horizontal,none,none
1b,21,100215,1,17,17,27,F,NA,constant,heterogeneous,5,absent,1.7407329082489,1,vertical,vertical,1,0.894116032975061,green,3,NaN,946.261991269517,391.116228706307,NaN,NaN,804.450363641507,854.96116226488,1043.85771277057,674.554784704298,946.261991269517,391.116228706307,646.537169096228,396.34794493794,558.892763222174,683.019879386575,0,0,0,6,4,6,3,NaN,vertical,horizontal,vertical,horizontal,vertical,none
1b,21,100215,1,18,18,27,F,NA,constant,heterogeneous,5,present,1.58075094223022,1,horizontal,horizontal,1,1.04705637012209,green,2,4,1042.51941165526,521.200666434388,557.480588344736,521.200666434388,949.885239334581,806.299333565612,1042.51941165526,521.200666434388,800,345,557.480588344736,521.200666434388,650.114760665419,806.299333565612,0,0,5,4,6,0,3,NaN,vertical,horizontal,vertical,vertical,horizontal,none
1b,21,100215,1,19,19,27,F,NA,constant,heterogeneous,6,absent,1.92290186882019,1,vertical,vertical,1,0.717646413190024,green,2,NaN,986.495193912888,773.909581815937,NaN,NaN,742.637481142314,848.464366520235,986.495193912888,773.909581815937,1043.85771277057,525.445215295702,857.362518857686,351.535633479765,613.504806087112,426.090418184063,556.142287229426,674.554784704298,0,4,6,3,5,3,vertical,vertical,horizontal,vertical,horizontal,vertical
1b,21,100215,1,20,20,27,F,NA,constant,heterogeneous,4,absent,1.52197909355164,1,horizontal,horizontal,1,0.623529282638005,green,4,NaN,607.549057043193,767.295052392579,NaN,NaN,967.295052392579,792.450942956807,992.450942956807,432.704947607421,632.704947607421,407.549057043193,607.549057043193,767.295052392579,0,0,0,0,0,0,5,4,NaN,NaN,vertical,horizontal,horizontal,horizontal,none,none
1b,21,100215,1,21,21,27,F,NA,constant,heterogeneous,5,present,1.70788812637329,1,horizontal,horizontal,1,0.964703880889075,green,2,4,1050.31493177915,648.656293821019,626.090418184063,413.504806087112,831.076682568313,853.099268668537,1050.31493177915,648.656293821019,923.626453162816,376.971974679454,626.090418184063,413.504806087112,568.891514305654,707.767656743878,0,0,3,4,5,5,3,NaN,horizontal,horizontal,horizontal,vertical,horizontal,none
1b,21,100215,1,22,22,27,F,NA,constant,heterogeneous,3,absent,1.21457099914551,1,vertical,vertical,1,1.02352708748409,green,2,NaN,1023.02802532055,723.626453162816,NaN,NaN,581.422338320961,731.334709102064,1023.02802532055,723.626453162816,795.549636358493,345.03883773512,0,0,0,0,0,0,0,4,3,NaN,NaN,NaN,horizontal,vertical,vertical,none,none,none
1b,21,100215,1,23,23,27,F,NA,constant,heterogeneous,4,present,1.12635111808777,1,horizontal,horizontal,1,0.752940337147031,green,4,3,545.970351986605,622.224714400653,777.775285599347,345.970351986605,822.224714400653,854.029648013395,1054.0296480134,577.775285599347,777.775285599347,345.970351986605,545.970351986605,622.224714400653,0,0,0,0,5,5,6,4,NaN,NaN,vertical,vertical,vertical,horizontal,none,none
1b,21,100215,1,24,24,27,F,NA,constant,heterogeneous,3,present,1.00490689277649,1,vertical,vertical,1,0.799998902423041,green,2,1,1054.84466088987,591.100628340862,680.284751489598,825.151636179026,680.284751489598,825.151636179026,1054.84466088987,591.100628340862,664.870587620533,383.747735480111,0,0,0,0,0,0,0,4,6,NaN,NaN,NaN,horizontal,vertical,horizontal,none,none,none
1b,21,100215,1,25,25,27,F,NA,constant,heterogeneous,4,present,1.21015691757202,1,vertical,vertical,1,0.64705856527601,green,1,2,643.006323791957,800.942742169714,1000.94274216971,756.993676208043,643.006323791957,800.942742169714,1000.94274216971,756.993676208043,956.993676208043,399.057257830286,599.057257830286,443.006323791957,0,0,0,0,4,5,3,6,NaN,NaN,vertical,horizontal,vertical,horizontal,none,none
1b,21,100215,1,26,26,27,F,NA,constant,heterogeneous,4,absent,1.34431886672974,1,vertical,vertical,1,1.0941149353981,green,3,NaN,646.537169096228,396.34794493794,NaN,NaN,953.462830903772,803.65205506206,1003.65205506206,446.537169096228,646.537169096228,396.34794493794,596.34794493794,753.462830903772,0,0,0,0,6,3,4,5,NaN,NaN,horizontal,vertical,vertical,horizontal,none,none
1b,21,100215,1,27,27,27,F,NA,constant,heterogeneous,3,present,1.32515692710876,1,vertical,vertical,1,1.0823502940791,green,2,1,887.215136548046,360.378381699593,963.910840470068,795.341332995339,963.910840470068,795.341332995339,887.215136548046,360.378381699593,548.874022981887,644.280285305067,0,0,0,0,0,0,5,4,3,NaN,NaN,NaN,horizontal,vertical,vertical,none,none,none
1b,21,100215,1,28,28,27,F,NA,constant,heterogeneous,3,absent,0.787317037582397,1,vertical,vertical,1,0.776469619785036,green,3,NaN,684.232422566416,372.793336331966,NaN,NaN,661.117046071168,813.860994826083,1054.65053136242,613.345668841951,684.232422566416,372.793336331966,0,0,0,0,0,0,6,5,4,NaN,NaN,NaN,horizontal,vertical,vertical,none,none,none
1b,21,100215,1,29,29,27,F,NA,constant,heterogeneous,5,present,1.77633810043335,1,vertical,vertical,1,1.05882101144109,green,3,1,874.554784704298,356.142287229426,883.019879386575,841.107236777826,883.019879386575,841.107236777826,1054.96116226488,595.549636358493,874.554784704298,356.142287229426,591.116228706307,453.738008730483,596.34794493794,753.462830903772,0,0,6,5,4,3,3,NaN,horizontal,vertical,vertical,vertical,vertical,none
1b,21,100215,1,30,30,27,F,NA,constant,heterogeneous,3,present,NaN,0,horizontal,none,0,0.870586750337056,green,2,1,1003.65205506206,446.537169096228,831.076682568313,853.099268668537,831.076682568313,853.099268668537,1003.65205506206,446.537169096228,565.271262369628,500.363562235235,0,0,0,0,0,0,3,4,5,NaN,NaN,NaN,horizontal,horizontal,horizontal,none,none,none
1b,21,100215,1,31,31,27,F,NA,constant,heterogeneous,3,absent,1.09053111076355,1,horizontal,horizontal,1,0.623529282638005,green,1,NaN,899.636437764765,834.728737630372,NaN,NaN,899.636437764765,834.728737630372,953.462830903772,396.34794493794,546.900731331463,568.923317431687,0,0,0,0,0,0,4,0,3,NaN,NaN,NaN,horizontal,horizontal,horizontal,none,none,none
1b,21,100215,1,32,32,27,F,NA,constant,heterogeneous,6,present,1.30870008468628,1,horizontal,horizontal,1,0.823528185061046,green,4,5,857.362518857686,351.535633479765,613.504806087112,426.090418184063,742.637481142314,848.464366520235,986.495193912888,773.909581815937,1043.85771277057,525.445215295702,857.362518857686,351.535633479765,613.504806087112,426.090418184063,556.142287229426,674.554784704298,0,6,5,4,5,0,horizontal,horizontal,horizontal,horizontal,horizontal,horizontal
1b,21,100215,1,33,33,27,F,NA,constant,heterogeneous,6,absent,1.07228684425354,1,horizontal,horizontal,1,1.0705856527601,green,2,NaN,1042.51941165526,678.799333565612,NaN,NaN,853.017481158529,849.42763818712,1042.51941165526,678.799333565612,989.501930496736,429.371695378491,746.982518841471,350.57236181288,557.480588344736,521.200666434388,610.498069503264,770.628304621509,3,4,6,5,0,6,horizontal,horizontal,horizontal,horizontal,horizontal,vertical
1b,21,100215,1,34,34,27,F,NA,constant,heterogeneous,6,present,1.63989806175232,1,vertical,vertical,1,1.0941149353981,green,1,5,692.232343256122,831.108485694346,653.738008730483,391.116228706307,692.232343256122,831.108485694346,946.261991269517,808.883771293693,1054.0296480134,577.775285599347,907.767656743878,368.891514305654,653.738008730483,391.116228706307,545.970351986605,622.224714400653,4,3,0,3,5,6,vertical,horizontal,horizontal,horizontal,horizontal,vertical
1b,21,100215,1,35,35,27,F,NA,constant,heterogeneous,3,absent,1.02984499931335,1,horizontal,horizontal,1,1.03529172880309,green,1,NaN,817.787900804752,854.378832816255,NaN,NaN,817.787900804752,854.378832816255,1011.40458100154,457.40580961496,570.807518193712,488.215357568785,0,0,0,0,0,0,4,5,6,NaN,NaN,NaN,horizontal,vertical,vertical,none,none,none
1b,21,100215,1,36,36,27,F,NA,constant,heterogeneous,6,present,1.56569695472717,1,vertical,vertical,1,0.764704978466034,green,2,6,949.885239334581,806.299333565612,546.39691668109,626.654758133252,696.282156015671,832.954091698863,949.885239334581,806.299333565612,1053.60308331891,573.345241866748,903.717843984329,367.045908301137,650.114760665419,393.700666434388,546.39691668109,626.654758133252,3,4,5,0,3,6,vertical,vertical,vertical,horizontal,vertical,vertical
1b,21,100215,1,37,37,27,F,NA,constant,heterogeneous,5,present,1.15647602081299,1,vertical,vertical,1,0.752940337147031,green,5,4,593.700666434388,749.885239334581,593.700666434388,450.114760665419,878.799333565612,842.519411655264,1055,600,878.799333565612,357.480588344736,593.700666434388,450.114760665419,593.700666434388,749.885239334581,0,0,0,3,6,0,4,NaN,vertical,horizontal,horizontal,vertical,vertical,none
1b,21,100215,1,38,38,27,F,NA,constant,heterogeneous,5,present,0.928832054138184,1,horizontal,horizontal,1,1.04705637012209,green,1,4,755.719714694933,851.125977018113,688.215357568785,370.807518193712,755.719714694933,851.125977018113,1025.15163617903,719.715248510402,983.431649086356,422.862115532956,688.215357568785,370.807518193712,547.481642470899,635.489140744817,0,0,4,0,6,6,5,NaN,horizontal,vertical,vertical,vertical,vertical,none
1b,21,100215,1,39,39,27,F,NA,constant,heterogeneous,5,present,0.909097909927368,1,horizontal,horizontal,1,0.670587847914014,green,4,5,579.163522034968,472.5,610.498069503264,770.628304621509,903.717843984329,832.954091698863,1053.60308331891,573.345241866748,853.017481158529,350.57236181288,579.163522034968,472.5,610.498069503264,770.628304621509,0,0,6,5,6,4,0,NaN,horizontal,horizontal,vertical,horizontal,vertical,none
1b,21,100215,1,40,40,27,F,NA,constant,heterogeneous,3,present,1.08118915557861,1,vertical,vertical,1,0.894116032975061,green,2,1,1032.95409169886,703.717843984329,593.700666434388,749.885239334581,593.700666434388,749.885239334581,1032.95409169886,703.717843984329,773.345241866748,346.39691668109,0,0,0,0,0,0,5,4,5,NaN,NaN,NaN,vertical,vertical,horizontal,none,none,none
1b,21,100215,1,41,41,27,F,NA,constant,heterogeneous,5,present,1.2836651802063,1,vertical,vertical,1,0.623529282638005,green,4,1,721.200666434388,357.480588344736,721.200666434388,842.519411655264,721.200666434388,842.519411655264,1006.29933356561,749.885239334581,1006.29933356561,450.114760665419,721.200666434388,357.480588344736,545,600,0,0,6,0,6,4,3,NaN,horizontal,horizontal,vertical,vertical,vertical,none
1b,21,100215,1,42,42,27,F,NA,constant,heterogeneous,6,absent,1.88709592819214,1,vertical,vertical,1,1.0705856527601,green,2,NaN,953.462830903772,803.65205506206,NaN,NaN,700.363562235235,834.728737630372,953.462830903772,803.65205506206,1053.09926866854,568.923317431687,899.636437764765,365.271262369628,646.537169096228,396.34794493794,546.900731331463,631.076682568313,0,4,5,6,5,0,horizontal,vertical,vertical,horizontal,vertical,horizontal
1b,21,100215,1,43,43,27,F,NA,constant,heterogeneous,3,absent,1.06497097015381,1,vertical,vertical,1,0.6,green,1,NaN,604.658667004661,763.910840470068,NaN,NaN,604.658667004661,763.910840470068,1039.62161830041,687.215136548046,755.719714694933,348.874022981887,0,0,0,0,0,0,4,0,3,NaN,NaN,NaN,vertical,horizontal,horizontal,none,none,none
1b,21,100215,1,44,44,27,F,NA,constant,heterogeneous,4,absent,1.06031394004822,1,vertical,vertical,1,0.894116032975061,green,2,NaN,1047.42541020038,538.309916622085,NaN,NaN,861.690083377915,847.425410200379,1047.42541020038,538.309916622085,738.309916622085,352.574589799621,552.574589799621,661.690083377915,0,0,0,0,6,4,5,3,NaN,NaN,vertical,vertical,horizontal,horizontal,none,none
1b,21,100215,1,45,45,27,F,NA,constant,heterogeneous,3,present,1.55309295654297,1,vertical,vertical,1,0.964703880889075,green,3,2,546.39691668109,573.345241866748,949.885239334581,393.700666434388,903.717843984329,832.954091698863,949.885239334581,393.700666434388,546.39691668109,573.345241866748,0,0,0,0,0,0,3,5,4,NaN,NaN,NaN,horizontal,vertical,vertical,none,none,none
1b,21,100215,1,46,46,27,F,NA,constant,heterogeneous,6,present,NaN,0,vertical,none,0,0.823528185061046,green,1,4,692.232343256122,831.108485694346,907.767656743878,368.891514305654,692.232343256122,831.108485694346,946.261991269517,808.883771293693,1054.0296480134,577.775285599347,907.767656743878,368.891514305654,653.738008730483,391.116228706307,545.970351986605,622.224714400653,4,6,5,0,3,5,vertical,vertical,vertical,horizontal,horizontal,horizontal
1b,21,100215,1,47,47,27,F,NA,constant,heterogeneous,3,absent,1.23736500740051,0,horizontal,vertical,1,0.611764641319002,green,3,NaN,556.142287229426,674.554784704298,NaN,NaN,986.495193912888,773.909581815937,857.362518857686,351.535633479765,556.142287229426,674.554784704298,0,0,0,0,0,0,6,3,4,NaN,NaN,NaN,vertical,horizontal,horizontal,none,none,none
1b,21,100215,1,48,48,27,F,NA,constant,heterogeneous,5,absent,1.68054485321045,1,vertical,vertical,1,0.917645315613066,green,5,NaN,646.537169096228,803.65205506206,NaN,NaN,946.261991269517,808.883771293693,1043.85771277057,525.445215295702,804.450363641507,345.03883773512,558.892763222174,516.980120613425,646.537169096228,803.65205506206,0,0,5,5,0,3,4,NaN,vertical,vertical,horizontal,horizontal,vertical,none
1b,21,100215,1,49,49,27,F,NA,constant,heterogeneous,4,absent,1.2388608455658,1,horizontal,horizontal,1,0.623529282638005,green,2,NaN,1034.72873763037,699.636437764765,NaN,NaN,700.363562235235,834.728737630372,1034.72873763037,699.636437764765,899.636437764765,365.271262369628,565.271262369628,500.363562235235,0,0,0,0,0,4,5,3,NaN,NaN,vertical,horizontal,vertical,horizontal,none,none
1b,21,100215,1,50,50,27,F,NA,constant,heterogeneous,6,absent,1.53585696220398,1,horizontal,horizontal,1,0.999997804846082,green,6,NaN,626.090418184063,786.495193912888,NaN,NaN,874.554784704298,843.857712770574,1048.46436652023,657.362518857686,973.909581815937,413.504806087112,725.445215295702,356.142287229426,551.535633479765,542.637481142314,626.090418184063,786.495193912888,3,5,6,0,3,4,vertical,vertical,horizontal,horizontal,horizontal,horizontal
1b,21,100215,1,51,51,27,F,NA,constant,heterogeneous,3,absent,0.93927001953125,0,horizontal,vertical,1,0.623529282638005,green,3,NaN,708.616172865948,361.936991243214,NaN,NaN,639.523300282292,798.172220171528,1051.86052685176,639.890788585259,708.616172865948,361.936991243214,0,0,0,0,0,0,3,6,4,NaN,NaN,NaN,vertical,vertical,horizontal,none,none,none
1b,21,100215,1,52,52,27,F,NA,constant,heterogeneous,4,absent,1.24591493606567,1,vertical,vertical,1,0.799998902423041,green,2,NaN,1018.57766167904,731.334709102064,NaN,NaN,668.665290897936,818.577661679039,1018.57766167904,731.334709102064,931.334709102064,381.422338320961,581.422338320961,468.665290897936,0,0,0,0,6,4,5,3,NaN,NaN,horizontal,vertical,horizontal,horizontal,none,none
1b,21,100215,1,53,53,27,F,NA,constant,heterogeneous,4,present,1.48708200454712,1,horizontal,horizontal,1,0.98823316352708,green,3,1,822.224714400653,345.970351986605,777.775285599347,854.029648013395,777.775285599347,854.029648013395,1054.0296480134,622.224714400653,822.224714400653,345.970351986605,545.970351986605,577.775285599347,0,0,0,0,6,3,4,0,NaN,NaN,horizontal,vertical,horizontal,horizontal,none,none
1b,21,100215,1,54,54,27,F,NA,constant,heterogeneous,4,absent,1.03060388565063,1,horizontal,horizontal,1,0.682352489233017,green,4,NaN,610.498069503264,770.628304621509,NaN,NaN,970.628304621509,789.501930496736,989.501930496736,429.371695378491,629.371695378491,410.498069503264,610.498069503264,770.628304621509,0,0,0,0,0,5,5,4,NaN,NaN,vertical,horizontal,horizontal,horizontal,none,none
1b,21,100215,1,55,55,27,F,NA,constant,heterogeneous,5,absent,1.57012414932251,1,horizontal,horizontal,1,0.729411054509027,green,3,NaN,865.998856501143,353.688914296288,NaN,NaN,891.383827134052,838.063008756786,1054.65053136242,586.654331158049,865.998856501143,353.688914296288,586.139005173917,461.117046071168,601.827779828472,760.476699717708,0,0,5,6,4,5,0,NaN,vertical,vertical,horizontal,vertical,vertical,none
1b,21,100215,1,56,56,27,F,NA,constant,heterogeneous,6,absent,1.40110301971436,1,vertical,vertical,1,0.776469619785036,green,2,NaN,1008.88377129369,746.261991269517,NaN,NaN,777.775285599347,854.029648013395,1008.88377129369,746.261991269517,1031.10848569435,492.232343256122,822.224714400653,345.970351986605,591.116228706307,453.738008730483,568.891514305654,707.767656743878,0,4,3,6,3,5,vertical,vertical,horizontal,horizontal,horizontal,horizontal
1b,21,100215,1,57,57,27,F,NA,constant,heterogeneous,6,absent,1.572350025177,1,vertical,vertical,1,0.952939239570073,green,4,NaN,891.383827134052,361.936991243214,NaN,NaN,708.616172865948,838.063008756786,960.476699717708,798.172220171528,1051.86052685176,560.109211414741,891.383827134052,361.936991243214,639.523300282292,401.827779828472,548.13947314824,639.890788585259,5,3,6,4,0,0,horizontal,vertical,horizontal,vertical,horizontal,vertical
1b,21,100215,1,58,58,27,F,NA,constant,heterogeneous,4,present,1.57653594017029,1,vertical,vertical,1,0.835292826380049,green,2,1,1020.83647796503,727.5,672.5,820.836477965032,672.5,820.836477965032,1020.83647796503,727.5,927.5,379.163522034968,579.163522034968,472.5,0,0,0,0,0,4,5,5,NaN,NaN,horizontal,vertical,vertical,horizontal,none,none
1b,21,100215,1,59,59,27,F,NA,constant,heterogeneous,5,present,1.66242480278015,1,vertical,vertical,1,1.0941149353981,green,5,3,545.970351986605,577.775285599347,1018.57766167904,468.665290897936,700.363562235235,834.728737630372,992.450942956807,767.295052392579,1018.57766167904,468.665290897936,742.637481142314,351.535633479765,545.970351986605,577.775285599347,0,0,6,5,5,3,4,NaN,horizontal,horizontal,horizontal,horizontal,vertical,none
1b,21,100215,1,60,60,27,F,NA,constant,heterogeneous,5,absent,1.35736489295959,1,horizontal,horizontal,1,1.0823502940791,green,4,NaN,734.001143498857,353.688914296288,NaN,NaN,708.616172865948,838.063008756786,998.172220171528,760.476699717708,1013.86099482608,461.117046071168,734.001143498857,353.688914296288,545.349468637584,586.654331158049,0,0,6,3,0,4,6,NaN,horizontal,vertical,horizontal,horizontal,vertical,none
1b,21,100215,1,61,61,27,F,NA,constant,heterogeneous,6,absent,1.33162903785706,1,horizontal,horizontal,1,0.741175695828029,green,2,NaN,935.129412379467,816.252264519889,NaN,NaN,680.284751489598,825.151636179026,935.129412379467,816.252264519889,1054.84466088987,591.100628340862,919.715248510402,374.848363820974,664.870587620533,383.747735480111,545.155339110131,608.899371659138,3,4,3,5,6,0,vertical,horizontal,vertical,horizontal,vertical,vertical
1b,21,100215,1,62,62,27,F,NA,constant,heterogeneous,6,present,0.793761968612671,1,horizontal,horizontal,1,0.964703880889075,green,5,6,556.142287229426,525.445215295702,613.504806087112,773.909581815937,857.362518857686,848.464366520235,1043.85771277057,674.554784704298,986.495193912888,426.090418184063,742.637481142314,351.535633479765,556.142287229426,525.445215295702,613.504806087112,773.909581815937,3,6,6,0,4,5,horizontal,horizontal,vertical,vertical,horizontal,horizontal
1b,21,100215,1,63,63,27,F,NA,constant,heterogeneous,6,absent,0.781781196594238,1,horizontal,horizontal,1,1.01176244616508,green,5,NaN,579.163522034968,472.5,NaN,NaN,800,855,1020.83647796503,727.5,1020.83647796503,472.5,800,345,579.163522034968,472.5,579.163522034968,727.5,3,3,6,0,4,5,vertical,horizontal,vertical,horizontal,horizontal,horizontal
1b,21,100215,1,64,64,27,F,NA,constant,heterogeneous,6,present,1.25871086120605,1,horizontal,horizontal,1,0.847057467699051,green,1,3,923.626453162816,823.028025320546,931.334709102064,381.422338320961,923.626453162816,823.028025320546,1054.96116226488,604.450363641507,931.334709102064,381.422338320961,676.373546837184,376.971974679454,545.03883773512,595.549636358493,668.665290897936,818.577661679039,4,5,0,6,6,3,horizontal,vertical,vertical,vertical,vertical,vertical
1b,21,100215,2,1,65,27,F,NA,constant,heterogeneous,4,absent,1.15453290939331,1,vertical,vertical,1,0.894116032975061,green,4,NaN,550.57236181288,546.982518841471,NaN,NaN,746.982518841471,849.42763818712,1049.42763818712,653.017481158529,853.017481158529,350.57236181288,550.57236181288,546.982518841471,0,0,0,0,6,0,3,4,NaN,NaN,horizontal,horizontal,vertical,vertical,none,none
1b,21,100215,2,2,66,27,F,NA,constant,heterogeneous,5,absent,0.871237993240356,1,vertical,vertical,1,0.670587847914014,green,3,NaN,817.787900804752,345.621167183745,NaN,NaN,935.129412379467,816.252264519889,1047.42541020038,538.309916622085,817.787900804752,345.621167183745,563.568117085469,504.475318678942,636.089159529932,795.341332995339,0,0,0,5,4,3,0,NaN,horizontal,vertical,vertical,horizontal,vertical,none
1b,21,100215,2,3,67,27,F,NA,constant,heterogeneous,4,present,0.868710994720459,1,horizontal,horizontal,1,0.999997804846082,green,2,3,1036.43188291453,695.524681321058,895.524681321058,363.568117085469,704.475318678942,836.431882914531,1036.43188291453,695.524681321058,895.524681321058,363.568117085469,563.568117085469,504.475318678942,0,0,0,0,5,4,3,5,NaN,NaN,horizontal,horizontal,vertical,horizontal,none,none
1b,21,100215,2,4,68,27,F,NA,constant,heterogeneous,6,absent,0.879261016845703,1,horizontal,horizontal,1,0.64705856527601,green,3,NaN,942.594190385041,388.595418998464,NaN,NaN,911.784642431215,829.192481806288,1054.37883281626,617.787900804752,942.594190385041,388.595418998464,688.215357568785,370.807518193712,545.621167183745,582.212099195248,657.405809614959,811.404581001536,0,6,4,5,0,5,vertical,vertical,horizontal,horizontal,vertical,horizontal
1b,21,100215,2,5,69,27,F,NA,constant,heterogeneous,4,absent,0.972012996673584,1,vertical,vertical,1,0.952939239570073,green,1,NaN,919.715248510402,825.151636179026,NaN,NaN,919.715248510402,825.151636179026,1025.15163617903,480.284751489598,680.284751489598,374.848363820974,574.848363820974,719.715248510402,0,0,0,0,4,0,3,5,NaN,NaN,vertical,vertical,vertical,vertical,none,none
1b,21,100215,2,6,70,27,F,NA,constant,heterogeneous,3,absent,0.844663143157959,1,horizontal,horizontal,1,0.64705856527601,green,3,NaN,700.363562235235,365.271262369628,NaN,NaN,646.537169096228,803.65205506206,1053.09926866854,631.076682568313,700.363562235235,365.271262369628,0,0,0,0,0,0,3,6,4,NaN,NaN,NaN,vertical,vertical,horizontal,none,none,none
1b,21,100215,2,7,71,27,F,NA,constant,heterogeneous,6,present,1.0652871131897,1,vertical,vertical,1,0.788234261104039,green,6,1,568.891514305654,707.767656743878,777.775285599347,854.029648013395,777.775285599347,854.029648013395,1008.88377129369,746.261991269517,1031.10848569435,492.232343256122,822.224714400653,345.970351986605,591.116228706307,453.738008730483,568.891514305654,707.767656743878,5,0,6,0,3,4,vertical,horizontal,vertical,vertical,vertical,vertical
1b,21,100215,2,8,72,27,F,NA,constant,heterogeneous,5,present,1.07991099357605,1,horizontal,horizontal,1,0.858822109018053,green,1,3,883.019879386575,841.107236777826,874.554784704298,356.142287229426,883.019879386575,841.107236777826,1054.96116226488,595.549636358493,874.554784704298,356.142287229426,591.116228706307,453.738008730483,596.34794493794,753.462830903772,0,0,4,6,5,0,6,NaN,horizontal,horizontal,horizontal,horizontal,vertical,none
1b,21,100215,2,9,73,27,F,NA,constant,heterogeneous,4,absent,0.729987144470215,1,horizontal,horizontal,1,0.811763543742044,green,4,NaN,572.793336331966,715.767577433584,NaN,NaN,915.767577433584,827.206663668034,1027.20666366803,484.232422566416,684.232422566416,372.793336331966,572.793336331966,715.767577433584,0,0,0,0,6,0,6,4,NaN,NaN,horizontal,vertical,horizontal,horizontal,none,none
1b,21,100215,2,10,74,27,F,NA,constant,heterogeneous,5,absent,1.082444190979,1,vertical,vertical,1,0.905880674294063,green,5,NaN,629.371695378491,789.501930496736,NaN,NaN,927.5,820.836477965032,1049.42763818712,546.982518841471,826.654758133252,346.39691668109,567.045908301137,496.282156015671,629.371695378491,789.501930496736,0,0,5,3,3,5,4,NaN,horizontal,horizontal,vertical,vertical,vertical,none
1b,21,100215,2,11,75,27,F,NA,constant,heterogeneous,6,present,1.09601402282715,1,vertical,vertical,1,0.964703880889075,green,3,6,1006.29933356561,450.114760665419,593.700666434388,749.885239334581,826.654758133252,853.60308331891,1032.95409169886,703.717843984329,1006.29933356561,450.114760665419,773.345241866748,346.39691668109,567.045908301137,496.282156015671,593.700666434388,749.885239334581,0,5,4,5,3,6,horizontal,horizontal,vertical,vertical,vertical,vertical
1b,21,100215,2,12,76,27,F,NA,constant,heterogeneous,6,absent,1.0186870098114,1,vertical,vertical,1,0.635293923957007,green,1,NaN,721.200666434388,842.519411655264,NaN,NaN,721.200666434388,842.519411655264,970.628304621509,789.501930496736,1049.42763818712,546.982518841471,878.799333565612,357.480588344736,629.371695378491,410.498069503264,550.57236181288,653.017481158529,4,0,5,3,0,3,vertical,vertical,horizontal,vertical,horizontal,horizontal
1b,21,100215,2,13,77,27,F,NA,constant,heterogeneous,4,present,1.25111603736877,1,vertical,vertical,1,0.776469619785036,green,3,4,942.594190385041,388.595418998464,588.595418998464,457.40580961496,657.405809614959,811.404581001536,1011.40458100154,742.594190385041,942.594190385041,388.595418998464,588.595418998464,457.40580961496,0,0,0,0,6,3,4,0,NaN,NaN,horizontal,vertical,vertical,horizontal,none,none
1b,21,100215,2,14,78,27,F,NA,constant,heterogeneous,3,absent,1.82695603370667,0,horizontal,vertical,1,0.94117459825107,green,3,NaN,548.13947314824,560.109211414741,NaN,NaN,891.383827134052,838.063008756786,960.476699717708,401.827779828472,548.13947314824,560.109211414741,0,0,0,0,0,0,5,3,4,NaN,NaN,NaN,horizontal,vertical,horizontal,none,none,none
1b,21,100215,2,15,79,27,F,NA,constant,heterogeneous,6,absent,0.851636171340942,1,vertical,vertical,1,0.788234261104039,green,6,NaN,588.595418998464,742.594190385041,NaN,NaN,817.787900804752,854.378832816255,1029.19248180629,711.784642431215,1011.40458100154,457.40580961496,782.212099195248,345.621167183745,570.807518193712,488.215357568785,588.595418998464,742.594190385041,6,0,0,3,5,4,horizontal,horizontal,horizontal,vertical,vertical,vertical
1b,21,100215,2,16,80,27,F,NA,constant,heterogeneous,4,present,0.98186993598938,1,vertical,vertical,1,1.05882101144109,green,2,1,1000.94274216971,443.006323791957,956.993676208043,800.942742169714,956.993676208043,800.942742169714,1000.94274216971,443.006323791957,643.006323791957,399.057257830286,599.057257830286,756.993676208043,0,0,0,0,5,4,3,0,NaN,NaN,horizontal,vertical,horizontal,horizontal,none,none
1b,21,100215,2,17,81,27,F,NA,constant,heterogeneous,3,absent,1.20201110839844,1,vertical,vertical,1,1.02352708748409,green,2,NaN,1054.37883281626,617.787900804752,NaN,NaN,657.405809614959,811.404581001536,1054.37883281626,617.787900804752,688.215357568785,370.807518193712,0,0,0,0,0,0,3,4,3,NaN,NaN,NaN,vertical,vertical,vertical,none,none,none
1b,21,100215,2,18,82,27,F,NA,constant,heterogeneous,3,absent,0.755011081695557,1,vertical,vertical,1,1.03529172880309,green,2,NaN,1054.65053136242,586.654331158049,NaN,NaN,684.232422566416,827.206663668034,1054.65053136242,586.654331158049,661.117046071168,386.139005173917,0,0,0,0,0,0,5,4,0,NaN,NaN,NaN,horizontal,vertical,horizontal,none,none,none
1b,21,100215,2,19,83,27,F,NA,constant,heterogeneous,3,absent,0.953175067901611,1,horizontal,horizontal,1,0.741175695828029,green,1,NaN,853.017481158529,849.42763818712,NaN,NaN,853.017481158529,849.42763818712,989.501930496736,429.371695378491,557.480588344736,521.200666434388,0,0,0,0,0,0,4,3,5,NaN,NaN,NaN,horizontal,horizontal,vertical,none,none,none
1b,21,100215,2,20,84,27,F,NA,constant,heterogeneous,5,absent,0.914226055145264,1,horizontal,horizontal,1,0.882351391656058,green,2,NaN,1036.43188291453,695.524681321058,NaN,NaN,782.212099195248,854.378832816255,1036.43188291453,695.524681321058,963.910840470068,404.658667004661,664.870587620533,383.747735480111,552.574589799621,661.690083377915,0,0,0,4,6,0,6,NaN,vertical,horizontal,horizontal,vertical,vertical,none
1b,21,100215,2,21,85,27,F,NA,constant,heterogeneous,4,absent,1.05623602867126,1,horizontal,horizontal,1,0.788234261104039,green,2,NaN,998.172220171528,439.523300282291,NaN,NaN,960.476699717708,798.172220171528,998.172220171528,439.523300282291,639.523300282292,401.827779828472,601.827779828472,760.476699717708,0,0,0,0,0,4,6,0,NaN,NaN,vertical,horizontal,vertical,horizontal,none,none
1b,21,100215,2,22,86,27,F,NA,constant,heterogeneous,5,present,1.3555428981781,1,horizontal,horizontal,1,0.705881771871022,green,5,4,565.271262369628,699.636437764765,632.704947607421,407.549057043193,822.224714400653,854.029648013395,1048.46436652023,657.362518857686,931.334709102064,381.422338320961,632.704947607421,407.549057043193,565.271262369628,699.636437764765,0,0,0,6,6,5,4,NaN,horizontal,horizontal,horizontal,vertical,horizontal,none
1b,21,100215,2,23,87,27,F,NA,constant,heterogeneous,5,absent,0.885651111602783,1,horizontal,horizontal,1,0.729411054509027,green,5,NaN,550.57236181288,653.017481158529,NaN,NaN,773.345241866748,853.60308331891,1032.95409169886,703.717843984329,970.628304621509,410.498069503264,672.5,379.163522034968,550.57236181288,653.017481158529,0,0,3,3,0,5,4,NaN,horizontal,vertical,horizontal,horizontal,horizontal,none
1b,21,100215,2,24,88,27,F,NA,constant,heterogeneous,4,present,1.11808109283447,1,horizontal,horizontal,1,0.729411054509027,green,4,3,570.807518193712,488.215357568785,911.784642431215,370.807518193712,688.215357568785,829.192481806288,1029.19248180629,711.784642431215,911.784642431215,370.807518193712,570.807518193712,488.215357568785,0,0,0,0,5,3,6,4,NaN,NaN,vertical,vertical,vertical,horizontal,none,none
1b,21,100215,2,25,89,27,F,NA,constant,heterogeneous,4,absent,1.44866585731506,1,horizontal,horizontal,1,1.01176244616508,green,4,NaN,554.878267535729,529.712474266665,NaN,NaN,729.712474266665,845.121732464271,1045.12173246427,670.287525733335,870.287525733335,354.878267535729,554.878267535729,529.712474266665,0,0,0,0,5,3,0,4,NaN,NaN,vertical,horizontal,horizontal,horizontal,none,none
1b,21,100215,2,26,90,27,F,NA,constant,heterogeneous,5,present,0.959178924560547,1,vertical,vertical,1,0.64705856527601,green,4,1,664.870587620533,383.747735480111,782.212099195248,854.378832816255,782.212099195248,854.378832816255,1036.43188291453,695.524681321058,963.910840470068,404.658667004661,664.870587620533,383.747735480111,552.574589799621,661.690083377915,0,0,5,6,0,4,6,NaN,horizontal,vertical,horizontal,vertical,vertical,none
1b,21,100215,2,27,91,27,F,NA,constant,heterogeneous,3,present,1.75392889976501,1,horizontal,horizontal,1,0.776469619785036,green,1,2,891.383827134052,838.063008756786,960.476699717708,401.827779828472,891.383827134052,838.063008756786,960.476699717708,401.827779828472,548.13947314824,560.109211414741,0,0,0,0,0,0,4,6,0,NaN,NaN,NaN,horizontal,horizontal,vertical,none,none,none
1b,21,100215,2,28,92,27,F,NA,constant,heterogeneous,3,present,1.22551584243774,1,vertical,vertical,1,0.611764641319002,green,3,2,551.535633479765,657.362518857686,874.554784704298,356.142287229426,973.909581815937,786.495193912888,874.554784704298,356.142287229426,551.535633479765,657.362518857686,0,0,0,0,0,0,3,5,4,NaN,NaN,NaN,vertical,vertical,vertical,none,none,none
1b,21,100215,2,29,93,27,F,NA,constant,heterogeneous,3,absent,0.942799806594849,1,horizontal,horizontal,1,0.823528185061046,green,1,NaN,593.700666434388,749.885239334581,NaN,NaN,593.700666434388,749.885239334581,1032.95409169886,703.717843984329,773.345241866748,346.39691668109,0,0,0,0,0,0,4,5,0,NaN,NaN,NaN,horizontal,vertical,vertical,none,none,none
1b,21,100215,2,30,94,27,F,NA,constant,heterogeneous,6,absent,1.90878295898438,1,horizontal,horizontal,1,0.952939239570073,green,5,NaN,563.568117085469,504.475318678942,NaN,NaN,835.489140744817,852.518357529101,1036.43188291453,695.524681321058,1000.94274216971,443.006323791957,764.510859255183,347.4816424709,563.568117085469,504.475318678942,599.057257830286,756.993676208043,0,3,0,3,4,6,horizontal,vertical,vertical,vertical,horizontal,horizontal
1b,21,100215,2,31,95,27,F,NA,constant,heterogeneous,6,absent,1.8060929775238,1,vertical,vertical,1,0.729411054509027,green,2,NaN,1052.5183575291,635.489140744817,NaN,NaN,895.524681321058,836.431882914531,1052.5183575291,635.489140744817,956.993676208043,399.057257830286,704.475318678942,363.568117085469,547.481642470899,564.510859255183,643.006323791957,800.942742169714,6,4,3,3,0,5,horizontal,vertical,horizontal,vertical,horizontal,horizontal
1b,21,100215,2,32,96,27,F,NA,constant,heterogeneous,3,present,1.60239696502686,1,horizontal,horizontal,1,0.799998902423041,green,2,3,935.129412379467,383.747735480111,545.155339110131,591.100628340862,919.715248510402,825.151636179026,935.129412379467,383.747735480111,545.155339110131,591.100628340862,0,0,0,0,0,0,5,4,0,NaN,NaN,NaN,vertical,horizontal,vertical,none,none,none
1b,21,100215,2,33,97,27,F,NA,constant,heterogeneous,4,absent,1.32081198692322,0,vertical,horizontal,1,0.717646413190024,green,2,NaN,1048.46436652023,542.637481142314,NaN,NaN,857.362518857686,848.464366520235,1048.46436652023,542.637481142314,742.637481142314,351.535633479765,551.535633479765,657.362518857686,0,0,0,0,3,4,0,6,NaN,NaN,horizontal,vertical,horizontal,horizontal,none,none
1b,21,100215,2,34,98,27,F,NA,constant,heterogeneous,6,present,NaN,0,horizontal,none,0,0.694117130552019,green,4,2,861.690083377915,352.574589799621,983.431649086356,777.137884467044,738.309916622085,847.425410200379,983.431649086356,777.137884467044,1045.12173246427,529.712474266665,861.690083377915,352.574589799621,616.568350913644,422.862115532956,554.878267535729,670.287525733335,0,3,5,4,6,5,vertical,vertical,horizontal,horizontal,vertical,vertical
1b,21,100215,2,35,99,27,F,NA,constant,heterogeneous,6,absent,1.56376004219055,1,horizontal,horizontal,1,0.705881771871022,green,3,NaN,992.450942956807,432.704947607421,NaN,NaN,848.656293821019,850.314931779154,1041.10723677783,683.019879386575,992.450942956807,432.704947607421,751.343706178981,349.685068220846,558.892763222174,516.980120613425,607.549057043193,767.295052392579,6,5,4,0,0,3,vertical,vertical,horizontal,vertical,horizontal,vertical
1b,21,100215,2,36,100,27,F,NA,constant,heterogeneous,4,present,0.893218040466309,1,vertical,vertical,1,1.0941149353981,green,4,2,560.378381699593,512.784863451954,1039.62161830041,687.215136548046,712.784863451954,839.621618300407,1039.62161830041,687.215136548046,887.215136548046,360.378381699593,560.378381699593,512.784863451954,0,0,0,0,6,6,3,4,NaN,NaN,vertical,vertical,vertical,vertical,none,none
1b,21,100215,2,37,101,27,F,NA,constant,heterogeneous,3,present,0.796302795410156,1,vertical,vertical,1,0.64705856527601,green,2,3,1023.02802532055,476.373546837184,581.422338320961,468.665290897936,795.549636358493,854.96116226488,1023.02802532055,476.373546837184,581.422338320961,468.665290897936,0,0,0,0,0,0,5,4,0,NaN,NaN,NaN,horizontal,vertical,horizontal,none,none,none
1b,21,100215,2,38,102,27,F,NA,constant,heterogeneous,6,present,1.58979296684265,1,vertical,vertical,1,0.870586750337056,green,2,6,1011.40458100154,742.594190385041,570.807518193712,711.784642431215,782.212099195248,854.378832816255,1011.40458100154,742.594190385041,1029.19248180629,488.215357568785,817.787900804752,345.621167183745,588.595418998464,457.40580961496,570.807518193712,711.784642431215,6,4,3,6,5,0,horizontal,vertical,vertical,horizontal,vertical,horizontal
1b,21,100215,2,39,103,27,F,NA,constant,heterogeneous,6,present,1.89830589294434,0,horizontal,vertical,1,0.835292826380049,green,4,5,751.343706178981,349.685068220846,558.892763222174,516.980120613425,848.656293821019,850.314931779154,1041.10723677783,683.019879386575,992.450942956807,432.704947607421,751.343706178981,349.685068220846,558.892763222174,516.980120613425,607.549057043193,767.295052392579,6,3,5,4,3,5,horizontal,horizontal,vertical,horizontal,vertical,horizontal
1b,21,100215,2,40,104,27,F,NA,constant,heterogeneous,4,present,1.08128499984741,1,horizontal,horizontal,1,0.823528185061046,green,1,2,639.523300282292,798.172220171528,998.172220171528,760.476699717708,639.523300282292,798.172220171528,998.172220171528,760.476699717708,960.476699717708,401.827779828472,601.827779828472,439.523300282291,0,0,0,0,4,5,3,6,NaN,NaN,horizontal,horizontal,vertical,vertical,none,none
1b,21,100215,2,41,105,27,F,NA,constant,heterogeneous,3,absent,1.06172680854797,1,vertical,vertical,1,0.94117459825107,green,2,NaN,1011.40458100154,457.40580961496,NaN,NaN,817.787900804752,854.378832816255,1011.40458100154,457.40580961496,570.807518193712,488.215357568785,0,0,0,0,0,0,6,4,3,NaN,NaN,NaN,vertical,vertical,horizontal,none,none,none
1b,21,100215,2,42,106,27,F,NA,constant,heterogeneous,4,present,1.06478595733643,1,horizontal,horizontal,1,0.870586750337056,green,4,3,548.874022981887,555.719714694933,844.280285305067,348.874022981887,755.719714694933,851.125977018113,1051.12597701811,644.280285305067,844.280285305067,348.874022981887,548.874022981887,555.719714694933,0,0,0,0,5,0,5,4,NaN,NaN,vertical,horizontal,vertical,horizontal,none,none
1b,21,100215,2,43,107,27,F,NA,constant,heterogeneous,6,present,1.30375409126282,1,horizontal,horizontal,1,1.0823502940791,green,3,5,1045.12173246427,529.712474266665,616.568350913644,422.862115532956,738.309916622085,847.425410200379,983.431649086356,777.137884467044,1045.12173246427,529.712474266665,861.690083377915,352.574589799621,616.568350913644,422.862115532956,554.878267535729,670.287525733335,5,3,4,6,6,3,vertical,vertical,horizontal,vertical,vertical,vertical
1b,21,100215,2,44,108,27,F,NA,constant,heterogeneous,5,present,1.21846985816956,1,horizontal,horizontal,1,1.03529172880309,green,1,5,865.998856501143,846.311085703712,586.139005173917,738.882953928832,865.998856501143,846.311085703712,1054.65053136242,613.345668841951,891.383827134052,361.936991243214,601.827779828472,439.523300282291,586.139005173917,738.882953928832,0,0,4,0,3,5,3,NaN,horizontal,horizontal,horizontal,vertical,vertical,none
1b,21,100215,2,45,109,27,F,NA,constant,heterogeneous,5,absent,1.50574207305908,1,horizontal,horizontal,1,0.729411054509027,green,1,NaN,835.489140744817,852.518357529101,NaN,NaN,835.489140744817,852.518357529101,1051.12597701811,644.280285305067,919.715248510402,374.848363820974,622.862115532956,416.568350913644,570.807518193712,711.784642431215,0,0,4,3,6,5,3,NaN,horizontal,vertical,vertical,horizontal,horizontal,none
1b,21,100215,2,46,110,27,F,NA,constant,heterogeneous,3,absent,0.855801820755005,1,vertical,vertical,1,0.788234261104039,green,1,NaN,729.712474266665,845.121732464271,NaN,NaN,729.712474266665,845.121732464271,1047.42541020038,538.309916622085,622.862115532956,416.568350913644,0,0,0,0,0,0,4,3,5,NaN,NaN,NaN,vertical,vertical,horizontal,none,none,none
1b,21,100215,2,47,111,27,F,NA,constant,heterogeneous,4,absent,1.10437107086182,1,horizontal,horizontal,1,0.964703880889075,green,2,NaN,1039.62161830041,687.215136548046,NaN,NaN,712.784863451954,839.621618300407,1039.62161830041,687.215136548046,887.215136548046,360.378381699593,560.378381699593,512.784863451954,0,0,0,0,6,4,5,6,NaN,NaN,vertical,horizontal,horizontal,horizontal,none,none
1b,21,100215,2,48,112,27,F,NA,constant,heterogeneous,5,absent,1.10440897941589,1,horizontal,horizontal,1,0.682352489233017,green,1,NaN,688.215357568785,829.192481806288,NaN,NaN,688.215357568785,829.192481806288,983.431649086356,777.137884467044,1025.15163617903,480.284751489598,755.719714694933,348.874022981887,547.481642470899,564.510859255183,0,0,4,5,3,6,0,NaN,horizontal,vertical,vertical,horizontal,horizontal,none
1b,21,100215,2,49,113,27,F,NA,constant,heterogeneous,4,present,1.24805092811584,1,vertical,vertical,1,1.05882101144109,green,3,2,795.549636358493,345.03883773512,1054.96116226488,595.549636358493,804.450363641507,854.96116226488,1054.96116226488,595.549636358493,795.549636358493,345.03883773512,545.03883773512,604.450363641507,0,0,0,0,6,3,4,0,NaN,NaN,horizontal,vertical,vertical,horizontal,none,none
1b,21,100215,2,50,114,27,F,NA,constant,heterogeneous,3,present,1.14876008033752,1,vertical,vertical,1,0.776469619785036,green,2,3,1034.72873763037,500.363562235235,596.34794493794,446.537169096228,768.923317431687,853.099268668537,1034.72873763037,500.363562235235,596.34794493794,446.537169096228,0,0,0,0,0,0,3,4,0,NaN,NaN,NaN,vertical,vertical,vertical,none,none,none
1b,21,100215,2,51,115,27,F,NA,constant,heterogeneous,5,present,0.85688591003418,1,vertical,vertical,1,0.858822109018053,green,4,2,588.595418998464,457.40580961496,1054.84466088987,591.100628340862,887.215136548046,839.621618300407,1054.84466088987,591.100628340862,870.287525733335,354.878267535729,588.595418998464,457.40580961496,599.057257830286,756.993676208043,0,0,6,3,5,4,0,NaN,vertical,vertical,vertical,vertical,vertical,none
1b,21,100215,2,52,116,27,F,NA,constant,heterogeneous,5,present,0.801925897598267,1,vertical,vertical,1,0.788234261104039,green,2,1,953.462830903772,803.65205506206,653.738008730483,808.883771293693,653.738008730483,808.883771293693,953.462830903772,803.65205506206,1041.10723677783,516.980120613425,795.549636358493,345.03883773512,556.142287229426,525.445215295702,0,0,5,4,5,0,6,NaN,horizontal,vertical,horizontal,vertical,horizontal,none
1b,21,100215,2,53,117,27,F,NA,constant,heterogeneous,6,present,1.63881683349609,1,horizontal,horizontal,1,0.623529282638005,green,2,6,1042.51941165526,678.799333565612,610.498069503264,770.628304621509,853.017481158529,849.42763818712,1042.51941165526,678.799333565612,989.501930496736,429.371695378491,746.982518841471,350.57236181288,557.480588344736,521.200666434388,610.498069503264,770.628304621509,0,4,6,5,3,5,horizontal,horizontal,vertical,vertical,horizontal,vertical
1b,21,100215,2,54,118,27,F,NA,constant,heterogeneous,5,present,1.02668786048889,1,vertical,vertical,1,0.964703880889075,green,1,5,870.287525733335,845.121732464271,588.595418998464,742.594190385041,870.287525733335,845.121732464271,1054.84466088987,608.899371659138,887.215136548046,360.378381699593,599.057257830286,443.006323791957,588.595418998464,742.594190385041,0,0,4,3,6,5,0,NaN,vertical,horizontal,vertical,horizontal,horizontal,none
1b,21,100215,2,55,119,27,F,NA,constant,heterogeneous,6,absent,1.52846884727478,1,horizontal,horizontal,1,0.823528185061046,green,6,NaN,672.5,820.836477965032,NaN,NaN,927.5,820.836477965032,1055,600,927.5,379.163522034968,672.5,379.163522034968,545,600,672.5,820.836477965032,5,3,6,6,5,4,vertical,vertical,vertical,vertical,vertical,horizontal
1b,21,100215,2,56,120,27,F,NA,constant,heterogeneous,5,absent,0.931235074996948,1,vertical,vertical,1,0.999997804846082,green,2,NaN,1043.85771277057,525.445215295702,NaN,NaN,946.261991269517,808.883771293693,1043.85771277057,525.445215295702,804.450363641507,345.03883773512,558.892763222174,516.980120613425,646.537169096228,803.65205506206,0,0,3,4,6,3,6,NaN,horizontal,vertical,vertical,vertical,vertical,none
1b,21,100215,2,57,121,27,F,NA,constant,heterogeneous,6,present,0.999523162841797,1,vertical,vertical,1,1.0941149353981,green,1,6,700.363562235235,834.728737630372,546.900731331463,631.076682568313,700.363562235235,834.728737630372,953.462830903772,803.65205506206,1053.09926866854,568.923317431687,899.636437764765,365.271262369628,646.537169096228,396.34794493794,546.900731331463,631.076682568313,4,3,5,0,6,5,vertical,horizontal,horizontal,vertical,vertical,horizontal
1b,21,100215,2,58,122,27,F,NA,constant,heterogeneous,3,present,1.00053095817566,1,horizontal,horizontal,1,0.611764641319002,green,3,1,708.616172865948,361.936991243214,639.523300282292,798.172220171528,639.523300282292,798.172220171528,1051.86052685176,639.890788585259,708.616172865948,361.936991243214,0,0,0,0,0,0,5,6,4,NaN,NaN,NaN,horizontal,vertical,horizontal,none,none,none
1b,21,100215,2,59,123,27,F,NA,constant,heterogeneous,5,present,1.72486591339111,1,horizontal,horizontal,1,1.02352708748409,green,4,5,619.68777079743,419.68777079743,572.793336331966,715.767577433584,839.890788585259,851.86052685176,1051.86052685176,639.890788585259,915.767577433584,372.793336331966,619.68777079743,419.68777079743,572.793336331966,715.767577433584,0,0,6,6,0,4,3,NaN,vertical,horizontal,horizontal,horizontal,vertical,none
1b,21,100215,2,60,124,27,F,NA,constant,heterogeneous,5,absent,1.48530697822571,1,vertical,vertical,1,1.0941149353981,green,4,NaN,557.480588344736,521.200666434388,NaN,NaN,949.885239334581,806.299333565612,1042.51941165526,521.200666434388,800,345,557.480588344736,521.200666434388,650.114760665419,806.299333565612,0,0,3,3,5,4,0,NaN,horizontal,vertical,vertical,vertical,vertical,none
1b,21,100215,2,61,125,27,F,NA,constant,heterogeneous,3,present,1.10461616516113,1,horizontal,horizontal,1,0.847057467699051,green,1,2,616.568350913644,777.137884467044,1045.12173246427,670.287525733335,616.568350913644,777.137884467044,1045.12173246427,670.287525733335,738.309916622085,352.574589799621,0,0,0,0,0,0,4,6,5,NaN,NaN,NaN,horizontal,horizontal,horizontal,none,none,none
1b,21,100215,2,62,126,27,F,NA,constant,heterogeneous,4,absent,1.44860601425171,1,vertical,vertical,1,1.0823502940791,green,4,NaN,619.68777079743,780.31222920257,NaN,NaN,980.31222920257,780.31222920257,980.31222920257,419.68777079743,619.68777079743,419.68777079743,619.68777079743,780.31222920257,0,0,0,0,0,6,5,4,NaN,NaN,horizontal,vertical,vertical,vertical,none,none
1b,21,100215,2,63,127,27,F,NA,constant,heterogeneous,6,absent,1.54975199699402,1,vertical,vertical,1,0.799998902423041,green,4,NaN,672.5,379.163522034968,NaN,NaN,927.5,820.836477965032,1055,600,927.5,379.163522034968,672.5,379.163522034968,545,600,672.5,820.836477965032,6,5,3,4,3,0,vertical,horizontal,vertical,vertical,vertical,vertical
1b,21,100215,2,64,128,27,F,NA,constant,heterogeneous,3,present,0.857093095779419,1,vertical,vertical,1,0.611764641319002,green,3,1,552.574589799621,538.309916622085,870.287525733335,845.121732464271,870.287525733335,845.121732464271,977.137884467044,416.568350913644,552.574589799621,538.309916622085,0,0,0,0,0,0,5,0,4,NaN,NaN,NaN,vertical,vertical,vertical,none,none,none
1b,21,100215,3,1,129,27,F,NA,constant,heterogeneous,4,absent,1.17664694786072,1,horizontal,horizontal,1,1.01176244616508,green,3,NaN,629.371695378491,410.498069503264,NaN,NaN,970.628304621509,789.501930496736,989.501930496736,429.371695378491,629.371695378491,410.498069503264,610.498069503264,770.628304621509,0,0,0,0,5,6,4,3,NaN,NaN,horizontal,horizontal,horizontal,vertical,none,none
1b,21,100215,3,2,130,27,F,NA,constant,heterogeneous,4,present,0.668143033981323,1,horizontal,horizontal,1,0.976468522208078,green,3,2,661.117046071168,386.139005173917,1013.86099482608,461.117046071168,938.882953928832,813.860994826083,1013.86099482608,461.117046071168,661.117046071168,386.139005173917,586.139005173917,738.882953928832,0,0,0,0,6,3,4,0,NaN,NaN,horizontal,vertical,horizontal,horizontal,none,none
1b,21,100215,3,3,131,27,F,NA,constant,heterogeneous,4,absent,0.997702121734619,1,vertical,vertical,1,0.6,green,4,NaN,619.68777079743,780.31222920257,NaN,NaN,980.31222920257,780.31222920257,980.31222920257,419.68777079743,619.68777079743,419.68777079743,619.68777079743,780.31222920257,0,0,0,0,0,6,3,4,NaN,NaN,vertical,vertical,vertical,vertical,none,none
1b,21,100215,3,4,132,27,F,NA,constant,heterogeneous,3,present,0.62785005569458,1,horizontal,horizontal,1,0.905880674294063,green,2,3,822.224714400653,345.970351986605,568.891514305654,707.767656743878,1008.88377129369,746.261991269517,822.224714400653,345.970351986605,568.891514305654,707.767656743878,0,0,0,0,0,0,0,4,6,NaN,NaN,NaN,vertical,horizontal,horizontal,none,none,none
1b,21,100215,3,5,133,27,F,NA,constant,heterogeneous,4,absent,0.736532211303711,1,vertical,vertical,1,0.6,green,3,NaN,688.215357568785,370.807518193712,NaN,NaN,911.784642431215,829.192481806288,1029.19248180629,488.215357568785,688.215357568785,370.807518193712,570.807518193712,711.784642431215,0,0,0,0,5,3,4,0,NaN,NaN,horizontal,horizontal,vertical,horizontal,none,none
1b,21,100215,3,6,134,27,F,NA,constant,heterogeneous,6,present,0.862818956375122,1,vertical,vertical,1,0.764704978466034,green,3,2,983.431649086356,422.862115532956,1045.12173246427,670.287525733335,861.690083377915,847.425410200379,1045.12173246427,670.287525733335,983.431649086356,422.862115532956,738.309916622085,352.574589799621,554.878267535729,529.712474266665,616.568350913644,777.137884467044,5,6,4,6,0,5,horizontal,horizontal,vertical,vertical,vertical,vertical
1b,21,100215,3,7,135,27,F,NA,constant,heterogeneous,6,absent,1.00467491149902,1,vertical,vertical,1,1.03529172880309,green,1,NaN,676.373546837184,823.028025320546,NaN,NaN,676.373546837184,823.028025320546,931.334709102064,818.577661679039,1054.96116226488,595.549636358493,923.626453162816,376.971974679454,668.665290897936,381.422338320961,545.03883773512,604.450363641507,4,5,3,6,6,0,vertical,horizontal,vertical,horizontal,vertical,vertical
1b,21,100215,3,8,136,27,F,NA,constant,heterogeneous,5,present,0.93903923034668,1,horizontal,horizontal,1,1.0941149353981,green,3,5,1000.94274216971,443.006323791957,545.155339110131,608.899371659138,729.712474266665,845.121732464271,1011.40458100154,742.594190385041,1000.94274216971,443.006323791957,712.784863451954,360.378381699593,545.155339110131,608.899371659138,0,0,3,0,4,5,6,NaN,horizontal,vertical,horizontal,vertical,vertical,none
1b,21,100215,3,9,137,27,F,NA,constant,heterogeneous,5,present,0.60261082649231,1,horizontal,horizontal,1,0.635293923957007,green,3,2,956.993676208043,399.057257830286,1039.62161830041,687.215136548046,791.100628340862,854.844660889869,1039.62161830041,687.215136548046,956.993676208043,399.057257830286,657.405809614959,388.595418998464,554.878267535729,670.287525733335,0,0,6,3,4,6,5,NaN,vertical,vertical,horizontal,vertical,horizontal,none
1b,21,100215,3,10,138,27,F,NA,constant,heterogeneous,3,present,0.890284061431885,1,horizontal,horizontal,1,0.764704978466034,green,2,3,995.341332995339,436.089159529932,560.378381699593,512.784863451954,844.280285305067,851.125977018113,995.341332995339,436.089159529932,560.378381699593,512.784863451954,0,0,0,0,0,0,6,4,3,NaN,NaN,NaN,vertical,horizontal,horizontal,none,none,none
1b,21,100215,3,11,139,27,F,NA,constant,heterogeneous,3,present,1.08575296401978,1,vertical,vertical,1,1.0941149353981,green,1,3,734.001143498857,846.311085703712,619.68777079743,419.68777079743,734.001143498857,846.311085703712,1046.31108570371,534.001143498857,619.68777079743,419.68777079743,0,0,0,0,0,0,4,3,6,NaN,NaN,NaN,vertical,vertical,horizontal,none,none,none
1b,21,100215,3,12,140,27,F,NA,constant,heterogeneous,4,absent,1.12018203735352,1,horizontal,horizontal,1,1.02352708748409,green,1,NaN,643.006323791957,800.942742169714,NaN,NaN,643.006323791957,800.942742169714,1000.94274216971,756.993676208043,956.993676208043,399.057257830286,599.057257830286,443.006323791957,0,0,0,0,4,0,3,5,NaN,NaN,horizontal,vertical,vertical,horizontal,none,none
1b,21,100215,3,13,141,27,F,NA,constant,heterogeneous,5,absent,1.66816902160645,1,horizontal,horizontal,1,1.05882101144109,green,5,NaN,568.891514305654,707.767656743878,NaN,NaN,831.076682568313,853.099268668537,1050.31493177915,648.656293821019,923.626453162816,376.971974679454,626.090418184063,413.504806087112,568.891514305654,707.767656743878,0,0,6,5,5,3,4,NaN,horizontal,vertical,horizontal,horizontal,horizontal,none
1b,21,100215,3,14,142,27,F,NA,constant,heterogeneous,4,absent,0.952548980712891,1,horizontal,horizontal,1,0.741175695828029,green,1,NaN,949.885239334581,806.299333565612,NaN,NaN,949.885239334581,806.299333565612,1006.29933356561,450.114760665419,650.114760665419,393.700666434388,593.700666434388,749.885239334581,0,0,0,0,4,6,6,5,NaN,NaN,horizontal,horizontal,vertical,vertical,none,none
1b,21,100215,3,15,143,27,F,NA,constant,heterogeneous,6,present,0.913901090621948,1,horizontal,horizontal,1,0.705881771871022,green,2,3,1027.20666366803,715.767577433584,1013.86099482608,461.117046071168,813.345668841951,854.650531362416,1027.20666366803,715.767577433584,1013.86099482608,461.117046071168,786.654331158049,345.349468637584,572.793336331966,484.232422566416,586.139005173917,738.882953928832,6,4,3,5,0,6,horizontal,horizontal,vertical,horizontal,horizontal,vertical
1b,21,100215,3,16,144,27,F,NA,constant,heterogeneous,6,present,1.20946192741394,1,horizontal,horizontal,1,0.658823206595012,green,4,5,734.001143498857,353.688914296288,553.688914296288,534.001143498857,865.998856501143,846.311085703712,1046.31108570371,665.998856501143,980.31222920257,419.68777079743,734.001143498857,353.688914296288,553.688914296288,534.001143498857,619.68777079743,780.31222920257,6,0,5,4,3,6,horizontal,vertical,vertical,horizontal,vertical,vertical
1b,21,100215,3,17,145,27,F,NA,constant,heterogeneous,4,present,1.03288412094116,1,horizontal,horizontal,1,0.764704978466034,green,2,1,1031.10848569435,707.767656743878,692.232343256122,831.108485694346,692.232343256122,831.108485694346,1031.10848569435,707.767656743878,907.767656743878,368.891514305654,568.891514305654,492.232343256122,0,0,0,0,5,4,5,3,NaN,NaN,horizontal,horizontal,vertical,vertical,none,none
1b,21,100215,3,18,146,27,F,NA,constant,heterogeneous,3,absent,1.49563312530518,1,horizontal,horizontal,1,0.694117130552019,green,1,NaN,672.5,820.836477965032,NaN,NaN,672.5,820.836477965032,1055,600,672.5,379.163522034968,0,0,0,0,0,0,4,6,3,NaN,NaN,NaN,horizontal,horizontal,horizontal,none,none,none
1b,21,100215,3,19,147,27,F,NA,constant,heterogeneous,6,absent,1.87529492378235,1,horizontal,horizontal,1,0.682352489233017,green,6,NaN,549.685068220846,648.656293821019,NaN,NaN,716.980120613425,841.107236777826,967.295052392579,792.450942956807,1050.31493177915,551.343706178981,883.019879386575,358.892763222174,632.704947607421,407.549057043193,549.685068220846,648.656293821019,6,5,0,6,0,4,horizontal,vertical,vertical,vertical,vertical,horizontal
1b,21,100215,3,20,148,27,F,NA,constant,heterogeneous,3,present,1.23421502113342,1,vertical,vertical,1,0.847057467699051,green,3,1,574.848363820974,480.284751489598,808.899371659138,854.844660889869,808.899371659138,854.844660889869,1016.25226451989,464.870587620533,574.848363820974,480.284751489598,0,0,0,0,0,0,6,5,4,NaN,NaN,NaN,vertical,vertical,vertical,none,none,none
1b,21,100215,3,21,149,27,F,NA,constant,heterogeneous,5,absent,1.0881130695343,1,vertical,vertical,1,0.658823206595012,green,5,NaN,557.480588344736,678.799333565612,NaN,NaN,800,855,1042.51941165526,678.799333565612,949.885239334581,393.700666434388,650.114760665419,393.700666434388,557.480588344736,678.799333565612,0,0,0,6,5,3,4,NaN,horizontal,horizontal,horizontal,horizontal,vertical,none
1b,21,100215,3,22,150,27,F,NA,constant,heterogeneous,3,present,0.900027990341187,1,vertical,vertical,1,0.694117130552019,green,2,1,1051.12597701811,644.280285305067,636.089159529932,795.341332995339,636.089159529932,795.341332995339,1051.12597701811,644.280285305067,712.784863451954,360.378381699593,0,0,0,0,0,0,3,4,0,NaN,NaN,NaN,horizontal,vertical,horizontal,none,none,none
1b,21,100215,3,23,151,27,F,NA,constant,heterogeneous,6,absent,1.46086096763611,1,vertical,vertical,1,0.94117459825107,green,5,NaN,668.665290897936,381.422338320961,NaN,NaN,676.373546837184,823.028025320546,931.334709102064,818.577661679039,1054.96116226488,595.549636358493,923.626453162816,376.971974679454,668.665290897936,381.422338320961,545.03883773512,604.450363641507,5,3,5,6,4,3,horizontal,vertical,horizontal,horizontal,vertical,horizontal
1b,21,100215,3,24,152,27,F,NA,constant,heterogeneous,5,absent,1.07560205459595,1,vertical,vertical,1,0.858822109018053,green,1,NaN,931.334709102064,818.577661679039,NaN,NaN,931.334709102064,818.577661679039,1048.46436652023,542.637481142314,822.224714400653,345.970351986605,565.271262369628,500.363562235235,632.704947607421,792.450942956807,0,0,4,5,3,3,6,NaN,vertical,vertical,vertical,horizontal,vertical,none
1b,21,100215,3,25,153,27,F,NA,constant,heterogeneous,4,absent,1.81065201759338,1,horizontal,horizontal,1,1.0705856527601,green,1,NaN,853.017481158529,849.42763818712,NaN,NaN,853.017481158529,849.42763818712,1049.42763818712,546.982518841471,746.982518841471,350.57236181288,550.57236181288,653.017481158529,0,0,0,0,4,6,0,5,NaN,NaN,horizontal,horizontal,vertical,vertical,none,none
1b,21,100215,3,26,154,27,F,NA,constant,heterogeneous,4,present,0.892971038818359,1,horizontal,horizontal,1,0.894116032975061,green,4,1,586.139005173917,461.117046071168,661.117046071168,813.860994826083,661.117046071168,813.860994826083,1013.86099482608,738.882953928832,938.882953928832,386.139005173917,586.139005173917,461.117046071168,0,0,0,0,0,3,3,4,NaN,NaN,horizontal,vertical,horizontal,horizontal,none,none
1b,21,100215,3,27,155,27,F,NA,constant,heterogeneous,6,absent,1.59716105461121,1,horizontal,horizontal,1,0.894116032975061,green,2,NaN,1039.62161830041,687.215136548046,NaN,NaN,844.280285305067,851.125977018113,1039.62161830041,687.215136548046,995.341332995339,436.089159529932,755.719714694933,348.874022981887,560.378381699593,512.784863451954,604.658667004661,763.910840470068,0,4,6,3,5,0,vertical,horizontal,horizontal,horizontal,horizontal,horizontal
1b,21,100215,3,28,156,27,F,NA,constant,heterogeneous,4,present,1.89412093162537,1,horizontal,horizontal,1,0.847057467699051,green,1,3,688.215357568785,829.192481806288,911.784642431215,370.807518193712,688.215357568785,829.192481806288,1029.19248180629,711.784642431215,911.784642431215,370.807518193712,570.807518193712,488.215357568785,0,0,0,0,4,0,3,0,NaN,NaN,horizontal,horizontal,vertical,horizontal,none,none
1b,21,100215,3,29,157,27,F,NA,constant,heterogeneous,3,absent,1.460205078125,1,vertical,vertical,1,0.999997804846082,green,2,NaN,1023.02802532055,723.626453162816,NaN,NaN,581.422338320961,731.334709102064,1023.02802532055,723.626453162816,795.549636358493,345.03883773512,0,0,0,0,0,0,6,4,3,NaN,NaN,NaN,horizontal,vertical,vertical,none,none,none
1b,21,100215,3,30,158,27,F,NA,constant,heterogeneous,6,present,1.28992390632629,1,horizontal,horizontal,1,0.611764641319002,green,6,4,643.006323791957,800.942742169714,704.475318678942,363.568117085469,895.524681321058,836.431882914531,1052.5183575291,635.489140744817,956.993676208043,399.057257830286,704.475318678942,363.568117085469,547.481642470899,564.510859255183,643.006323791957,800.942742169714,6,6,0,3,5,4,horizontal,horizontal,horizontal,vertical,vertical,horizontal
1b,21,100215,3,31,159,27,F,NA,constant,heterogeneous,3,absent,1.39620518684387,1,horizontal,horizontal,1,1.02352708748409,green,1,NaN,915.767577433584,827.206663668034,NaN,NaN,915.767577433584,827.206663668034,938.882953928832,386.139005173917,545.349468637584,586.654331158049,0,0,0,0,0,0,4,3,0,NaN,NaN,NaN,horizontal,horizontal,vertical,none,none,none
1b,21,100215,3,32,160,27,F,NA,constant,heterogeneous,5,absent,1.64771389961243,1,horizontal,horizontal,1,0.964703880889075,green,5,NaN,547.481642470899,564.510859255183,NaN,NaN,688.215357568785,829.192481806288,983.431649086356,777.137884467044,1025.15163617903,480.284751489598,755.719714694933,348.874022981887,547.481642470899,564.510859255183,0,0,3,5,5,6,4,NaN,vertical,horizontal,horizontal,horizontal,horizontal,none
1b,21,100215,3,33,161,27,F,NA,constant,heterogeneous,4,present,1.1280529499054,1,vertical,vertical,1,0.964703880889075,green,4,3,607.549057043193,767.295052392579,632.704947607421,407.549057043193,967.295052392579,792.450942956807,992.450942956807,432.704947607421,632.704947607421,407.549057043193,607.549057043193,767.295052392579,0,0,0,0,0,3,0,4,NaN,NaN,horizontal,horizontal,horizontal,vertical,none,none
1b,21,100215,3,34,162,27,F,NA,constant,heterogeneous,6,absent,NaN,0,vertical,none,0,1.0823502940791,green,2,NaN,1000.94274216971,756.993676208043,NaN,NaN,764.510859255183,852.518357529101,1000.94274216971,756.993676208043,1036.43188291453,504.475318678942,835.489140744817,347.4816424709,599.057257830286,443.006323791957,563.568117085469,695.524681321058,6,4,6,5,0,0,vertical,vertical,vertical,horizontal,horizontal,horizontal
1b,21,100215,3,35,163,27,F,NA,constant,heterogeneous,4,present,1.04270505905151,1,vertical,vertical,1,0.882351391656058,green,3,1,773.345241866748,346.39691668109,826.654758133252,853.60308331891,826.654758133252,853.60308331891,1053.60308331891,573.345241866748,773.345241866748,346.39691668109,546.39691668109,626.654758133252,0,0,0,0,0,3,4,6,NaN,NaN,vertical,vertical,vertical,horizontal,none,none
1b,21,100215,3,36,164,27,F,NA,constant,heterogeneous,3,absent,1.26391315460205,1,vertical,vertical,1,0.811763543742044,green,3,NaN,553.688914296288,665.998856501143,NaN,NaN,980.31222920257,780.31222920257,865.998856501143,353.688914296288,553.688914296288,665.998856501143,0,0,0,0,0,0,0,6,4,NaN,NaN,NaN,vertical,vertical,vertical,none,none,none
1b,21,100215,3,37,165,27,F,NA,constant,heterogeneous,5,present,1.53886198997498,1,horizontal,horizontal,1,0.670587847914014,green,4,3,729.712474266665,354.878267535729,1011.40458100154,457.40580961496,712.784863451954,839.621618300407,1000.94274216971,756.993676208043,1011.40458100154,457.40580961496,729.712474266665,354.878267535729,545.155339110131,591.100628340862,0,0,5,3,3,4,6,NaN,horizontal,horizontal,horizontal,horizontal,vertical,none
1b,21,100215,3,38,166,27,F,NA,constant,heterogeneous,3,absent,1.03764390945435,1,horizontal,horizontal,1,0.799998902423041,green,2,NaN,1047.42541020038,538.309916622085,NaN,NaN,729.712474266665,845.121732464271,1047.42541020038,538.309916622085,622.862115532956,416.568350913644,0,0,0,0,0,0,5,4,6,NaN,NaN,NaN,vertical,horizontal,horizontal,none,none,none
1b,21,100215,3,39,167,27,F,NA,constant,heterogeneous,4,present,0.766987085342407,1,vertical,vertical,1,0.823528185061046,green,3,1,688.215357568785,370.807518193712,911.784642431215,829.192481806288,911.784642431215,829.192481806288,1029.19248180629,488.215357568785,688.215357568785,370.807518193712,570.807518193712,711.784642431215,0,0,0,0,5,5,4,6,NaN,NaN,vertical,horizontal,vertical,horizontal,none,none
1b,21,100215,3,40,168,27,F,NA,constant,heterogeneous,6,absent,1.43252491950989,1,horizontal,horizontal,1,1.0941149353981,green,1,NaN,844.280285305067,851.125977018113,NaN,NaN,844.280285305067,851.125977018113,1039.62161830041,687.215136548046,995.341332995339,436.089159529932,755.719714694933,348.874022981887,560.378381699593,512.784863451954,604.658667004661,763.910840470068,4,0,5,3,3,6,horizontal,vertical,horizontal,horizontal,vertical,horizontal
1b,21,100215,3,41,169,27,F,NA,constant,heterogeneous,5,absent,1.10930705070496,0,vertical,horizontal,1,0.6,green,5,NaN,643.006323791957,800.942742169714,NaN,NaN,942.594190385041,811.404581001536,1045.12173246427,529.712474266665,808.899371659138,345.155339110131,560.378381699593,512.784863451954,643.006323791957,800.942742169714,0,0,6,0,3,3,4,NaN,horizontal,horizontal,horizontal,vertical,vertical,none
1b,21,100215,3,42,170,27,F,NA,constant,heterogeneous,6,present,NaN,0,horizontal,none,0,0.705881771871022,green,3,2,1011.40458100154,457.40580961496,1029.19248180629,711.784642431215,817.787900804752,854.378832816255,1029.19248180629,711.784642431215,1011.40458100154,457.40580961496,782.212099195248,345.621167183745,570.807518193712,488.215357568785,588.595418998464,742.594190385041,3,6,4,6,0,3,horizontal,vertical,horizontal,vertical,horizontal,horizontal
1b,21,100215,3,43,171,27,F,NA,constant,heterogeneous,3,present,0.919230937957764,1,horizontal,horizontal,1,1.05882101144109,green,2,1,973.909581815937,413.504806087112,874.554784704298,843.857712770574,874.554784704298,843.857712770574,973.909581815937,413.504806087112,551.535633479765,542.637481142314,0,0,0,0,0,0,3,4,0,NaN,NaN,NaN,horizontal,horizontal,vertical,none,none,none
1b,21,100215,3,44,172,27,F,NA,constant,heterogeneous,3,absent,0.644117116928101,1,horizontal,horizontal,1,0.705881771871022,green,2,NaN,878.799333565612,357.480588344736,NaN,NaN,970.628304621509,789.501930496736,878.799333565612,357.480588344736,550.57236181288,653.017481158529,0,0,0,0,0,0,3,4,6,NaN,NaN,NaN,horizontal,horizontal,horizontal,none,none,none
1b,21,100215,3,45,173,27,F,NA,constant,heterogeneous,5,absent,1.63406205177307,1,horizontal,horizontal,1,0.858822109018053,green,1,NaN,804.450363641507,854.96116226488,NaN,NaN,804.450363641507,854.96116226488,1043.85771277057,674.554784704298,946.261991269517,391.116228706307,646.537169096228,396.34794493794,558.892763222174,683.019879386575,0,0,4,0,6,5,0,NaN,horizontal,vertical,horizontal,vertical,vertical,none
1b,21,100215,3,46,174,27,F,NA,constant,heterogeneous,6,absent,NaN,0,horizontal,none,0,0.682352489233017,green,3,NaN,1000.94274216971,443.006323791957,NaN,NaN,835.489140744817,852.518357529101,1036.43188291453,695.524681321058,1000.94274216971,443.006323791957,764.510859255183,347.4816424709,563.568117085469,504.475318678942,599.057257830286,756.993676208043,3,5,4,0,6,5,horizontal,vertical,horizontal,horizontal,vertical,vertical
1b,21,100215,3,47,175,27,F,NA,constant,heterogeneous,5,absent,1.68539595603943,0,vertical,horizontal,1,0.823528185061046,green,5,NaN,551.535633479765,542.637481142314,NaN,NaN,668.665290897936,818.577661679039,967.295052392579,792.450942956807,1034.72873763037,500.363562235235,777.775285599347,345.970351986605,551.535633479765,542.637481142314,0,0,0,3,6,5,4,NaN,vertical,vertical,horizontal,vertical,vertical,none
1b,21,100215,3,48,176,27,F,NA,constant,heterogeneous,5,present,1.40850901603699,1,vertical,vertical,1,0.847057467699051,green,1,3,857.362518857686,848.464366520235,899.636437764765,365.271262369628,857.362518857686,848.464366520235,1054.0296480134,622.224714400653,899.636437764765,365.271262369628,607.549057043193,432.704947607421,581.422338320961,731.334709102064,0,0,4,6,0,3,5,NaN,vertical,vertical,horizontal,horizontal,vertical,none
1b,21,100215,3,49,177,27,F,NA,constant,heterogeneous,3,present,1.33836817741394,1,horizontal,horizontal,1,0.882351391656058,green,1,3,680.284751489598,825.151636179026,664.870587620533,383.747735480111,680.284751489598,825.151636179026,1054.84466088987,591.100628340862,664.870587620533,383.747735480111,0,0,0,0,0,0,4,5,0,NaN,NaN,NaN,horizontal,horizontal,horizontal,none,none,none
1b,21,100215,3,50,178,27,F,NA,constant,heterogeneous,5,present,1.60136699676514,1,horizontal,horizontal,1,0.611764641319002,green,1,3,650.114760665419,806.299333565612,1042.51941165526,521.200666434388,650.114760665419,806.299333565612,949.885239334581,806.299333565612,1042.51941165526,521.200666434388,800,345,557.480588344736,521.200666434388,0,0,4,6,0,5,3,NaN,horizontal,vertical,horizontal,vertical,horizontal,none
1b,21,100215,3,51,179,27,F,NA,constant,heterogeneous,5,present,1.17577981948853,1,vertical,vertical,1,0.717646413190024,green,2,1,967.295052392579,792.450942956807,668.665290897936,818.577661679039,668.665290897936,818.577661679039,967.295052392579,792.450942956807,1034.72873763037,500.363562235235,777.775285599347,345.970351986605,551.535633479765,542.637481142314,0,0,0,4,3,5,6,NaN,vertical,vertical,horizontal,vertical,horizontal,none
1b,21,100215,3,52,180,27,F,NA,constant,heterogeneous,6,present,1.38026785850525,1,vertical,vertical,1,0.823528185061046,green,4,2,721.200666434388,357.480588344736,1049.42763818712,653.017481158529,878.799333565612,842.519411655264,1049.42763818712,653.017481158529,970.628304621509,410.498069503264,721.200666434388,357.480588344736,550.57236181288,546.982518841471,629.371695378491,789.501930496736,0,0,3,4,3,5,vertical,vertical,horizontal,vertical,vertical,vertical
1b,21,100215,3,53,181,27,F,NA,constant,heterogeneous,5,absent,1.77316117286682,1,horizontal,horizontal,1,0.858822109018053,green,4,NaN,574.848363820974,480.284751489598,NaN,NaN,911.784642431215,829.192481806288,1052.5183575291,564.510859255183,844.280285305067,348.874022981887,574.848363820974,480.284751489598,616.568350913644,777.137884467044,0,0,5,3,0,4,0,NaN,vertical,vertical,vertical,horizontal,vertical,none
1b,21,100215,3,54,182,27,F,NA,constant,heterogeneous,5,present,1.40901517868042,1,vertical,vertical,1,0.611764641319002,green,1,3,848.656293821019,850.314931779154,907.767656743878,368.891514305654,848.656293821019,850.314931779154,1053.09926866854,631.076682568313,907.767656743878,368.891514305654,613.504806087112,426.090418184063,576.971974679454,723.626453162816,0,0,4,3,3,0,5,NaN,vertical,vertical,vertical,vertical,vertical,none
1b,21,100215,3,55,183,27,F,NA,constant,heterogeneous,3,absent,1.16110706329346,1,vertical,vertical,1,1.01176244616508,green,1,NaN,927.5,820.836477965032,NaN,NaN,927.5,820.836477965032,927.5,379.163522034968,545,600,0,0,0,0,0,0,4,3,5,NaN,NaN,NaN,vertical,horizontal,horizontal,none,none,none
1b,21,100215,3,56,184,27,F,NA,constant,heterogeneous,6,present,NaN,0,vertical,none,0,0.811763543742044,green,3,1,949.885239334581,393.700666434388,903.717843984329,832.954091698863,903.717843984329,832.954091698863,1053.60308331891,626.654758133252,949.885239334581,393.700666434388,696.282156015671,367.045908301137,546.39691668109,573.345241866748,650.114760665419,806.299333565612,3,3,4,6,0,5,vertical,horizontal,vertical,vertical,horizontal,horizontal
1b,21,100215,3,57,185,27,F,NA,constant,heterogeneous,5,present,0.985399007797241,1,vertical,vertical,1,1.01176244616508,green,5,3,545.349468637584,586.654331158049,1013.86099482608,461.117046071168,708.616172865948,838.063008756786,998.172220171528,760.476699717708,1013.86099482608,461.117046071168,734.001143498857,353.688914296288,545.349468637584,586.654331158049,0,0,6,0,5,5,4,NaN,horizontal,vertical,horizontal,horizontal,vertical,none
1b,21,100215,3,58,186,27,F,NA,constant,heterogeneous,6,present,0.713638067245483,1,vertical,vertical,1,0.811763543742044,green,5,6,550.57236181288,546.982518841471,629.371695378491,789.501930496736,878.799333565612,842.519411655264,1049.42763818712,653.017481158529,970.628304621509,410.498069503264,721.200666434388,357.480588344736,550.57236181288,546.982518841471,629.371695378491,789.501930496736,3,6,3,0,4,6,vertical,horizontal,vertical,horizontal,vertical,vertical
1b,21,100215,3,59,187,27,F,NA,constant,heterogeneous,3,absent,0.792229175567627,1,vertical,vertical,1,0.811763543742044,green,2,NaN,1036.43188291453,695.524681321058,NaN,NaN,599.057257830286,756.993676208043,1036.43188291453,695.524681321058,764.510859255183,347.4816424709,0,0,0,0,0,0,6,4,0,NaN,NaN,NaN,vertical,vertical,horizontal,none,none,none
1b,21,100215,3,60,188,27,F,NA,constant,heterogeneous,4,present,0.675577163696289,1,vertical,vertical,1,0.964703880889075,green,2,3,1020.83647796503,472.5,672.5,379.163522034968,927.5,820.836477965032,1020.83647796503,472.5,672.5,379.163522034968,579.163522034968,727.5,0,0,0,0,5,4,3,6,NaN,NaN,vertical,vertical,horizontal,horizontal,none,none
1b,21,100215,3,61,189,27,F,NA,constant,heterogeneous,4,absent,1.04219818115234,1,vertical,vertical,1,1.04705637012209,green,1,NaN,883.019879386575,841.107236777826,NaN,NaN,883.019879386575,841.107236777826,1041.10723677783,516.980120613425,716.980120613425,358.892763222174,558.892763222174,683.019879386575,0,0,0,0,4,0,5,3,NaN,NaN,vertical,vertical,vertical,vertical,none,none
1b,21,100215,3,62,190,27,F,NA,constant,heterogeneous,3,present,0.583905935287476,1,vertical,vertical,1,1.03529172880309,green,2,1,1050.31493177915,648.656293821019,632.704947607421,792.450942956807,632.704947607421,792.450942956807,1050.31493177915,648.656293821019,716.980120613425,358.892763222174,0,0,0,0,0,0,5,4,0,NaN,NaN,NaN,horizontal,vertical,horizontal,none,none,none
1b,21,100215,3,63,191,27,F,NA,constant,heterogeneous,4,absent,1.06961703300476,1,vertical,vertical,1,0.894116032975061,green,3,NaN,700.363562235235,365.271262369628,NaN,NaN,899.636437764765,834.728737630372,1034.72873763037,500.363562235235,700.363562235235,365.271262369628,565.271262369628,699.636437764765,0,0,0,0,0,5,4,6,NaN,NaN,vertical,horizontal,vertical,vertical,none,none
1b,21,100215,3,64,192,27,F,NA,constant,heterogeneous,6,absent,NaN,0,vertical,none,0,0.905880674294063,green,1,NaN,813.345668841951,854.650531362416,NaN,NaN,813.345668841951,854.650531362416,1027.20666366803,715.767577433584,1013.86099482608,461.117046071168,786.654331158049,345.349468637584,572.793336331966,484.232422566416,586.139005173917,738.882953928832,4,3,0,6,0,5,vertical,horizontal,horizontal,vertical,vertical,horizontal
1b,21,100215,4,1,193,27,F,NA,constant,heterogeneous,6,absent,1.44611406326294,0,vertical,horizontal,1,0.6,green,4,NaN,853.017481158529,350.57236181288,NaN,NaN,746.982518841471,849.42763818712,989.501930496736,770.628304621509,1042.51941165526,521.200666434388,853.017481158529,350.57236181288,610.498069503264,429.371695378491,557.480588344736,678.799333565612,0,5,5,4,3,3,vertical,horizontal,horizontal,vertical,horizontal,vertical
1b,21,100215,4,2,194,27,F,NA,constant,heterogeneous,6,absent,1.71707201004028,1,horizontal,horizontal,1,0.894116032975061,green,1,NaN,919.715248510402,825.151636179026,NaN,NaN,919.715248510402,825.151636179026,1054.84466088987,608.899371659138,935.129412379467,383.747735480111,680.284751489598,374.848363820974,545.155339110131,591.100628340862,664.870587620533,816.252264519889,4,0,0,6,3,3,horizontal,vertical,horizontal,vertical,horizontal,horizontal
1b,21,100215,4,3,195,27,F,NA,constant,heterogeneous,6,present,1.37319588661194,1,horizontal,horizontal,1,0.670587847914014,green,2,5,977.137884467044,783.431649086356,622.862115532956,416.568350913644,729.712474266665,845.121732464271,977.137884467044,783.431649086356,1047.42541020038,538.309916622085,870.287525733335,354.878267535729,622.862115532956,416.568350913644,552.574589799621,661.690083377915,0,4,6,6,0,5,horizontal,horizontal,horizontal,horizontal,vertical,vertical
1b,21,100215,4,4,196,27,F,NA,constant,heterogeneous,6,present,0.756463050842285,1,vertical,vertical,1,0.776469619785036,green,5,6,643.006323791957,399.057257830286,547.481642470899,635.489140744817,704.475318678942,836.431882914531,956.993676208043,800.942742169714,1052.5183575291,564.510859255183,895.524681321058,363.568117085469,643.006323791957,399.057257830286,547.481642470899,635.489140744817,5,3,3,6,4,0,vertical,horizontal,vertical,horizontal,vertical,horizontal
1b,21,100215,4,5,197,27,F,NA,constant,heterogeneous,4,absent,1.21199297904968,1,horizontal,horizontal,1,0.811763543742044,green,1,NaN,716.980120613425,841.107236777826,NaN,NaN,716.980120613425,841.107236777826,1041.10723677783,683.019879386575,883.019879386575,358.892763222174,558.892763222174,516.980120613425,0,0,0,0,4,6,5,6,NaN,NaN,horizontal,vertical,vertical,vertical,none,none
1b,21,100215,4,6,198,27,F,NA,constant,heterogeneous,4,absent,1.08056092262268,1,vertical,vertical,1,0.811763543742044,green,2,NaN,1027.20666366803,484.232422566416,NaN,NaN,915.767577433584,827.206663668034,1027.20666366803,484.232422566416,684.232422566416,372.793336331966,572.793336331966,715.767577433584,0,0,0,0,3,4,5,0,NaN,NaN,vertical,vertical,horizontal,vertical,none,none
1b,21,100215,4,7,199,27,F,NA,constant,heterogeneous,6,absent,1.26356506347656,1,horizontal,horizontal,1,0.870586750337056,green,4,NaN,907.767656743878,368.891514305654,NaN,NaN,692.232343256122,831.108485694346,946.261991269517,808.883771293693,1054.0296480134,577.775285599347,907.767656743878,368.891514305654,653.738008730483,391.116228706307,545.970351986605,622.224714400653,6,5,3,4,6,0,vertical,vertical,horizontal,horizontal,vertical,horizontal
1b,21,100215,4,8,200,27,F,NA,constant,heterogeneous,5,present,0.841815948486328,1,vertical,vertical,1,0.623529282638005,green,5,3,545.970351986605,577.775285599347,1018.57766167904,468.665290897936,700.363562235235,834.728737630372,992.450942956807,767.295052392579,1018.57766167904,468.665290897936,742.637481142314,351.535633479765,545.970351986605,577.775285599347,0,0,5,3,6,0,4,NaN,horizontal,horizontal,horizontal,vertical,vertical,none
1b,21,100215,4,9,201,27,F,NA,constant,heterogeneous,6,present,1.76680493354797,1,horizontal,horizontal,1,0.611764641319002,green,5,1,599.057257830286,443.006323791957,764.510859255183,852.518357529101,764.510859255183,852.518357529101,1000.94274216971,756.993676208043,1036.43188291453,504.475318678942,835.489140744817,347.4816424709,599.057257830286,443.006323791957,563.568117085469,695.524681321058,3,5,3,6,4,0,horizontal,vertical,horizontal,horizontal,horizontal,vertical
1b,21,100215,4,10,202,27,F,NA,constant,heterogeneous,6,absent,0.804967880249023,1,horizontal,horizontal,1,0.929409956932068,green,5,NaN,619.68777079743,419.68777079743,NaN,NaN,734.001143498857,846.311085703712,980.31222920257,780.31222920257,1046.31108570371,534.001143498857,865.998856501143,353.688914296288,619.68777079743,419.68777079743,553.688914296288,665.998856501143,3,0,3,6,4,5,vertical,vertical,horizontal,vertical,horizontal,horizontal
1b,21,100215,4,11,203,27,F,NA,constant,heterogeneous,6,present,1.36788988113403,1,horizontal,horizontal,1,0.929409956932068,green,2,1,1023.02802532055,723.626453162816,804.450363641507,854.96116226488,804.450363641507,854.96116226488,1023.02802532055,723.626453162816,1018.57766167904,468.665290897936,795.549636358493,345.03883773512,576.971974679454,476.373546837184,581.422338320961,731.334709102064,5,4,6,3,6,5,horizontal,horizontal,vertical,vertical,horizontal,horizontal
1b,21,100215,4,12,204,27,F,NA,constant,heterogeneous,6,present,1.23702096939087,1,vertical,vertical,1,0.682352489233017,green,1,3,782.212099195248,854.378832816255,1029.19248180629,488.215357568785,782.212099195248,854.378832816255,1011.40458100154,742.594190385041,1029.19248180629,488.215357568785,817.787900804752,345.621167183745,588.595418998464,457.40580961496,570.807518193712,711.784642431215,4,3,5,5,0,6,vertical,horizontal,vertical,vertical,vertical,horizontal
1b,21,100215,4,13,205,27,F,NA,constant,heterogeneous,3,absent,0.687947988510132,1,vertical,vertical,1,1.0941149353981,green,2,NaN,1038.06300875679,508.616172865948,NaN,NaN,760.109211414741,851.86052685176,1038.06300875679,508.616172865948,601.827779828472,439.523300282291,0,0,0,0,0,0,6,4,0,NaN,NaN,NaN,vertical,vertical,vertical,none,none,none
1b,21,100215,4,14,206,27,F,NA,constant,heterogeneous,5,absent,0.903377056121826,1,vertical,vertical,1,0.882351391656058,green,4,NaN,596.34794493794,446.537169096228,NaN,NaN,874.554784704298,843.857712770574,1054.96116226488,604.450363641507,883.019879386575,358.892763222174,596.34794493794,446.537169096228,591.116228706307,746.261991269517,0,0,5,5,3,4,6,NaN,horizontal,horizontal,horizontal,vertical,vertical,none
1b,21,100215,4,15,207,27,F,NA,constant,heterogeneous,5,absent,1.01415109634399,1,horizontal,horizontal,1,1.02352708748409,green,1,NaN,931.334709102064,818.577661679039,NaN,NaN,931.334709102064,818.577661679039,1048.46436652023,542.637481142314,822.224714400653,345.970351986605,565.271262369628,500.363562235235,632.704947607421,792.450942956807,0,0,4,6,3,5,0,NaN,horizontal,horizontal,horizontal,vertical,vertical,none
1b,21,100215,4,16,208,27,F,NA,constant,heterogeneous,3,present,1.11401796340942,1,horizontal,horizontal,1,0.764704978466034,green,1,3,593.700666434388,749.885239334581,773.345241866748,346.39691668109,593.700666434388,749.885239334581,1032.95409169886,703.717843984329,773.345241866748,346.39691668109,0,0,0,0,0,0,4,0,5,NaN,NaN,NaN,horizontal,horizontal,horizontal,none,none,none
1b,21,100215,4,17,209,27,F,NA,constant,heterogeneous,4,absent,NaN,0,horizontal,none,0,0.611764641319002,green,3,NaN,839.890788585259,348.13947314824,NaN,NaN,760.109211414741,851.86052685176,1051.86052685176,639.890788585259,839.890788585259,348.13947314824,548.13947314824,560.109211414741,0,0,0,0,6,0,4,3,NaN,NaN,horizontal,horizontal,horizontal,vertical,none,none
1b,21,100215,4,18,210,27,F,NA,constant,heterogeneous,3,absent,0.657808780670166,1,vertical,vertical,1,0.658823206595012,green,2,NaN,1054.65053136242,586.654331158049,NaN,NaN,684.232422566416,827.206663668034,1054.65053136242,586.654331158049,661.117046071168,386.139005173917,0,0,0,0,0,0,6,4,0,NaN,NaN,NaN,vertical,vertical,vertical,none,none,none
1b,21,100215,4,19,211,27,F,NA,constant,heterogeneous,3,present,0.869192123413086,1,horizontal,horizontal,1,0.694117130552019,green,1,3,967.295052392579,792.450942956807,549.685068220846,648.656293821019,967.295052392579,792.450942956807,883.019879386575,358.892763222174,549.685068220846,648.656293821019,0,0,0,0,0,0,4,5,3,NaN,NaN,NaN,horizontal,vertical,horizontal,none,none,none
1b,21,100215,4,20,212,27,F,NA,constant,heterogeneous,4,absent,0.708884954452515,1,vertical,vertical,1,0.894116032975061,green,4,NaN,607.549057043193,767.295052392579,NaN,NaN,967.295052392579,792.450942956807,992.450942956807,432.704947607421,632.704947607421,407.549057043193,607.549057043193,767.295052392579,0,0,0,0,0,6,5,4,NaN,NaN,horizontal,horizontal,horizontal,vertical,none,none
1b,21,100215,4,21,213,27,F,NA,constant,heterogeneous,6,absent,1.50406193733215,1,horizontal,horizontal,1,1.04705637012209,green,3,NaN,1025.15163617903,480.284751489598,NaN,NaN,791.100628340862,854.844660889869,1016.25226451989,735.129412379467,1025.15163617903,480.284751489598,808.899371659138,345.155339110131,583.747735480111,464.870587620533,574.848363820974,719.715248510402,5,5,4,0,0,3,horizontal,vertical,horizontal,horizontal,vertical,horizontal
1b,21,100215,4,22,214,27,F,NA,constant,heterogeneous,5,absent,1.07792997360229,1,vertical,vertical,1,0.976468522208078,green,2,NaN,1029.19248180629,711.784642431215,NaN,NaN,764.510859255183,852.518357529101,1029.19248180629,711.784642431215,977.137884467044,416.568350913644,680.284751489598,374.848363820974,548.874022981887,644.280285305067,0,0,3,4,6,6,0,NaN,vertical,vertical,vertical,horizontal,horizontal,none
1b,21,100215,4,23,215,27,F,NA,constant,heterogeneous,4,present,NaN,0,horizontal,none,0,0.658823206595012,green,3,4,773.345241866748,346.39691668109,546.39691668109,626.654758133252,826.654758133252,853.60308331891,1053.60308331891,573.345241866748,773.345241866748,346.39691668109,546.39691668109,626.654758133252,0,0,0,0,5,0,4,6,NaN,NaN,vertical,horizontal,horizontal,vertical,none,none
1b,21,100215,4,24,216,27,F,NA,constant,heterogeneous,4,present,1.54309988021851,1,vertical,vertical,1,1.0941149353981,green,4,2,567.045908301137,703.717843984329,1032.95409169886,496.282156015671,903.717843984329,832.954091698863,1032.95409169886,496.282156015671,696.282156015671,367.045908301137,567.045908301137,703.717843984329,0,0,0,0,5,3,6,4,NaN,NaN,horizontal,vertical,horizontal,vertical,none,none
1b,21,100215,4,25,217,27,F,NA,constant,heterogeneous,4,present,0.775439977645874,1,horizontal,horizontal,1,0.670587847914014,green,3,4,661.117046071168,386.139005173917,586.139005173917,738.882953928832,938.882953928832,813.860994826083,1013.86099482608,461.117046071168,661.117046071168,386.139005173917,586.139005173917,738.882953928832,0,0,0,0,3,5,4,0,NaN,NaN,horizontal,horizontal,horizontal,vertical,none,none
1b,21,100215,4,26,218,27,F,NA,constant,heterogeneous,5,absent,0.831115961074829,1,vertical,vertical,1,0.788234261104039,green,1,NaN,764.510859255183,852.518357529101,NaN,NaN,764.510859255183,852.518357529101,1029.19248180629,711.784642431215,977.137884467044,416.568350913644,680.284751489598,374.848363820974,548.874022981887,644.280285305067,0,0,4,5,3,3,0,NaN,vertical,horizontal,vertical,horizontal,horizontal,none
1b,21,100215,4,27,219,27,F,NA,constant,heterogeneous,5,present,1.03051900863647,1,horizontal,horizontal,1,0.741175695828029,green,5,3,579.163522034968,727.5,903.717843984329,367.045908301137,853.017481158529,849.42763818712,1053.60308331891,626.654758133252,903.717843984329,367.045908301137,610.498069503264,429.371695378491,579.163522034968,727.5,0,0,5,0,0,6,4,NaN,horizontal,horizontal,vertical,vertical,horizontal,none
1b,21,100215,4,28,220,27,F,NA,constant,heterogeneous,5,present,1.27874302864075,1,horizontal,horizontal,1,0.964703880889075,green,2,5,949.885239334581,806.299333565612,557.480588344736,521.200666434388,650.114760665419,806.299333565612,949.885239334581,806.299333565612,1042.51941165526,521.200666434388,800,345,557.480588344736,521.200666434388,0,0,5,4,3,3,0,NaN,vertical,horizontal,vertical,vertical,vertical,none
1b,21,100215,4,29,221,27,F,NA,constant,heterogeneous,6,absent,NaN,0,vertical,none,0,0.894116032975061,green,3,NaN,1049.42763818712,546.982518841471,NaN,NaN,721.200666434388,842.519411655264,970.628304621509,789.501930496736,1049.42763818712,546.982518841471,878.799333565612,357.480588344736,629.371695378491,410.498069503264,550.57236181288,653.017481158529,0,6,4,3,3,5,horizontal,vertical,vertical,horizontal,horizontal,vertical
1b,21,100215,4,30,222,27,F,NA,constant,heterogeneous,6,absent,1.32956886291504,1,vertical,vertical,1,0.752940337147031,green,3,NaN,1036.43188291453,504.475318678942,NaN,NaN,764.510859255183,852.518357529101,1000.94274216971,756.993676208043,1036.43188291453,504.475318678942,835.489140744817,347.4816424709,599.057257830286,443.006323791957,563.568117085469,695.524681321058,0,6,4,5,5,0,horizontal,horizontal,vertical,vertical,vertical,horizontal
1b,21,100215,4,31,223,27,F,NA,constant,heterogeneous,3,absent,0.983536958694458,1,horizontal,horizontal,1,0.964703880889075,green,3,NaN,557.480588344736,521.200666434388,NaN,NaN,853.017481158529,849.42763818712,989.501930496736,429.371695378491,557.480588344736,521.200666434388,0,0,0,0,0,0,6,6,4,NaN,NaN,NaN,vertical,horizontal,horizontal,none,none,none
1b,21,100215,4,32,224,27,F,NA,constant,heterogeneous,4,absent,1.73805117607117,1,horizontal,horizontal,1,0.729411054509027,green,2,NaN,1006.29933356561,450.114760665419,NaN,NaN,949.885239334581,806.299333565612,1006.29933356561,450.114760665419,650.114760665419,393.700666434388,593.700666434388,749.885239334581,0,0,0,0,0,4,3,5,NaN,NaN,horizontal,horizontal,horizontal,vertical,none,none
1b,21,100215,4,33,225,27,F,NA,constant,heterogeneous,3,absent,0.00133299827575684,0,vertical,horizontal,1,1.0941149353981,green,1,NaN,622.862115532956,783.431649086356,NaN,NaN,622.862115532956,783.431649086356,1047.42541020038,661.690083377915,729.712474266665,354.878267535729,0,0,0,0,0,0,4,3,0,NaN,NaN,NaN,vertical,horizontal,vertical,none,none,none
1b,21,100215,4,34,226,27,F,NA,constant,heterogeneous,4,present,0.935734987258911,1,vertical,vertical,1,1.03529172880309,green,3,4,768.923317431687,346.900731331463,546.900731331463,631.076682568313,831.076682568313,853.099268668537,1053.09926866854,568.923317431687,768.923317431687,346.900731331463,546.900731331463,631.076682568313,0,0,0,0,5,3,4,0,NaN,NaN,vertical,vertical,vertical,vertical,none,none
1b,21,100215,4,35,227,27,F,NA,constant,heterogeneous,3,absent,0.904691934585571,1,vertical,vertical,1,0.905880674294063,green,3,NaN,563.568117085469,504.475318678942,NaN,NaN,835.489140744817,852.518357529101,1000.94274216971,443.006323791957,563.568117085469,504.475318678942,0,0,0,0,0,0,0,5,4,NaN,NaN,NaN,vertical,vertical,vertical,none,none,none
1b,21,100215,4,36,228,27,F,NA,constant,heterogeneous,3,present,1.04498910903931,1,vertical,vertical,1,1.0941149353981,green,1,3,870.287525733335,845.121732464271,552.574589799621,538.309916622085,870.287525733335,845.121732464271,977.137884467044,416.568350913644,552.574589799621,538.309916622085,0,0,0,0,0,0,4,5,0,NaN,NaN,NaN,vertical,vertical,horizontal,none,none,none
1b,21,100215,4,37,229,27,F,NA,constant,heterogeneous,3,present,0.722042083740234,1,vertical,vertical,1,0.611764641319002,green,2,3,1023.02802532055,476.373546837184,581.422338320961,468.665290897936,795.549636358493,854.96116226488,1023.02802532055,476.373546837184,581.422338320961,468.665290897936,0,0,0,0,0,0,6,4,6,NaN,NaN,NaN,vertical,vertical,horizontal,none,none,none
1b,21,100215,4,38,230,27,F,NA,constant,heterogeneous,6,present,1.2559769153595,1,vertical,vertical,1,0.752940337147031,green,2,1,983.431649086356,777.137884467044,738.309916622085,847.425410200379,738.309916622085,847.425410200379,983.431649086356,777.137884467044,1045.12173246427,529.712474266665,861.690083377915,352.574589799621,616.568350913644,422.862115532956,554.878267535729,670.287525733335,5,4,5,3,0,6,vertical,vertical,vertical,vertical,horizontal,horizontal
1b,21,100215,4,39,231,27,F,NA,constant,heterogeneous,3,absent,1.06583690643311,1,horizontal,horizontal,1,0.635293923957007,green,3,NaN,661.117046071168,386.139005173917,NaN,NaN,684.232422566416,827.206663668034,1054.65053136242,586.654331158049,661.117046071168,386.139005173917,0,0,0,0,0,0,0,3,4,NaN,NaN,NaN,vertical,vertical,horizontal,none,none,none
1b,21,100215,4,40,232,27,F,NA,constant,heterogeneous,4,absent,1.43651390075684,1,horizontal,horizontal,1,0.870586750337056,green,4,NaN,599.057257830286,756.993676208043,NaN,NaN,956.993676208043,800.942742169714,1000.94274216971,443.006323791957,643.006323791957,399.057257830286,599.057257830286,756.993676208043,0,0,0,0,5,6,6,4,NaN,NaN,vertical,horizontal,vertical,horizontal,none,none
1b,21,100215,4,41,233,27,F,NA,constant,heterogeneous,5,present,NaN,0,horizontal,none,0,0.670587847914014,green,5,4,588.595418998464,742.594190385041,599.057257830286,443.006323791957,870.287525733335,845.121732464271,1054.84466088987,608.899371659138,887.215136548046,360.378381699593,599.057257830286,443.006323791957,588.595418998464,742.594190385041,0,0,0,3,5,0,4,NaN,vertical,horizontal,horizontal,horizontal,horizontal,none
1b,21,100215,4,42,234,27,F,NA,constant,heterogeneous,3,present,1.07821202278137,1,horizontal,horizontal,1,0.94117459825107,green,3,2,561.936991243214,691.383827134052,839.890788585259,348.13947314824,998.172220171528,760.476699717708,839.890788585259,348.13947314824,561.936991243214,691.383827134052,0,0,0,0,0,0,0,5,4,NaN,NaN,NaN,horizontal,vertical,horizontal,none,none,none
1b,21,100215,4,43,235,27,F,NA,constant,heterogeneous,4,absent,0.79979395866394,1,vertical,vertical,1,1.01176244616508,green,2,NaN,1034.72873763037,699.636437764765,NaN,NaN,700.363562235235,834.728737630372,1034.72873763037,699.636437764765,899.636437764765,365.271262369628,565.271262369628,500.363562235235,0,0,0,0,0,4,3,6,NaN,NaN,horizontal,vertical,vertical,horizontal,none,none
1b,21,100215,4,44,236,27,F,NA,constant,heterogeneous,3,present,0.680665969848633,1,vertical,vertical,1,1.03529172880309,green,1,3,946.261991269517,808.883771293693,545.970351986605,622.224714400653,946.261991269517,808.883771293693,907.767656743878,368.891514305654,545.970351986605,622.224714400653,0,0,0,0,0,0,4,0,5,NaN,NaN,NaN,vertical,vertical,horizontal,none,none,none
1b,21,100215,4,45,237,27,F,NA,constant,heterogeneous,3,present,0.644823789596558,1,vertical,vertical,1,0.894116032975061,green,3,2,568.891514305654,707.767656743878,822.224714400653,345.970351986605,1008.88377129369,746.261991269517,822.224714400653,345.970351986605,568.891514305654,707.767656743878,0,0,0,0,0,0,0,3,4,NaN,NaN,NaN,horizontal,horizontal,vertical,none,none,none
1b,21,100215,4,46,238,27,F,NA,constant,heterogeneous,4,absent,NaN,0,vertical,none,0,0.811763543742044,green,3,NaN,764.510859255183,347.4816424709,NaN,NaN,835.489140744817,852.518357529101,1052.5183575291,564.510859255183,764.510859255183,347.4816424709,547.481642470899,635.489140744817,0,0,0,0,6,5,4,0,NaN,NaN,vertical,vertical,vertical,vertical,none,none
1b,21,100215,4,47,239,27,F,NA,constant,heterogeneous,5,absent,NaN,0,horizontal,none,0,0.882351391656058,green,2,NaN,1011.40458100154,742.594190385041,NaN,NaN,729.712474266665,845.121732464271,1011.40458100154,742.594190385041,1000.94274216971,443.006323791957,712.784863451954,360.378381699593,545.155339110131,608.899371659138,0,0,6,4,0,3,0,NaN,horizontal,horizontal,vertical,vertical,horizontal,none
1b,21,100215,4,48,240,27,F,NA,constant,heterogeneous,4,present,0.980784177780151,1,vertical,vertical,1,0.835292826380049,green,3,2,973.909581815937,413.504806087112,986.495193912888,773.909581815937,626.090418184063,786.495193912888,986.495193912888,773.909581815937,973.909581815937,413.504806087112,613.504806087112,426.090418184063,0,0,0,0,3,0,4,5,NaN,NaN,horizontal,vertical,vertical,vertical,none,none
1b,21,100215,4,49,241,27,F,NA,constant,heterogeneous,5,present,0.827532052993774,1,horizontal,horizontal,1,0.741175695828029,green,3,1,895.524681321058,363.568117085469,861.690083377915,847.425410200379,861.690083377915,847.425410200379,1054.37883281626,617.787900804752,895.524681321058,363.568117085469,604.658667004661,436.089159529932,583.747735480111,735.129412379467,0,0,5,5,4,0,3,NaN,vertical,horizontal,horizontal,vertical,vertical,none
1b,21,100215,4,50,242,27,F,NA,constant,heterogeneous,5,absent,0.848517894744873,1,horizontal,horizontal,1,0.999997804846082,green,5,NaN,549.685068220846,551.343706178981,NaN,NaN,676.373546837184,823.028025320546,973.909581815937,786.495193912888,1031.10848569435,492.232343256122,768.923317431687,346.900731331463,549.685068220846,551.343706178981,0,0,5,0,3,5,4,NaN,horizontal,horizontal,horizontal,vertical,horizontal,none
1b,21,100215,4,51,243,27,F,NA,constant,heterogeneous,5,absent,1.4292140007019,1,horizontal,horizontal,1,0.976468522208078,green,5,NaN,550.57236181288,653.017481158529,NaN,NaN,773.345241866748,853.60308331891,1032.95409169886,703.717843984329,970.628304621509,410.498069503264,672.5,379.163522034968,550.57236181288,653.017481158529,0,0,3,0,3,5,4,NaN,horizontal,vertical,vertical,horizontal,horizontal,none
1b,21,100215,4,52,244,27,F,NA,constant,heterogeneous,5,present,0.999070882797241,1,vertical,vertical,1,0.858822109018053,green,5,4,616.568350913644,777.137884467044,574.848363820974,480.284751489598,911.784642431215,829.192481806288,1052.5183575291,564.510859255183,844.280285305067,348.874022981887,574.848363820974,480.284751489598,616.568350913644,777.137884467044,0,0,0,3,6,5,4,NaN,vertical,vertical,vertical,horizontal,vertical,none
