experiment,subject,uniqueID,block,trial,trial_cumulative,age,gender,color_cond_blocking,color_history,shape_type,set_size,distractor,rt,acc,target_orient,response_key,response_made,iti,target_color,target_item,distractor_item,target_X,target_Y,distractor_X,distractor_Y,item1_X,item1_Y,item2_X,item2_Y,item3_X,item3_Y,item4_X,item4_Y,item5_X,item5_Y,item6_X,item6_Y,item1_shape,item2_shape,item3_shape,item4_shape,item5_shape,item6_shape,item1_line,item2_line,item3_line,item4_line,item5_line,item6_line
1b,22,100218,1,1,1,24,M,NA,constant,heterogeneous,6,present,NaN,0,vertical,none,0,0.647057850020272,red,1,6,907.767656743878,831.108485694346,653.738008730483,808.883771293693,907.767656743878,831.108485694346,1054.0296480134,622.224714400653,946.261991269517,391.116228706307,692.232343256122,368.891514305654,545.970351986605,577.775285599347,653.738008730483,808.883771293693,4,6,5,0,0,5,vertical,horizontal,horizontal,horizontal,vertical,horizontal
1b,22,100218,1,2,2,24,M,NA,constant,heterogeneous,3,absent,1.21186399459839,1,vertical,vertical,1,1.05881403769766,red,1,NaN,746.982518841471,849.42763818712,NaN,NaN,746.982518841471,849.42763818712,1042.51941165526,521.200666434388,610.498069503264,429.371695378491,0,0,0,0,0,0,4,3,3,NaN,NaN,NaN,vertical,vertical,horizontal,none,none,none
1b,22,100218,1,3,3,24,M,NA,constant,heterogeneous,5,present,1.22205710411072,1,vertical,vertical,1,0.894111562626702,red,2,3,1042.51941165526,678.799333565612,949.885239334581,393.700666434388,800,855,1042.51941165526,678.799333565612,949.885239334581,393.700666434388,650.114760665419,393.700666434388,557.480588344736,678.799333565612,0,0,0,4,5,3,3,NaN,horizontal,vertical,vertical,horizontal,vertical,none
1b,22,100218,1,4,4,24,M,NA,constant,heterogeneous,3,present,1.19597291946411,1,horizontal,horizontal,1,0.647057850020272,red,3,2,721.200666434388,357.480588344736,1049.42763818712,653.017481158529,629.371695378491,789.501930496736,1049.42763818712,653.017481158529,721.200666434388,357.480588344736,0,0,0,0,0,0,6,5,4,NaN,NaN,NaN,vertical,horizontal,horizontal,none,none,none
1b,22,100218,1,5,5,24,M,NA,constant,heterogeneous,5,absent,0.798599004745483,1,vertical,vertical,1,0.941169412646975,red,4,NaN,782.212099195248,345.621167183745,NaN,NaN,664.870587620533,816.252264519889,963.910840470068,795.341332995339,1036.43188291453,504.475318678942,782.212099195248,345.621167183745,552.574589799621,538.309916622085,0,0,0,5,0,4,3,NaN,horizontal,horizontal,vertical,vertical,horizontal,none
1b,22,100218,1,6,6,24,M,NA,constant,heterogeneous,6,present,1.65485787391663,1,horizontal,horizontal,1,0.811760325091226,red,6,1,616.568350913644,777.137884467044,861.690083377915,847.425410200379,861.690083377915,847.425410200379,1045.12173246427,670.287525733335,983.431649086356,422.862115532956,738.309916622085,352.574589799621,554.878267535729,529.712474266665,616.568350913644,777.137884467044,3,6,5,0,5,4,horizontal,vertical,vertical,vertical,horizontal,horizontal
1b,22,100218,1,7,7,24,M,NA,constant,heterogeneous,5,absent,0.937421083450317,1,horizontal,horizontal,1,1.05881403769766,red,4,NaN,755.719714694933,348.874022981887,NaN,NaN,688.215357568785,829.192481806288,983.431649086356,777.137884467044,1025.15163617903,480.284751489598,755.719714694933,348.874022981887,547.481642470899,564.510859255183,0,0,0,6,5,4,3,NaN,vertical,vertical,vertical,horizontal,vertical,none
1b,22,100218,1,8,8,24,M,NA,constant,heterogeneous,6,absent,1.42598295211792,1,vertical,vertical,1,1.08234296270779,red,6,NaN,548.874022981887,644.280285305067,NaN,NaN,712.784863451954,839.621618300407,963.910840470068,795.341332995339,1051.12597701811,555.719714694933,887.215136548046,360.378381699593,636.089159529932,404.658667004661,548.874022981887,644.280285305067,0,3,3,5,6,4,vertical,horizontal,horizontal,vertical,horizontal,vertical
1b,22,100218,1,9,9,24,M,NA,constant,heterogeneous,4,absent,1.78072285652161,1,vertical,vertical,1,0.705880162545613,red,1,NaN,804.450363641507,854.96116226488,NaN,NaN,804.450363641507,854.96116226488,1054.96116226488,595.549636358493,795.549636358493,345.03883773512,545.03883773512,604.450363641507,0,0,0,0,4,3,6,0,NaN,NaN,vertical,vertical,vertical,vertical,none,none
1b,22,100218,1,10,10,24,M,NA,constant,heterogeneous,6,present,0.763803958892822,1,vertical,vertical,1,0.764702475070953,red,5,4,657.405809614959,388.595418998464,911.784642431215,370.807518193712,688.215357568785,829.192481806288,942.594190385041,811.404581001536,1054.37883281626,582.212099195248,911.784642431215,370.807518193712,657.405809614959,388.595418998464,545.621167183745,617.787900804752,5,0,6,5,4,0,horizontal,vertical,vertical,vertical,vertical,vertical
1b,22,100218,1,11,11,24,M,NA,constant,heterogeneous,4,present,1.46457409858704,1,horizontal,horizontal,1,0.858818175111498,red,3,4,949.885239334581,393.700666434388,593.700666434388,450.114760665419,650.114760665419,806.299333565612,1006.29933356561,749.885239334581,949.885239334581,393.700666434388,593.700666434388,450.114760665419,0,0,0,0,5,5,4,3,NaN,NaN,vertical,vertical,horizontal,vertical,none,none
1b,22,100218,1,12,12,24,M,NA,constant,heterogeneous,3,present,1.45896983146667,1,horizontal,horizontal,1,1.04704957519259,red,2,3,835.489140744817,347.4816424709,563.568117085469,695.524681321058,1000.94274216971,756.993676208043,835.489140744817,347.4816424709,563.568117085469,695.524681321058,0,0,0,0,0,0,3,4,5,NaN,NaN,NaN,vertical,horizontal,horizontal,none,none,none
1b,22,100218,1,13,13,24,M,NA,constant,heterogeneous,4,present,1.84256291389465,1,vertical,vertical,1,0.705880162545613,red,2,4,1046.31108570371,534.001143498857,553.688914296288,665.998856501143,865.998856501143,846.311085703712,1046.31108570371,534.001143498857,734.001143498857,353.688914296288,553.688914296288,665.998856501143,0,0,0,0,3,4,6,5,NaN,NaN,horizontal,vertical,vertical,vertical,none,none
1b,22,100218,1,14,14,24,M,NA,constant,heterogeneous,3,present,1.09664511680603,1,horizontal,horizontal,1,1.05881403769766,red,3,1,560.378381699593,687.215136548046,995.341332995339,763.910840470068,995.341332995339,763.910840470068,844.280285305067,348.874022981887,560.378381699593,687.215136548046,0,0,0,0,0,0,6,0,4,NaN,NaN,NaN,vertical,vertical,horizontal,none,none,none
1b,22,100218,1,15,15,24,M,NA,constant,heterogeneous,4,absent,1.63680601119995,1,horizontal,horizontal,1,0.705880162545613,red,2,NaN,1053.09926866854,631.076682568313,NaN,NaN,768.923317431687,853.099268668537,1053.09926866854,631.076682568313,831.076682568313,346.900731331463,546.900731331463,568.923317431687,0,0,0,0,0,4,3,5,NaN,NaN,horizontal,horizontal,horizontal,vertical,none,none
1b,22,100218,1,16,16,24,M,NA,constant,heterogeneous,5,present,1.6570827960968,1,vertical,vertical,1,0.764702475070953,red,4,1,565.271262369628,500.363562235235,931.334709102064,818.577661679039,931.334709102064,818.577661679039,1048.46436652023,542.637481142314,822.224714400653,345.970351986605,565.271262369628,500.363562235235,632.704947607421,792.450942956807,0,0,0,5,3,4,3,NaN,horizontal,horizontal,vertical,vertical,horizontal,none
1b,22,100218,1,17,17,24,M,NA,constant,heterogeneous,6,present,NaN,0,horizontal,none,0,1.01175618767738,red,2,4,1043.85771277057,674.554784704298,742.637481142314,351.535633479765,857.362518857686,848.464366520235,1043.85771277057,674.554784704298,986.495193912888,426.090418184063,742.637481142314,351.535633479765,556.142287229426,525.445215295702,613.504806087112,773.909581815937,6,4,3,5,0,0,vertical,horizontal,horizontal,vertical,horizontal,horizontal
1b,22,100218,1,18,18,24,M,NA,constant,heterogeneous,5,absent,1.20420408248901,1,horizontal,horizontal,1,0.858818175111498,red,3,NaN,967.295052392579,407.549057043193,NaN,NaN,777.775285599347,854.029648013395,1034.72873763037,699.636437764765,967.295052392579,407.549057043193,668.665290897936,381.422338320961,551.535633479765,657.362518857686,0,0,3,6,4,5,0,NaN,horizontal,vertical,horizontal,vertical,vertical,none
1b,22,100218,1,19,19,24,M,NA,constant,heterogeneous,3,absent,0.980381011962891,1,horizontal,horizontal,1,1.01175618767738,red,3,NaN,579.163522034968,727.5,NaN,NaN,1020.83647796503,727.5,800,345,579.163522034968,727.5,0,0,0,0,0,0,3,5,4,NaN,NaN,NaN,horizontal,vertical,horizontal,none,none,none
1b,22,100218,1,20,20,24,M,NA,constant,heterogeneous,5,present,0.96185302734375,1,horizontal,horizontal,1,0.870582637616566,red,1,5,839.890788585259,851.86052685176,572.793336331966,715.767577433584,839.890788585259,851.86052685176,1051.86052685176,639.890788585259,915.767577433584,372.793336331966,619.68777079743,419.68777079743,572.793336331966,715.767577433584,0,0,4,3,3,6,0,NaN,horizontal,horizontal,vertical,vertical,vertical,none
1b,22,100218,1,21,21,24,M,NA,constant,heterogeneous,5,absent,1.76703095436096,1,vertical,vertical,1,0.694115700040545,red,4,NaN,661.117046071168,386.139005173917,NaN,NaN,786.654331158049,854.650531362416,1038.06300875679,691.383827134052,960.476699717708,401.827779828472,661.117046071168,386.139005173917,553.688914296288,665.998856501143,0,0,5,6,5,4,3,NaN,horizontal,horizontal,vertical,vertical,horizontal,none
1b,22,100218,1,22,22,24,M,NA,constant,heterogeneous,6,present,1.74968194961548,1,horizontal,horizontal,1,0.752938012565885,red,1,4,883.019879386575,841.107236777826,716.980120613425,358.892763222174,883.019879386575,841.107236777826,1050.31493177915,648.656293821019,967.295052392579,407.549057043193,716.980120613425,358.892763222174,549.685068220846,551.343706178981,632.704947607421,792.450942956807,4,0,0,5,6,5,horizontal,horizontal,vertical,horizontal,vertical,horizontal
1b,22,100218,1,23,23,24,M,NA,constant,heterogeneous,6,absent,0.995746850967407,1,horizontal,horizontal,1,0.952933875152043,red,4,NaN,915.767577433584,372.793336331966,NaN,NaN,684.232422566416,827.206663668034,938.882953928832,813.860994826083,1054.65053136242,586.654331158049,915.767577433584,372.793336331966,661.117046071168,386.139005173917,545.349468637584,613.345668841951,3,0,5,4,5,3,vertical,vertical,horizontal,horizontal,vertical,horizontal
1b,22,100218,1,24,24,24,M,NA,constant,heterogeneous,5,present,0.848559141159058,1,horizontal,horizontal,1,0.635293387515204,red,1,2,729.712474266665,845.121732464271,1011.40458100154,742.594190385041,729.712474266665,845.121732464271,1011.40458100154,742.594190385041,1000.94274216971,443.006323791957,712.784863451954,360.378381699593,545.155339110131,608.899371659138,0,0,4,5,6,3,0,NaN,horizontal,horizontal,vertical,vertical,vertical,none
1b,22,100218,1,25,25,24,M,NA,constant,heterogeneous,5,present,1.65470290184021,1,vertical,vertical,1,0.84705371260643,red,2,1,1055,600,878.799333565612,842.519411655264,878.799333565612,842.519411655264,1055,600,878.799333565612,357.480588344736,593.700666434388,450.114760665419,593.700666434388,749.885239334581,0,0,3,4,6,0,6,NaN,horizontal,vertical,horizontal,vertical,horizontal,none
1b,22,100218,1,26,26,24,M,NA,constant,heterogeneous,4,absent,1.26327419281006,1,horizontal,horizontal,1,0.764702475070953,red,2,NaN,1018.57766167904,468.665290897936,NaN,NaN,931.334709102064,818.577661679039,1018.57766167904,468.665290897936,668.665290897936,381.422338320961,581.422338320961,731.334709102064,0,0,0,0,0,4,6,6,NaN,NaN,horizontal,horizontal,horizontal,horizontal,none,none
1b,22,100218,1,27,27,24,M,NA,constant,heterogeneous,4,present,0.789424180984497,1,horizontal,horizontal,1,0.835289250101362,red,2,4,1039.62161830041,512.784863451954,560.378381699593,687.215136548046,887.215136548046,839.621618300407,1039.62161830041,512.784863451954,712.784863451954,360.378381699593,560.378381699593,687.215136548046,0,0,0,0,0,4,3,3,NaN,NaN,vertical,horizontal,vertical,vertical,none,none
1b,22,100218,1,28,28,24,M,NA,constant,heterogeneous,3,absent,1.20322179794312,1,vertical,vertical,1,0.882347100121634,red,1,NaN,791.100628340862,854.844660889869,NaN,NaN,791.100628340862,854.844660889869,1025.15163617903,480.284751489598,583.747735480111,464.870587620533,0,0,0,0,0,0,4,0,0,NaN,NaN,NaN,vertical,vertical,horizontal,none,none,none
1b,22,100218,1,29,29,24,M,NA,constant,heterogeneous,3,present,0.737281084060669,0,vertical,horizontal,1,1.09410742521286,red,1,2,607.549057043193,767.295052392579,1041.10723677783,683.019879386575,607.549057043193,767.295052392579,1041.10723677783,683.019879386575,751.343706178981,349.685068220846,0,0,0,0,0,0,4,6,5,NaN,NaN,NaN,vertical,vertical,vertical,none,none,none
1b,22,100218,1,30,30,24,M,NA,constant,heterogeneous,5,present,NaN,0,horizontal,none,0,1.01175618767738,red,5,3,546.900731331463,568.923317431687,1023.02802532055,476.373546837184,692.232343256122,831.108485694346,986.495193912888,773.909581815937,1023.02802532055,476.373546837184,751.343706178981,349.685068220846,546.900731331463,568.923317431687,0,0,3,0,3,5,4,NaN,vertical,vertical,vertical,vertical,horizontal,none
1b,22,100218,1,31,31,24,M,NA,constant,heterogeneous,4,absent,1.28238201141357,1,horizontal,horizontal,1,1.08234296270779,red,2,NaN,1039.62161830041,512.784863451954,NaN,NaN,887.215136548046,839.621618300407,1039.62161830041,512.784863451954,712.784863451954,360.378381699593,560.378381699593,687.215136548046,0,0,0,0,0,4,5,6,NaN,NaN,horizontal,horizontal,vertical,horizontal,none,none
1b,22,100218,1,32,32,24,M,NA,constant,heterogeneous,5,present,1.06167101860046,1,vertical,vertical,1,1.07057850020272,red,5,1,632.704947607421,792.450942956807,931.334709102064,818.577661679039,931.334709102064,818.577661679039,1048.46436652023,542.637481142314,822.224714400653,345.970351986605,565.271262369628,500.363562235235,632.704947607421,792.450942956807,0,0,6,5,5,0,4,NaN,horizontal,vertical,horizontal,horizontal,vertical,none
1b,22,100218,1,33,33,24,M,NA,constant,heterogeneous,3,present,1.03997683525085,1,horizontal,horizontal,1,0.647057850020272,red,1,3,887.215136548046,839.621618300407,548.874022981887,555.719714694933,887.215136548046,839.621618300407,963.910840470068,404.658667004661,548.874022981887,555.719714694933,0,0,0,0,0,0,4,5,3,NaN,NaN,NaN,horizontal,vertical,vertical,none,none,none
1b,22,100218,1,34,34,24,M,NA,constant,heterogeneous,3,present,1.05978608131409,1,vertical,vertical,1,0.741173550060817,red,3,2,738.309916622085,352.574589799621,1045.12173246427,670.287525733335,616.568350913644,777.137884467044,1045.12173246427,670.287525733335,738.309916622085,352.574589799621,0,0,0,0,0,0,5,0,4,NaN,NaN,NaN,horizontal,vertical,vertical,none,none,none
1b,22,100218,1,35,35,24,M,NA,constant,heterogeneous,4,present,1.09533381462097,1,vertical,vertical,1,0.717644625050681,red,2,3,1046.31108570371,534.001143498857,734.001143498857,353.688914296288,865.998856501143,846.311085703712,1046.31108570371,534.001143498857,734.001143498857,353.688914296288,553.688914296288,665.998856501143,0,0,0,0,3,4,6,0,NaN,NaN,horizontal,vertical,vertical,horizontal,none,none
1b,22,100218,1,36,36,24,M,NA,constant,heterogeneous,4,present,0.664475917816162,1,vertical,vertical,1,0.941169412646975,red,3,2,919.715248510402,374.848363820974,1025.15163617903,719.715248510402,680.284751489598,825.151636179026,1025.15163617903,719.715248510402,919.715248510402,374.848363820974,574.848363820974,480.284751489598,0,0,0,0,6,5,4,6,NaN,NaN,horizontal,vertical,vertical,vertical,none,none
1b,22,100218,1,37,37,24,M,NA,constant,heterogeneous,5,present,0.821916818618774,1,horizontal,horizontal,1,1.01175618767738,red,1,5,696.282156015671,832.954091698863,546.39691668109,573.345241866748,696.282156015671,832.954091698863,989.501930496736,770.628304621509,1020.83647796503,472.5,746.982518841471,350.57236181288,546.39691668109,573.345241866748,0,0,4,0,5,6,0,NaN,horizontal,vertical,vertical,horizontal,horizontal,none
1b,22,100218,1,38,38,24,M,NA,constant,heterogeneous,4,present,0.988878965377808,1,horizontal,horizontal,1,0.694115700040545,red,3,2,746.982518841471,350.57236181288,1049.42763818712,546.982518841471,853.017481158529,849.42763818712,1049.42763818712,546.982518841471,746.982518841471,350.57236181288,550.57236181288,653.017481158529,0,0,0,0,6,0,4,3,NaN,NaN,horizontal,vertical,horizontal,horizontal,none,none
1b,22,100218,1,39,39,24,M,NA,constant,heterogeneous,6,present,0.969502925872803,1,horizontal,horizontal,1,1.03528511268752,red,6,5,563.568117085469,695.524681321058,599.057257830286,443.006323791957,764.510859255183,852.518357529101,1000.94274216971,756.993676208043,1036.43188291453,504.475318678942,835.489140744817,347.4816424709,599.057257830286,443.006323791957,563.568117085469,695.524681321058,6,5,3,0,0,4,vertical,vertical,horizontal,vertical,vertical,horizontal
1b,22,100218,1,40,40,24,M,NA,constant,heterogeneous,4,present,0.549362182617188,1,horizontal,horizontal,1,0.611764462505068,red,3,4,668.665290897936,381.422338320961,581.422338320961,731.334709102064,931.334709102064,818.577661679039,1018.57766167904,468.665290897936,668.665290897936,381.422338320961,581.422338320961,731.334709102064,0,0,0,0,0,3,4,5,NaN,NaN,horizontal,horizontal,horizontal,vertical,none,none
1b,22,100218,1,41,41,24,M,NA,constant,heterogeneous,3,present,0.853375911712646,1,vertical,vertical,1,0.647057850020272,red,2,3,1049.42763818712,653.017481158529,721.200666434388,357.480588344736,629.371695378491,789.501930496736,1049.42763818712,653.017481158529,721.200666434388,357.480588344736,0,0,0,0,0,0,5,4,6,NaN,NaN,NaN,horizontal,vertical,vertical,none,none,none
1b,22,100218,1,42,42,24,M,NA,constant,heterogeneous,3,absent,0.769227027893066,1,horizontal,horizontal,1,0.729409087555749,red,3,NaN,755.719714694933,348.874022981887,NaN,NaN,604.658667004661,763.910840470068,1039.62161830041,687.215136548046,755.719714694933,348.874022981887,0,0,0,0,0,0,5,0,4,NaN,NaN,NaN,vertical,vertical,horizontal,none,none,none
1b,22,100218,1,43,43,24,M,NA,constant,heterogeneous,4,absent,0.800706148147583,1,vertical,vertical,1,0.6,red,3,NaN,729.712474266665,354.878267535729,NaN,NaN,870.287525733335,845.121732464271,1045.12173246427,529.712474266665,729.712474266665,354.878267535729,554.878267535729,670.287525733335,0,0,0,0,0,6,4,0,NaN,NaN,horizontal,horizontal,vertical,horizontal,none,none
1b,22,100218,1,44,44,24,M,NA,constant,heterogeneous,3,present,1.1249361038208,1,vertical,vertical,1,0.799995862586158,red,1,3,915.767577433584,827.206663668034,545.349468637584,586.654331158049,915.767577433584,827.206663668034,938.882953928832,386.139005173917,545.349468637584,586.654331158049,0,0,0,0,0,0,4,5,0,NaN,NaN,NaN,vertical,horizontal,vertical,none,none,none
1b,22,100218,1,45,45,24,M,NA,constant,heterogeneous,3,absent,0.95602011680603,0,vertical,horizontal,1,0.623528925010136,red,1,NaN,581.422338320961,731.334709102064,NaN,NaN,581.422338320961,731.334709102064,1023.02802532055,723.626453162816,795.549636358493,345.03883773512,0,0,0,0,0,0,4,0,5,NaN,NaN,NaN,vertical,horizontal,vertical,none,none,none
1b,22,100218,1,46,46,24,M,NA,constant,heterogeneous,6,absent,1.4971239566803,0,horizontal,vertical,1,0.894111562626702,red,3,NaN,1043.85771277057,525.445215295702,NaN,NaN,742.637481142314,848.464366520235,986.495193912888,773.909581815937,1043.85771277057,525.445215295702,857.362518857686,351.535633479765,613.504806087112,426.090418184063,556.142287229426,674.554784704298,3,3,4,0,0,6,horizontal,vertical,horizontal,vertical,vertical,horizontal
1b,22,100218,1,47,47,24,M,NA,constant,heterogeneous,6,absent,1.32643103599548,1,vertical,vertical,1,0.952933875152043,red,5,NaN,553.688914296288,534.001143498857,NaN,NaN,865.998856501143,846.311085703712,1046.31108570371,665.998856501143,980.31222920257,419.68777079743,734.001143498857,353.688914296288,553.688914296288,534.001143498857,619.68777079743,780.31222920257,0,6,5,6,4,3,horizontal,vertical,horizontal,vertical,vertical,horizontal
1b,22,100218,1,48,48,24,M,NA,constant,heterogeneous,4,absent,1.19234490394592,1,horizontal,horizontal,1,0.964698337657111,red,2,NaN,1039.62161830041,512.784863451954,NaN,NaN,887.215136548046,839.621618300407,1039.62161830041,512.784863451954,712.784863451954,360.378381699593,560.378381699593,687.215136548046,0,0,0,0,5,4,3,6,NaN,NaN,vertical,horizontal,horizontal,horizontal,none,none
1b,22,100218,1,49,49,24,M,NA,constant,heterogeneous,3,absent,1.11244010925293,1,vertical,vertical,1,0.799995862586158,red,1,NaN,895.524681321058,836.431882914531,NaN,NaN,895.524681321058,836.431882914531,956.993676208043,399.057257830286,547.481642470899,564.510859255183,0,0,0,0,0,0,4,0,5,NaN,NaN,NaN,vertical,vertical,vertical,none,none,none
1b,22,100218,1,50,50,24,M,NA,constant,heterogeneous,6,present,1.74580717086792,1,vertical,vertical,1,0.952933875152043,red,3,2,960.476699717708,401.827779828472,1051.86052685176,639.890788585259,891.383827134052,838.063008756786,1051.86052685176,639.890788585259,960.476699717708,401.827779828472,708.616172865948,361.936991243214,548.13947314824,560.109211414741,639.523300282292,798.172220171528,6,5,4,3,3,6,vertical,horizontal,vertical,horizontal,horizontal,vertical
1b,22,100218,1,51,51,24,M,NA,constant,heterogeneous,5,absent,1.99955701828003,1,horizontal,horizontal,1,0.729409087555749,red,3,NaN,1011.40458100154,457.40580961496,NaN,NaN,712.784863451954,839.621618300407,1000.94274216971,756.993676208043,1011.40458100154,457.40580961496,729.712474266665,354.878267535729,545.155339110131,591.100628340862,0,0,3,5,4,0,5,NaN,vertical,vertical,horizontal,horizontal,vertical,none
1b,22,100218,1,52,52,24,M,NA,constant,heterogeneous,5,absent,1.10117387771606,1,vertical,vertical,1,0.870582637616566,red,3,NaN,808.899371659138,345.155339110131,NaN,NaN,942.594190385041,811.404581001536,1045.12173246427,529.712474266665,808.899371659138,345.155339110131,560.378381699593,512.784863451954,643.006323791957,800.942742169714,0,0,6,0,4,3,5,NaN,horizontal,horizontal,vertical,vertical,vertical,none
1b,22,100218,1,53,53,24,M,NA,constant,heterogeneous,6,absent,1.01763796806335,1,vertical,vertical,1,0.705880162545613,red,4,NaN,708.616172865948,361.936991243214,NaN,NaN,891.383827134052,838.063008756786,1051.86052685176,639.890788585259,960.476699717708,401.827779828472,708.616172865948,361.936991243214,548.13947314824,560.109211414741,639.523300282292,798.172220171528,0,6,5,4,3,0,vertical,horizontal,vertical,vertical,horizontal,horizontal
1b,22,100218,1,54,54,24,M,NA,constant,heterogeneous,5,absent,0.707653999328613,1,vertical,vertical,1,1.09410742521286,red,3,NaN,923.626453162816,376.971974679454,NaN,NaN,831.076682568313,853.099268668537,1050.31493177915,648.656293821019,923.626453162816,376.971974679454,626.090418184063,413.504806087112,568.891514305654,707.767656743878,0,0,5,0,4,3,6,NaN,horizontal,horizontal,vertical,vertical,horizontal,none
1b,22,100218,1,55,55,24,M,NA,constant,heterogeneous,6,present,0.566982984542847,1,vertical,vertical,1,1.02352065018245,red,3,4,935.129412379467,383.747735480111,680.284751489598,374.848363820974,919.715248510402,825.151636179026,1054.84466088987,608.899371659138,935.129412379467,383.747735480111,680.284751489598,374.848363820974,545.155339110131,591.100628340862,664.870587620533,816.252264519889,0,3,4,5,0,3,horizontal,vertical,vertical,horizontal,vertical,vertical
1b,22,100218,1,56,56,24,M,NA,constant,heterogeneous,5,absent,0.625144958496094,1,horizontal,horizontal,1,0.741173550060817,red,3,NaN,960.476699717708,401.827779828472,NaN,NaN,786.654331158049,854.650531362416,1038.06300875679,691.383827134052,960.476699717708,401.827779828472,661.117046071168,386.139005173917,553.688914296288,665.998856501143,0,0,5,3,4,0,0,NaN,vertical,vertical,horizontal,horizontal,horizontal,none
1b,22,100218,1,57,57,24,M,NA,constant,heterogeneous,3,absent,0.845857858657837,1,horizontal,horizontal,1,0.6,red,1,NaN,616.568350913644,777.137884467044,NaN,NaN,616.568350913644,777.137884467044,1045.12173246427,670.287525733335,738.309916622085,352.574589799621,0,0,0,0,0,0,4,0,3,NaN,NaN,NaN,horizontal,vertical,horizontal,none,none,none
1b,22,100218,1,58,58,24,M,NA,constant,heterogeneous,3,absent,0.536875009536743,1,horizontal,horizontal,1,0.682351237535477,red,3,NaN,661.117046071168,386.139005173917,NaN,NaN,684.232422566416,827.206663668034,1054.65053136242,586.654331158049,661.117046071168,386.139005173917,0,0,0,0,0,0,5,6,4,NaN,NaN,NaN,horizontal,horizontal,horizontal,none,none,none
1b,22,100218,1,59,59,24,M,NA,constant,heterogeneous,6,absent,1.90945816040039,1,horizontal,horizontal,1,0.694115700040545,red,2,NaN,935.129412379467,816.252264519889,NaN,NaN,680.284751489598,825.151636179026,935.129412379467,816.252264519889,1054.84466088987,591.100628340862,919.715248510402,374.848363820974,664.870587620533,383.747735480111,545.155339110131,608.899371659138,5,4,3,6,5,0,vertical,horizontal,horizontal,horizontal,horizontal,horizontal
1b,22,100218,1,60,60,24,M,NA,constant,heterogeneous,6,absent,1.42945694923401,1,horizontal,horizontal,1,0.882347100121634,red,1,NaN,773.345241866748,853.60308331891,NaN,NaN,773.345241866748,853.60308331891,1006.29933356561,749.885239334581,1032.95409169886,496.282156015671,826.654758133252,346.39691668109,593.700666434388,450.114760665419,567.045908301137,703.717843984329,4,6,0,5,0,3,horizontal,horizontal,vertical,vertical,vertical,horizontal
1b,22,100218,1,61,61,24,M,NA,constant,heterogeneous,4,absent,1.95596289634705,1,vertical,vertical,1,0.694115700040545,red,1,NaN,639.523300282292,798.172220171528,NaN,NaN,639.523300282292,798.172220171528,998.172220171528,760.476699717708,960.476699717708,401.827779828472,601.827779828472,439.523300282291,0,0,0,0,4,3,3,6,NaN,NaN,vertical,horizontal,horizontal,horizontal,none,none
1b,22,100218,1,62,62,24,M,NA,constant,heterogeneous,4,present,1.45204997062683,1,vertical,vertical,1,1.03528511268752,red,1,3,760.109211414741,851.86052685176,839.890788585259,348.13947314824,760.109211414741,851.86052685176,1051.86052685176,639.890788585259,839.890788585259,348.13947314824,548.13947314824,560.109211414741,0,0,0,0,4,3,6,5,NaN,NaN,vertical,horizontal,horizontal,horizontal,none,none
1b,22,100218,1,63,63,24,M,NA,constant,heterogeneous,4,absent,0.690345048904419,1,vertical,vertical,1,0.647057850020272,red,2,NaN,1000.94274216971,443.006323791957,NaN,NaN,956.993676208043,800.942742169714,1000.94274216971,443.006323791957,643.006323791957,399.057257830286,599.057257830286,756.993676208043,0,0,0,0,0,4,3,3,NaN,NaN,vertical,vertical,horizontal,horizontal,none,none
1b,22,100218,1,64,64,24,M,NA,constant,heterogeneous,6,absent,1.47530508041382,1,vertical,vertical,1,0.952933875152043,red,4,NaN,878.799333565612,357.480588344736,NaN,NaN,721.200666434388,842.519411655264,970.628304621509,789.501930496736,1049.42763818712,546.982518841471,878.799333565612,357.480588344736,629.371695378491,410.498069503264,550.57236181288,653.017481158529,0,6,5,4,5,3,vertical,horizontal,horizontal,vertical,vertical,horizontal
1b,22,100218,2,1,65,24,M,NA,constant,heterogeneous,6,present,1.13852286338806,1,horizontal,horizontal,1,0.929404950141907,red,6,1,546.900731331463,631.076682568313,700.363562235235,834.728737630372,700.363562235235,834.728737630372,953.462830903772,803.65205506206,1053.09926866854,568.923317431687,899.636437764765,365.271262369628,646.537169096228,396.34794493794,546.900731331463,631.076682568313,5,5,3,0,3,4,horizontal,horizontal,horizontal,vertical,horizontal,horizontal
1b,22,100218,2,2,66,24,M,NA,constant,heterogeneous,5,present,1.47424793243408,1,vertical,vertical,1,0.635293387515204,red,3,5,927.5,379.163522034968,567.045908301137,703.717843984329,826.654758133252,853.60308331891,1049.42763818712,653.017481158529,927.5,379.163522034968,629.371695378491,410.498069503264,567.045908301137,703.717843984329,0,0,6,0,4,0,3,NaN,vertical,horizontal,vertical,vertical,horizontal,none
1b,22,100218,2,3,67,24,M,NA,constant,heterogeneous,4,present,NaN,0,vertical,none,0,0.764702475070953,red,1,3,800,855,800,345,800,855,1055,600,800,345,545,600,0,0,0,0,4,6,3,3,NaN,NaN,vertical,horizontal,vertical,vertical,none,none
1b,22,100218,2,4,68,24,M,NA,constant,heterogeneous,6,present,1.06682300567627,1,vertical,vertical,1,0.964698337657111,red,6,2,558.892763222174,683.019879386575,992.450942956807,767.295052392579,751.343706178981,850.314931779154,992.450942956807,767.295052392579,1041.10723677783,516.980120613425,848.656293821019,349.685068220846,607.549057043193,432.704947607421,558.892763222174,683.019879386575,0,3,0,6,3,4,horizontal,horizontal,vertical,vertical,horizontal,vertical
1b,22,100218,2,5,69,24,M,NA,constant,heterogeneous,4,present,0.994771003723145,1,horizontal,horizontal,1,0.729409087555749,red,1,2,777.775285599347,854.029648013395,1054.0296480134,622.224714400653,777.775285599347,854.029648013395,1054.0296480134,622.224714400653,822.224714400653,345.970351986605,545.970351986605,577.775285599347,0,0,0,0,4,5,3,0,NaN,NaN,horizontal,horizontal,vertical,vertical,none,none
1b,22,100218,2,6,70,24,M,NA,constant,heterogeneous,4,absent,1.28891587257385,1,vertical,vertical,1,0.705880162545613,red,2,NaN,1054.84466088987,591.100628340862,NaN,NaN,808.899371659138,854.844660889869,1054.84466088987,591.100628340862,791.100628340862,345.155339110131,545.155339110131,608.899371659138,0,0,0,0,5,4,6,0,NaN,NaN,horizontal,vertical,vertical,vertical,none,none
1b,22,100218,2,7,71,24,M,NA,constant,heterogeneous,5,present,1.03855204582214,1,vertical,vertical,1,0.988227262667247,red,3,4,1038.06300875679,508.616172865948,786.654331158049,345.349468637584,661.117046071168,813.860994826083,960.476699717708,798.172220171528,1038.06300875679,508.616172865948,786.654331158049,345.349468637584,553.688914296288,534.001143498857,0,0,0,3,4,6,5,NaN,vertical,vertical,vertical,vertical,horizontal,none
1b,22,100218,2,8,72,24,M,NA,constant,heterogeneous,6,absent,1.68629908561707,1,vertical,vertical,1,0.929404950141907,red,3,NaN,931.334709102064,381.422338320961,NaN,NaN,923.626453162816,823.028025320546,1054.96116226488,604.450363641507,931.334709102064,381.422338320961,676.373546837184,376.971974679454,545.03883773512,595.549636358493,668.665290897936,818.577661679039,6,0,4,5,6,0,horizontal,vertical,vertical,horizontal,horizontal,horizontal
1b,22,100218,2,9,73,24,M,NA,constant,heterogeneous,5,absent,1.51343297958374,1,vertical,vertical,1,1.07057850020272,red,4,NaN,650.114760665419,393.700666434388,NaN,NaN,800,855,1042.51941165526,678.799333565612,949.885239334581,393.700666434388,650.114760665419,393.700666434388,557.480588344736,678.799333565612,0,0,0,6,5,4,6,NaN,vertical,horizontal,vertical,vertical,horizontal,none
1b,22,100218,2,10,74,24,M,NA,constant,heterogeneous,6,present,1.23020195960999,1,vertical,vertical,1,0.717644625050681,red,1,5,844.280285305067,851.125977018113,560.378381699593,512.784863451954,844.280285305067,851.125977018113,1039.62161830041,687.215136548046,995.341332995339,436.089159529932,755.719714694933,348.874022981887,560.378381699593,512.784863451954,604.658667004661,763.910840470068,4,6,0,6,3,0,vertical,vertical,horizontal,horizontal,vertical,horizontal
1b,22,100218,2,11,75,24,M,NA,constant,heterogeneous,6,absent,1.53056502342224,1,horizontal,horizontal,1,0.976462800162179,red,1,NaN,919.715248510402,825.151636179026,NaN,NaN,919.715248510402,825.151636179026,1054.84466088987,608.899371659138,935.129412379467,383.747735480111,680.284751489598,374.848363820974,545.155339110131,591.100628340862,664.870587620533,816.252264519889,4,3,5,6,3,5,horizontal,horizontal,horizontal,horizontal,horizontal,horizontal
1b,22,100218,2,12,76,24,M,NA,constant,heterogeneous,3,present,1.36103105545044,1,vertical,vertical,1,0.788231400081089,red,3,2,563.568117085469,695.524681321058,835.489140744817,347.4816424709,1000.94274216971,756.993676208043,835.489140744817,347.4816424709,563.568117085469,695.524681321058,0,0,0,0,0,0,6,3,4,NaN,NaN,NaN,vertical,vertical,vertical,none,none,none
1b,22,100218,2,13,77,24,M,NA,constant,heterogeneous,5,present,1.69907188415527,1,vertical,vertical,1,0.729409087555749,red,1,4,853.017481158529,849.42763818712,610.498069503264,429.371695378491,853.017481158529,849.42763818712,1053.60308331891,626.654758133252,903.717843984329,367.045908301137,610.498069503264,429.371695378491,579.163522034968,727.5,0,0,4,3,6,5,6,NaN,vertical,vertical,horizontal,horizontal,horizontal,none
1b,22,100218,2,14,78,24,M,NA,constant,heterogeneous,4,present,1.38981485366821,1,horizontal,horizontal,1,1.03528511268752,red,3,2,804.450363641507,345.03883773512,1054.96116226488,604.450363641507,795.549636358493,854.96116226488,1054.96116226488,604.450363641507,804.450363641507,345.03883773512,545.03883773512,595.549636358493,0,0,0,0,3,6,4,6,NaN,NaN,horizontal,vertical,horizontal,horizontal,none,none
1b,22,100218,2,15,79,24,M,NA,constant,heterogeneous,3,absent,1.19226217269897,1,horizontal,horizontal,1,0.717644625050681,red,3,NaN,556.142287229426,674.554784704298,NaN,NaN,986.495193912888,773.909581815937,857.362518857686,351.535633479765,556.142287229426,674.554784704298,0,0,0,0,0,0,3,0,4,NaN,NaN,NaN,vertical,vertical,horizontal,none,none,none
1b,22,100218,2,16,80,24,M,NA,constant,heterogeneous,5,present,1.98477792739868,1,horizontal,horizontal,1,0.823524787596294,red,3,2,870.287525733335,354.878267535729,1054.84466088987,591.100628340862,887.215136548046,839.621618300407,1054.84466088987,591.100628340862,870.287525733335,354.878267535729,588.595418998464,457.40580961496,599.057257830286,756.993676208043,0,0,0,5,4,3,0,NaN,vertical,horizontal,horizontal,vertical,vertical,none
1b,22,100218,2,17,81,24,M,NA,constant,heterogeneous,5,absent,0.877210855484009,1,horizontal,horizontal,1,1.02352065018245,red,3,NaN,927.5,379.163522034968,NaN,NaN,826.654758133252,853.60308331891,1049.42763818712,653.017481158529,927.5,379.163522034968,629.371695378491,410.498069503264,567.045908301137,703.717843984329,0,0,0,3,4,5,0,NaN,horizontal,vertical,horizontal,horizontal,horizontal,none
1b,22,100218,2,18,82,24,M,NA,constant,heterogeneous,3,absent,0.913660049438477,1,horizontal,horizontal,1,0.952933875152043,red,2,NaN,891.383827134052,361.936991243214,NaN,NaN,960.476699717708,798.172220171528,891.383827134052,361.936991243214,548.13947314824,639.890788585259,0,0,0,0,0,0,0,4,6,NaN,NaN,NaN,horizontal,horizontal,horizontal,none,none,none
1b,22,100218,2,19,83,24,M,NA,constant,heterogeneous,3,present,0.867922067642212,1,vertical,vertical,1,0.776466937576021,red,3,2,716.980120613425,358.892763222174,1050.31493177915,648.656293821019,632.704947607421,792.450942956807,1050.31493177915,648.656293821019,716.980120613425,358.892763222174,0,0,0,0,0,0,6,5,4,NaN,NaN,NaN,horizontal,horizontal,vertical,none,none,none
1b,22,100218,2,20,84,24,M,NA,constant,heterogeneous,5,present,1.1389582157135,1,horizontal,horizontal,1,1.08234296270779,red,1,4,680.284751489598,825.151636179026,764.510859255183,347.4816424709,680.284751489598,825.151636179026,977.137884467044,783.431649086356,1029.19248180629,488.215357568785,764.510859255183,347.4816424709,548.874022981887,555.719714694933,0,0,4,0,0,6,3,NaN,horizontal,horizontal,vertical,vertical,vertical,none
1b,22,100218,2,21,85,24,M,NA,constant,heterogeneous,6,present,1.51953601837158,1,vertical,vertical,1,0.894111562626702,red,5,4,639.523300282292,401.827779828472,891.383827134052,361.936991243214,708.616172865948,838.063008756786,960.476699717708,798.172220171528,1051.86052685176,560.109211414741,891.383827134052,361.936991243214,639.523300282292,401.827779828472,548.13947314824,639.890788585259,5,6,3,0,4,3,vertical,vertical,horizontal,horizontal,vertical,vertical
1b,22,100218,2,22,86,24,M,NA,constant,heterogeneous,3,present,1.6675431728363,1,vertical,vertical,1,1.05881403769766,red,2,1,1034.72873763037,500.363562235235,768.923317431687,853.099268668537,768.923317431687,853.099268668537,1034.72873763037,500.363562235235,596.34794493794,446.537169096228,0,0,0,0,0,0,3,4,5,NaN,NaN,NaN,vertical,vertical,horizontal,none,none,none
1b,22,100218,2,23,87,24,M,NA,constant,heterogeneous,5,absent,1.63356614112854,1,horizontal,horizontal,1,1.03528511268752,red,1,NaN,760.109211414741,851.86052685176,NaN,NaN,760.109211414741,851.86052685176,1027.20666366803,715.767577433584,980.31222920257,419.68777079743,684.232422566416,372.793336331966,548.13947314824,639.890788585259,0,0,4,6,3,6,3,NaN,horizontal,vertical,vertical,horizontal,vertical,none
1b,22,100218,2,24,88,24,M,NA,constant,heterogeneous,4,absent,1.10922384262085,1,vertical,vertical,1,0.952933875152043,red,1,NaN,716.980120613425,841.107236777826,NaN,NaN,716.980120613425,841.107236777826,1041.10723677783,683.019879386575,883.019879386575,358.892763222174,558.892763222174,516.980120613425,0,0,0,0,4,0,0,5,NaN,NaN,vertical,vertical,vertical,vertical,none,none
1b,22,100218,2,25,89,24,M,NA,constant,heterogeneous,5,absent,1.12118601799011,1,horizontal,horizontal,1,0.870582637616566,red,5,NaN,583.747735480111,735.129412379467,NaN,NaN,861.690083377915,847.425410200379,1054.37883281626,617.787900804752,895.524681321058,363.568117085469,604.658667004661,436.089159529932,583.747735480111,735.129412379467,0,0,0,6,0,5,4,NaN,vertical,vertical,horizontal,vertical,horizontal,none
1b,22,100218,2,26,90,24,M,NA,constant,heterogeneous,6,absent,NaN,0,horizontal,none,0,0.729409087555749,red,1,NaN,865.998856501143,846.311085703712,NaN,NaN,865.998856501143,846.311085703712,1046.31108570371,665.998856501143,980.31222920257,419.68777079743,734.001143498857,353.688914296288,553.688914296288,534.001143498857,619.68777079743,780.31222920257,4,0,0,6,6,3,horizontal,horizontal,vertical,vertical,horizontal,horizontal
1b,22,100218,2,27,91,24,M,NA,constant,heterogeneous,5,present,1.66701793670654,1,vertical,vertical,1,0.623528925010136,red,1,5,927.5,820.836477965032,629.371695378491,789.501930496736,927.5,820.836477965032,1049.42763818712,546.982518841471,826.654758133252,346.39691668109,567.045908301137,496.282156015671,629.371695378491,789.501930496736,0,0,4,5,6,5,3,NaN,vertical,horizontal,horizontal,horizontal,horizontal,none
1b,22,100218,2,28,92,24,M,NA,constant,heterogeneous,5,absent,1.33445811271667,1,vertical,vertical,1,0.694115700040545,red,1,NaN,661.117046071168,813.860994826083,NaN,NaN,661.117046071168,813.860994826083,960.476699717708,798.172220171528,1038.06300875679,508.616172865948,786.654331158049,345.349468637584,553.688914296288,534.001143498857,0,0,4,0,3,5,6,NaN,vertical,horizontal,horizontal,horizontal,vertical,none
1b,22,100218,2,29,93,24,M,NA,constant,heterogeneous,3,absent,0.848272085189819,1,horizontal,horizontal,1,0.952933875152043,red,2,NaN,931.334709102064,381.422338320961,NaN,NaN,923.626453162816,823.028025320546,931.334709102064,381.422338320961,545.03883773512,595.549636358493,0,0,0,0,0,0,5,4,0,NaN,NaN,NaN,vertical,horizontal,horizontal,none,none,none
1b,22,100218,2,30,94,24,M,NA,constant,heterogeneous,3,present,0.839064836502075,1,horizontal,horizontal,1,0.670586775030409,red,3,2,755.719714694933,348.874022981887,1039.62161830041,687.215136548046,604.658667004661,763.910840470068,1039.62161830041,687.215136548046,755.719714694933,348.874022981887,0,0,0,0,0,0,3,0,4,NaN,NaN,NaN,horizontal,horizontal,horizontal,none,none,none
1b,22,100218,2,31,95,24,M,NA,constant,heterogeneous,4,present,1.41023588180542,1,vertical,vertical,1,0.917640487636839,red,1,3,853.017481158529,849.42763818712,746.982518841471,350.57236181288,853.017481158529,849.42763818712,1049.42763818712,546.982518841471,746.982518841471,350.57236181288,550.57236181288,653.017481158529,0,0,0,0,4,5,3,5,NaN,NaN,vertical,horizontal,horizontal,vertical,none,none
1b,22,100218,2,32,96,24,M,NA,constant,heterogeneous,6,present,1.22488689422607,1,vertical,vertical,1,0.917640487636839,red,6,1,545.03883773512,604.450363641507,676.373546837184,823.028025320546,676.373546837184,823.028025320546,931.334709102064,818.577661679039,1054.96116226488,595.549636358493,923.626453162816,376.971974679454,668.665290897936,381.422338320961,545.03883773512,604.450363641507,6,3,5,5,0,4,horizontal,horizontal,horizontal,horizontal,vertical,vertical
1b,22,100218,2,33,97,24,M,NA,constant,heterogeneous,4,present,1.87533187866211,1,horizontal,horizontal,1,0.882347100121634,red,2,4,1054.0296480134,577.775285599347,545.970351986605,622.224714400653,822.224714400653,854.029648013395,1054.0296480134,577.775285599347,777.775285599347,345.970351986605,545.970351986605,622.224714400653,0,0,0,0,0,4,5,3,NaN,NaN,vertical,horizontal,horizontal,vertical,none,none
1b,22,100218,2,34,98,24,M,NA,constant,heterogeneous,3,absent,1.26185584068298,1,vertical,vertical,1,1.03528511268752,red,2,NaN,1039.62161830041,687.215136548046,NaN,NaN,604.658667004661,763.910840470068,1039.62161830041,687.215136548046,755.719714694933,348.874022981887,0,0,0,0,0,0,3,4,6,NaN,NaN,NaN,vertical,vertical,vertical,none,none,none
1b,22,100218,2,35,99,24,M,NA,constant,heterogeneous,4,present,0.784066915512085,1,vertical,vertical,1,0.647057850020272,red,2,4,1054.84466088987,591.100628340862,545.155339110131,608.899371659138,808.899371659138,854.844660889869,1054.84466088987,591.100628340862,791.100628340862,345.155339110131,545.155339110131,608.899371659138,0,0,0,0,6,4,3,3,NaN,NaN,horizontal,vertical,horizontal,horizontal,none,none
1b,22,100218,2,36,100,24,M,NA,constant,heterogeneous,6,absent,1.30950307846069,1,vertical,vertical,1,1.07057850020272,red,6,NaN,636.089159529932,795.341332995339,NaN,NaN,887.215136548046,839.621618300407,1051.12597701811,644.280285305067,963.910840470068,404.658667004661,712.784863451954,360.378381699593,548.874022981887,555.719714694933,636.089159529932,795.341332995339,0,0,3,3,5,4,horizontal,vertical,horizontal,horizontal,horizontal,vertical
1b,22,100218,2,37,101,24,M,NA,constant,heterogeneous,5,absent,1.02802109718323,1,vertical,vertical,1,0.611764462505068,red,4,NaN,593.700666434388,450.114760665419,NaN,NaN,878.799333565612,842.519411655264,1055,600,878.799333565612,357.480588344736,593.700666434388,450.114760665419,593.700666434388,749.885239334581,0,0,3,6,3,4,6,NaN,vertical,vertical,vertical,vertical,vertical,none
1b,22,100218,2,38,102,24,M,NA,constant,heterogeneous,4,absent,0.8350989818573,1,horizontal,horizontal,1,0.917640487636839,red,4,NaN,576.971974679454,476.373546837184,NaN,NaN,676.373546837184,823.028025320546,1023.02802532055,723.626453162816,923.626453162816,376.971974679454,576.971974679454,476.373546837184,0,0,0,0,0,3,6,4,NaN,NaN,horizontal,horizontal,horizontal,horizontal,none,none
1b,22,100218,2,39,103,24,M,NA,constant,heterogeneous,4,absent,0.991436958312988,1,horizontal,horizontal,1,0.964698337657111,red,1,NaN,712.784863451954,839.621618300407,NaN,NaN,712.784863451954,839.621618300407,1039.62161830041,687.215136548046,887.215136548046,360.378381699593,560.378381699593,512.784863451954,0,0,0,0,4,3,3,5,NaN,NaN,horizontal,vertical,vertical,horizontal,none,none
1b,22,100218,2,40,104,24,M,NA,constant,heterogeneous,3,absent,0.996654987335205,1,vertical,vertical,1,1.05881403769766,red,1,NaN,980.31222920257,780.31222920257,NaN,NaN,980.31222920257,780.31222920257,865.998856501143,353.688914296288,553.688914296288,665.998856501143,0,0,0,0,0,0,4,5,3,NaN,NaN,NaN,vertical,horizontal,vertical,none,none,none
1b,22,100218,2,41,105,24,M,NA,constant,heterogeneous,4,present,0.72879695892334,1,vertical,vertical,1,0.611764462505068,red,2,1,980.31222920257,419.68777079743,980.31222920257,780.31222920257,980.31222920257,780.31222920257,980.31222920257,419.68777079743,619.68777079743,419.68777079743,619.68777079743,780.31222920257,0,0,0,0,3,4,0,0,NaN,NaN,horizontal,vertical,vertical,horizontal,none,none
1b,22,100218,2,42,106,24,M,NA,constant,heterogeneous,4,present,0.853544950485229,1,horizontal,horizontal,1,0.894111562626702,red,3,2,622.862115532956,416.568350913644,983.431649086356,422.862115532956,977.137884467044,783.431649086356,983.431649086356,422.862115532956,622.862115532956,416.568350913644,616.568350913644,777.137884467044,0,0,0,0,6,5,4,0,NaN,NaN,vertical,vertical,horizontal,horizontal,none,none
1b,22,100218,2,43,107,24,M,NA,constant,heterogeneous,6,absent,1.09169006347656,1,vertical,vertical,1,1.04704957519259,red,6,NaN,553.688914296288,665.998856501143,NaN,NaN,734.001143498857,846.311085703712,980.31222920257,780.31222920257,1046.31108570371,534.001143498857,865.998856501143,353.688914296288,619.68777079743,419.68777079743,553.688914296288,665.998856501143,3,6,3,0,5,4,vertical,vertical,horizontal,horizontal,horizontal,vertical
1b,22,100218,2,44,108,24,M,NA,constant,heterogeneous,6,present,0.762299060821533,1,horizontal,horizontal,1,0.835289250101362,red,4,2,676.373546837184,376.971974679454,1054.96116226488,604.450363641507,923.626453162816,823.028025320546,1054.96116226488,604.450363641507,931.334709102064,381.422338320961,676.373546837184,376.971974679454,545.03883773512,595.549636358493,668.665290897936,818.577661679039,0,5,0,4,6,5,vertical,vertical,vertical,horizontal,vertical,horizontal
1b,22,100218,2,45,109,24,M,NA,constant,heterogeneous,5,absent,0.945774078369141,1,vertical,vertical,1,0.811760325091226,red,5,NaN,581.422338320961,731.334709102064,NaN,NaN,857.362518857686,848.464366520235,1054.0296480134,622.224714400653,899.636437764765,365.271262369628,607.549057043193,432.704947607421,581.422338320961,731.334709102064,0,0,3,0,0,6,4,NaN,vertical,horizontal,horizontal,vertical,vertical,none
1b,22,100218,2,46,110,24,M,NA,constant,heterogeneous,6,absent,1.02893304824829,1,horizontal,horizontal,1,1.01175618767738,red,5,NaN,546.39691668109,573.345241866748,NaN,NaN,903.717843984329,832.954091698863,1053.60308331891,626.654758133252,949.885239334581,393.700666434388,696.282156015671,367.045908301137,546.39691668109,573.345241866748,650.114760665419,806.299333565612,5,5,3,6,4,3,vertical,vertical,vertical,horizontal,horizontal,horizontal
1b,22,100218,2,47,111,24,M,NA,constant,heterogeneous,6,absent,1.44020295143127,1,vertical,vertical,1,0.905876025131771,red,3,NaN,986.495193912888,426.090418184063,NaN,NaN,857.362518857686,848.464366520235,1043.85771277057,674.554784704298,986.495193912888,426.090418184063,742.637481142314,351.535633479765,556.142287229426,525.445215295702,613.504806087112,773.909581815937,6,5,4,0,3,3,horizontal,horizontal,vertical,vertical,vertical,vertical
1b,22,100218,2,48,112,24,M,NA,constant,heterogeneous,3,absent,1.20663785934448,1,horizontal,horizontal,1,0.882347100121634,red,2,NaN,960.476699717708,401.827779828472,NaN,NaN,891.383827134052,838.063008756786,960.476699717708,401.827779828472,548.13947314824,560.109211414741,0,0,0,0,0,0,5,4,3,NaN,NaN,NaN,horizontal,horizontal,vertical,none,none,none
1b,22,100218,2,49,113,24,M,NA,constant,heterogeneous,4,absent,1.8844199180603,1,horizontal,horizontal,1,1.07057850020272,red,2,NaN,1011.40458100154,742.594190385041,NaN,NaN,657.405809614959,811.404581001536,1011.40458100154,742.594190385041,942.594190385041,388.595418998464,588.595418998464,457.40580961496,0,0,0,0,0,4,0,3,NaN,NaN,horizontal,horizontal,vertical,horizontal,none,none
1b,22,100218,2,50,114,24,M,NA,constant,heterogeneous,6,absent,1.13206696510315,1,horizontal,horizontal,1,1.08234296270779,red,4,NaN,729.712474266665,354.878267535729,NaN,NaN,870.287525733335,845.121732464271,1047.42541020038,661.690083377915,977.137884467044,416.568350913644,729.712474266665,354.878267535729,552.574589799621,538.309916622085,622.862115532956,783.431649086356,0,6,5,4,5,3,vertical,horizontal,horizontal,horizontal,horizontal,horizontal
1b,22,100218,2,51,115,24,M,NA,constant,heterogeneous,3,present,0.645967960357666,1,horizontal,horizontal,1,0.976462800162179,red,3,2,716.980120613425,358.892763222174,1050.31493177915,648.656293821019,632.704947607421,792.450942956807,1050.31493177915,648.656293821019,716.980120613425,358.892763222174,0,0,0,0,0,0,0,0,4,NaN,NaN,NaN,horizontal,horizontal,horizontal,none,none,none
1b,22,100218,2,52,116,24,M,NA,constant,heterogeneous,4,absent,0.557425975799561,1,horizontal,horizontal,1,0.694115700040545,red,4,NaN,586.139005173917,461.117046071168,NaN,NaN,661.117046071168,813.860994826083,1013.86099482608,738.882953928832,938.882953928832,386.139005173917,586.139005173917,461.117046071168,0,0,0,0,3,6,0,4,NaN,NaN,horizontal,vertical,vertical,horizontal,none,none
1b,22,100218,2,53,117,24,M,NA,constant,heterogeneous,5,present,0.844604969024658,1,horizontal,horizontal,1,0.988227262667247,red,5,4,604.658667004661,763.910840470068,583.747735480111,464.870587620533,895.524681321058,836.431882914531,1054.37883281626,582.212099195248,861.690083377915,352.574589799621,583.747735480111,464.870587620533,604.658667004661,763.910840470068,0,0,0,6,0,3,4,NaN,vertical,horizontal,vertical,horizontal,horizontal,none
1b,22,100218,2,54,118,24,M,NA,constant,heterogeneous,3,absent,0.861381053924561,1,vertical,vertical,1,0.799995862586158,red,2,NaN,1023.02802532055,723.626453162816,NaN,NaN,581.422338320961,731.334709102064,1023.02802532055,723.626453162816,795.549636358493,345.03883773512,0,0,0,0,0,0,6,4,5,NaN,NaN,NaN,vertical,vertical,horizontal,none,none,none
1b,22,100218,2,55,119,24,M,NA,constant,heterogeneous,6,present,1.45293593406677,1,horizontal,horizontal,1,0.905876025131771,red,1,3,911.784642431215,829.192481806288,942.594190385041,388.595418998464,911.784642431215,829.192481806288,1054.37883281626,617.787900804752,942.594190385041,388.595418998464,688.215357568785,370.807518193712,545.621167183745,582.212099195248,657.405809614959,811.404581001536,4,6,5,5,3,3,horizontal,vertical,horizontal,horizontal,horizontal,vertical
1b,22,100218,2,56,120,24,M,NA,constant,heterogeneous,3,present,1.25205993652344,1,vertical,vertical,1,1.09410742521286,red,3,2,746.982518841471,350.57236181288,1042.51941165526,678.799333565612,610.498069503264,770.628304621509,1042.51941165526,678.799333565612,746.982518841471,350.57236181288,0,0,0,0,0,0,5,6,4,NaN,NaN,NaN,vertical,vertical,vertical,none,none,none
1b,22,100218,2,57,121,24,M,NA,constant,heterogeneous,3,present,1.01636099815369,1,horizontal,horizontal,1,0.752938012565885,red,2,3,980.31222920257,419.68777079743,553.688914296288,534.001143498857,865.998856501143,846.311085703712,980.31222920257,419.68777079743,553.688914296288,534.001143498857,0,0,0,0,0,0,3,4,5,NaN,NaN,NaN,vertical,horizontal,horizontal,none,none,none
1b,22,100218,2,58,122,24,M,NA,constant,heterogeneous,4,absent,0.990475177764893,1,vertical,vertical,1,1.08234296270779,red,3,NaN,692.232343256122,368.891514305654,NaN,NaN,907.767656743878,831.108485694346,1031.10848569435,492.232343256122,692.232343256122,368.891514305654,568.891514305654,707.767656743878,0,0,0,0,0,6,4,5,NaN,NaN,vertical,horizontal,vertical,horizontal,none,none
1b,22,100218,2,59,123,24,M,NA,constant,heterogeneous,4,absent,0.821120977401733,1,vertical,vertical,1,0.929404950141907,red,3,NaN,768.923317431687,346.900731331463,NaN,NaN,831.076682568313,853.099268668537,1053.09926866854,568.923317431687,768.923317431687,346.900731331463,546.900731331463,631.076682568313,0,0,0,0,3,5,4,5,NaN,NaN,horizontal,vertical,vertical,vertical,none,none
1b,22,100218,2,60,124,24,M,NA,constant,heterogeneous,5,absent,1.9203839302063,1,horizontal,horizontal,1,0.941169412646975,red,3,NaN,970.628304621509,410.498069503264,NaN,NaN,773.345241866748,853.60308331891,1032.95409169886,703.717843984329,970.628304621509,410.498069503264,672.5,379.163522034968,550.57236181288,653.017481158529,0,0,0,5,4,6,5,NaN,vertical,horizontal,horizontal,vertical,vertical,none
1b,22,100218,2,61,125,24,M,NA,constant,heterogeneous,6,present,NaN,0,horizontal,none,0,0.999991725172315,red,6,5,545.155339110131,608.899371659138,664.870587620533,383.747735480111,680.284751489598,825.151636179026,935.129412379467,816.252264519889,1054.84466088987,591.100628340862,919.715248510402,374.848363820974,664.870587620533,383.747735480111,545.155339110131,608.899371659138,5,3,5,6,0,4,vertical,vertical,horizontal,horizontal,horizontal,horizontal
1b,22,100218,2,62,126,24,M,NA,constant,heterogeneous,3,absent,1.40073204040527,1,vertical,vertical,1,0.858818175111498,red,3,NaN,558.892763222174,516.980120613425,NaN,NaN,848.656293821019,850.314931779154,992.450942956807,432.704947607421,558.892763222174,516.980120613425,0,0,0,0,0,0,0,5,4,NaN,NaN,NaN,vertical,vertical,vertical,none,none,none
1b,22,100218,2,63,127,24,M,NA,constant,heterogeneous,5,present,1.03346991539001,1,horizontal,horizontal,1,0.635293387515204,red,4,3,561.936991243214,508.616172865948,813.345668841951,345.349468637584,938.882953928832,813.860994826083,1046.31108570371,534.001143498857,813.345668841951,345.349468637584,561.936991243214,508.616172865948,639.523300282292,798.172220171528,0,0,0,6,6,4,3,NaN,vertical,horizontal,vertical,horizontal,vertical,none
1b,22,100218,2,64,128,24,M,NA,constant,heterogeneous,3,present,1.21328902244568,1,horizontal,horizontal,1,0.752938012565885,red,2,3,826.654758133252,346.39691668109,567.045908301137,703.717843984329,1006.29933356561,749.885239334581,826.654758133252,346.39691668109,567.045908301137,703.717843984329,0,0,0,0,0,0,6,4,0,NaN,NaN,NaN,vertical,horizontal,vertical,none,none,none
1b,22,100218,3,1,129,24,M,NA,constant,heterogeneous,3,absent,1.4538848400116,1,horizontal,horizontal,1,1.03528511268752,red,3,NaN,546.900731331463,568.923317431687,NaN,NaN,899.636437764765,834.728737630372,953.462830903772,396.34794493794,546.900731331463,568.923317431687,0,0,0,0,0,0,0,0,4,NaN,NaN,NaN,vertical,vertical,horizontal,none,none,none
1b,22,100218,3,2,130,24,M,NA,constant,heterogeneous,4,present,0.859518051147461,1,vertical,vertical,1,1.02352065018245,red,4,1,561.936991243214,691.383827134052,891.383827134052,838.063008756786,891.383827134052,838.063008756786,1038.06300875679,508.616172865948,708.616172865948,361.936991243214,561.936991243214,691.383827134052,0,0,0,0,3,5,6,4,NaN,NaN,horizontal,vertical,vertical,vertical,none,none
1b,22,100218,3,3,131,24,M,NA,constant,heterogeneous,4,present,1.21482086181641,1,vertical,vertical,1,0.694115700040545,red,1,3,676.373546837184,823.028025320546,923.626453162816,376.971974679454,676.373546837184,823.028025320546,1023.02802532055,723.626453162816,923.626453162816,376.971974679454,576.971974679454,476.373546837184,0,0,0,0,4,5,3,5,NaN,NaN,vertical,horizontal,vertical,vertical,none,none
1b,22,100218,3,4,132,24,M,NA,constant,heterogeneous,3,present,0.996542930603027,0,vertical,horizontal,1,1.05881403769766,red,2,3,887.215136548046,360.378381699593,548.874022981887,644.280285305067,963.910840470068,795.341332995339,887.215136548046,360.378381699593,548.874022981887,644.280285305067,0,0,0,0,0,0,3,4,0,NaN,NaN,NaN,vertical,vertical,horizontal,none,none,none
1b,22,100218,3,5,133,24,M,NA,constant,heterogeneous,4,absent,0.602247953414917,1,vertical,vertical,1,0.882347100121634,red,3,NaN,839.890788585259,348.13947314824,NaN,NaN,760.109211414741,851.86052685176,1051.86052685176,639.890788585259,839.890788585259,348.13947314824,548.13947314824,560.109211414741,0,0,0,0,6,6,4,3,NaN,NaN,vertical,vertical,vertical,vertical,none,none
1b,22,100218,3,6,134,24,M,NA,constant,heterogeneous,6,present,0.975948810577393,1,vertical,vertical,1,0.870582637616566,red,6,2,639.523300282292,798.172220171528,1051.86052685176,639.890788585259,891.383827134052,838.063008756786,1051.86052685176,639.890788585259,960.476699717708,401.827779828472,708.616172865948,361.936991243214,548.13947314824,560.109211414741,639.523300282292,798.172220171528,5,5,0,3,6,4,horizontal,horizontal,vertical,vertical,vertical,vertical
1b,22,100218,3,7,135,24,M,NA,constant,heterogeneous,5,absent,1.12161993980408,1,horizontal,horizontal,1,0.705880162545613,red,5,NaN,546.900731331463,631.076682568313,NaN,NaN,751.343706178981,850.314931779154,1023.02802532055,723.626453162816,986.495193912888,426.090418184063,692.232343256122,368.891514305654,546.900731331463,631.076682568313,0,0,5,5,6,6,4,NaN,vertical,horizontal,vertical,vertical,horizontal,none
1b,22,100218,3,8,136,24,M,NA,constant,heterogeneous,6,absent,1.02927994728088,1,vertical,vertical,1,0.835289250101362,red,3,NaN,1031.10848569435,492.232343256122,NaN,NaN,777.775285599347,854.029648013395,1008.88377129369,746.261991269517,1031.10848569435,492.232343256122,822.224714400653,345.970351986605,591.116228706307,453.738008730483,568.891514305654,707.767656743878,5,5,4,6,0,3,vertical,horizontal,vertical,horizontal,vertical,vertical
1b,22,100218,3,9,137,24,M,NA,constant,heterogeneous,4,present,0.808455944061279,1,horizontal,horizontal,1,0.929404950141907,red,4,3,557.480588344736,678.799333565612,721.200666434388,357.480588344736,878.799333565612,842.519411655264,1042.51941165526,521.200666434388,721.200666434388,357.480588344736,557.480588344736,678.799333565612,0,0,0,0,3,6,5,4,NaN,NaN,horizontal,vertical,horizontal,horizontal,none,none
1b,22,100218,3,10,138,24,M,NA,constant,heterogeneous,3,absent,0.759649038314819,1,horizontal,horizontal,1,0.741173550060817,red,3,NaN,554.878267535729,529.712474266665,NaN,NaN,861.690083377915,847.425410200379,983.431649086356,422.862115532956,554.878267535729,529.712474266665,0,0,0,0,0,0,0,0,4,NaN,NaN,NaN,vertical,horizontal,horizontal,none,none,none
1b,22,100218,3,11,139,24,M,NA,constant,heterogeneous,5,absent,1.58163714408875,1,vertical,vertical,1,0.941169412646975,red,1,NaN,911.784642431215,829.192481806288,NaN,NaN,911.784642431215,829.192481806288,1052.5183575291,564.510859255183,844.280285305067,348.874022981887,574.848363820974,480.284751489598,616.568350913644,777.137884467044,0,0,4,5,6,5,3,NaN,vertical,horizontal,vertical,vertical,horizontal,none
1b,22,100218,3,12,140,24,M,NA,constant,heterogeneous,3,absent,0.665421009063721,1,horizontal,horizontal,1,0.799995862586158,red,3,NaN,552.574589799621,661.690083377915,NaN,NaN,977.137884467044,783.431649086356,870.287525733335,354.878267535729,552.574589799621,661.690083377915,0,0,0,0,0,0,3,6,4,NaN,NaN,NaN,vertical,horizontal,horizontal,none,none,none
1b,22,100218,3,13,141,24,M,NA,constant,heterogeneous,6,absent,NaN,0,horizontal,none,0,1.02352065018245,red,2,NaN,973.909581815937,786.495193912888,NaN,NaN,725.445215295702,843.857712770574,973.909581815937,786.495193912888,1048.46436652023,542.637481142314,874.554784704298,356.142287229426,626.090418184063,413.504806087112,551.535633479765,657.362518857686,3,4,6,0,5,3,vertical,horizontal,vertical,vertical,horizontal,vertical
1b,22,100218,3,14,142,24,M,NA,constant,heterogeneous,5,present,0.913501024246216,1,vertical,vertical,1,0.894111562626702,red,5,1,548.13947314824,639.890788585259,760.109211414741,851.86052685176,760.109211414741,851.86052685176,1027.20666366803,715.767577433584,980.31222920257,419.68777079743,684.232422566416,372.793336331966,548.13947314824,639.890788585259,0,0,3,5,6,0,4,NaN,vertical,horizontal,vertical,horizontal,vertical,none
1b,22,100218,3,15,143,24,M,NA,constant,heterogeneous,5,absent,1.07047510147095,1,horizontal,horizontal,1,0.717644625050681,red,4,NaN,601.827779828472,439.523300282291,NaN,NaN,865.998856501143,846.311085703712,1054.65053136242,613.345668841951,891.383827134052,361.936991243214,601.827779828472,439.523300282291,586.139005173917,738.882953928832,0,0,3,6,5,4,0,NaN,vertical,vertical,vertical,horizontal,horizontal,none
1b,22,100218,3,16,144,24,M,NA,constant,heterogeneous,4,absent,1.44914102554321,1,horizontal,horizontal,1,0.858818175111498,red,3,NaN,970.628304621509,410.498069503264,NaN,NaN,629.371695378491,789.501930496736,989.501930496736,770.628304621509,970.628304621509,410.498069503264,610.498069503264,429.371695378491,0,0,0,0,5,6,4,3,NaN,NaN,horizontal,vertical,horizontal,vertical,none,none
1b,22,100218,3,17,145,24,M,NA,constant,heterogeneous,6,absent,0.804919958114624,1,vertical,vertical,1,0.929404950141907,red,5,NaN,549.685068220846,551.343706178981,NaN,NaN,883.019879386575,841.107236777826,1050.31493177915,648.656293821019,967.295052392579,407.549057043193,716.980120613425,358.892763222174,549.685068220846,551.343706178981,632.704947607421,792.450942956807,0,0,5,3,4,3,vertical,horizontal,horizontal,horizontal,vertical,horizontal
1b,22,100218,3,18,146,24,M,NA,constant,heterogeneous,6,present,1.1050009727478,1,vertical,vertical,1,0.999991725172315,red,3,1,946.261991269517,391.116228706307,907.767656743878,831.108485694346,907.767656743878,831.108485694346,1054.0296480134,622.224714400653,946.261991269517,391.116228706307,692.232343256122,368.891514305654,545.970351986605,577.775285599347,653.738008730483,808.883771293693,0,6,4,5,0,6,horizontal,horizontal,vertical,vertical,horizontal,horizontal
1b,22,100218,3,19,147,24,M,NA,constant,heterogeneous,3,absent,0.829010963439941,1,horizontal,horizontal,1,0.870582637616566,red,1,NaN,586.139005173917,738.882953928832,NaN,NaN,586.139005173917,738.882953928832,1027.20666366803,715.767577433584,786.654331158049,345.349468637584,0,0,0,0,0,0,4,0,6,NaN,NaN,NaN,horizontal,horizontal,horizontal,none,none,none
1b,22,100218,3,20,148,24,M,NA,constant,heterogeneous,6,present,0.988533973693848,1,horizontal,horizontal,1,0.941169412646975,red,6,4,579.163522034968,727.5,800,345,800,855,1020.83647796503,727.5,1020.83647796503,472.5,800,345,579.163522034968,472.5,579.163522034968,727.5,5,0,3,6,3,4,horizontal,horizontal,vertical,horizontal,horizontal,horizontal
1b,22,100218,3,21,149,24,M,NA,constant,heterogeneous,5,present,1.48215794563293,1,vertical,vertical,1,1.08234296270779,red,2,3,1052.5183575291,635.489140744817,911.784642431215,370.807518193712,844.280285305067,851.125977018113,1052.5183575291,635.489140744817,911.784642431215,370.807518193712,616.568350913644,422.862115532956,574.848363820974,719.715248510402,0,0,3,4,0,6,3,NaN,horizontal,vertical,vertical,horizontal,vertical,none
1b,22,100218,3,22,150,24,M,NA,constant,heterogeneous,5,present,1.58432102203369,1,vertical,vertical,1,0.611764462505068,red,3,2,887.215136548046,360.378381699593,1054.84466088987,608.899371659138,870.287525733335,845.121732464271,1054.84466088987,608.899371659138,887.215136548046,360.378381699593,599.057257830286,443.006323791957,588.595418998464,742.594190385041,0,0,3,0,4,3,6,NaN,horizontal,horizontal,vertical,horizontal,horizontal,none
1b,22,100218,3,23,151,24,M,NA,constant,heterogeneous,5,absent,1.22859001159668,1,vertical,vertical,1,1.02352065018245,red,1,NaN,688.215357568785,829.192481806288,NaN,NaN,688.215357568785,829.192481806288,983.431649086356,777.137884467044,1025.15163617903,480.284751489598,755.719714694933,348.874022981887,547.481642470899,564.510859255183,0,0,4,6,3,3,5,NaN,vertical,vertical,vertical,vertical,vertical,none
1b,22,100218,3,24,152,24,M,NA,constant,heterogeneous,3,present,1.16693782806396,1,vertical,vertical,1,0.682351237535477,red,2,1,1049.42763818712,653.017481158529,629.371695378491,789.501930496736,629.371695378491,789.501930496736,1049.42763818712,653.017481158529,721.200666434388,357.480588344736,0,0,0,0,0,0,3,4,5,NaN,NaN,NaN,horizontal,vertical,vertical,none,none,none
1b,22,100218,3,25,153,24,M,NA,constant,heterogeneous,5,present,1.02001595497131,1,horizontal,horizontal,1,1.08234296270779,red,1,2,764.510859255183,852.518357529101,1029.19248180629,711.784642431215,764.510859255183,852.518357529101,1029.19248180629,711.784642431215,977.137884467044,416.568350913644,680.284751489598,374.848363820974,548.874022981887,644.280285305067,0,0,4,3,5,6,3,NaN,horizontal,vertical,vertical,vertical,vertical,none
1b,22,100218,3,26,154,24,M,NA,constant,heterogeneous,6,absent,1.16192221641541,1,vertical,vertical,1,0.658822312525341,red,1,NaN,688.215357568785,829.192481806288,NaN,NaN,688.215357568785,829.192481806288,942.594190385041,811.404581001536,1054.37883281626,582.212099195248,911.784642431215,370.807518193712,657.405809614959,388.595418998464,545.621167183745,617.787900804752,4,5,6,5,3,3,vertical,vertical,horizontal,horizontal,vertical,vertical
1b,22,100218,3,27,155,24,M,NA,constant,heterogeneous,6,present,1.00763297080994,1,vertical,vertical,1,0.717644625050681,red,1,4,907.767656743878,831.108485694346,692.232343256122,368.891514305654,907.767656743878,831.108485694346,1054.0296480134,622.224714400653,946.261991269517,391.116228706307,692.232343256122,368.891514305654,545.970351986605,577.775285599347,653.738008730483,808.883771293693,4,3,0,6,0,5,vertical,horizontal,vertical,horizontal,vertical,horizontal
1b,22,100218,3,28,156,24,M,NA,constant,heterogeneous,6,present,1.38176012039185,1,horizontal,horizontal,1,0.694115700040545,red,4,2,927.5,379.163522034968,927.5,820.836477965032,672.5,820.836477965032,927.5,820.836477965032,1055,600,927.5,379.163522034968,672.5,379.163522034968,545,600,3,5,0,4,6,0,horizontal,vertical,horizontal,horizontal,vertical,vertical
1b,22,100218,3,29,157,24,M,NA,constant,heterogeneous,4,present,0.889857053756714,1,horizontal,horizontal,1,1.02352065018245,red,3,4,946.261991269517,391.116228706307,591.116228706307,453.738008730483,653.738008730483,808.883771293693,1008.88377129369,746.261991269517,946.261991269517,391.116228706307,591.116228706307,453.738008730483,0,0,0,0,6,3,4,6,NaN,NaN,horizontal,vertical,horizontal,horizontal,none,none
1b,22,100218,3,30,158,24,M,NA,constant,heterogeneous,3,absent,0.881510972976685,1,vertical,vertical,1,0.682351237535477,red,1,NaN,857.362518857686,848.464366520235,NaN,NaN,857.362518857686,848.464366520235,986.495193912888,426.090418184063,556.142287229426,525.445215295702,0,0,0,0,0,0,4,0,3,NaN,NaN,NaN,vertical,horizontal,horizontal,none,none,none
1b,22,100218,3,31,159,24,M,NA,constant,heterogeneous,4,absent,0.654437065124512,1,vertical,vertical,1,0.741173550060817,red,3,NaN,977.137884467044,416.568350913644,NaN,NaN,622.862115532956,783.431649086356,983.431649086356,777.137884467044,977.137884467044,416.568350913644,616.568350913644,422.862115532956,0,0,0,0,5,3,4,0,NaN,NaN,horizontal,horizontal,vertical,horizontal,none,none
1b,22,100218,3,32,160,24,M,NA,constant,heterogeneous,5,absent,0.968008041381836,1,horizontal,horizontal,1,0.835289250101362,red,4,NaN,751.343706178981,349.685068220846,NaN,NaN,692.232343256122,831.108485694346,986.495193912888,773.909581815937,1023.02802532055,476.373546837184,751.343706178981,349.685068220846,546.900731331463,568.923317431687,0,0,3,0,5,4,6,NaN,vertical,horizontal,horizontal,horizontal,horizontal,none
1b,22,100218,3,33,161,24,M,NA,constant,heterogeneous,5,absent,0.838863849639893,1,vertical,vertical,1,0.752938012565885,red,4,NaN,639.523300282292,401.827779828472,NaN,NaN,813.345668841951,854.650531362416,1046.31108570371,665.998856501143,938.882953928832,386.139005173917,639.523300282292,401.827779828472,561.936991243214,691.383827134052,0,0,0,3,5,4,6,NaN,vertical,horizontal,horizontal,vertical,vertical,none
1b,22,100218,3,34,162,24,M,NA,constant,heterogeneous,5,present,0.830138206481934,1,horizontal,horizontal,1,0.905876025131771,red,3,1,883.019879386575,358.892763222174,874.554784704298,843.857712770574,874.554784704298,843.857712770574,1054.96116226488,604.450363641507,883.019879386575,358.892763222174,596.34794493794,446.537169096228,591.116228706307,746.261991269517,0,0,5,6,4,0,3,NaN,horizontal,horizontal,horizontal,horizontal,horizontal,none
1b,22,100218,3,35,163,24,M,NA,constant,heterogeneous,6,absent,1.59200501441956,1,horizontal,horizontal,1,0.658822312525341,red,6,NaN,672.5,820.836477965032,NaN,NaN,927.5,820.836477965032,1055,600,927.5,379.163522034968,672.5,379.163522034968,545,600,672.5,820.836477965032,5,0,6,3,5,4,horizontal,horizontal,vertical,horizontal,vertical,horizontal
1b,22,100218,3,36,164,24,M,NA,constant,heterogeneous,3,absent,1.06628680229187,1,vertical,vertical,1,0.717644625050681,red,2,NaN,1038.06300875679,691.383827134052,NaN,NaN,601.827779828472,760.476699717708,1038.06300875679,691.383827134052,760.109211414741,348.13947314824,0,0,0,0,0,0,3,4,6,NaN,NaN,NaN,horizontal,vertical,horizontal,none,none,none
1b,22,100218,3,37,165,24,M,NA,constant,heterogeneous,4,present,1.36133599281311,0,vertical,horizontal,1,0.682351237535477,red,3,1,664.870587620533,383.747735480111,935.129412379467,816.252264519889,935.129412379467,816.252264519889,1016.25226451989,464.870587620533,664.870587620533,383.747735480111,583.747735480111,735.129412379467,0,0,0,0,0,5,4,3,NaN,NaN,vertical,horizontal,vertical,vertical,none,none
1b,22,100218,3,38,166,24,M,NA,constant,heterogeneous,4,absent,1.06630682945251,1,horizontal,horizontal,1,0.882347100121634,red,3,NaN,857.362518857686,351.535633479765,NaN,NaN,742.637481142314,848.464366520235,1048.46436652023,657.362518857686,857.362518857686,351.535633479765,551.535633479765,542.637481142314,0,0,0,0,3,5,4,0,NaN,NaN,horizontal,vertical,horizontal,horizontal,none,none
1b,22,100218,3,39,167,24,M,NA,constant,heterogeneous,3,present,0.797211885452271,1,horizontal,horizontal,1,0.670586775030409,red,3,1,672.5,379.163522034968,672.5,820.836477965032,672.5,820.836477965032,1055,600,672.5,379.163522034968,0,0,0,0,0,0,6,5,4,NaN,NaN,NaN,vertical,vertical,horizontal,none,none,none
1b,22,100218,3,40,168,24,M,NA,constant,heterogeneous,5,present,1.19767689704895,1,horizontal,horizontal,1,1.02352065018245,red,2,1,1054.96116226488,595.549636358493,883.019879386575,841.107236777826,883.019879386575,841.107236777826,1054.96116226488,595.549636358493,874.554784704298,356.142287229426,591.116228706307,453.738008730483,596.34794493794,753.462830903772,0,0,6,4,6,5,0,NaN,vertical,horizontal,horizontal,horizontal,vertical,none
1b,22,100218,3,41,169,24,M,NA,constant,heterogeneous,4,absent,NaN,0,horizontal,none,0,0.682351237535477,red,1,NaN,956.993676208043,800.942742169714,NaN,NaN,956.993676208043,800.942742169714,1000.94274216971,443.006323791957,643.006323791957,399.057257830286,599.057257830286,756.993676208043,0,0,0,0,4,0,0,5,NaN,NaN,horizontal,horizontal,vertical,horizontal,none,none
1b,22,100218,3,42,170,24,M,NA,constant,heterogeneous,6,present,1.37956595420837,1,horizontal,horizontal,1,1.01175618767738,red,1,4,795.549636358493,854.96116226488,804.450363641507,345.03883773512,795.549636358493,854.96116226488,1018.57766167904,731.334709102064,1023.02802532055,476.373546837184,804.450363641507,345.03883773512,581.422338320961,468.665290897936,576.971974679454,723.626453162816,4,3,5,5,0,6,horizontal,vertical,vertical,vertical,horizontal,vertical
1b,22,100218,3,43,171,24,M,NA,constant,heterogeneous,3,absent,0.919700860977173,1,vertical,vertical,1,0.799995862586158,red,3,NaN,680.284751489598,374.848363820974,NaN,NaN,664.870587620533,816.252264519889,1054.84466088987,608.899371659138,680.284751489598,374.848363820974,0,0,0,0,0,0,0,6,4,NaN,NaN,NaN,horizontal,horizontal,vertical,none,none,none
1b,22,100218,3,44,172,24,M,NA,constant,heterogeneous,6,present,1.89665389060974,1,vertical,vertical,1,0.717644625050681,red,5,2,581.422338320961,468.665290897936,1018.57766167904,731.334709102064,795.549636358493,854.96116226488,1018.57766167904,731.334709102064,1023.02802532055,476.373546837184,804.450363641507,345.03883773512,581.422338320961,468.665290897936,576.971974679454,723.626453162816,5,0,6,5,4,3,vertical,vertical,vertical,vertical,vertical,horizontal
1b,22,100218,3,45,173,24,M,NA,constant,heterogeneous,3,present,0.715399980545044,1,horizontal,horizontal,1,1.03528511268752,red,2,1,822.224714400653,345.970351986605,1008.88377129369,746.261991269517,1008.88377129369,746.261991269517,822.224714400653,345.970351986605,568.891514305654,707.767656743878,0,0,0,0,0,0,3,4,6,NaN,NaN,NaN,horizontal,horizontal,vertical,none,none,none
1b,22,100218,3,46,174,24,M,NA,constant,heterogeneous,4,absent,0.633668899536133,1,horizontal,horizontal,1,0.788231400081089,red,3,NaN,935.129412379467,383.747735480111,NaN,NaN,664.870587620533,816.252264519889,1016.25226451989,735.129412379467,935.129412379467,383.747735480111,583.747735480111,464.870587620533,0,0,0,0,3,0,4,5,NaN,NaN,horizontal,horizontal,horizontal,vertical,none,none
1b,22,100218,3,47,175,24,M,NA,constant,heterogeneous,4,present,1.14484190940857,1,horizontal,horizontal,1,0.917640487636839,red,2,1,1006.29933356561,450.114760665419,949.885239334581,806.299333565612,949.885239334581,806.299333565612,1006.29933356561,450.114760665419,650.114760665419,393.700666434388,593.700666434388,749.885239334581,0,0,0,0,0,4,5,6,NaN,NaN,horizontal,horizontal,horizontal,vertical,none,none
1b,22,100218,3,48,176,24,M,NA,constant,heterogeneous,6,present,1.42942404747009,1,horizontal,horizontal,1,0.882347100121634,red,3,4,1008.88377129369,453.738008730483,777.775285599347,345.970351986605,822.224714400653,854.029648013395,1031.10848569435,707.767656743878,1008.88377129369,453.738008730483,777.775285599347,345.970351986605,568.891514305654,492.232343256122,591.116228706307,746.261991269517,6,3,4,0,0,6,horizontal,vertical,horizontal,vertical,horizontal,vertical
1b,22,100218,3,49,177,24,M,NA,constant,heterogeneous,3,absent,1.59476017951965,1,vertical,vertical,1,0.623528925010136,red,2,NaN,1013.86099482608,461.117046071168,NaN,NaN,813.345668841951,854.650531362416,1013.86099482608,461.117046071168,572.793336331966,484.232422566416,0,0,0,0,0,0,3,4,5,NaN,NaN,NaN,horizontal,vertical,vertical,none,none,none
1b,22,100218,3,50,178,24,M,NA,constant,heterogeneous,5,absent,1.36650896072388,1,horizontal,horizontal,1,0.788231400081089,red,5,NaN,551.535633479765,542.637481142314,NaN,NaN,668.665290897936,818.577661679039,967.295052392579,792.450942956807,1034.72873763037,500.363562235235,777.775285599347,345.970351986605,551.535633479765,542.637481142314,0,0,6,3,5,0,4,NaN,horizontal,vertical,vertical,vertical,horizontal,none
1b,22,100218,3,51,179,24,M,NA,constant,heterogeneous,3,present,0.972944021224976,1,horizontal,horizontal,1,0.952933875152043,red,1,2,593.700666434388,749.885239334581,1032.95409169886,703.717843984329,593.700666434388,749.885239334581,1032.95409169886,703.717843984329,773.345241866748,346.39691668109,0,0,0,0,0,0,4,6,3,NaN,NaN,NaN,horizontal,horizontal,vertical,none,none,none
1b,22,100218,3,52,180,24,M,NA,constant,heterogeneous,6,absent,0.95387601852417,0,horizontal,vertical,1,0.658822312525341,red,1,NaN,742.637481142314,848.464366520235,NaN,NaN,742.637481142314,848.464366520235,986.495193912888,773.909581815937,1043.85771277057,525.445215295702,857.362518857686,351.535633479765,613.504806087112,426.090418184063,556.142287229426,674.554784704298,4,6,0,5,5,3,horizontal,vertical,horizontal,horizontal,horizontal,vertical
1b,22,100218,3,53,181,24,M,NA,constant,heterogeneous,5,present,1.09022903442383,0,vertical,horizontal,1,0.658822312525341,red,5,2,557.480588344736,521.200666434388,949.885239334581,806.299333565612,650.114760665419,806.299333565612,949.885239334581,806.299333565612,1042.51941165526,521.200666434388,800,345,557.480588344736,521.200666434388,0,0,3,0,3,6,4,NaN,horizontal,horizontal,horizontal,horizontal,vertical,none
1b,22,100218,3,54,182,24,M,NA,constant,heterogeneous,6,absent,1.94102382659912,1,vertical,vertical,1,1.04704957519259,red,3,NaN,1053.60308331891,573.345241866748,NaN,NaN,696.282156015671,832.954091698863,949.885239334581,806.299333565612,1053.60308331891,573.345241866748,903.717843984329,367.045908301137,650.114760665419,393.700666434388,546.39691668109,626.654758133252,5,6,4,3,0,0,horizontal,horizontal,vertical,vertical,vertical,vertical
1b,22,100218,3,55,183,24,M,NA,constant,heterogeneous,5,present,1.20396399497986,1,horizontal,horizontal,1,0.976462800162179,red,3,1,907.767656743878,368.891514305654,848.656293821019,850.314931779154,848.656293821019,850.314931779154,1053.09926866854,631.076682568313,907.767656743878,368.891514305654,613.504806087112,426.090418184063,576.971974679454,723.626453162816,0,0,6,3,4,3,5,NaN,vertical,vertical,horizontal,horizontal,horizontal,none
1b,22,100218,3,56,184,24,M,NA,constant,heterogeneous,4,absent,0.649432897567749,1,vertical,vertical,1,1.07057850020272,red,3,NaN,668.665290897936,381.422338320961,NaN,NaN,931.334709102064,818.577661679039,1018.57766167904,468.665290897936,668.665290897936,381.422338320961,581.422338320961,731.334709102064,0,0,0,0,5,3,4,0,NaN,NaN,horizontal,horizontal,vertical,horizontal,none,none
1b,22,100218,3,57,185,24,M,NA,constant,heterogeneous,3,present,1.00532007217407,1,vertical,vertical,1,0.729409087555749,red,1,2,704.475318678942,836.431882914531,1052.5183575291,564.510859255183,704.475318678942,836.431882914531,1052.5183575291,564.510859255183,643.006323791957,399.057257830286,0,0,0,0,0,0,4,3,0,NaN,NaN,NaN,vertical,vertical,horizontal,none,none,none
1b,22,100218,3,58,186,24,M,NA,constant,heterogeneous,4,absent,0.735721111297607,1,vertical,vertical,1,0.905876025131771,red,3,NaN,883.019879386575,358.892763222174,NaN,NaN,716.980120613425,841.107236777826,1041.10723677783,683.019879386575,883.019879386575,358.892763222174,558.892763222174,516.980120613425,0,0,0,0,5,5,4,3,NaN,NaN,vertical,vertical,vertical,horizontal,none,none
1b,22,100218,3,59,187,24,M,NA,constant,heterogeneous,4,present,0.763873815536499,1,vertical,vertical,1,0.670586775030409,red,2,3,1020.83647796503,472.5,672.5,379.163522034968,927.5,820.836477965032,1020.83647796503,472.5,672.5,379.163522034968,579.163522034968,727.5,0,0,0,0,6,4,5,3,NaN,NaN,vertical,vertical,vertical,vertical,none,none
1b,22,100218,3,60,188,24,M,NA,constant,heterogeneous,6,absent,NaN,0,horizontal,none,0,0.999991725172315,red,2,NaN,989.501930496736,770.628304621509,NaN,NaN,746.982518841471,849.42763818712,989.501930496736,770.628304621509,1042.51941165526,521.200666434388,853.017481158529,350.57236181288,610.498069503264,429.371695378491,557.480588344736,678.799333565612,3,4,6,5,6,5,vertical,horizontal,vertical,vertical,horizontal,horizontal
1b,22,100218,3,61,189,24,M,NA,constant,heterogeneous,5,absent,1.19557404518127,1,vertical,vertical,1,0.788231400081089,red,5,NaN,551.535633479765,657.362518857686,NaN,NaN,777.775285599347,854.029648013395,1034.72873763037,699.636437764765,967.295052392579,407.549057043193,668.665290897936,381.422338320961,551.535633479765,657.362518857686,0,0,3,0,3,6,4,NaN,horizontal,horizontal,vertical,horizontal,vertical,none
1b,22,100218,3,62,190,24,M,NA,constant,heterogeneous,3,present,0.855712890625,1,horizontal,horizontal,1,0.611764462505068,red,2,1,826.654758133252,346.39691668109,1006.29933356561,749.885239334581,1006.29933356561,749.885239334581,826.654758133252,346.39691668109,567.045908301137,703.717843984329,0,0,0,0,0,0,3,4,0,NaN,NaN,NaN,vertical,horizontal,vertical,none,none,none
1b,22,100218,3,63,191,24,M,NA,constant,heterogeneous,3,present,0.842193126678467,1,vertical,vertical,1,0.658822312525341,red,3,1,548.13947314824,639.890788585259,960.476699717708,798.172220171528,960.476699717708,798.172220171528,891.383827134052,361.936991243214,548.13947314824,639.890788585259,0,0,0,0,0,0,5,3,4,NaN,NaN,NaN,vertical,horizontal,vertical,none,none,none
1b,22,100218,3,64,192,24,M,NA,constant,heterogeneous,4,present,1.0106508731842,1,horizontal,horizontal,1,0.776466937576021,red,1,3,768.923317431687,853.099268668537,831.076682568313,346.900731331463,768.923317431687,853.099268668537,1053.09926866854,631.076682568313,831.076682568313,346.900731331463,546.900731331463,568.923317431687,0,0,0,0,4,0,0,5,NaN,NaN,horizontal,vertical,vertical,vertical,none,none
1b,22,100218,4,1,193,24,M,NA,constant,heterogeneous,5,absent,1.34192109107971,1,horizontal,horizontal,1,0.823524787596294,red,5,NaN,619.68777079743,780.31222920257,NaN,NaN,915.767577433584,827.206663668034,1051.86052685176,560.109211414741,839.890788585259,348.13947314824,572.793336331966,484.232422566416,619.68777079743,780.31222920257,0,0,0,3,0,6,4,NaN,vertical,horizontal,vertical,horizontal,horizontal,none
1b,22,100218,4,2,194,24,M,NA,constant,heterogeneous,5,absent,NaN,0,horizontal,none,0,1.07057850020272,red,4,NaN,708.616172865948,361.936991243214,NaN,NaN,734.001143498857,846.311085703712,1013.86099482608,738.882953928832,998.172220171528,439.523300282291,708.616172865948,361.936991243214,545.349468637584,613.345668841951,0,0,5,5,3,4,3,NaN,horizontal,vertical,horizontal,horizontal,horizontal,none
1b,22,100218,4,3,195,24,M,NA,constant,heterogeneous,3,absent,0.605118989944458,1,vertical,vertical,1,0.717644625050681,red,2,NaN,887.215136548046,360.378381699593,NaN,NaN,963.910840470068,795.341332995339,887.215136548046,360.378381699593,548.874022981887,644.280285305067,0,0,0,0,0,0,0,4,6,NaN,NaN,NaN,vertical,vertical,horizontal,none,none,none
1b,22,100218,4,4,196,24,M,NA,constant,heterogeneous,3,absent,0.926651954650879,1,vertical,vertical,1,0.858818175111498,red,1,NaN,986.495193912888,773.909581815937,NaN,NaN,986.495193912888,773.909581815937,857.362518857686,351.535633479765,556.142287229426,674.554784704298,0,0,0,0,0,0,4,6,6,NaN,NaN,NaN,vertical,vertical,horizontal,none,none,none
1b,22,100218,4,5,197,24,M,NA,constant,heterogeneous,4,present,0.626240015029907,1,vertical,vertical,1,0.858818175111498,red,4,3,561.936991243214,508.616172865948,891.383827134052,361.936991243214,708.616172865948,838.063008756786,1038.06300875679,691.383827134052,891.383827134052,361.936991243214,561.936991243214,508.616172865948,0,0,0,0,0,0,5,4,NaN,NaN,horizontal,vertical,vertical,vertical,none,none
1b,22,100218,4,6,198,24,M,NA,constant,heterogeneous,5,absent,1.09004092216492,1,vertical,vertical,1,0.741173550060817,red,2,NaN,1049.42763818712,653.017481158529,NaN,NaN,826.654758133252,853.60308331891,1049.42763818712,653.017481158529,927.5,379.163522034968,629.371695378491,410.498069503264,567.045908301137,703.717843984329,0,0,6,4,0,3,3,NaN,horizontal,vertical,horizontal,horizontal,vertical,none
1b,22,100218,4,7,199,24,M,NA,constant,heterogeneous,4,present,0.97118091583252,1,horizontal,horizontal,1,0.752938012565885,red,2,4,1045.12173246427,529.712474266665,554.878267535729,670.287525733335,870.287525733335,845.121732464271,1045.12173246427,529.712474266665,729.712474266665,354.878267535729,554.878267535729,670.287525733335,0,0,0,0,6,4,0,0,NaN,NaN,horizontal,horizontal,horizontal,vertical,none,none
1b,22,100218,4,8,200,24,M,NA,constant,heterogeneous,3,absent,0.933821201324463,1,vertical,vertical,1,0.964698337657111,red,2,NaN,1027.20666366803,484.232422566416,NaN,NaN,786.654331158049,854.650531362416,1027.20666366803,484.232422566416,586.139005173917,461.117046071168,0,0,0,0,0,0,5,4,3,NaN,NaN,NaN,vertical,vertical,vertical,none,none,none
1b,22,100218,4,9,201,24,M,NA,constant,heterogeneous,4,absent,1.29807996749878,1,vertical,vertical,1,0.870582637616566,red,3,NaN,650.114760665419,393.700666434388,NaN,NaN,949.885239334581,806.299333565612,1006.29933356561,450.114760665419,650.114760665419,393.700666434388,593.700666434388,749.885239334581,0,0,0,0,0,5,4,0,NaN,NaN,vertical,horizontal,vertical,horizontal,none,none
1b,22,100218,4,10,202,24,M,NA,constant,heterogeneous,4,absent,1.0440080165863,1,vertical,vertical,1,0.788231400081089,red,1,NaN,865.998856501143,846.311085703712,NaN,NaN,865.998856501143,846.311085703712,1046.31108570371,534.001143498857,734.001143498857,353.688914296288,553.688914296288,665.998856501143,0,0,0,0,4,5,3,6,NaN,NaN,vertical,vertical,horizontal,horizontal,none,none
1b,22,100218,4,11,203,24,M,NA,constant,heterogeneous,5,present,0.802155017852783,1,vertical,vertical,1,0.858818175111498,red,2,5,1052.5183575291,564.510859255183,616.568350913644,777.137884467044,911.784642431215,829.192481806288,1052.5183575291,564.510859255183,844.280285305067,348.874022981887,574.848363820974,480.284751489598,616.568350913644,777.137884467044,0,0,5,4,6,5,3,NaN,vertical,vertical,horizontal,horizontal,vertical,none
1b,22,100218,4,12,204,24,M,NA,constant,heterogeneous,6,absent,1.28622603416443,1,horizontal,horizontal,1,0.799995862586158,red,1,NaN,708.616172865948,838.063008756786,NaN,NaN,708.616172865948,838.063008756786,960.476699717708,798.172220171528,1051.86052685176,560.109211414741,891.383827134052,361.936991243214,639.523300282292,401.827779828472,548.13947314824,639.890788585259,4,5,3,5,0,3,horizontal,vertical,horizontal,vertical,vertical,horizontal
1b,22,100218,4,13,205,24,M,NA,constant,heterogeneous,5,present,0.857608079910278,1,vertical,vertical,1,1.07057850020272,red,1,5,773.345241866748,853.60308331891,550.57236181288,653.017481158529,773.345241866748,853.60308331891,1032.95409169886,703.717843984329,970.628304621509,410.498069503264,672.5,379.163522034968,550.57236181288,653.017481158529,0,0,4,3,0,6,0,NaN,vertical,vertical,vertical,horizontal,vertical,none
1b,22,100218,4,14,206,24,M,NA,constant,heterogeneous,6,absent,1.00037598609924,1,vertical,vertical,1,0.858818175111498,red,5,NaN,545.03883773512,595.549636358493,NaN,NaN,923.626453162816,823.028025320546,1054.96116226488,604.450363641507,931.334709102064,381.422338320961,676.373546837184,376.971974679454,545.03883773512,595.549636358493,668.665290897936,818.577661679039,0,3,5,6,4,5,vertical,vertical,horizontal,vertical,vertical,vertical
1b,22,100218,4,15,207,24,M,NA,constant,heterogeneous,4,present,0.746279001235962,1,vertical,vertical,1,1.08234296270779,red,1,3,795.549636358493,854.96116226488,804.450363641507,345.03883773512,795.549636358493,854.96116226488,1054.96116226488,604.450363641507,804.450363641507,345.03883773512,545.03883773512,595.549636358493,0,0,0,0,4,6,5,3,NaN,NaN,vertical,horizontal,vertical,vertical,none,none
1b,22,100218,4,16,208,24,M,NA,constant,heterogeneous,6,present,1.1508309841156,1,horizontal,horizontal,1,1.08234296270779,red,1,3,692.232343256122,831.108485694346,1054.0296480134,577.775285599347,692.232343256122,831.108485694346,946.261991269517,808.883771293693,1054.0296480134,577.775285599347,907.767656743878,368.891514305654,653.738008730483,391.116228706307,545.970351986605,622.224714400653,4,3,0,3,6,5,horizontal,vertical,horizontal,vertical,horizontal,horizontal
1b,22,100218,4,17,209,24,M,NA,constant,heterogeneous,5,absent,1.09386515617371,1,vertical,vertical,1,0.6,red,4,NaN,586.139005173917,461.117046071168,NaN,NaN,891.383827134052,838.063008756786,1054.65053136242,586.654331158049,865.998856501143,353.688914296288,586.139005173917,461.117046071168,601.827779828472,760.476699717708,0,0,0,3,5,4,6,NaN,horizontal,vertical,horizontal,vertical,vertical,none
1b,22,100218,4,18,210,24,M,NA,constant,heterogeneous,3,absent,0.644572019577026,1,horizontal,horizontal,1,1.02352065018245,red,2,NaN,907.767656743878,368.891514305654,NaN,NaN,946.261991269517,808.883771293693,907.767656743878,368.891514305654,545.970351986605,622.224714400653,0,0,0,0,0,0,6,4,0,NaN,NaN,NaN,horizontal,horizontal,horizontal,none,none,none
1b,22,100218,4,19,211,24,M,NA,constant,heterogeneous,4,absent,1.45937895774841,1,horizontal,horizontal,1,1.08234296270779,red,2,NaN,1027.20666366803,484.232422566416,NaN,NaN,915.767577433584,827.206663668034,1027.20666366803,484.232422566416,684.232422566416,372.793336331966,572.793336331966,715.767577433584,0,0,0,0,3,4,5,6,NaN,NaN,vertical,horizontal,vertical,horizontal,none,none
1b,22,100218,4,20,212,24,M,NA,constant,heterogeneous,4,present,1.11348509788513,1,vertical,vertical,1,1.03528511268752,red,3,1,704.475318678942,363.568117085469,895.524681321058,836.431882914531,895.524681321058,836.431882914531,1036.43188291453,504.475318678942,704.475318678942,363.568117085469,563.568117085469,695.524681321058,0,0,0,0,6,6,4,5,NaN,NaN,vertical,vertical,vertical,horizontal,none,none
1b,22,100218,4,21,213,24,M,NA,constant,heterogeneous,6,present,1.2582540512085,0,horizontal,vertical,1,0.705880162545613,red,6,4,560.378381699593,687.215136548046,844.280285305067,348.874022981887,755.719714694933,851.125977018113,995.341332995339,763.910840470068,1039.62161830041,512.784863451954,844.280285305067,348.874022981887,604.658667004661,436.089159529932,560.378381699593,687.215136548046,3,0,3,5,6,4,horizontal,vertical,vertical,vertical,vertical,horizontal
1b,22,100218,4,22,214,24,M,NA,constant,heterogeneous,5,absent,1.32589197158813,1,horizontal,horizontal,1,0.741173550060817,red,2,NaN,1038.06300875679,691.383827134052,NaN,NaN,786.654331158049,854.650531362416,1038.06300875679,691.383827134052,960.476699717708,401.827779828472,661.117046071168,386.139005173917,553.688914296288,665.998856501143,0,0,6,4,5,3,5,NaN,horizontal,horizontal,horizontal,vertical,vertical,none
1b,22,100218,4,23,215,24,M,NA,constant,heterogeneous,3,present,0.708389043807983,1,horizontal,horizontal,1,0.776466937576021,red,3,1,563.568117085469,695.524681321058,1000.94274216971,756.993676208043,1000.94274216971,756.993676208043,835.489140744817,347.4816424709,563.568117085469,695.524681321058,0,0,0,0,0,0,6,6,4,NaN,NaN,NaN,horizontal,horizontal,horizontal,none,none,none
1b,22,100218,4,24,216,24,M,NA,constant,heterogeneous,3,present,1.16677689552307,1,horizontal,horizontal,1,0.999991725172315,red,3,2,676.373546837184,376.971974679454,1054.96116226488,604.450363641507,668.665290897936,818.577661679039,1054.96116226488,604.450363641507,676.373546837184,376.971974679454,0,0,0,0,0,0,3,3,4,NaN,NaN,NaN,horizontal,vertical,horizontal,none,none,none
1b,22,100218,4,25,217,24,M,NA,constant,heterogeneous,3,absent,0.555253982543945,1,horizontal,horizontal,1,1.03528511268752,red,3,NaN,692.232343256122,368.891514305654,NaN,NaN,653.738008730483,808.883771293693,1054.0296480134,622.224714400653,692.232343256122,368.891514305654,0,0,0,0,0,0,6,6,4,NaN,NaN,NaN,horizontal,horizontal,horizontal,none,none,none
1b,22,100218,4,26,218,24,M,NA,constant,heterogeneous,6,present,0.604886054992676,1,horizontal,horizontal,1,0.729409087555749,red,4,1,734.001143498857,353.688914296288,865.998856501143,846.311085703712,865.998856501143,846.311085703712,1046.31108570371,665.998856501143,980.31222920257,419.68777079743,734.001143498857,353.688914296288,553.688914296288,534.001143498857,619.68777079743,780.31222920257,6,0,0,4,3,6,horizontal,horizontal,vertical,horizontal,vertical,vertical
1b,22,100218,4,27,219,24,M,NA,constant,heterogeneous,6,absent,1.93058705329895,1,horizontal,horizontal,1,1.07057850020272,red,2,NaN,1054.65053136242,613.345668841951,NaN,NaN,915.767577433584,827.206663668034,1054.65053136242,613.345668841951,938.882953928832,386.139005173917,684.232422566416,372.793336331966,545.349468637584,586.654331158049,661.117046071168,813.860994826083,5,4,0,5,6,0,vertical,horizontal,horizontal,horizontal,horizontal,horizontal
1b,22,100218,4,28,220,24,M,NA,constant,heterogeneous,3,present,0.711842060089111,1,vertical,vertical,1,0.717644625050681,red,3,1,556.142287229426,674.554784704298,986.495193912888,773.909581815937,986.495193912888,773.909581815937,857.362518857686,351.535633479765,556.142287229426,674.554784704298,0,0,0,0,0,0,0,5,4,NaN,NaN,NaN,vertical,horizontal,vertical,none,none,none
1b,22,100218,4,29,221,24,M,NA,constant,heterogeneous,5,present,1.08277201652527,1,horizontal,horizontal,1,1.02352065018245,red,2,5,1049.42763818712,546.982518841471,629.371695378491,789.501930496736,927.5,820.836477965032,1049.42763818712,546.982518841471,826.654758133252,346.39691668109,567.045908301137,496.282156015671,629.371695378491,789.501930496736,0,0,0,4,0,3,5,NaN,vertical,horizontal,vertical,horizontal,horizontal,none
1b,22,100218,4,30,222,24,M,NA,constant,heterogeneous,3,present,0.814573049545288,1,vertical,vertical,1,1.09410742521286,red,2,1,899.636437764765,365.271262369628,953.462830903772,803.65205506206,953.462830903772,803.65205506206,899.636437764765,365.271262369628,546.900731331463,631.076682568313,0,0,0,0,0,0,3,4,0,NaN,NaN,NaN,horizontal,vertical,horizontal,none,none,none
1b,22,100218,4,31,223,24,M,NA,constant,heterogeneous,5,present,1.28422117233276,1,horizontal,horizontal,1,1.05881403769766,red,3,1,1036.43188291453,504.475318678942,664.870587620533,816.252264519889,664.870587620533,816.252264519889,963.910840470068,795.341332995339,1036.43188291453,504.475318678942,782.212099195248,345.621167183745,552.574589799621,538.309916622085,0,0,5,5,4,0,6,NaN,vertical,vertical,horizontal,vertical,horizontal,none
1b,22,100218,4,32,224,24,M,NA,constant,heterogeneous,6,present,1.214919090271,1,vertical,vertical,1,1.04704957519259,red,1,6,764.510859255183,852.518357529101,563.568117085469,695.524681321058,764.510859255183,852.518357529101,1000.94274216971,756.993676208043,1036.43188291453,504.475318678942,835.489140744817,347.4816424709,599.057257830286,443.006323791957,563.568117085469,695.524681321058,4,5,6,5,3,3,vertical,vertical,vertical,vertical,horizontal,horizontal
1b,22,100218,4,33,225,24,M,NA,constant,heterogeneous,6,absent,1.45225882530212,1,vertical,vertical,1,1.03528511268752,red,5,NaN,545.349468637584,586.654331158049,NaN,NaN,915.767577433584,827.206663668034,1054.65053136242,613.345668841951,938.882953928832,386.139005173917,684.232422566416,372.793336331966,545.349468637584,586.654331158049,661.117046071168,813.860994826083,3,6,5,0,4,6,vertical,vertical,horizontal,horizontal,vertical,horizontal
1b,22,100218,4,34,226,24,M,NA,constant,heterogeneous,5,absent,1.14266705513,1,vertical,vertical,1,0.658822312525341,red,5,NaN,596.34794493794,753.462830903772,NaN,NaN,883.019879386575,841.107236777826,1054.96116226488,595.549636358493,874.554784704298,356.142287229426,591.116228706307,453.738008730483,596.34794493794,753.462830903772,0,0,6,3,5,3,4,NaN,vertical,vertical,vertical,horizontal,vertical,none
1b,22,100218,4,35,227,24,M,NA,constant,heterogeneous,3,absent,0.847665071487427,1,horizontal,horizontal,1,0.694115700040545,red,1,NaN,795.549636358493,854.96116226488,NaN,NaN,795.549636358493,854.96116226488,1023.02802532055,476.373546837184,581.422338320961,468.665290897936,0,0,0,0,0,0,4,0,3,NaN,NaN,NaN,horizontal,horizontal,vertical,none,none,none
1b,22,100218,4,36,228,24,M,NA,constant,heterogeneous,4,absent,1.88784193992615,1,horizontal,horizontal,1,0.741173550060817,red,3,NaN,938.882953928832,386.139005173917,NaN,NaN,661.117046071168,813.860994826083,1013.86099482608,738.882953928832,938.882953928832,386.139005173917,586.139005173917,461.117046071168,0,0,0,0,0,3,4,6,NaN,NaN,vertical,vertical,horizontal,horizontal,none,none
1b,22,100218,4,37,229,24,M,NA,constant,heterogeneous,4,present,0.820915937423706,1,vertical,vertical,1,0.964698337657111,red,4,2,570.807518193712,711.784642431215,1029.19248180629,488.215357568785,911.784642431215,829.192481806288,1029.19248180629,488.215357568785,688.215357568785,370.807518193712,570.807518193712,711.784642431215,0,0,0,0,3,6,5,4,NaN,NaN,horizontal,horizontal,vertical,vertical,none,none
1b,22,100218,4,38,230,24,M,NA,constant,heterogeneous,3,absent,0.926570892333984,1,horizontal,horizontal,1,1.07057850020272,red,1,NaN,734.001143498857,846.311085703712,NaN,NaN,734.001143498857,846.311085703712,1046.31108570371,534.001143498857,619.68777079743,419.68777079743,0,0,0,0,0,0,4,5,5,NaN,NaN,NaN,horizontal,vertical,horizontal,none,none,none
1b,22,100218,4,39,231,24,M,NA,constant,heterogeneous,4,absent,1.16536593437195,1,horizontal,horizontal,1,0.799995862586158,red,1,NaN,874.554784704298,843.857712770574,NaN,NaN,874.554784704298,843.857712770574,1043.85771277057,525.445215295702,725.445215295702,356.142287229426,556.142287229426,674.554784704298,0,0,0,0,4,6,0,3,NaN,NaN,horizontal,horizontal,horizontal,vertical,none,none
1b,22,100218,4,40,232,24,M,NA,constant,heterogeneous,5,absent,NaN,0,vertical,none,0,1.03528511268752,red,2,NaN,1016.25226451989,735.129412379467,NaN,NaN,738.309916622085,847.425410200379,1016.25226451989,735.129412379467,995.341332995339,436.089159529932,704.475318678942,363.568117085469,545.621167183745,617.787900804752,0,0,0,4,6,3,6,NaN,vertical,vertical,horizontal,vertical,horizontal,none
1b,22,100218,4,41,233,24,M,NA,constant,heterogeneous,6,present,1.80304908752441,0,vertical,horizontal,1,1.05881403769766,red,3,1,1039.62161830041,512.784863451954,755.719714694933,851.125977018113,755.719714694933,851.125977018113,995.341332995339,763.910840470068,1039.62161830041,512.784863451954,844.280285305067,348.874022981887,604.658667004661,436.089159529932,560.378381699593,687.215136548046,0,3,4,3,5,0,vertical,horizontal,vertical,horizontal,vertical,vertical
1b,22,100218,4,42,234,24,M,NA,constant,heterogeneous,6,absent,1.3357310295105,1,horizontal,horizontal,1,1.02352065018245,red,5,NaN,604.658667004661,436.089159529932,NaN,NaN,755.719714694933,851.125977018113,995.341332995339,763.910840470068,1039.62161830041,512.784863451954,844.280285305067,348.874022981887,604.658667004661,436.089159529932,560.378381699593,687.215136548046,0,0,6,3,4,5,horizontal,horizontal,horizontal,horizontal,horizontal,vertical
1b,22,100218,4,43,235,24,M,NA,constant,heterogeneous,6,present,0.867595911026001,1,vertical,vertical,1,0.647057850020272,red,5,2,561.936991243214,508.616172865948,1038.06300875679,691.383827134052,839.890788585259,851.86052685176,1038.06300875679,691.383827134052,998.172220171528,439.523300282291,760.109211414741,348.13947314824,561.936991243214,508.616172865948,601.827779828472,760.476699717708,6,5,6,0,4,5,vertical,horizontal,horizontal,vertical,vertical,horizontal
1b,22,100218,4,44,236,24,M,NA,constant,heterogeneous,5,present,0.614609003067017,1,vertical,vertical,1,0.870582637616566,red,5,4,557.480588344736,521.200666434388,800,345,650.114760665419,806.299333565612,949.885239334581,806.299333565612,1042.51941165526,521.200666434388,800,345,557.480588344736,521.200666434388,0,0,5,0,5,6,4,NaN,horizontal,horizontal,horizontal,vertical,vertical,none
1b,22,100218,4,45,237,24,M,NA,constant,heterogeneous,3,present,1.0483570098877,1,vertical,vertical,1,0.670586775030409,red,1,3,588.595418998464,742.594190385041,782.212099195248,345.621167183745,588.595418998464,742.594190385041,1029.19248180629,711.784642431215,782.212099195248,345.621167183745,0,0,0,0,0,0,4,0,6,NaN,NaN,NaN,vertical,horizontal,vertical,none,none,none
1b,22,100218,4,46,238,24,M,NA,constant,heterogeneous,5,absent,0.986268043518066,1,horizontal,horizontal,1,1.03528511268752,red,1,NaN,700.363562235235,834.728737630372,NaN,NaN,700.363562235235,834.728737630372,992.450942956807,767.295052392579,1018.57766167904,468.665290897936,742.637481142314,351.535633479765,545.970351986605,577.775285599347,0,0,4,3,6,0,5,NaN,horizontal,horizontal,vertical,horizontal,vertical,none
1b,22,100218,4,47,239,24,M,NA,constant,heterogeneous,4,absent,0.957749843597412,1,horizontal,horizontal,1,0.976462800162179,red,1,NaN,919.715248510402,825.151636179026,NaN,NaN,919.715248510402,825.151636179026,1025.15163617903,480.284751489598,680.284751489598,374.848363820974,574.848363820974,719.715248510402,0,0,0,0,4,3,6,0,NaN,NaN,horizontal,horizontal,vertical,vertical,none,none
1b,22,100218,4,48,240,24,M,NA,constant,heterogeneous,4,present,0.886032104492188,1,horizontal,horizontal,1,1.05881403769766,red,4,2,616.568350913644,422.862115532956,983.431649086356,777.137884467044,622.862115532956,783.431649086356,983.431649086356,777.137884467044,977.137884467044,416.568350913644,616.568350913644,422.862115532956,0,0,0,0,0,5,3,4,NaN,NaN,vertical,vertical,vertical,horizontal,none,none
1b,22,100218,4,49,241,24,M,NA,constant,heterogeneous,4,absent,0.825119018554688,1,vertical,vertical,1,0.84705371260643,red,3,NaN,657.405809614959,388.595418998464,NaN,NaN,942.594190385041,811.404581001536,1011.40458100154,457.40580961496,657.405809614959,388.595418998464,588.595418998464,742.594190385041,0,0,0,0,6,5,4,5,NaN,NaN,vertical,vertical,vertical,vertical,none,none
1b,22,100218,4,50,242,24,M,NA,constant,heterogeneous,5,present,0.781298160552979,1,horizontal,horizontal,1,0.776466937576021,red,5,4,546.39691668109,573.345241866748,746.982518841471,350.57236181288,696.282156015671,832.954091698863,989.501930496736,770.628304621509,1020.83647796503,472.5,746.982518841471,350.57236181288,546.39691668109,573.345241866748,0,0,3,5,6,3,4,NaN,horizontal,vertical,vertical,horizontal,horizontal,none
1b,22,100218,4,51,243,24,M,NA,constant,heterogeneous,3,absent,0.812850952148438,1,vertical,vertical,1,0.988227262667247,red,3,NaN,549.685068220846,648.656293821019,NaN,NaN,967.295052392579,792.450942956807,883.019879386575,358.892763222174,549.685068220846,648.656293821019,0,0,0,0,0,0,5,0,4,NaN,NaN,NaN,vertical,vertical,vertical,none,none,none
1b,22,100218,4,52,244,24,M,NA,constant,heterogeneous,4,absent,1.39870285987854,1,vertical,vertical,1,1.07057850020272,red,2,NaN,1031.10848569435,707.767656743878,NaN,NaN,692.232343256122,831.108485694346,1031.10848569435,707.767656743878,907.767656743878,368.891514305654,568.891514305654,492.232343256122,0,0,0,0,5,4,3,6,NaN,NaN,vertical,vertical,horizontal,vertical,none,none
1b,22,100218,4,53,245,24,M,NA,constant,heterogeneous,4,present,0.831276178359985,1,horizontal,horizontal,1,0.611764462505068,red,2,3,983.431649086356,422.862115532956,622.862115532956,416.568350913644,977.137884467044,783.431649086356,983.431649086356,422.862115532956,622.862115532956,416.568350913644,616.568350913644,777.137884467044,0,0,0,0,6,4,6,3,NaN,NaN,vertical,horizontal,horizontal,horizontal,none,none
