experiment,subject,uniqueID,block,trial,trial_cumulative,age,gender,color_cond_blocking,color_history,shape_type,set_size,distractor,rt,acc,target_orient,response_key,response_made,iti,target_color,target_item,distractor_item,target_X,target_Y,distractor_X,distractor_Y,item1_X,item1_Y,item2_X,item2_Y,item3_X,item3_Y,item4_X,item4_Y,item5_X,item5_Y,item6_X,item6_Y,item1_shape,item2_shape,item3_shape,item4_shape,item5_shape,item6_shape,item1_line,item2_line,item3_line,item4_line,item5_line,item6_line
1b,23,100219,1,1,1,20,F,NA,constant,heterogeneous,4,absent,1.44676208496094,1,vertical,vertical,1,0.917641973495483,green,4,NaN,601.827779828472,439.523300282291,NaN,NaN,639.523300282292,798.172220171528,998.172220171528,760.476699717708,960.476699717708,401.827779828472,601.827779828472,439.523300282291,0,0,0,0,5,3,0,4,NaN,NaN,horizontal,horizontal,vertical,vertical,none,none
1b,23,100219,1,2,2,20,F,NA,constant,heterogeneous,6,absent,NaN,0,horizontal,none,0,0.635293552610609,green,3,NaN,1049.42763818712,546.982518841471,NaN,NaN,721.200666434388,842.519411655264,970.628304621509,789.501930496736,1049.42763818712,546.982518841471,878.799333565612,357.480588344736,629.371695378491,410.498069503264,550.57236181288,653.017481158529,5,3,4,0,0,3,horizontal,horizontal,horizontal,horizontal,vertical,horizontal
1b,23,100219,1,3,3,20,F,NA,constant,heterogeneous,3,present,1.02987504005432,1,horizontal,horizontal,1,1.04705166640105,green,1,2,777.775285599347,854.029648013395,1031.10848569435,492.232343256122,777.775285599347,854.029648013395,1031.10848569435,492.232343256122,591.116228706307,453.738008730483,0,0,0,0,0,0,4,0,5,NaN,NaN,NaN,horizontal,vertical,horizontal,none,none,none
1b,23,100219,1,4,4,20,F,NA,constant,heterogeneous,5,present,0.934998989105225,1,horizontal,horizontal,1,0.835290350737395,green,4,5,684.232422566416,372.793336331966,548.13947314824,639.890788585259,760.109211414741,851.86052685176,1027.20666366803,715.767577433584,980.31222920257,419.68777079743,684.232422566416,372.793336331966,548.13947314824,639.890788585259,0,0,0,3,0,4,6,NaN,vertical,vertical,vertical,horizontal,horizontal,none
1b,23,100219,1,5,5,20,F,NA,constant,heterogeneous,3,absent,0.981371879577637,1,vertical,vertical,1,0.964700043642962,green,3,NaN,560.378381699593,687.215136548046,NaN,NaN,995.341332995339,763.910840470068,844.280285305067,348.874022981887,560.378381699593,687.215136548046,0,0,0,0,0,0,6,6,4,NaN,NaN,NaN,horizontal,vertical,vertical,none,none,none
1b,23,100219,1,6,6,20,F,NA,constant,heterogeneous,4,present,1.48245191574097,0,horizontal,vertical,1,0.670587105221218,green,2,4,1039.62161830041,687.215136548046,560.378381699593,512.784863451954,712.784863451954,839.621618300407,1039.62161830041,687.215136548046,887.215136548046,360.378381699593,560.378381699593,512.784863451954,0,0,0,0,5,4,6,6,NaN,NaN,vertical,horizontal,vertical,horizontal,none,none
1b,23,100219,1,7,7,20,F,NA,constant,heterogeneous,5,absent,1.95232701301575,1,vertical,vertical,1,1.01175811379044,green,1,NaN,899.636437764765,834.728737630372,NaN,NaN,899.636437764765,834.728737630372,1054.0296480134,577.775285599347,857.362518857686,351.535633479765,581.422338320961,468.665290897936,607.549057043193,767.295052392579,0,0,4,5,3,5,6,NaN,vertical,horizontal,vertical,horizontal,vertical,none
1b,23,100219,1,8,8,20,F,NA,constant,heterogeneous,6,absent,NaN,0,horizontal,none,0,1.01175811379044,green,2,NaN,1051.86052685176,639.890788585259,NaN,NaN,891.383827134052,838.063008756786,1051.86052685176,639.890788585259,960.476699717708,401.827779828472,708.616172865948,361.936991243214,548.13947314824,560.109211414741,639.523300282292,798.172220171528,0,4,6,0,3,3,horizontal,horizontal,horizontal,horizontal,horizontal,horizontal
1b,23,100219,1,9,9,20,F,NA,constant,heterogeneous,4,absent,2.00030088424683,1,horizontal,horizontal,1,0.788232280589916,green,4,NaN,604.658667004661,436.089159529932,NaN,NaN,636.089159529932,795.341332995339,995.341332995339,763.910840470068,963.910840470068,404.658667004661,604.658667004661,436.089159529932,0,0,0,0,3,0,3,4,NaN,NaN,vertical,horizontal,horizontal,horizontal,none,none
1b,23,100219,1,10,10,20,F,NA,constant,heterogeneous,4,present,1.7710919380188,0,vertical,horizontal,1,0.729409692905567,green,4,3,546.39691668109,626.654758133252,773.345241866748,346.39691668109,826.654758133252,853.60308331891,1053.60308331891,573.345241866748,773.345241866748,346.39691668109,546.39691668109,626.654758133252,0,0,0,0,6,6,5,4,NaN,NaN,horizontal,vertical,horizontal,vertical,none,none
1b,23,100219,1,11,11,20,F,NA,constant,heterogeneous,3,absent,1.22246599197388,1,horizontal,horizontal,1,0.788232280589916,green,3,NaN,721.200666434388,357.480588344736,NaN,NaN,629.371695378491,789.501930496736,1049.42763818712,653.017481158529,721.200666434388,357.480588344736,0,0,0,0,0,0,0,6,4,NaN,NaN,NaN,vertical,vertical,horizontal,none,none,none
1b,23,100219,1,12,12,20,F,NA,constant,heterogeneous,6,absent,NaN,0,vertical,none,0,0.682351622758088,green,3,NaN,1041.10723677783,516.980120613425,NaN,NaN,751.343706178981,850.314931779154,992.450942956807,767.295052392579,1041.10723677783,516.980120613425,848.656293821019,349.685068220846,607.549057043193,432.704947607421,558.892763222174,683.019879386575,3,0,4,6,0,6,horizontal,vertical,vertical,horizontal,vertical,vertical
1b,23,100219,1,13,13,20,F,NA,constant,heterogeneous,3,present,0.841717958450317,1,vertical,vertical,1,0.835290350737395,green,1,3,619.68777079743,780.31222920257,734.001143498857,353.688914296288,619.68777079743,780.31222920257,1046.31108570371,665.998856501143,734.001143498857,353.688914296288,0,0,0,0,0,0,4,0,3,NaN,NaN,NaN,vertical,vertical,vertical,none,none,none
1b,23,100219,1,14,14,20,F,NA,constant,heterogeneous,6,absent,NaN,0,horizontal,none,0,0.729409692905567,green,4,NaN,746.982518841471,350.57236181288,NaN,NaN,853.017481158529,849.42763818712,1042.51941165526,678.799333565612,989.501930496736,429.371695378491,746.982518841471,350.57236181288,557.480588344736,521.200666434388,610.498069503264,770.628304621509,3,6,0,4,5,0,horizontal,vertical,horizontal,horizontal,vertical,horizontal
1b,23,100219,1,15,15,20,F,NA,constant,heterogeneous,5,present,1.49490690231323,1,horizontal,horizontal,1,1.07058070147479,green,1,4,857.362518857686,848.464366520235,607.549057043193,432.704947607421,857.362518857686,848.464366520235,1054.0296480134,622.224714400653,899.636437764765,365.271262369628,607.549057043193,432.704947607421,581.422338320961,731.334709102064,0,0,4,5,6,6,5,NaN,horizontal,vertical,horizontal,horizontal,vertical,none
1b,23,100219,1,16,16,20,F,NA,constant,heterogeneous,4,absent,0.776461839675903,1,horizontal,horizontal,1,0.764703245516177,green,3,NaN,848.656293821019,349.685068220846,NaN,NaN,751.343706178981,850.314931779154,1050.31493177915,648.656293821019,848.656293821019,349.685068220846,549.685068220846,551.343706178981,0,0,0,0,0,3,4,6,NaN,NaN,vertical,horizontal,horizontal,horizontal,none,none
1b,23,100219,1,17,17,20,F,NA,constant,heterogeneous,4,present,1.18077397346497,1,horizontal,horizontal,1,0.823525833200525,green,3,1,680.284751489598,374.848363820974,919.715248510402,825.151636179026,919.715248510402,825.151636179026,1025.15163617903,480.284751489598,680.284751489598,374.848363820974,574.848363820974,719.715248510402,0,0,0,0,3,3,4,5,NaN,NaN,vertical,vertical,horizontal,vertical,none,none
1b,23,100219,1,18,18,20,F,NA,constant,heterogeneous,6,absent,1.41510796546936,1,vertical,vertical,1,0.929406491032353,green,1,NaN,883.019879386575,841.107236777826,NaN,NaN,883.019879386575,841.107236777826,1050.31493177915,648.656293821019,967.295052392579,407.549057043193,716.980120613425,358.892763222174,549.685068220846,551.343706178981,632.704947607421,792.450942956807,4,3,0,6,0,3,vertical,vertical,horizontal,vertical,horizontal,vertical
1b,23,100219,1,19,19,20,F,NA,constant,heterogeneous,3,absent,0.902199029922485,0,horizontal,vertical,1,0.929406491032353,green,2,NaN,1048.46436652023,657.362518857686,NaN,NaN,626.090418184063,786.495193912888,1048.46436652023,657.362518857686,725.445215295702,356.142287229426,0,0,0,0,0,0,0,4,0,NaN,NaN,NaN,vertical,horizontal,vertical,none,none,none
1b,23,100219,1,20,20,20,F,NA,constant,heterogeneous,4,present,1.396329164505,1,vertical,vertical,1,0.6,green,4,3,616.568350913644,422.862115532956,977.137884467044,416.568350913644,622.862115532956,783.431649086356,983.431649086356,777.137884467044,977.137884467044,416.568350913644,616.568350913644,422.862115532956,0,0,0,0,0,3,5,4,NaN,NaN,horizontal,vertical,horizontal,vertical,none,none
1b,23,100219,1,21,21,20,F,NA,constant,heterogeneous,3,present,0.797846078872681,1,horizontal,horizontal,1,0.670587105221218,green,2,3,1047.42541020038,538.309916622085,622.862115532956,416.568350913644,729.712474266665,845.121732464271,1047.42541020038,538.309916622085,622.862115532956,416.568350913644,0,0,0,0,0,0,5,4,3,NaN,NaN,NaN,vertical,horizontal,vertical,none,none,none
1b,23,100219,1,22,22,20,F,NA,constant,heterogeneous,4,present,1.13047099113464,0,vertical,horizontal,1,0.835290350737395,green,1,4,692.232343256122,831.108485694346,568.891514305654,492.232343256122,692.232343256122,831.108485694346,1031.10848569435,707.767656743878,907.767656743878,368.891514305654,568.891514305654,492.232343256122,0,0,0,0,4,0,0,5,NaN,NaN,vertical,horizontal,horizontal,vertical,none,none
1b,23,100219,1,23,23,20,F,NA,constant,heterogeneous,5,absent,1.01297998428345,1,horizontal,horizontal,1,0.976464561179832,green,4,NaN,800,345,NaN,NaN,650.114760665419,806.299333565612,949.885239334581,806.299333565612,1042.51941165526,521.200666434388,800,345,557.480588344736,521.200666434388,0,0,0,0,6,4,6,NaN,vertical,horizontal,horizontal,horizontal,horizontal,none
1b,23,100219,1,24,24,20,F,NA,constant,heterogeneous,6,present,0.959820985794067,1,horizontal,horizontal,1,0.917641973495483,green,5,6,568.891514305654,492.232343256122,591.116228706307,746.261991269517,822.224714400653,854.029648013395,1031.10848569435,707.767656743878,1008.88377129369,453.738008730483,777.775285599347,345.970351986605,568.891514305654,492.232343256122,591.116228706307,746.261991269517,0,6,3,0,4,5,vertical,horizontal,horizontal,vertical,horizontal,horizontal
1b,23,100219,1,25,25,20,F,NA,constant,heterogeneous,4,absent,1.03932785987854,1,horizontal,horizontal,1,0.811761315663656,green,4,NaN,557.480588344736,678.799333565612,NaN,NaN,878.799333565612,842.519411655264,1042.51941165526,521.200666434388,721.200666434388,357.480588344736,557.480588344736,678.799333565612,0,0,0,0,5,0,0,4,NaN,NaN,horizontal,vertical,vertical,horizontal,none,none
1b,23,100219,1,26,26,20,F,NA,constant,heterogeneous,5,absent,1.45306897163391,1,vertical,vertical,1,1.03528714886418,green,2,NaN,1050.31493177915,648.656293821019,NaN,NaN,831.076682568313,853.099268668537,1050.31493177915,648.656293821019,923.626453162816,376.971974679454,626.090418184063,413.504806087112,568.891514305654,707.767656743878,0,0,0,4,0,3,3,NaN,vertical,vertical,vertical,horizontal,vertical,none
1b,23,100219,1,27,27,20,F,NA,constant,heterogeneous,5,absent,1.71590185165405,1,horizontal,horizontal,1,0.870583903348004,green,1,NaN,692.232343256122,831.108485694346,NaN,NaN,692.232343256122,831.108485694346,986.495193912888,773.909581815937,1023.02802532055,476.373546837184,751.343706178981,349.685068220846,546.900731331463,568.923317431687,0,0,4,0,6,3,5,NaN,horizontal,horizontal,horizontal,horizontal,vertical,none
1b,23,100219,1,28,28,20,F,NA,constant,heterogeneous,4,present,1.10737991333008,1,horizontal,horizontal,1,1.08234521901166,green,2,3,1043.85771277057,674.554784704298,874.554784704298,356.142287229426,725.445215295702,843.857712770574,1043.85771277057,674.554784704298,874.554784704298,356.142287229426,556.142287229426,525.445215295702,0,0,0,0,3,4,0,6,NaN,NaN,horizontal,horizontal,horizontal,horizontal,none,none
1b,23,100219,1,29,29,20,F,NA,constant,heterogeneous,5,present,1.35156917572021,1,horizontal,horizontal,1,1.07058070147479,green,2,1,1053.60308331891,573.345241866748,903.717843984329,832.954091698863,903.717843984329,832.954091698863,1053.60308331891,573.345241866748,853.017481158529,350.57236181288,579.163522034968,472.5,610.498069503264,770.628304621509,0,0,0,4,3,3,6,NaN,vertical,horizontal,horizontal,vertical,horizontal,none
1b,23,100219,1,30,30,20,F,NA,constant,heterogeneous,4,present,1.87875509262085,1,horizontal,horizontal,1,0.988229078716702,green,1,2,661.117046071168,813.860994826083,1013.86099482608,738.882953928832,661.117046071168,813.860994826083,1013.86099482608,738.882953928832,938.882953928832,386.139005173917,586.139005173917,461.117046071168,0,0,0,0,4,3,3,6,NaN,NaN,horizontal,vertical,vertical,vertical,none,none
1b,23,100219,1,31,31,20,F,NA,constant,heterogeneous,6,present,1.3393440246582,1,horizontal,horizontal,1,0.752938727979307,green,1,5,773.345241866748,853.60308331891,593.700666434388,450.114760665419,773.345241866748,853.60308331891,1006.29933356561,749.885239334581,1032.95409169886,496.282156015671,826.654758133252,346.39691668109,593.700666434388,450.114760665419,567.045908301137,703.717843984329,4,0,5,5,3,3,horizontal,horizontal,horizontal,horizontal,horizontal,horizontal
1b,23,100219,1,32,32,20,F,NA,constant,heterogeneous,3,absent,0.625034093856812,1,horizontal,horizontal,1,0.941171008569223,green,1,NaN,604.658667004661,763.910840470068,NaN,NaN,604.658667004661,763.910840470068,1039.62161830041,687.215136548046,755.719714694933,348.874022981887,0,0,0,0,0,0,4,6,6,NaN,NaN,NaN,horizontal,horizontal,horizontal,none,none,none
1b,23,100219,1,33,33,20,F,NA,constant,heterogeneous,4,present,1.09001803398132,1,vertical,vertical,1,0.61176451753687,green,1,4,817.787900804752,854.378832816255,545.621167183745,617.787900804752,817.787900804752,854.378832816255,1054.37883281626,582.212099195248,782.212099195248,345.621167183745,545.621167183745,617.787900804752,0,0,0,0,4,5,3,0,NaN,NaN,vertical,horizontal,vertical,horizontal,none,none
1b,23,100219,1,34,34,20,F,NA,constant,heterogeneous,3,present,1.4293110370636,0,horizontal,vertical,1,0.870583903348004,green,2,3,1041.10723677783,516.980120613425,607.549057043193,432.704947607421,751.343706178981,850.314931779154,1041.10723677783,516.980120613425,607.549057043193,432.704947607421,0,0,0,0,0,0,6,4,0,NaN,NaN,NaN,vertical,horizontal,horizontal,none,none,none
1b,23,100219,1,35,35,20,F,NA,constant,heterogeneous,5,absent,NaN,0,vertical,none,0,0.729409692905567,green,5,NaN,545.970351986605,577.775285599347,NaN,NaN,700.363562235235,834.728737630372,992.450942956807,767.295052392579,1018.57766167904,468.665290897936,742.637481142314,351.535633479765,545.970351986605,577.775285599347,0,0,0,5,5,3,4,NaN,horizontal,horizontal,horizontal,horizontal,vertical,none
1b,23,100219,1,36,36,20,F,NA,constant,heterogeneous,4,absent,1.66427111625671,1,horizontal,horizontal,1,0.964700043642962,green,2,NaN,1016.25226451989,735.129412379467,NaN,NaN,664.870587620533,816.252264519889,1016.25226451989,735.129412379467,935.129412379467,383.747735480111,583.747735480111,464.870587620533,0,0,0,0,5,4,3,0,NaN,NaN,vertical,horizontal,horizontal,vertical,none,none
1b,23,100219,1,37,37,20,F,NA,constant,heterogeneous,5,present,NaN,0,vertical,none,0,1.03528714886418,green,5,1,613.504806087112,773.909581815937,907.767656743878,831.108485694346,907.767656743878,831.108485694346,1053.09926866854,568.923317431687,848.656293821019,349.685068220846,576.971974679454,476.373546837184,613.504806087112,773.909581815937,0,0,5,3,5,0,4,NaN,vertical,vertical,vertical,horizontal,vertical,none
1b,23,100219,1,38,38,20,F,NA,constant,heterogeneous,3,absent,1.46845006942749,1,vertical,vertical,1,1.09410973654853,green,2,NaN,1054.0296480134,622.224714400653,NaN,NaN,653.738008730483,808.883771293693,1054.0296480134,622.224714400653,692.232343256122,368.891514305654,0,0,0,0,0,0,3,4,5,NaN,NaN,NaN,vertical,vertical,horizontal,none,none,none
1b,23,100219,1,39,39,20,F,NA,constant,heterogeneous,3,present,1.14127898216248,0,vertical,horizontal,1,0.776467763053046,green,3,2,786.654331158049,345.349468637584,1027.20666366803,715.767577433584,586.139005173917,738.882953928832,1027.20666366803,715.767577433584,786.654331158049,345.349468637584,0,0,0,0,0,0,0,3,4,NaN,NaN,NaN,vertical,horizontal,vertical,none,none,none
1b,23,100219,1,40,40,20,F,NA,constant,heterogeneous,3,present,1.51397299766541,1,vertical,vertical,1,0.858819385811135,green,2,1,1052.5183575291,564.510859255183,704.475318678942,836.431882914531,704.475318678942,836.431882914531,1052.5183575291,564.510859255183,643.006323791957,399.057257830286,0,0,0,0,0,0,6,4,0,NaN,NaN,NaN,horizontal,vertical,vertical,none,none,none
1b,23,100219,1,41,41,20,F,NA,constant,heterogeneous,6,absent,NaN,0,vertical,none,0,1.05881618393792,green,1,NaN,800,855,NaN,NaN,800,855,1020.83647796503,727.5,1020.83647796503,472.5,800,345,579.163522034968,472.5,579.163522034968,727.5,4,6,3,0,0,5,vertical,horizontal,horizontal,vertical,horizontal,horizontal
1b,23,100219,1,42,42,20,F,NA,constant,heterogeneous,6,present,1.55337190628052,0,vertical,horizontal,1,0.988229078716702,green,3,1,1031.10848569435,492.232343256122,777.775285599347,854.029648013395,777.775285599347,854.029648013395,1008.88377129369,746.261991269517,1031.10848569435,492.232343256122,822.224714400653,345.970351986605,591.116228706307,453.738008730483,568.891514305654,707.767656743878,0,3,4,3,0,6,vertical,vertical,vertical,vertical,horizontal,vertical
1b,23,100219,1,43,43,20,F,NA,constant,heterogeneous,5,present,1.23376297950745,0,vertical,horizontal,1,0.658822587684349,green,2,1,1055,600,878.799333565612,842.519411655264,878.799333565612,842.519411655264,1055,600,878.799333565612,357.480588344736,593.700666434388,450.114760665419,593.700666434388,749.885239334581,0,0,0,4,6,3,0,NaN,horizontal,vertical,horizontal,vertical,vertical,none
1b,23,100219,1,44,44,20,F,NA,constant,heterogeneous,6,present,NaN,0,vertical,none,0,1.07058070147479,green,5,6,560.378381699593,512.784863451954,604.658667004661,763.910840470068,844.280285305067,851.125977018113,1039.62161830041,687.215136548046,995.341332995339,436.089159529932,755.719714694933,348.874022981887,560.378381699593,512.784863451954,604.658667004661,763.910840470068,5,3,0,3,4,5,vertical,vertical,vertical,vertical,vertical,vertical
1b,23,100219,1,45,45,20,F,NA,constant,heterogeneous,6,present,1.47344493865967,1,horizontal,horizontal,1,0.658822587684349,green,4,1,746.982518841471,350.57236181288,853.017481158529,849.42763818712,853.017481158529,849.42763818712,1042.51941165526,678.799333565612,989.501930496736,429.371695378491,746.982518841471,350.57236181288,557.480588344736,521.200666434388,610.498069503264,770.628304621509,0,5,0,4,6,3,vertical,horizontal,vertical,horizontal,horizontal,horizontal
1b,23,100219,1,46,46,20,F,NA,constant,heterogeneous,5,present,1.35302400588989,1,vertical,vertical,1,0.894112938421744,green,3,5,995.341332995339,436.089159529932,545.621167183745,617.787900804752,738.309916622085,847.425410200379,1016.25226451989,735.129412379467,995.341332995339,436.089159529932,704.475318678942,363.568117085469,545.621167183745,617.787900804752,0,0,5,3,4,6,5,NaN,horizontal,vertical,vertical,vertical,vertical,none
1b,23,100219,1,47,47,20,F,NA,constant,heterogeneous,5,present,1.43973803520203,0,vertical,horizontal,1,0.964700043642962,green,1,4,878.799333565612,842.519411655264,593.700666434388,450.114760665419,878.799333565612,842.519411655264,1055,600,878.799333565612,357.480588344736,593.700666434388,450.114760665419,593.700666434388,749.885239334581,0,0,4,6,3,0,5,NaN,vertical,horizontal,horizontal,horizontal,horizontal,none
1b,23,100219,1,48,48,20,F,NA,constant,heterogeneous,3,absent,1.37423086166382,0,horizontal,vertical,1,0.682351622758088,green,2,NaN,895.524681321058,363.568117085469,NaN,NaN,956.993676208043,800.942742169714,895.524681321058,363.568117085469,547.481642470899,635.489140744817,0,0,0,0,0,0,6,4,6,NaN,NaN,NaN,vertical,horizontal,vertical,none,none,none
1b,23,100219,1,49,49,20,F,NA,constant,heterogeneous,4,absent,1.03687787055969,1,vertical,vertical,1,0.752938727979307,green,3,NaN,861.690083377915,352.574589799621,NaN,NaN,738.309916622085,847.425410200379,1047.42541020038,661.690083377915,861.690083377915,352.574589799621,552.574589799621,538.309916622085,0,0,0,0,6,3,4,0,NaN,NaN,horizontal,horizontal,vertical,horizontal,none,none
1b,23,100219,1,50,50,20,F,NA,constant,heterogeneous,5,present,0.748533010482788,1,horizontal,horizontal,1,0.729409692905567,green,3,2,927.5,379.163522034968,1049.42763818712,653.017481158529,826.654758133252,853.60308331891,1049.42763818712,653.017481158529,927.5,379.163522034968,629.371695378491,410.498069503264,567.045908301137,703.717843984329,0,0,0,6,4,6,3,NaN,vertical,vertical,horizontal,vertical,vertical,none
1b,23,100219,1,51,51,20,F,NA,constant,heterogeneous,6,present,NaN,0,vertical,none,0,0.976464561179832,green,1,5,887.215136548046,839.621618300407,548.874022981887,555.719714694933,887.215136548046,839.621618300407,1051.12597701811,644.280285305067,963.910840470068,404.658667004661,712.784863451954,360.378381699593,548.874022981887,555.719714694933,636.089159529932,795.341332995339,4,3,0,5,0,6,vertical,horizontal,vertical,horizontal,horizontal,vertical
1b,23,100219,1,52,52,20,F,NA,constant,heterogeneous,5,absent,1.0755980014801,1,vertical,vertical,1,0.811761315663656,green,3,NaN,899.636437764765,365.271262369628,NaN,NaN,857.362518857686,848.464366520235,1054.0296480134,622.224714400653,899.636437764765,365.271262369628,607.549057043193,432.704947607421,581.422338320961,731.334709102064,0,0,6,3,4,5,0,NaN,horizontal,horizontal,vertical,vertical,horizontal,none
1b,23,100219,1,53,53,20,F,NA,constant,heterogeneous,6,absent,1.3975989818573,1,horizontal,horizontal,1,0.61176451753687,green,4,NaN,857.362518857686,351.535633479765,NaN,NaN,742.637481142314,848.464366520235,986.495193912888,773.909581815937,1043.85771277057,525.445215295702,857.362518857686,351.535633479765,613.504806087112,426.090418184063,556.142287229426,674.554784704298,0,0,6,4,6,5,horizontal,vertical,horizontal,horizontal,vertical,vertical
1b,23,100219,1,54,54,20,F,NA,constant,heterogeneous,4,absent,1.93304514884949,1,vertical,vertical,1,0.976464561179832,green,3,NaN,734.001143498857,353.688914296288,NaN,NaN,865.998856501143,846.311085703712,1046.31108570371,534.001143498857,734.001143498857,353.688914296288,553.688914296288,665.998856501143,0,0,0,0,0,6,4,5,NaN,NaN,horizontal,horizontal,vertical,vertical,none,none
1b,23,100219,1,55,55,20,F,NA,constant,heterogeneous,5,absent,1.01746487617493,1,horizontal,horizontal,1,0.670587105221218,green,4,NaN,610.498069503264,429.371695378491,NaN,NaN,853.017481158529,849.42763818712,1053.60308331891,626.654758133252,903.717843984329,367.045908301137,610.498069503264,429.371695378491,579.163522034968,727.5,0,0,6,5,3,4,0,NaN,vertical,horizontal,horizontal,horizontal,horizontal,none
1b,23,100219,1,56,56,20,F,NA,constant,heterogeneous,3,absent,1.19061684608459,1,vertical,vertical,1,0.835290350737395,green,1,NaN,632.704947607421,792.450942956807,NaN,NaN,632.704947607421,792.450942956807,1050.31493177915,648.656293821019,716.980120613425,358.892763222174,0,0,0,0,0,0,4,5,6,NaN,NaN,NaN,vertical,vertical,horizontal,none,none,none
1b,23,100219,1,57,57,20,F,NA,constant,heterogeneous,6,present,1.34030103683472,1,horizontal,horizontal,1,1.08234521901166,green,5,2,613.504806087112,426.090418184063,986.495193912888,773.909581815937,742.637481142314,848.464366520235,986.495193912888,773.909581815937,1043.85771277057,525.445215295702,857.362518857686,351.535633479765,613.504806087112,426.090418184063,556.142287229426,674.554784704298,6,0,0,3,4,6,horizontal,vertical,horizontal,horizontal,horizontal,vertical
1b,23,100219,1,58,58,20,F,NA,constant,heterogeneous,6,present,NaN,0,vertical,none,0,0.835290350737395,green,1,2,768.923317431687,853.099268668537,1003.65205506206,753.462830903772,768.923317431687,853.099268668537,1003.65205506206,753.462830903772,1034.72873763037,500.363562235235,831.076682568313,346.900731331463,596.34794493794,446.537169096228,565.271262369628,699.636437764765,4,3,0,6,5,5,vertical,vertical,vertical,vertical,vertical,horizontal
1b,23,100219,1,59,59,20,F,NA,constant,heterogeneous,3,present,1.09857296943665,0,vertical,horizontal,1,0.905877455958614,green,2,1,963.910840470068,404.658667004661,887.215136548046,839.621618300407,887.215136548046,839.621618300407,963.910840470068,404.658667004661,548.874022981887,555.719714694933,0,0,0,0,0,0,6,4,3,NaN,NaN,NaN,horizontal,vertical,horizontal,none,none,none
1b,23,100219,1,60,60,20,F,NA,constant,heterogeneous,3,present,0.890918016433716,1,horizontal,horizontal,1,0.717645175368698,green,2,1,967.295052392579,407.549057043193,883.019879386575,841.107236777826,883.019879386575,841.107236777826,967.295052392579,407.549057043193,549.685068220846,551.343706178981,0,0,0,0,0,0,5,4,3,NaN,NaN,NaN,vertical,horizontal,horizontal,none,none,none
1b,23,100219,1,61,61,20,F,NA,constant,heterogeneous,3,absent,1.50472378730774,1,vertical,vertical,1,0.988229078716702,green,1,NaN,696.282156015671,832.954091698863,NaN,NaN,696.282156015671,832.954091698863,1053.60308331891,573.345241866748,650.114760665419,393.700666434388,0,0,0,0,0,0,4,3,0,NaN,NaN,NaN,vertical,vertical,horizontal,none,none,none
1b,23,100219,1,62,62,20,F,NA,constant,heterogeneous,6,absent,1.49663901329041,0,vertical,horizontal,1,0.682351622758088,green,5,NaN,661.117046071168,386.139005173917,NaN,NaN,684.232422566416,827.206663668034,938.882953928832,813.860994826083,1054.65053136242,586.654331158049,915.767577433584,372.793336331966,661.117046071168,386.139005173917,545.349468637584,613.345668841951,6,5,0,3,4,3,horizontal,horizontal,horizontal,horizontal,vertical,vertical
1b,23,100219,1,63,63,20,F,NA,constant,heterogeneous,4,absent,NaN,0,vertical,none,0,0.635293552610609,green,1,NaN,629.371695378491,789.501930496736,NaN,NaN,629.371695378491,789.501930496736,989.501930496736,770.628304621509,970.628304621509,410.498069503264,610.498069503264,429.371695378491,0,0,0,0,4,6,6,5,NaN,NaN,vertical,horizontal,vertical,horizontal,none,none
1b,23,100219,1,64,64,20,F,NA,constant,heterogeneous,5,absent,1.77747392654419,1,horizontal,horizontal,1,0.670587105221218,green,1,NaN,935.129412379467,816.252264519889,NaN,NaN,935.129412379467,816.252264519889,1047.42541020038,538.309916622085,817.787900804752,345.621167183745,563.568117085469,504.475318678942,636.089159529932,795.341332995339,0,0,4,6,3,5,5,NaN,horizontal,horizontal,vertical,horizontal,horizontal,none
1b,23,100219,2,1,65,20,F,NA,constant,heterogeneous,4,absent,1.3034930229187,0,vertical,horizontal,1,0.976464561179832,green,1,NaN,622.862115532956,783.431649086356,NaN,NaN,622.862115532956,783.431649086356,983.431649086356,777.137884467044,977.137884467044,416.568350913644,616.568350913644,422.862115532956,0,0,0,0,4,5,0,6,NaN,NaN,vertical,vertical,horizontal,horizontal,none,none
1b,23,100219,2,2,66,20,F,NA,constant,heterogeneous,6,absent,1.27386403083801,1,horizontal,horizontal,1,0.61176451753687,green,5,NaN,551.535633479765,542.637481142314,NaN,NaN,874.554784704298,843.857712770574,1048.46436652023,657.362518857686,973.909581815937,413.504806087112,725.445215295702,356.142287229426,551.535633479765,542.637481142314,626.090418184063,786.495193912888,5,3,5,0,4,3,horizontal,horizontal,horizontal,vertical,horizontal,vertical
1b,23,100219,2,3,67,20,F,NA,constant,heterogeneous,5,present,1.25117707252502,1,vertical,vertical,1,0.788232280589916,green,3,5,865.998856501143,353.688914296288,601.827779828472,760.476699717708,891.383827134052,838.063008756786,1054.65053136242,586.654331158049,865.998856501143,353.688914296288,586.139005173917,461.117046071168,601.827779828472,760.476699717708,0,0,6,3,4,6,0,NaN,vertical,horizontal,vertical,horizontal,horizontal,none
1b,23,100219,2,4,68,20,F,NA,constant,heterogeneous,5,absent,0.88057017326355,1,horizontal,horizontal,1,0.999993596253572,green,5,NaN,591.116228706307,746.261991269517,NaN,NaN,874.554784704298,843.857712770574,1054.96116226488,604.450363641507,883.019879386575,358.892763222174,596.34794493794,446.537169096228,591.116228706307,746.261991269517,0,0,0,0,3,6,4,NaN,vertical,vertical,vertical,horizontal,horizontal,none
1b,23,100219,2,5,69,20,F,NA,constant,heterogeneous,5,present,1.55428314208984,0,vertical,horizontal,1,0.811761315663656,green,4,5,604.658667004661,436.089159529932,583.747735480111,735.129412379467,861.690083377915,847.425410200379,1054.37883281626,617.787900804752,895.524681321058,363.568117085469,604.658667004661,436.089159529932,583.747735480111,735.129412379467,0,0,0,5,6,4,6,NaN,horizontal,horizontal,vertical,vertical,vertical,none
1b,23,100219,2,6,70,20,F,NA,constant,heterogeneous,3,absent,0.883926868438721,1,vertical,vertical,1,0.705880657831828,green,2,NaN,977.137884467044,416.568350913644,NaN,NaN,870.287525733335,845.121732464271,977.137884467044,416.568350913644,552.574589799621,538.309916622085,0,0,0,0,0,0,6,4,0,NaN,NaN,NaN,vertical,vertical,vertical,none,none,none
1b,23,100219,2,7,71,20,F,NA,constant,heterogeneous,4,present,1.04298686981201,1,vertical,vertical,1,0.658822587684349,green,2,1,1011.40458100154,457.40580961496,942.594190385041,811.404581001536,942.594190385041,811.404581001536,1011.40458100154,457.40580961496,657.405809614959,388.595418998464,588.595418998464,742.594190385041,0,0,0,0,3,4,6,6,NaN,NaN,horizontal,vertical,horizontal,vertical,none,none
1b,23,100219,2,8,72,20,F,NA,constant,heterogeneous,3,present,1.10984396934509,1,horizontal,horizontal,1,1.09410973654853,green,3,1,558.892763222174,516.980120613425,848.656293821019,850.314931779154,848.656293821019,850.314931779154,992.450942956807,432.704947607421,558.892763222174,516.980120613425,0,0,0,0,0,0,0,5,4,NaN,NaN,NaN,horizontal,vertical,horizontal,none,none,none
1b,23,100219,2,9,73,20,F,NA,constant,heterogeneous,5,absent,0.765074014663696,1,horizontal,horizontal,1,1.03528714886418,green,3,NaN,992.450942956807,432.704947607421,NaN,NaN,742.637481142314,848.464366520235,1018.57766167904,731.334709102064,992.450942956807,432.704947607421,700.363562235235,365.271262369628,545.970351986605,622.224714400653,0,0,5,3,4,5,0,NaN,horizontal,horizontal,horizontal,vertical,horizontal,none
1b,23,100219,2,10,74,20,F,NA,constant,heterogeneous,3,absent,1.42480707168579,1,horizontal,horizontal,1,0.61176451753687,green,2,NaN,1029.19248180629,711.784642431215,NaN,NaN,588.595418998464,742.594190385041,1029.19248180629,711.784642431215,782.212099195248,345.621167183745,0,0,0,0,0,0,5,4,0,NaN,NaN,NaN,horizontal,horizontal,vertical,none,none,none
1b,23,100219,2,11,75,20,F,NA,constant,heterogeneous,3,absent,0.9375159740448,1,vertical,vertical,1,0.811761315663656,green,1,NaN,579.163522034968,727.5,NaN,NaN,579.163522034968,727.5,1020.83647796503,727.5,800,345,0,0,0,0,0,0,4,0,5,NaN,NaN,NaN,vertical,vertical,horizontal,none,none,none
1b,23,100219,2,12,76,20,F,NA,constant,heterogeneous,6,present,1.60011196136475,1,horizontal,horizontal,1,0.764703245516177,green,4,6,751.343706178981,349.685068220846,607.549057043193,767.295052392579,848.656293821019,850.314931779154,1041.10723677783,683.019879386575,992.450942956807,432.704947607421,751.343706178981,349.685068220846,558.892763222174,516.980120613425,607.549057043193,767.295052392579,6,6,3,4,5,0,horizontal,horizontal,vertical,horizontal,vertical,horizontal
1b,23,100219,2,13,77,20,F,NA,constant,heterogeneous,5,present,1.24458789825439,0,horizontal,vertical,1,0.823525833200525,green,2,4,1048.46436652023,657.362518857686,632.704947607421,407.549057043193,822.224714400653,854.029648013395,1048.46436652023,657.362518857686,931.334709102064,381.422338320961,632.704947607421,407.549057043193,565.271262369628,699.636437764765,0,0,3,4,3,5,5,NaN,vertical,horizontal,horizontal,horizontal,vertical,none
1b,23,100219,2,14,78,20,F,NA,constant,heterogeneous,3,present,0.715224981307983,1,vertical,vertical,1,0.882348420884874,green,3,2,588.595418998464,457.40580961496,1029.19248180629,488.215357568785,782.212099195248,854.378832816255,1029.19248180629,488.215357568785,588.595418998464,457.40580961496,0,0,0,0,0,0,0,6,4,NaN,NaN,NaN,horizontal,vertical,vertical,none,none,none
1b,23,100219,2,15,79,20,F,NA,constant,heterogeneous,4,absent,1.51481103897095,0,vertical,horizontal,1,0.658822587684349,green,2,NaN,995.341332995339,763.910840470068,NaN,NaN,636.089159529932,795.341332995339,995.341332995339,763.910840470068,963.910840470068,404.658667004661,604.658667004661,436.089159529932,0,0,0,0,0,4,5,5,NaN,NaN,vertical,vertical,vertical,horizontal,none,none
1b,23,100219,2,16,80,20,F,NA,constant,heterogeneous,4,absent,NaN,0,horizontal,none,0,1.05881618393792,green,4,NaN,567.045908301137,496.282156015671,NaN,NaN,696.282156015671,832.954091698863,1032.95409169886,703.717843984329,903.717843984329,367.045908301137,567.045908301137,496.282156015671,0,0,0,0,3,5,3,4,NaN,NaN,horizontal,horizontal,horizontal,horizontal,none,none
1b,23,100219,2,17,81,20,F,NA,constant,heterogeneous,4,absent,1.35724902153015,1,horizontal,horizontal,1,0.929406491032353,green,1,NaN,870.287525733335,845.121732464271,NaN,NaN,870.287525733335,845.121732464271,1045.12173246427,529.712474266665,729.712474266665,354.878267535729,554.878267535729,670.287525733335,0,0,0,0,4,5,3,6,NaN,NaN,horizontal,horizontal,vertical,horizontal,none,none
1b,23,100219,2,18,82,20,F,NA,constant,heterogeneous,5,present,NaN,0,vertical,none,0,0.694116140294958,green,3,1,919.715248510402,374.848363820974,835.489140744817,852.518357529101,835.489140744817,852.518357529101,1051.12597701811,644.280285305067,919.715248510402,374.848363820974,622.862115532956,416.568350913644,570.807518193712,711.784642431215,0,0,6,0,4,5,0,NaN,vertical,vertical,vertical,horizontal,vertical,none
1b,23,100219,2,19,83,20,F,NA,constant,heterogeneous,4,present,1.29759788513184,1,horizontal,horizontal,1,0.741174210442437,green,1,4,725.445215295702,843.857712770574,556.142287229426,525.445215295702,725.445215295702,843.857712770574,1043.85771277057,674.554784704298,874.554784704298,356.142287229426,556.142287229426,525.445215295702,0,0,0,0,4,3,5,6,NaN,NaN,horizontal,vertical,vertical,vertical,none,none
1b,23,100219,2,20,84,20,F,NA,constant,heterogeneous,6,absent,1.0820209980011,1,horizontal,horizontal,1,0.717645175368698,green,1,NaN,883.019879386575,841.107236777826,NaN,NaN,883.019879386575,841.107236777826,1050.31493177915,648.656293821019,967.295052392579,407.549057043193,716.980120613425,358.892763222174,549.685068220846,551.343706178981,632.704947607421,792.450942956807,4,5,6,5,0,3,horizontal,horizontal,horizontal,horizontal,horizontal,vertical
1b,23,100219,2,21,85,20,F,NA,constant,heterogeneous,4,present,1.05754899978638,1,vertical,vertical,1,0.882348420884874,green,3,2,622.862115532956,416.568350913644,983.431649086356,422.862115532956,977.137884467044,783.431649086356,983.431649086356,422.862115532956,622.862115532956,416.568350913644,616.568350913644,777.137884467044,0,0,0,0,6,3,4,0,NaN,NaN,horizontal,vertical,vertical,vertical,none,none
1b,23,100219,2,22,86,20,F,NA,constant,heterogeneous,6,present,1.32192897796631,0,vertical,horizontal,1,0.952935526106093,green,4,5,903.717843984329,367.045908301137,650.114760665419,393.700666434388,696.282156015671,832.954091698863,949.885239334581,806.299333565612,1053.60308331891,573.345241866748,903.717843984329,367.045908301137,650.114760665419,393.700666434388,546.39691668109,626.654758133252,5,3,0,4,3,5,horizontal,vertical,horizontal,vertical,vertical,horizontal
1b,23,100219,2,23,87,20,F,NA,constant,heterogeneous,5,present,1.25685095787048,1,horizontal,horizontal,1,0.799996798126786,green,4,1,574.848363820974,480.284751489598,911.784642431215,829.192481806288,911.784642431215,829.192481806288,1052.5183575291,564.510859255183,844.280285305067,348.874022981887,574.848363820974,480.284751489598,616.568350913644,777.137884467044,0,0,3,0,0,4,6,NaN,vertical,vertical,horizontal,horizontal,horizontal,none
1b,23,100219,2,24,88,20,F,NA,constant,heterogeneous,4,present,1.19418501853943,1,horizontal,horizontal,1,0.61176451753687,green,2,4,1051.86052685176,560.109211414741,548.13947314824,639.890788585259,839.890788585259,851.86052685176,1051.86052685176,560.109211414741,760.109211414741,348.13947314824,548.13947314824,639.890788585259,0,0,0,0,6,4,3,3,NaN,NaN,vertical,horizontal,vertical,horizontal,none,none
1b,23,100219,2,25,89,20,F,NA,constant,heterogeneous,6,present,1.81947302818298,0,horizontal,vertical,1,1.07058070147479,green,6,3,610.498069503264,770.628304621509,989.501930496736,429.371695378491,853.017481158529,849.42763818712,1042.51941165526,678.799333565612,989.501930496736,429.371695378491,746.982518841471,350.57236181288,557.480588344736,521.200666434388,610.498069503264,770.628304621509,0,6,5,3,3,4,horizontal,vertical,vertical,horizontal,horizontal,horizontal
1b,23,100219,2,26,90,20,F,NA,constant,heterogeneous,3,absent,0.865800142288208,1,horizontal,horizontal,1,0.682351622758088,green,3,NaN,563.568117085469,695.524681321058,NaN,NaN,1000.94274216971,756.993676208043,835.489140744817,347.4816424709,563.568117085469,695.524681321058,0,0,0,0,0,0,5,5,4,NaN,NaN,NaN,vertical,horizontal,horizontal,none,none,none
1b,23,100219,2,27,91,20,F,NA,constant,heterogeneous,4,present,1.07240891456604,1,vertical,vertical,1,0.858819385811135,green,3,4,808.899371659138,345.155339110131,545.155339110131,591.100628340862,791.100628340862,854.844660889869,1054.84466088987,608.899371659138,808.899371659138,345.155339110131,545.155339110131,591.100628340862,0,0,0,0,5,3,4,3,NaN,NaN,vertical,horizontal,vertical,vertical,none,none
1b,23,100219,2,28,92,20,F,NA,constant,heterogeneous,5,present,1.01003098487854,1,horizontal,horizontal,1,1.01175811379044,green,4,1,712.784863451954,360.378381699593,729.712474266665,845.121732464271,729.712474266665,845.121732464271,1011.40458100154,742.594190385041,1000.94274216971,443.006323791957,712.784863451954,360.378381699593,545.155339110131,608.899371659138,0,0,6,3,5,4,0,NaN,vertical,vertical,horizontal,horizontal,vertical,none
1b,23,100219,2,29,93,20,F,NA,constant,heterogeneous,6,absent,0.748677015304565,0,vertical,horizontal,1,0.694116140294958,green,4,NaN,800,345,NaN,NaN,800,855,1020.83647796503,727.5,1020.83647796503,472.5,800,345,579.163522034968,472.5,579.163522034968,727.5,3,6,5,4,6,3,vertical,vertical,horizontal,vertical,vertical,horizontal
1b,23,100219,2,30,94,20,F,NA,constant,heterogeneous,6,absent,0.766198873519897,0,horizontal,vertical,1,0.717645175368698,green,5,NaN,664.870587620533,383.747735480111,NaN,NaN,680.284751489598,825.151636179026,935.129412379467,816.252264519889,1054.84466088987,591.100628340862,919.715248510402,374.848363820974,664.870587620533,383.747735480111,545.155339110131,608.899371659138,5,3,3,0,4,5,vertical,vertical,vertical,horizontal,horizontal,vertical
1b,23,100219,2,31,95,20,F,NA,constant,heterogeneous,3,present,1.71218705177307,0,vertical,horizontal,1,0.917641973495483,green,1,2,953.462830903772,803.65205506206,899.636437764765,365.271262369628,953.462830903772,803.65205506206,899.636437764765,365.271262369628,546.900731331463,631.076682568313,0,0,0,0,0,0,4,5,6,NaN,NaN,NaN,vertical,vertical,vertical,none,none,none
1b,23,100219,2,32,96,20,F,NA,constant,heterogeneous,3,absent,1.27397799491882,1,horizontal,horizontal,1,0.976464561179832,green,1,NaN,581.422338320961,731.334709102064,NaN,NaN,581.422338320961,731.334709102064,1023.02802532055,723.626453162816,795.549636358493,345.03883773512,0,0,0,0,0,0,4,5,6,NaN,NaN,NaN,horizontal,horizontal,vertical,none,none,none
1b,23,100219,2,33,97,20,F,NA,constant,heterogeneous,6,absent,0.796879053115845,1,horizontal,horizontal,1,0.858819385811135,green,6,NaN,568.891514305654,707.767656743878,NaN,NaN,777.775285599347,854.029648013395,1008.88377129369,746.261991269517,1031.10848569435,492.232343256122,822.224714400653,345.970351986605,591.116228706307,453.738008730483,568.891514305654,707.767656743878,5,0,3,6,0,4,horizontal,horizontal,horizontal,horizontal,vertical,horizontal
1b,23,100219,2,34,98,20,F,NA,constant,heterogeneous,4,absent,0.89008903503418,1,vertical,vertical,1,1.05881618393792,green,4,NaN,547.481642470899,564.510859255183,NaN,NaN,764.510859255183,852.518357529101,1052.5183575291,635.489140744817,835.489140744817,347.4816424709,547.481642470899,564.510859255183,0,0,0,0,0,5,3,4,NaN,NaN,vertical,horizontal,vertical,vertical,none,none
1b,23,100219,2,35,99,20,F,NA,constant,heterogeneous,6,present,1.66552305221558,1,vertical,vertical,1,0.682351622758088,green,2,6,1043.85771277057,674.554784704298,613.504806087112,773.909581815937,857.362518857686,848.464366520235,1043.85771277057,674.554784704298,986.495193912888,426.090418184063,742.637481142314,351.535633479765,556.142287229426,525.445215295702,613.504806087112,773.909581815937,6,4,0,5,3,3,vertical,vertical,vertical,horizontal,vertical,horizontal
1b,23,100219,2,36,100,20,F,NA,constant,heterogeneous,6,absent,1.45670700073242,1,vertical,vertical,1,0.682351622758088,green,5,NaN,579.163522034968,472.5,NaN,NaN,800,855,1020.83647796503,727.5,1020.83647796503,472.5,800,345,579.163522034968,472.5,579.163522034968,727.5,5,0,3,6,4,0,vertical,vertical,vertical,vertical,vertical,horizontal
1b,23,100219,2,37,101,20,F,NA,constant,heterogeneous,6,present,1.98695707321167,1,horizontal,horizontal,1,0.858819385811135,green,2,1,980.31222920257,780.31222920257,734.001143498857,846.311085703712,734.001143498857,846.311085703712,980.31222920257,780.31222920257,1046.31108570371,534.001143498857,865.998856501143,353.688914296288,619.68777079743,419.68777079743,553.688914296288,665.998856501143,3,4,6,5,5,0,horizontal,horizontal,vertical,horizontal,vertical,vertical
1b,23,100219,2,38,102,20,F,NA,constant,heterogeneous,4,absent,0.790811061859131,1,vertical,vertical,1,0.988229078716702,green,4,NaN,545,600,NaN,NaN,800,855,1055,600,800,345,545,600,0,0,0,0,3,0,6,4,NaN,NaN,horizontal,vertical,horizontal,vertical,none,none
1b,23,100219,2,39,103,20,F,NA,constant,heterogeneous,3,absent,1.33251118659973,0,vertical,horizontal,1,0.882348420884874,green,3,NaN,688.215357568785,370.807518193712,NaN,NaN,657.405809614959,811.404581001536,1054.37883281626,617.787900804752,688.215357568785,370.807518193712,0,0,0,0,0,0,6,3,4,NaN,NaN,NaN,horizontal,horizontal,vertical,none,none,none
1b,23,100219,2,40,104,20,F,NA,constant,heterogeneous,6,absent,1.44298601150513,1,vertical,vertical,1,0.788232280589916,green,1,NaN,773.345241866748,853.60308331891,NaN,NaN,773.345241866748,853.60308331891,1006.29933356561,749.885239334581,1032.95409169886,496.282156015671,826.654758133252,346.39691668109,593.700666434388,450.114760665419,567.045908301137,703.717843984329,4,5,3,3,0,6,vertical,vertical,vertical,vertical,vertical,horizontal
1b,23,100219,2,41,105,20,F,NA,constant,heterogeneous,4,present,0.723197221755981,1,vertical,vertical,1,0.952935526106093,green,3,4,653.738008730483,391.116228706307,591.116228706307,746.261991269517,946.261991269517,808.883771293693,1008.88377129369,453.738008730483,653.738008730483,391.116228706307,591.116228706307,746.261991269517,0,0,0,0,3,5,4,3,NaN,NaN,horizontal,horizontal,vertical,horizontal,none,none
1b,23,100219,2,42,106,20,F,NA,constant,heterogeneous,3,absent,0.539227962493896,1,vertical,vertical,1,1.07058070147479,green,3,NaN,545,600,NaN,NaN,927.5,820.836477965032,927.5,379.163522034968,545,600,0,0,0,0,0,0,5,6,4,NaN,NaN,NaN,vertical,vertical,vertical,none,none,none
1b,23,100219,2,43,107,20,F,NA,constant,heterogeneous,3,present,0.603244066238403,1,horizontal,horizontal,1,1.05881618393792,green,3,1,565.271262369628,500.363562235235,831.076682568313,853.099268668537,831.076682568313,853.099268668537,1003.65205506206,446.537169096228,565.271262369628,500.363562235235,0,0,0,0,0,0,6,5,4,NaN,NaN,NaN,vertical,horizontal,horizontal,none,none,none
1b,23,100219,2,44,108,20,F,NA,constant,heterogeneous,5,absent,1.06400990486145,1,vertical,vertical,1,1.02352263132731,green,3,NaN,989.501930496736,429.371695378491,NaN,NaN,746.982518841471,849.42763818712,1020.83647796503,727.5,989.501930496736,429.371695378491,696.282156015671,367.045908301137,546.39691668109,626.654758133252,0,0,5,5,4,0,0,NaN,horizontal,horizontal,vertical,vertical,horizontal,none
1b,23,100219,2,45,109,20,F,NA,constant,heterogeneous,6,present,NaN,0,vertical,none,0,0.61176451753687,green,1,6,923.626453162816,823.028025320546,668.665290897936,818.577661679039,923.626453162816,823.028025320546,1054.96116226488,604.450363641507,931.334709102064,381.422338320961,676.373546837184,376.971974679454,545.03883773512,595.549636358493,668.665290897936,818.577661679039,4,5,6,3,0,3,vertical,horizontal,vertical,horizontal,vertical,vertical
1b,23,100219,2,46,110,20,F,NA,constant,heterogeneous,5,present,0.622520208358765,1,vertical,vertical,1,1.03528714886418,green,3,1,956.993676208043,399.057257830286,791.100628340862,854.844660889869,791.100628340862,854.844660889869,1039.62161830041,687.215136548046,956.993676208043,399.057257830286,657.405809614959,388.595418998464,554.878267535729,670.287525733335,0,0,0,6,4,0,5,NaN,vertical,vertical,vertical,vertical,vertical,none
1b,23,100219,2,47,111,20,F,NA,constant,heterogeneous,5,present,1.57907509803772,1,horizontal,horizontal,1,0.776467763053046,green,2,1,1046.31108570371,665.998856501143,813.345668841951,854.650531362416,813.345668841951,854.650531362416,1046.31108570371,665.998856501143,938.882953928832,386.139005173917,639.523300282292,401.827779828472,561.936991243214,691.383827134052,0,0,5,4,5,3,0,NaN,vertical,horizontal,horizontal,vertical,horizontal,none
1b,23,100219,2,48,112,20,F,NA,constant,heterogeneous,5,absent,1.37574291229248,1,vertical,vertical,1,0.647058070147479,green,1,NaN,935.129412379467,816.252264519889,NaN,NaN,935.129412379467,816.252264519889,1047.42541020038,538.309916622085,817.787900804752,345.621167183745,563.568117085469,504.475318678942,636.089159529932,795.341332995339,0,0,4,0,5,6,3,NaN,vertical,vertical,horizontal,vertical,vertical,none
1b,23,100219,2,49,113,20,F,NA,constant,heterogeneous,5,absent,1.23356795310974,1,vertical,vertical,1,0.705880657831828,green,4,NaN,610.498069503264,429.371695378491,NaN,NaN,853.017481158529,849.42763818712,1053.60308331891,626.654758133252,903.717843984329,367.045908301137,610.498069503264,429.371695378491,579.163522034968,727.5,0,0,0,5,3,4,5,NaN,horizontal,vertical,horizontal,vertical,vertical,none
1b,23,100219,2,50,114,20,F,NA,constant,heterogeneous,5,absent,1.52758097648621,1,horizontal,horizontal,1,0.870583903348004,green,3,NaN,919.715248510402,374.848363820974,NaN,NaN,835.489140744817,852.518357529101,1051.12597701811,644.280285305067,919.715248510402,374.848363820974,622.862115532956,416.568350913644,570.807518193712,711.784642431215,0,0,3,3,4,6,5,NaN,vertical,horizontal,horizontal,horizontal,vertical,none
1b,23,100219,2,51,115,20,F,NA,constant,heterogeneous,3,absent,1.2966639995575,1,horizontal,horizontal,1,0.717645175368698,green,1,NaN,931.334709102064,818.577661679039,NaN,NaN,931.334709102064,818.577661679039,923.626453162816,376.971974679454,545.03883773512,604.450363641507,0,0,0,0,0,0,4,3,5,NaN,NaN,NaN,horizontal,horizontal,vertical,none,none,none
1b,23,100219,2,52,116,20,F,NA,constant,heterogeneous,5,absent,1.02559804916382,1,vertical,vertical,1,0.741174210442437,green,5,NaN,646.537169096228,803.65205506206,NaN,NaN,946.261991269517,808.883771293693,1043.85771277057,525.445215295702,804.450363641507,345.03883773512,558.892763222174,516.980120613425,646.537169096228,803.65205506206,0,0,6,5,0,6,4,NaN,horizontal,vertical,horizontal,horizontal,vertical,none
1b,23,100219,2,53,117,20,F,NA,constant,heterogeneous,3,present,1.05353617668152,1,horizontal,horizontal,1,0.952935526106093,green,2,3,839.890788585259,348.13947314824,561.936991243214,691.383827134052,998.172220171528,760.476699717708,839.890788585259,348.13947314824,561.936991243214,691.383827134052,0,0,0,0,0,0,5,4,6,NaN,NaN,NaN,horizontal,horizontal,vertical,none,none,none
1b,23,100219,2,54,118,20,F,NA,constant,heterogeneous,3,present,0.675786972045898,1,vertical,vertical,1,1.04705166640105,green,3,1,800,345,579.163522034968,727.5,579.163522034968,727.5,1020.83647796503,727.5,800,345,0,0,0,0,0,0,0,3,4,NaN,NaN,NaN,vertical,vertical,vertical,none,none,none
1b,23,100219,2,55,119,20,F,NA,constant,heterogeneous,6,absent,1.66296601295471,1,vertical,vertical,1,1.08234521901166,green,6,NaN,581.422338320961,731.334709102064,NaN,NaN,804.450363641507,854.96116226488,1023.02802532055,723.626453162816,1018.57766167904,468.665290897936,795.549636358493,345.03883773512,576.971974679454,476.373546837184,581.422338320961,731.334709102064,6,5,3,0,5,4,horizontal,vertical,vertical,horizontal,horizontal,vertical
1b,23,100219,2,56,120,20,F,NA,constant,heterogeneous,5,absent,1.66534399986267,1,horizontal,horizontal,1,1.04705166640105,green,1,NaN,676.373546837184,823.028025320546,NaN,NaN,676.373546837184,823.028025320546,973.909581815937,786.495193912888,1031.10848569435,492.232343256122,768.923317431687,346.900731331463,549.685068220846,551.343706178981,0,0,4,0,5,3,6,NaN,horizontal,horizontal,vertical,vertical,horizontal,none
1b,23,100219,2,57,121,20,F,NA,constant,heterogeneous,3,present,1.1034460067749,1,horizontal,horizontal,1,0.635293552610609,green,1,2,861.690083377915,847.425410200379,983.431649086356,422.862115532956,861.690083377915,847.425410200379,983.431649086356,422.862115532956,554.878267535729,529.712474266665,0,0,0,0,0,0,4,0,3,NaN,NaN,NaN,horizontal,horizontal,vertical,none,none,none
1b,23,100219,2,58,122,20,F,NA,constant,heterogeneous,4,present,0.972248077392578,1,horizontal,horizontal,1,0.929406491032353,green,2,4,1018.57766167904,468.665290897936,581.422338320961,731.334709102064,931.334709102064,818.577661679039,1018.57766167904,468.665290897936,668.665290897936,381.422338320961,581.422338320961,731.334709102064,0,0,0,0,5,4,5,0,NaN,NaN,vertical,horizontal,horizontal,horizontal,none,none
1b,23,100219,2,59,123,20,F,NA,constant,heterogeneous,4,present,1.32102799415588,1,horizontal,horizontal,1,0.658822587684349,green,2,1,1003.65205506206,753.462830903772,646.537169096228,803.65205506206,646.537169096228,803.65205506206,1003.65205506206,753.462830903772,953.462830903772,396.34794493794,596.34794493794,446.537169096228,0,0,0,0,3,4,3,5,NaN,NaN,horizontal,horizontal,vertical,vertical,none,none
1b,23,100219,2,60,124,20,F,NA,constant,heterogeneous,4,absent,0.595675945281982,1,horizontal,horizontal,1,1.01175811379044,green,4,NaN,565.271262369628,500.363562235235,NaN,NaN,700.363562235235,834.728737630372,1034.72873763037,699.636437764765,899.636437764765,365.271262369628,565.271262369628,500.363562235235,0,0,0,0,3,6,6,4,NaN,NaN,vertical,vertical,vertical,horizontal,none,none
1b,23,100219,2,61,125,20,F,NA,constant,heterogeneous,6,present,1.00853896141052,1,horizontal,horizontal,1,1.03528714886418,green,3,5,1003.65205506206,446.537169096228,565.271262369628,500.363562235235,831.076682568313,853.099268668537,1034.72873763037,699.636437764765,1003.65205506206,446.537169096228,768.923317431687,346.900731331463,565.271262369628,500.363562235235,596.34794493794,753.462830903772,6,0,4,5,3,5,horizontal,vertical,horizontal,horizontal,vertical,horizontal
1b,23,100219,2,62,126,20,F,NA,constant,heterogeneous,6,present,0.896981954574585,1,vertical,vertical,1,0.811761315663656,green,1,4,755.719714694933,851.125977018113,844.280285305067,348.874022981887,755.719714694933,851.125977018113,995.341332995339,763.910840470068,1039.62161830041,512.784863451954,844.280285305067,348.874022981887,604.658667004661,436.089159529932,560.378381699593,687.215136548046,4,3,0,6,3,6,vertical,horizontal,vertical,vertical,horizontal,vertical
1b,23,100219,2,63,127,20,F,NA,constant,heterogeneous,4,absent,1.37936806678772,1,horizontal,horizontal,1,0.61176451753687,green,4,NaN,604.658667004661,763.910840470068,NaN,NaN,963.910840470068,795.341332995339,995.341332995339,436.089159529932,636.089159529932,404.658667004661,604.658667004661,763.910840470068,0,0,0,0,0,3,0,4,NaN,NaN,horizontal,horizontal,horizontal,horizontal,none,none
1b,23,100219,2,64,128,20,F,NA,constant,heterogeneous,3,present,1.02507615089417,1,vertical,vertical,1,0.694116140294958,green,1,3,992.450942956807,767.295052392579,558.892763222174,683.019879386575,992.450942956807,767.295052392579,848.656293821019,349.685068220846,558.892763222174,683.019879386575,0,0,0,0,0,0,4,0,5,NaN,NaN,NaN,vertical,horizontal,vertical,none,none,none
1b,23,100219,3,1,129,20,F,NA,constant,heterogeneous,6,absent,1.67651510238647,0,vertical,horizontal,1,0.705880657831828,green,3,NaN,1041.10723677783,516.980120613425,NaN,NaN,751.343706178981,850.314931779154,992.450942956807,767.295052392579,1041.10723677783,516.980120613425,848.656293821019,349.685068220846,607.549057043193,432.704947607421,558.892763222174,683.019879386575,6,0,4,3,3,5,vertical,horizontal,vertical,horizontal,horizontal,vertical
1b,23,100219,3,2,130,20,F,NA,constant,heterogeneous,4,present,1.1232578754425,1,horizontal,horizontal,1,0.647058070147479,green,1,2,676.373546837184,823.028025320546,1023.02802532055,723.626453162816,676.373546837184,823.028025320546,1023.02802532055,723.626453162816,923.626453162816,376.971974679454,576.971974679454,476.373546837184,0,0,0,0,4,5,6,3,NaN,NaN,horizontal,vertical,horizontal,horizontal,none,none
1b,23,100219,3,3,131,20,F,NA,constant,heterogeneous,6,absent,1.81671500205994,1,vertical,vertical,1,0.752938727979307,green,5,NaN,552.574589799621,538.309916622085,NaN,NaN,870.287525733335,845.121732464271,1047.42541020038,661.690083377915,977.137884467044,416.568350913644,729.712474266665,354.878267535729,552.574589799621,538.309916622085,622.862115532956,783.431649086356,5,0,3,3,4,0,horizontal,horizontal,horizontal,horizontal,vertical,vertical
1b,23,100219,3,4,132,20,F,NA,constant,heterogeneous,4,present,0.898353815078735,1,horizontal,horizontal,1,0.870583903348004,green,3,4,907.767656743878,368.891514305654,568.891514305654,492.232343256122,692.232343256122,831.108485694346,1031.10848569435,707.767656743878,907.767656743878,368.891514305654,568.891514305654,492.232343256122,0,0,0,0,0,0,4,5,NaN,NaN,vertical,horizontal,horizontal,horizontal,none,none
1b,23,100219,3,5,133,20,F,NA,constant,heterogeneous,4,absent,1.30474090576172,1,vertical,vertical,1,0.799996798126786,green,3,NaN,857.362518857686,351.535633479765,NaN,NaN,742.637481142314,848.464366520235,1048.46436652023,657.362518857686,857.362518857686,351.535633479765,551.535633479765,542.637481142314,0,0,0,0,6,5,4,3,NaN,NaN,vertical,horizontal,vertical,vertical,none,none
1b,23,100219,3,6,134,20,F,NA,constant,heterogeneous,5,absent,1.82024192810059,1,horizontal,horizontal,1,0.647058070147479,green,1,NaN,861.690083377915,847.425410200379,NaN,NaN,861.690083377915,847.425410200379,1054.37883281626,617.787900804752,895.524681321058,363.568117085469,604.658667004661,436.089159529932,583.747735480111,735.129412379467,0,0,4,3,0,5,6,NaN,horizontal,horizontal,vertical,vertical,horizontal,none
1b,23,100219,3,7,135,20,F,NA,constant,heterogeneous,3,present,0.84974193572998,1,horizontal,horizontal,1,0.858819385811135,green,1,2,989.501930496736,770.628304621509,853.017481158529,350.57236181288,989.501930496736,770.628304621509,853.017481158529,350.57236181288,557.480588344736,678.799333565612,0,0,0,0,0,0,4,5,3,NaN,NaN,NaN,horizontal,vertical,vertical,none,none,none
1b,23,100219,3,8,136,20,F,NA,constant,heterogeneous,5,present,1.07534694671631,1,vertical,vertical,1,0.61176451753687,green,5,1,545.349468637584,586.654331158049,708.616172865948,838.063008756786,708.616172865948,838.063008756786,998.172220171528,760.476699717708,1013.86099482608,461.117046071168,734.001143498857,353.688914296288,545.349468637584,586.654331158049,0,0,5,6,5,0,4,NaN,horizontal,vertical,horizontal,horizontal,vertical,none
1b,23,100219,3,9,137,20,F,NA,constant,heterogeneous,5,absent,1.85368299484253,1,vertical,vertical,1,1.03528714886418,green,3,NaN,826.654758133252,346.39691668109,NaN,NaN,927.5,820.836477965032,1049.42763818712,546.982518841471,826.654758133252,346.39691668109,567.045908301137,496.282156015671,629.371695378491,789.501930496736,0,0,5,3,4,6,0,NaN,vertical,vertical,vertical,horizontal,horizontal,none
1b,23,100219,3,10,138,20,F,NA,constant,heterogeneous,4,absent,1.4114408493042,1,vertical,vertical,1,0.823525833200525,green,4,NaN,616.568350913644,777.137884467044,NaN,NaN,977.137884467044,783.431649086356,983.431649086356,422.862115532956,622.862115532956,416.568350913644,616.568350913644,777.137884467044,0,0,0,0,5,0,3,4,NaN,NaN,vertical,vertical,vertical,vertical,none,none
1b,23,100219,3,11,139,20,F,NA,constant,heterogeneous,6,absent,1.2651150226593,0,horizontal,vertical,1,0.658822587684349,green,3,NaN,1051.86052685176,560.109211414741,NaN,NaN,708.616172865948,838.063008756786,960.476699717708,798.172220171528,1051.86052685176,560.109211414741,891.383827134052,361.936991243214,639.523300282292,401.827779828472,548.13947314824,639.890788585259,3,5,4,0,5,6,vertical,horizontal,horizontal,horizontal,vertical,horizontal
1b,23,100219,3,12,140,20,F,NA,constant,heterogeneous,4,absent,1.88912010192871,1,horizontal,horizontal,1,0.729409692905567,green,3,NaN,903.717843984329,367.045908301137,NaN,NaN,696.282156015671,832.954091698863,1032.95409169886,703.717843984329,903.717843984329,367.045908301137,567.045908301137,496.282156015671,0,0,0,0,5,5,4,3,NaN,NaN,vertical,horizontal,horizontal,horizontal,none,none
1b,23,100219,3,13,141,20,F,NA,constant,heterogeneous,3,present,0.908037900924683,1,vertical,vertical,1,0.847054868274265,green,3,2,550.57236181288,546.982518841471,970.628304621509,410.498069503264,878.799333565612,842.519411655264,970.628304621509,410.498069503264,550.57236181288,546.982518841471,0,0,0,0,0,0,6,0,4,NaN,NaN,NaN,horizontal,vertical,vertical,none,none,none
1b,23,100219,3,14,142,20,F,NA,constant,heterogeneous,6,absent,1.06004595756531,1,horizontal,horizontal,1,0.882348420884874,green,4,NaN,853.017481158529,350.57236181288,NaN,NaN,746.982518841471,849.42763818712,989.501930496736,770.628304621509,1042.51941165526,521.200666434388,853.017481158529,350.57236181288,610.498069503264,429.371695378491,557.480588344736,678.799333565612,6,3,5,4,6,0,horizontal,vertical,vertical,horizontal,vertical,vertical
1b,23,100219,3,15,143,20,F,NA,constant,heterogeneous,5,present,1.14662790298462,1,horizontal,horizontal,1,0.858819385811135,green,4,2,593.700666434388,450.114760665419,1055,600,878.799333565612,842.519411655264,1055,600,878.799333565612,357.480588344736,593.700666434388,450.114760665419,593.700666434388,749.885239334581,0,0,3,3,5,4,0,NaN,horizontal,horizontal,horizontal,horizontal,horizontal,none
1b,23,100219,3,16,144,20,F,NA,constant,heterogeneous,5,absent,1.06892395019531,1,horizontal,horizontal,1,0.764703245516177,green,1,NaN,853.017481158529,849.42763818712,NaN,NaN,853.017481158529,849.42763818712,1053.60308331891,626.654758133252,903.717843984329,367.045908301137,610.498069503264,429.371695378491,579.163522034968,727.5,0,0,4,6,3,6,0,NaN,horizontal,horizontal,horizontal,vertical,vertical,none
1b,23,100219,3,17,145,20,F,NA,constant,heterogeneous,4,present,NaN,0,horizontal,none,0,0.941171008569223,green,2,4,1011.40458100154,457.40580961496,588.595418998464,742.594190385041,942.594190385041,811.404581001536,1011.40458100154,457.40580961496,657.405809614959,388.595418998464,588.595418998464,742.594190385041,0,0,0,0,0,4,3,5,NaN,NaN,vertical,horizontal,horizontal,vertical,none,none
1b,23,100219,3,18,146,20,F,NA,constant,heterogeneous,5,present,1.40649199485779,1,vertical,vertical,1,0.647058070147479,green,2,1,1036.43188291453,695.524681321058,782.212099195248,854.378832816255,782.212099195248,854.378832816255,1036.43188291453,695.524681321058,963.910840470068,404.658667004661,664.870587620533,383.747735480111,552.574589799621,661.690083377915,0,0,0,4,5,5,6,NaN,horizontal,vertical,horizontal,vertical,horizontal,none
1b,23,100219,3,19,147,20,F,NA,constant,heterogeneous,6,present,NaN,0,vertical,none,0,1.05881618393792,green,1,5,773.345241866748,853.60308331891,593.700666434388,450.114760665419,773.345241866748,853.60308331891,1006.29933356561,749.885239334581,1032.95409169886,496.282156015671,826.654758133252,346.39691668109,593.700666434388,450.114760665419,567.045908301137,703.717843984329,4,5,5,0,3,3,vertical,vertical,vertical,horizontal,vertical,vertical
1b,23,100219,3,20,148,20,F,NA,constant,heterogeneous,3,present,0.836977005004883,1,horizontal,horizontal,1,1.04705166640105,green,3,2,545.155339110131,608.899371659138,919.715248510402,374.848363820974,935.129412379467,816.252264519889,919.715248510402,374.848363820974,545.155339110131,608.899371659138,0,0,0,0,0,0,0,5,4,NaN,NaN,NaN,vertical,horizontal,horizontal,none,none,none
1b,23,100219,3,21,149,20,F,NA,constant,heterogeneous,3,absent,1.22372102737427,1,vertical,vertical,1,1.07058070147479,green,1,NaN,786.654331158049,854.650531362416,NaN,NaN,786.654331158049,854.650531362416,1027.20666366803,484.232422566416,586.139005173917,461.117046071168,0,0,0,0,0,0,4,5,0,NaN,NaN,NaN,vertical,horizontal,horizontal,none,none,none
1b,23,100219,3,22,150,20,F,NA,constant,heterogeneous,4,absent,0.848380088806152,1,horizontal,horizontal,1,1.01175811379044,green,4,NaN,565.271262369628,699.636437764765,NaN,NaN,899.636437764765,834.728737630372,1034.72873763037,500.363562235235,700.363562235235,365.271262369628,565.271262369628,699.636437764765,0,0,0,0,0,3,5,4,NaN,NaN,horizontal,vertical,horizontal,horizontal,none,none
1b,23,100219,3,23,151,20,F,NA,constant,heterogeneous,5,absent,1.60295987129211,0,vertical,horizontal,1,0.658822587684349,green,3,NaN,977.137884467044,416.568350913644,NaN,NaN,764.510859255183,852.518357529101,1029.19248180629,711.784642431215,977.137884467044,416.568350913644,680.284751489598,374.848363820974,548.874022981887,644.280285305067,0,0,6,0,4,3,6,NaN,vertical,horizontal,vertical,vertical,horizontal,none
1b,23,100219,3,24,152,20,F,NA,constant,heterogeneous,4,present,1.07019901275635,1,vertical,vertical,1,0.952935526106093,green,2,1,1018.57766167904,731.334709102064,668.665290897936,818.577661679039,668.665290897936,818.577661679039,1018.57766167904,731.334709102064,931.334709102064,381.422338320961,581.422338320961,468.665290897936,0,0,0,0,3,4,5,6,NaN,NaN,vertical,vertical,horizontal,vertical,none,none
1b,23,100219,3,25,153,20,F,NA,constant,heterogeneous,4,absent,1.1592059135437,1,vertical,vertical,1,0.764703245516177,green,1,NaN,935.129412379467,816.252264519889,NaN,NaN,935.129412379467,816.252264519889,1016.25226451989,464.870587620533,664.870587620533,383.747735480111,583.747735480111,735.129412379467,0,0,0,0,4,3,0,6,NaN,NaN,vertical,horizontal,vertical,vertical,none,none
1b,23,100219,3,26,154,20,F,NA,constant,heterogeneous,4,absent,0.916395902633667,1,horizontal,horizontal,1,1.09410973654853,green,3,NaN,704.475318678942,363.568117085469,NaN,NaN,895.524681321058,836.431882914531,1036.43188291453,504.475318678942,704.475318678942,363.568117085469,563.568117085469,695.524681321058,0,0,0,0,6,3,4,5,NaN,NaN,vertical,horizontal,horizontal,horizontal,none,none
1b,23,100219,3,27,155,20,F,NA,constant,heterogeneous,5,present,1.18006205558777,1,horizontal,horizontal,1,1.04705166640105,green,5,3,553.688914296288,665.998856501143,960.476699717708,401.827779828472,786.654331158049,854.650531362416,1038.06300875679,691.383827134052,960.476699717708,401.827779828472,661.117046071168,386.139005173917,553.688914296288,665.998856501143,0,0,6,5,5,0,4,NaN,horizontal,vertical,vertical,vertical,horizontal,none
1b,23,100219,3,28,156,20,F,NA,constant,heterogeneous,3,absent,0.937207937240601,1,vertical,vertical,1,1.07058070147479,green,3,NaN,777.775285599347,345.970351986605,NaN,NaN,591.116228706307,746.261991269517,1031.10848569435,707.767656743878,777.775285599347,345.970351986605,0,0,0,0,0,0,0,6,4,NaN,NaN,NaN,horizontal,horizontal,vertical,none,none,none
1b,23,100219,3,29,157,20,F,NA,constant,heterogeneous,4,present,1.92171096801758,1,horizontal,horizontal,1,1.08234521901166,green,3,1,738.309916622085,352.574589799621,861.690083377915,847.425410200379,861.690083377915,847.425410200379,1047.42541020038,538.309916622085,738.309916622085,352.574589799621,552.574589799621,661.690083377915,0,0,0,0,0,5,4,3,NaN,NaN,vertical,horizontal,horizontal,vertical,none,none
1b,23,100219,3,30,158,20,F,NA,constant,heterogeneous,5,present,1.74640488624573,1,vertical,vertical,1,1.09410973654853,green,5,1,591.116228706307,746.261991269517,874.554784704298,843.857712770574,874.554784704298,843.857712770574,1054.96116226488,604.450363641507,883.019879386575,358.892763222174,596.34794493794,446.537169096228,591.116228706307,746.261991269517,0,0,3,6,5,3,4,NaN,horizontal,horizontal,vertical,horizontal,vertical,none
1b,23,100219,3,31,159,20,F,NA,constant,heterogeneous,5,present,1.12777090072632,1,horizontal,horizontal,1,0.929406491032353,green,3,2,853.017481158529,350.57236181288,1053.60308331891,573.345241866748,903.717843984329,832.954091698863,1053.60308331891,573.345241866748,853.017481158529,350.57236181288,579.163522034968,472.5,610.498069503264,770.628304621509,0,0,6,0,4,5,3,NaN,vertical,vertical,horizontal,horizontal,vertical,none
1b,23,100219,3,32,160,20,F,NA,constant,heterogeneous,3,absent,1.57858800888062,1,horizontal,horizontal,1,0.999993596253572,green,1,NaN,857.362518857686,848.464366520235,NaN,NaN,857.362518857686,848.464366520235,986.495193912888,426.090418184063,556.142287229426,525.445215295702,0,0,0,0,0,0,4,5,3,NaN,NaN,NaN,horizontal,horizontal,vertical,none,none,none
1b,23,100219,3,33,161,20,F,NA,constant,heterogeneous,4,present,1.05318999290466,1,vertical,vertical,1,0.729409692905567,green,3,1,680.284751489598,374.848363820974,919.715248510402,825.151636179026,919.715248510402,825.151636179026,1025.15163617903,480.284751489598,680.284751489598,374.848363820974,574.848363820974,719.715248510402,0,0,0,0,6,6,4,0,NaN,NaN,horizontal,horizontal,vertical,horizontal,none,none
1b,23,100219,3,34,162,20,F,NA,constant,heterogeneous,5,absent,NaN,0,horizontal,none,0,0.976464561179832,green,2,NaN,1055,600,NaN,NaN,878.799333565612,842.519411655264,1055,600,878.799333565612,357.480588344736,593.700666434388,450.114760665419,593.700666434388,749.885239334581,0,0,5,4,6,3,6,NaN,vertical,horizontal,horizontal,vertical,horizontal,none
1b,23,100219,3,35,163,20,F,NA,constant,heterogeneous,6,absent,NaN,0,vertical,none,0,0.823525833200525,green,3,NaN,1025.15163617903,480.284751489598,NaN,NaN,791.100628340862,854.844660889869,1016.25226451989,735.129412379467,1025.15163617903,480.284751489598,808.899371659138,345.155339110131,583.747735480111,464.870587620533,574.848363820974,719.715248510402,0,6,4,5,3,3,horizontal,horizontal,vertical,vertical,vertical,vertical
1b,23,100219,3,36,164,20,F,NA,constant,heterogeneous,3,present,1.32957196235657,1,horizontal,horizontal,1,0.729409692905567,green,2,3,1045.12173246427,670.287525733335,738.309916622085,352.574589799621,616.568350913644,777.137884467044,1045.12173246427,670.287525733335,738.309916622085,352.574589799621,0,0,0,0,0,0,0,4,3,NaN,NaN,NaN,vertical,horizontal,horizontal,none,none,none
1b,23,100219,3,37,165,20,F,NA,constant,heterogeneous,4,absent,0.926284074783325,1,vertical,vertical,1,1.09410973654853,green,4,NaN,547.481642470899,564.510859255183,NaN,NaN,764.510859255183,852.518357529101,1052.5183575291,635.489140744817,835.489140744817,347.4816424709,547.481642470899,564.510859255183,0,0,0,0,5,3,6,4,NaN,NaN,vertical,vertical,horizontal,vertical,none,none
1b,23,100219,3,38,166,20,F,NA,constant,heterogeneous,6,present,1.39035892486572,0,vertical,horizontal,1,0.670587105221218,green,4,5,676.373546837184,376.971974679454,545.03883773512,595.549636358493,923.626453162816,823.028025320546,1054.96116226488,604.450363641507,931.334709102064,381.422338320961,676.373546837184,376.971974679454,545.03883773512,595.549636358493,668.665290897936,818.577661679039,5,0,5,4,6,0,horizontal,vertical,vertical,vertical,horizontal,horizontal
1b,23,100219,3,39,167,20,F,NA,constant,heterogeneous,4,absent,1.60732793807983,1,horizontal,horizontal,1,0.847054868274265,green,1,NaN,684.232422566416,827.206663668034,NaN,NaN,684.232422566416,827.206663668034,1027.20666366803,715.767577433584,915.767577433584,372.793336331966,572.793336331966,484.232422566416,0,0,0,0,4,3,6,0,NaN,NaN,horizontal,horizontal,horizontal,vertical,none,none
1b,23,100219,3,40,168,20,F,NA,constant,heterogeneous,6,present,0.535533905029297,1,horizontal,horizontal,1,1.01175811379044,green,1,6,676.373546837184,823.028025320546,545.03883773512,604.450363641507,676.373546837184,823.028025320546,931.334709102064,818.577661679039,1054.96116226488,595.549636358493,923.626453162816,376.971974679454,668.665290897936,381.422338320961,545.03883773512,604.450363641507,4,0,0,6,5,6,horizontal,horizontal,horizontal,vertical,horizontal,horizontal
1b,23,100219,3,41,169,20,F,NA,constant,heterogeneous,3,absent,1.18421816825867,1,horizontal,horizontal,1,1.08234521901166,green,2,NaN,1053.60308331891,626.654758133252,NaN,NaN,650.114760665419,806.299333565612,1053.60308331891,626.654758133252,696.282156015671,367.045908301137,0,0,0,0,0,0,3,4,6,NaN,NaN,NaN,horizontal,horizontal,horizontal,none,none,none
1b,23,100219,3,42,170,20,F,NA,constant,heterogeneous,3,absent,1.06382417678833,1,vertical,vertical,1,0.788232280589916,green,2,NaN,870.287525733335,354.878267535729,NaN,NaN,977.137884467044,783.431649086356,870.287525733335,354.878267535729,552.574589799621,661.690083377915,0,0,0,0,0,0,0,4,3,NaN,NaN,NaN,horizontal,vertical,vertical,none,none,none
1b,23,100219,3,43,171,20,F,NA,constant,heterogeneous,3,absent,1.05645799636841,1,horizontal,horizontal,1,0.952935526106093,green,2,NaN,1025.15163617903,719.715248510402,NaN,NaN,583.747735480111,735.129412379467,1025.15163617903,719.715248510402,791.100628340862,345.155339110131,0,0,0,0,0,0,5,4,6,NaN,NaN,NaN,vertical,horizontal,horizontal,none,none,none
1b,23,100219,3,44,172,20,F,NA,constant,heterogeneous,4,present,1.19470715522766,1,vertical,vertical,1,1.05881618393792,green,1,3,813.345668841951,854.650531362416,786.654331158049,345.349468637584,813.345668841951,854.650531362416,1054.65053136242,586.654331158049,786.654331158049,345.349468637584,545.349468637584,613.345668841951,0,0,0,0,4,5,0,3,NaN,NaN,vertical,vertical,horizontal,horizontal,none,none
1b,23,100219,3,45,173,20,F,NA,constant,heterogeneous,5,present,0.593380928039551,1,vertical,vertical,1,0.729409692905567,green,1,2,786.654331158049,854.650531362416,1038.06300875679,691.383827134052,786.654331158049,854.650531362416,1038.06300875679,691.383827134052,960.476699717708,401.827779828472,661.117046071168,386.139005173917,553.688914296288,665.998856501143,0,0,4,3,6,6,0,NaN,vertical,vertical,vertical,vertical,horizontal,none
1b,23,100219,3,46,174,20,F,NA,constant,heterogeneous,3,absent,0.644043922424316,1,horizontal,horizontal,1,0.741174210442437,green,1,NaN,1006.29933356561,749.885239334581,NaN,NaN,1006.29933356561,749.885239334581,826.654758133252,346.39691668109,567.045908301137,703.717843984329,0,0,0,0,0,0,4,0,6,NaN,NaN,NaN,horizontal,vertical,horizontal,none,none,none
1b,23,100219,3,47,175,20,F,NA,constant,heterogeneous,5,present,1.48615097999573,0,horizontal,vertical,1,0.847054868274265,green,4,5,777.775285599347,345.970351986605,551.535633479765,542.637481142314,668.665290897936,818.577661679039,967.295052392579,792.450942956807,1034.72873763037,500.363562235235,777.775285599347,345.970351986605,551.535633479765,542.637481142314,0,0,5,5,6,4,0,NaN,vertical,vertical,horizontal,horizontal,horizontal,none
1b,23,100219,3,48,176,20,F,NA,constant,heterogeneous,5,absent,1.12847304344177,1,horizontal,horizontal,1,1.02352263132731,green,5,NaN,556.142287229426,525.445215295702,NaN,NaN,653.738008730483,808.883771293693,953.462830903772,803.65205506206,1041.10723677783,516.980120613425,795.549636358493,345.03883773512,556.142287229426,525.445215295702,0,0,5,5,3,6,4,NaN,vertical,vertical,horizontal,vertical,horizontal,none
1b,23,100219,3,49,177,20,F,NA,constant,heterogeneous,5,absent,1.27633595466614,1,vertical,vertical,1,1.04705166640105,green,1,NaN,923.626453162816,823.028025320546,NaN,NaN,923.626453162816,823.028025320546,1050.31493177915,551.343706178981,831.076682568313,346.900731331463,568.891514305654,492.232343256122,626.090418184063,786.495193912888,0,0,4,5,0,3,5,NaN,vertical,vertical,horizontal,vertical,vertical,none
1b,23,100219,3,50,178,20,F,NA,constant,heterogeneous,5,absent,0.706931114196777,1,vertical,vertical,1,0.647058070147479,green,5,NaN,650.114760665419,806.299333565612,NaN,NaN,949.885239334581,806.299333565612,1042.51941165526,521.200666434388,800,345,557.480588344736,521.200666434388,650.114760665419,806.299333565612,0,0,0,6,6,3,4,NaN,horizontal,vertical,vertical,horizontal,vertical,none
1b,23,100219,3,51,179,20,F,NA,constant,heterogeneous,6,present,1.62649893760681,1,horizontal,horizontal,1,0.858819385811135,green,5,1,622.862115532956,416.568350913644,729.712474266665,845.121732464271,729.712474266665,845.121732464271,977.137884467044,783.431649086356,1047.42541020038,538.309916622085,870.287525733335,354.878267535729,622.862115532956,416.568350913644,552.574589799621,661.690083377915,5,3,6,0,4,6,vertical,horizontal,vertical,vertical,horizontal,horizontal
1b,23,100219,3,52,180,20,F,NA,constant,heterogeneous,4,present,1.7060649394989,1,vertical,vertical,1,0.941171008569223,green,2,4,1034.72873763037,500.363562235235,565.271262369628,699.636437764765,899.636437764765,834.728737630372,1034.72873763037,500.363562235235,700.363562235235,365.271262369628,565.271262369628,699.636437764765,0,0,0,0,3,4,6,6,NaN,NaN,vertical,vertical,vertical,horizontal,none,none
1b,23,100219,3,53,181,20,F,NA,constant,heterogeneous,3,absent,0.828427076339722,0,vertical,horizontal,1,0.6,green,3,NaN,581.422338320961,468.665290897936,NaN,NaN,795.549636358493,854.96116226488,1023.02802532055,476.373546837184,581.422338320961,468.665290897936,0,0,0,0,0,0,3,5,4,NaN,NaN,NaN,horizontal,horizontal,vertical,none,none,none
1b,23,100219,3,54,182,20,F,NA,constant,heterogeneous,6,present,0.780026912689209,1,horizontal,horizontal,1,0.941171008569223,green,1,3,839.890788585259,851.86052685176,998.172220171528,439.523300282291,839.890788585259,851.86052685176,1038.06300875679,691.383827134052,998.172220171528,439.523300282291,760.109211414741,348.13947314824,561.936991243214,508.616172865948,601.827779828472,760.476699717708,4,6,3,0,3,5,horizontal,horizontal,horizontal,horizontal,vertical,horizontal
1b,23,100219,3,55,183,20,F,NA,constant,heterogeneous,6,present,NaN,0,vertical,none,0,0.6,green,3,2,1051.86052685176,560.109211414741,960.476699717708,798.172220171528,708.616172865948,838.063008756786,960.476699717708,798.172220171528,1051.86052685176,560.109211414741,891.383827134052,361.936991243214,639.523300282292,401.827779828472,548.13947314824,639.890788585259,5,6,4,3,6,0,horizontal,vertical,vertical,vertical,horizontal,vertical
1b,23,100219,3,56,184,20,F,NA,constant,heterogeneous,6,present,1.84025192260742,0,vertical,horizontal,1,0.61176451753687,green,1,5,874.554784704298,843.857712770574,551.535633479765,542.637481142314,874.554784704298,843.857712770574,1048.46436652023,657.362518857686,973.909581815937,413.504806087112,725.445215295702,356.142287229426,551.535633479765,542.637481142314,626.090418184063,786.495193912888,4,3,6,5,5,0,vertical,horizontal,vertical,vertical,vertical,horizontal
1b,23,100219,3,57,185,20,F,NA,constant,heterogeneous,3,present,0.802279949188232,0,vertical,horizontal,1,1.04705166640105,green,1,3,953.462830903772,803.65205506206,546.900731331463,631.076682568313,953.462830903772,803.65205506206,899.636437764765,365.271262369628,546.900731331463,631.076682568313,0,0,0,0,0,0,4,6,6,NaN,NaN,NaN,vertical,horizontal,vertical,none,none,none
1b,23,100219,3,58,186,20,F,NA,constant,heterogeneous,6,absent,1.82341885566711,0,horizontal,vertical,1,0.647058070147479,green,1,NaN,835.489140744817,852.518357529101,NaN,NaN,835.489140744817,852.518357529101,1036.43188291453,695.524681321058,1000.94274216971,443.006323791957,764.510859255183,347.4816424709,563.568117085469,504.475318678942,599.057257830286,756.993676208043,4,0,3,5,5,0,horizontal,vertical,horizontal,vertical,vertical,vertical
1b,23,100219,3,59,187,20,F,NA,constant,heterogeneous,3,present,0.827867984771729,1,vertical,vertical,1,0.776467763053046,green,1,3,734.001143498857,846.311085703712,619.68777079743,419.68777079743,734.001143498857,846.311085703712,1046.31108570371,534.001143498857,619.68777079743,419.68777079743,0,0,0,0,0,0,4,0,6,NaN,NaN,NaN,vertical,horizontal,vertical,none,none,none
1b,23,100219,3,60,188,20,F,NA,constant,heterogeneous,3,present,0.592925071716309,0,horizontal,vertical,1,0.823525833200525,green,1,2,861.690083377915,847.425410200379,983.431649086356,422.862115532956,861.690083377915,847.425410200379,983.431649086356,422.862115532956,554.878267535729,529.712474266665,0,0,0,0,0,0,4,6,5,NaN,NaN,NaN,horizontal,vertical,vertical,none,none,none
1b,23,100219,3,61,189,20,F,NA,constant,heterogeneous,6,absent,1.8507878780365,0,vertical,horizontal,1,0.894112938421744,green,4,NaN,751.343706178981,349.685068220846,NaN,NaN,848.656293821019,850.314931779154,1041.10723677783,683.019879386575,992.450942956807,432.704947607421,751.343706178981,349.685068220846,558.892763222174,516.980120613425,607.549057043193,767.295052392579,3,3,0,4,5,6,horizontal,horizontal,horizontal,vertical,vertical,vertical
1b,23,100219,3,62,190,20,F,NA,constant,heterogeneous,6,absent,1.49204897880554,1,horizontal,horizontal,1,1.01175811379044,green,1,NaN,839.890788585259,851.86052685176,NaN,NaN,839.890788585259,851.86052685176,1038.06300875679,691.383827134052,998.172220171528,439.523300282291,760.109211414741,348.13947314824,561.936991243214,508.616172865948,601.827779828472,760.476699717708,4,6,6,3,0,5,horizontal,horizontal,horizontal,vertical,horizontal,vertical
1b,23,100219,3,63,191,20,F,NA,constant,heterogeneous,6,present,0.75869607925415,1,horizontal,horizontal,1,0.823525833200525,green,6,4,546.39691668109,626.654758133252,903.717843984329,367.045908301137,696.282156015671,832.954091698863,949.885239334581,806.299333565612,1053.60308331891,573.345241866748,903.717843984329,367.045908301137,650.114760665419,393.700666434388,546.39691668109,626.654758133252,0,6,5,6,3,4,vertical,vertical,horizontal,horizontal,vertical,horizontal
1b,23,100219,3,64,192,20,F,NA,constant,heterogeneous,3,present,0.908689022064209,1,vertical,vertical,1,0.941171008569223,green,3,1,607.549057043193,432.704947607421,751.343706178981,850.314931779154,751.343706178981,850.314931779154,1041.10723677783,516.980120613425,607.549057043193,432.704947607421,0,0,0,0,0,0,3,0,4,NaN,NaN,NaN,horizontal,vertical,vertical,none,none,none
1b,23,100219,4,1,193,20,F,NA,constant,heterogeneous,3,present,1.08228087425232,1,horizontal,horizontal,1,1.05881618393792,green,2,1,1029.19248180629,488.215357568785,782.212099195248,854.378832816255,782.212099195248,854.378832816255,1029.19248180629,488.215357568785,588.595418998464,457.40580961496,0,0,0,0,0,0,6,4,5,NaN,NaN,NaN,vertical,horizontal,vertical,none,none,none
1b,23,100219,4,2,194,20,F,NA,constant,heterogeneous,6,absent,NaN,0,vertical,none,0,0.799996798126786,green,3,NaN,1027.20666366803,484.232422566416,NaN,NaN,786.654331158049,854.650531362416,1013.86099482608,738.882953928832,1027.20666366803,484.232422566416,813.345668841951,345.349468637584,586.139005173917,461.117046071168,572.793336331966,715.767577433584,5,6,4,6,5,0,vertical,horizontal,vertical,vertical,horizontal,horizontal
1b,23,100219,4,3,195,20,F,NA,constant,heterogeneous,6,absent,0.771239995956421,1,horizontal,horizontal,1,0.741174210442437,green,4,NaN,738.309916622085,352.574589799621,NaN,NaN,861.690083377915,847.425410200379,1045.12173246427,670.287525733335,983.431649086356,422.862115532956,738.309916622085,352.574589799621,554.878267535729,529.712474266665,616.568350913644,777.137884467044,0,0,6,4,3,5,vertical,vertical,horizontal,horizontal,horizontal,horizontal
1b,23,100219,4,4,196,20,F,NA,constant,heterogeneous,4,absent,0.99639892578125,1,horizontal,horizontal,1,0.870583903348004,green,1,NaN,777.775285599347,854.029648013395,NaN,NaN,777.775285599347,854.029648013395,1054.0296480134,622.224714400653,822.224714400653,345.970351986605,545.970351986605,577.775285599347,0,0,0,0,4,0,5,0,NaN,NaN,horizontal,vertical,vertical,vertical,none,none
1b,23,100219,4,5,197,20,F,NA,constant,heterogeneous,4,absent,0.563158988952637,1,vertical,vertical,1,0.952935526106093,green,3,NaN,822.224714400653,345.970351986605,NaN,NaN,777.775285599347,854.029648013395,1054.0296480134,622.224714400653,822.224714400653,345.970351986605,545.970351986605,577.775285599347,0,0,0,0,3,6,4,5,NaN,NaN,vertical,vertical,vertical,vertical,none,none
1b,23,100219,4,6,198,20,F,NA,constant,heterogeneous,3,present,0.652786016464233,0,horizontal,vertical,1,0.705880657831828,green,2,1,861.690083377915,352.574589799621,983.431649086356,777.137884467044,983.431649086356,777.137884467044,861.690083377915,352.574589799621,554.878267535729,670.287525733335,0,0,0,0,0,0,0,4,0,NaN,NaN,NaN,vertical,horizontal,vertical,none,none,none
1b,23,100219,4,7,199,20,F,NA,constant,heterogeneous,4,absent,1.68005800247192,1,horizontal,horizontal,1,0.905877455958614,green,1,NaN,903.717843984329,832.954091698863,NaN,NaN,903.717843984329,832.954091698863,1032.95409169886,496.282156015671,696.282156015671,367.045908301137,567.045908301137,703.717843984329,0,0,0,0,4,0,5,0,NaN,NaN,horizontal,vertical,vertical,horizontal,none,none
1b,23,100219,4,8,200,20,F,NA,constant,heterogeneous,5,present,1.157466173172,1,horizontal,horizontal,1,0.776467763053046,green,5,2,572.793336331966,715.767577433584,1051.86052685176,639.890788585259,839.890788585259,851.86052685176,1051.86052685176,639.890788585259,915.767577433584,372.793336331966,619.68777079743,419.68777079743,572.793336331966,715.767577433584,0,0,3,0,5,3,4,NaN,horizontal,vertical,vertical,horizontal,horizontal,none
1b,23,100219,4,9,201,20,F,NA,constant,heterogeneous,3,present,0.821162939071655,1,horizontal,horizontal,1,0.835290350737395,green,2,3,899.636437764765,365.271262369628,546.900731331463,631.076682568313,953.462830903772,803.65205506206,899.636437764765,365.271262369628,546.900731331463,631.076682568313,0,0,0,0,0,0,0,4,6,NaN,NaN,NaN,horizontal,horizontal,vertical,none,none,none
1b,23,100219,4,10,202,20,F,NA,constant,heterogeneous,4,absent,0.634627103805542,1,vertical,vertical,1,0.835290350737395,green,1,NaN,632.704947607421,792.450942956807,NaN,NaN,632.704947607421,792.450942956807,992.450942956807,767.295052392579,967.295052392579,407.549057043193,607.549057043193,432.704947607421,0,0,0,0,4,5,3,5,NaN,NaN,vertical,vertical,vertical,horizontal,none,none
1b,23,100219,4,11,203,20,F,NA,constant,heterogeneous,5,present,1.19258713722229,1,vertical,vertical,1,0.858819385811135,green,3,5,831.076682568313,346.900731331463,626.090418184063,786.495193912888,923.626453162816,823.028025320546,1050.31493177915,551.343706178981,831.076682568313,346.900731331463,568.891514305654,492.232343256122,626.090418184063,786.495193912888,0,0,3,3,4,6,0,NaN,horizontal,vertical,vertical,vertical,vertical,none
1b,23,100219,4,12,204,20,F,NA,constant,heterogeneous,3,absent,1.2802619934082,0,vertical,horizontal,1,0.776467763053046,green,1,NaN,946.261991269517,808.883771293693,NaN,NaN,946.261991269517,808.883771293693,907.767656743878,368.891514305654,545.970351986605,622.224714400653,0,0,0,0,0,0,4,3,3,NaN,NaN,NaN,vertical,vertical,horizontal,none,none,none
1b,23,100219,4,13,205,20,F,NA,constant,heterogeneous,4,present,1.54288387298584,1,horizontal,horizontal,1,0.647058070147479,green,3,2,960.476699717708,401.827779828472,998.172220171528,760.476699717708,639.523300282292,798.172220171528,998.172220171528,760.476699717708,960.476699717708,401.827779828472,601.827779828472,439.523300282291,0,0,0,0,3,3,4,0,NaN,NaN,vertical,horizontal,horizontal,horizontal,none,none
1b,23,100219,4,14,206,20,F,NA,constant,heterogeneous,6,present,1.69031596183777,1,vertical,vertical,1,0.811761315663656,green,3,4,1031.10848569435,492.232343256122,822.224714400653,345.970351986605,777.775285599347,854.029648013395,1008.88377129369,746.261991269517,1031.10848569435,492.232343256122,822.224714400653,345.970351986605,591.116228706307,453.738008730483,568.891514305654,707.767656743878,6,0,4,5,6,3,vertical,horizontal,vertical,vertical,horizontal,vertical
1b,23,100219,4,15,207,20,F,NA,constant,heterogeneous,4,present,1.2803840637207,1,vertical,vertical,1,0.811761315663656,green,4,1,583.747735480111,735.129412379467,935.129412379467,816.252264519889,935.129412379467,816.252264519889,1016.25226451989,464.870587620533,664.870587620533,383.747735480111,583.747735480111,735.129412379467,0,0,0,0,3,0,6,4,NaN,NaN,vertical,horizontal,vertical,vertical,none,none
1b,23,100219,4,16,208,20,F,NA,constant,heterogeneous,6,present,1.42796015739441,0,vertical,horizontal,1,0.905877455958614,green,5,1,581.422338320961,468.665290897936,795.549636358493,854.96116226488,795.549636358493,854.96116226488,1018.57766167904,731.334709102064,1023.02802532055,476.373546837184,804.450363641507,345.03883773512,581.422338320961,468.665290897936,576.971974679454,723.626453162816,0,6,6,3,4,5,horizontal,vertical,horizontal,horizontal,vertical,horizontal
1b,23,100219,4,17,209,20,F,NA,constant,heterogeneous,3,present,1.49927091598511,1,horizontal,horizontal,1,0.717645175368698,green,3,1,549.685068220846,551.343706178981,883.019879386575,841.107236777826,883.019879386575,841.107236777826,967.295052392579,407.549057043193,549.685068220846,551.343706178981,0,0,0,0,0,0,0,3,4,NaN,NaN,NaN,horizontal,vertical,horizontal,none,none,none
1b,23,100219,4,18,210,20,F,NA,constant,heterogeneous,5,present,1.42687702178955,1,horizontal,horizontal,1,0.870583903348004,green,2,4,1054.84466088987,608.899371659138,599.057257830286,443.006323791957,870.287525733335,845.121732464271,1054.84466088987,608.899371659138,887.215136548046,360.378381699593,599.057257830286,443.006323791957,588.595418998464,742.594190385041,0,0,5,4,3,0,6,NaN,vertical,horizontal,vertical,horizontal,vertical,none
1b,23,100219,4,19,211,20,F,NA,constant,heterogeneous,5,absent,0.996228933334351,1,horizontal,horizontal,1,0.835290350737395,green,4,NaN,653.738008730483,391.116228706307,NaN,NaN,795.549636358493,854.96116226488,1041.10723677783,683.019879386575,953.462830903772,396.34794493794,653.738008730483,391.116228706307,556.142287229426,674.554784704298,0,0,3,6,0,4,5,NaN,horizontal,horizontal,vertical,horizontal,horizontal,none
1b,23,100219,4,20,212,20,F,NA,constant,heterogeneous,3,absent,0.810909032821655,1,vertical,vertical,1,0.929406491032353,green,1,NaN,963.910840470068,795.341332995339,NaN,NaN,963.910840470068,795.341332995339,887.215136548046,360.378381699593,548.874022981887,644.280285305067,0,0,0,0,0,0,4,6,0,NaN,NaN,NaN,vertical,vertical,horizontal,none,none,none
1b,23,100219,4,21,213,20,F,NA,constant,heterogeneous,5,absent,0.78730583190918,1,horizontal,horizontal,1,0.799996798126786,green,2,NaN,977.137884467044,783.431649086356,NaN,NaN,680.284751489598,825.151636179026,977.137884467044,783.431649086356,1029.19248180629,488.215357568785,764.510859255183,347.4816424709,548.874022981887,555.719714694933,0,0,6,4,3,0,5,NaN,vertical,horizontal,vertical,horizontal,vertical,none
1b,23,100219,4,22,214,20,F,NA,constant,heterogeneous,5,absent,1.22882199287415,1,horizontal,horizontal,1,0.870583903348004,green,5,NaN,572.793336331966,715.767577433584,NaN,NaN,839.890788585259,851.86052685176,1051.86052685176,639.890788585259,915.767577433584,372.793336331966,619.68777079743,419.68777079743,572.793336331966,715.767577433584,0,0,5,5,6,3,4,NaN,horizontal,vertical,horizontal,vertical,horizontal,none
1b,23,100219,4,23,215,20,F,NA,constant,heterogeneous,3,absent,0.658501148223877,1,horizontal,horizontal,1,1.04705166640105,green,1,NaN,661.117046071168,813.860994826083,NaN,NaN,661.117046071168,813.860994826083,1054.65053136242,613.345668841951,684.232422566416,372.793336331966,0,0,0,0,0,0,4,0,6,NaN,NaN,NaN,horizontal,vertical,horizontal,none,none,none
1b,23,100219,4,24,216,20,F,NA,constant,heterogeneous,6,present,1.16032004356384,1,horizontal,horizontal,1,0.811761315663656,green,2,6,1049.42763818712,653.017481158529,629.371695378491,789.501930496736,878.799333565612,842.519411655264,1049.42763818712,653.017481158529,970.628304621509,410.498069503264,721.200666434388,357.480588344736,550.57236181288,546.982518841471,629.371695378491,789.501930496736,6,4,3,6,0,5,horizontal,horizontal,vertical,horizontal,horizontal,horizontal
1b,23,100219,4,25,217,20,F,NA,constant,heterogeneous,3,absent,1.15877413749695,1,vertical,vertical,1,0.964700043642962,green,2,NaN,1023.02802532055,476.373546837184,NaN,NaN,795.549636358493,854.96116226488,1023.02802532055,476.373546837184,581.422338320961,468.665290897936,0,0,0,0,0,0,6,4,6,NaN,NaN,NaN,horizontal,vertical,vertical,none,none,none
1b,23,100219,4,26,218,20,F,NA,constant,heterogeneous,4,absent,1.32345390319824,1,horizontal,horizontal,1,1.07058070147479,green,1,NaN,949.885239334581,806.299333565612,NaN,NaN,949.885239334581,806.299333565612,1006.29933356561,450.114760665419,650.114760665419,393.700666434388,593.700666434388,749.885239334581,0,0,0,0,4,5,5,3,NaN,NaN,horizontal,vertical,horizontal,horizontal,none,none
1b,23,100219,4,27,219,20,F,NA,constant,heterogeneous,5,absent,1.0013120174408,1,vertical,vertical,1,0.752938727979307,green,5,NaN,626.090418184063,786.495193912888,NaN,NaN,923.626453162816,823.028025320546,1050.31493177915,551.343706178981,831.076682568313,346.900731331463,568.891514305654,492.232343256122,626.090418184063,786.495193912888,0,0,6,3,6,5,4,NaN,horizontal,vertical,horizontal,horizontal,vertical,none
1b,23,100219,4,28,220,20,F,NA,constant,heterogeneous,4,absent,0.887372970581055,1,horizontal,horizontal,1,0.894112938421744,green,2,NaN,1000.94274216971,756.993676208043,NaN,NaN,643.006323791957,800.942742169714,1000.94274216971,756.993676208043,956.993676208043,399.057257830286,599.057257830286,443.006323791957,0,0,0,0,5,4,6,3,NaN,NaN,horizontal,horizontal,horizontal,horizontal,none,none
1b,23,100219,4,29,221,20,F,NA,constant,heterogeneous,5,absent,1.33119106292725,1,vertical,vertical,1,1.09410973654853,green,3,NaN,1036.43188291453,504.475318678942,NaN,NaN,664.870587620533,816.252264519889,963.910840470068,795.341332995339,1036.43188291453,504.475318678942,782.212099195248,345.621167183745,552.574589799621,538.309916622085,0,0,0,3,4,5,3,NaN,horizontal,horizontal,vertical,horizontal,vertical,none
1b,23,100219,4,30,222,20,F,NA,constant,heterogeneous,6,absent,1.7865879535675,0,horizontal,vertical,1,0.635293552610609,green,3,NaN,970.628304621509,410.498069503264,NaN,NaN,878.799333565612,842.519411655264,1049.42763818712,653.017481158529,970.628304621509,410.498069503264,721.200666434388,357.480588344736,550.57236181288,546.982518841471,629.371695378491,789.501930496736,0,0,4,3,6,6,horizontal,vertical,horizontal,horizontal,horizontal,horizontal
1b,23,100219,4,31,223,20,F,NA,constant,heterogeneous,6,present,1.24508786201477,1,vertical,vertical,1,0.929406491032353,green,4,1,692.232343256122,368.891514305654,907.767656743878,831.108485694346,907.767656743878,831.108485694346,1054.0296480134,622.224714400653,946.261991269517,391.116228706307,692.232343256122,368.891514305654,545.970351986605,577.775285599347,653.738008730483,808.883771293693,3,6,0,4,3,6,vertical,horizontal,horizontal,vertical,vertical,horizontal
1b,23,100219,4,32,224,20,F,NA,constant,heterogeneous,6,absent,1.01505017280579,0,vertical,horizontal,1,1.04705166640105,green,2,NaN,1025.15163617903,719.715248510402,NaN,NaN,808.899371659138,854.844660889869,1025.15163617903,719.715248510402,1016.25226451989,464.870587620533,791.100628340862,345.155339110131,574.848363820974,480.284751489598,583.747735480111,735.129412379467,5,4,0,0,5,6,vertical,vertical,horizontal,horizontal,vertical,horizontal
1b,23,100219,4,33,225,20,F,NA,constant,heterogeneous,5,absent,0.886152982711792,1,horizontal,horizontal,1,0.929406491032353,green,5,NaN,545.970351986605,577.775285599347,NaN,NaN,700.363562235235,834.728737630372,992.450942956807,767.295052392579,1018.57766167904,468.665290897936,742.637481142314,351.535633479765,545.970351986605,577.775285599347,0,0,0,0,5,3,4,NaN,horizontal,horizontal,horizontal,vertical,horizontal,none
1b,23,100219,4,34,226,20,F,NA,constant,heterogeneous,6,present,0.796725988388062,1,horizontal,horizontal,1,0.635293552610609,green,2,5,1006.29933356561,749.885239334581,593.700666434388,450.114760665419,773.345241866748,853.60308331891,1006.29933356561,749.885239334581,1032.95409169886,496.282156015671,826.654758133252,346.39691668109,593.700666434388,450.114760665419,567.045908301137,703.717843984329,3,4,3,0,5,6,horizontal,horizontal,horizontal,horizontal,vertical,horizontal
1b,23,100219,4,35,227,20,F,NA,constant,heterogeneous,3,present,0.737458944320679,1,vertical,vertical,1,1.03528714886418,green,2,1,911.784642431215,370.807518193712,942.594190385041,811.404581001536,942.594190385041,811.404581001536,911.784642431215,370.807518193712,545.621167183745,617.787900804752,0,0,0,0,0,0,6,4,5,NaN,NaN,NaN,horizontal,vertical,horizontal,none,none,none
1b,23,100219,4,36,228,20,F,NA,constant,heterogeneous,5,present,1.13652205467224,1,vertical,vertical,1,0.811761315663656,green,2,4,1032.95409169886,703.717843984329,672.5,379.163522034968,773.345241866748,853.60308331891,1032.95409169886,703.717843984329,970.628304621509,410.498069503264,672.5,379.163522034968,550.57236181288,653.017481158529,0,0,3,4,0,3,0,NaN,horizontal,vertical,horizontal,horizontal,horizontal,none
1b,23,100219,4,37,229,20,F,NA,constant,heterogeneous,5,present,1.27730298042297,1,horizontal,horizontal,1,0.894112938421744,green,2,1,1006.29933356561,749.885239334581,721.200666434388,842.519411655264,721.200666434388,842.519411655264,1006.29933356561,749.885239334581,1006.29933356561,450.114760665419,721.200666434388,357.480588344736,545,600,0,0,3,4,5,6,0,NaN,vertical,horizontal,vertical,horizontal,horizontal,none
1b,23,100219,4,38,230,20,F,NA,constant,heterogeneous,4,present,1.19796800613403,1,horizontal,horizontal,1,0.941171008569223,green,3,4,883.019879386575,358.892763222174,558.892763222174,516.980120613425,716.980120613425,841.107236777826,1041.10723677783,683.019879386575,883.019879386575,358.892763222174,558.892763222174,516.980120613425,0,0,0,0,6,5,4,6,NaN,NaN,horizontal,vertical,horizontal,horizontal,none,none
1b,23,100219,4,39,231,20,F,NA,constant,heterogeneous,5,present,0.739488124847412,1,horizontal,horizontal,1,1.08234521901166,green,3,4,1025.15163617903,480.284751489598,755.719714694933,348.874022981887,688.215357568785,829.192481806288,983.431649086356,777.137884467044,1025.15163617903,480.284751489598,755.719714694933,348.874022981887,547.481642470899,564.510859255183,0,0,6,0,4,5,3,NaN,vertical,horizontal,horizontal,horizontal,vertical,none
1b,23,100219,4,40,232,20,F,NA,constant,heterogeneous,3,present,1.13780093193054,1,vertical,vertical,1,0.764703245516177,green,2,1,1042.51941165526,678.799333565612,610.498069503264,770.628304621509,610.498069503264,770.628304621509,1042.51941165526,678.799333565612,746.982518841471,350.57236181288,0,0,0,0,0,0,6,4,3,NaN,NaN,NaN,horizontal,vertical,vertical,none,none,none
1b,23,100219,4,41,233,20,F,NA,constant,heterogeneous,6,absent,1.60585808753967,0,horizontal,vertical,1,0.870583903348004,green,4,NaN,817.787900804752,345.621167183745,NaN,NaN,782.212099195248,854.378832816255,1011.40458100154,742.594190385041,1029.19248180629,488.215357568785,817.787900804752,345.621167183745,588.595418998464,457.40580961496,570.807518193712,711.784642431215,3,5,6,4,5,6,horizontal,vertical,vertical,horizontal,vertical,horizontal
1b,23,100219,4,42,234,20,F,NA,constant,heterogeneous,6,present,0.935370206832886,1,horizontal,horizontal,1,1.05881618393792,green,5,2,586.139005173917,461.117046071168,1013.86099482608,738.882953928832,786.654331158049,854.650531362416,1013.86099482608,738.882953928832,1027.20666366803,484.232422566416,813.345668841951,345.349468637584,586.139005173917,461.117046071168,572.793336331966,715.767577433584,6,5,0,5,4,3,horizontal,vertical,vertical,horizontal,horizontal,horizontal
1b,23,100219,4,43,235,20,F,NA,constant,heterogeneous,4,present,1.03565096855164,1,horizontal,horizontal,1,0.670587105221218,green,1,3,676.373546837184,823.028025320546,923.626453162816,376.971974679454,676.373546837184,823.028025320546,1023.02802532055,723.626453162816,923.626453162816,376.971974679454,576.971974679454,476.373546837184,0,0,0,0,4,0,6,5,NaN,NaN,horizontal,vertical,horizontal,horizontal,none,none
1b,23,100219,4,44,236,20,F,NA,constant,heterogeneous,3,present,0.797993183135986,1,vertical,vertical,1,0.870583903348004,green,3,2,696.282156015671,367.045908301137,1053.60308331891,626.654758133252,650.114760665419,806.299333565612,1053.60308331891,626.654758133252,696.282156015671,367.045908301137,0,0,0,0,0,0,6,5,4,NaN,NaN,NaN,vertical,vertical,vertical,none,none,none
1b,23,100219,4,45,237,20,F,NA,constant,heterogeneous,3,absent,0.76183295249939,0,vertical,horizontal,1,0.788232280589916,green,3,NaN,545.621167183745,617.787900804752,NaN,NaN,942.594190385041,811.404581001536,911.784642431215,370.807518193712,545.621167183745,617.787900804752,0,0,0,0,0,0,0,3,4,NaN,NaN,NaN,horizontal,horizontal,vertical,none,none,none
1b,23,100219,4,46,238,20,F,NA,constant,heterogeneous,3,absent,1.04421401023865,1,horizontal,horizontal,1,0.952935526106093,green,1,NaN,729.712474266665,845.121732464271,NaN,NaN,729.712474266665,845.121732464271,1047.42541020038,538.309916622085,622.862115532956,416.568350913644,0,0,0,0,0,0,4,5,3,NaN,NaN,NaN,horizontal,horizontal,horizontal,none,none,none
1b,23,100219,4,47,239,20,F,NA,constant,heterogeneous,6,absent,NaN,0,vertical,none,0,0.882348420884874,green,3,NaN,1046.31108570371,534.001143498857,NaN,NaN,734.001143498857,846.311085703712,980.31222920257,780.31222920257,1046.31108570371,534.001143498857,865.998856501143,353.688914296288,619.68777079743,419.68777079743,553.688914296288,665.998856501143,3,0,4,3,5,6,vertical,vertical,vertical,vertical,vertical,vertical
1b,23,100219,4,48,240,20,F,NA,constant,heterogeneous,4,present,0.994331836700439,1,vertical,vertical,1,0.764703245516177,green,4,3,545,600,800,345,800,855,1055,600,800,345,545,600,0,0,0,0,0,3,6,4,NaN,NaN,horizontal,horizontal,horizontal,vertical,none,none
1b,23,100219,4,49,241,20,F,NA,constant,heterogeneous,3,absent,0.848562955856323,1,horizontal,horizontal,1,0.905877455958614,green,2,NaN,1029.19248180629,711.784642431215,NaN,NaN,588.595418998464,742.594190385041,1029.19248180629,711.784642431215,782.212099195248,345.621167183745,0,0,0,0,0,0,6,4,3,NaN,NaN,NaN,vertical,horizontal,vertical,none,none,none
1b,23,100219,4,50,242,20,F,NA,constant,heterogeneous,5,absent,1.15305805206299,0,vertical,horizontal,1,0.964700043642962,green,3,NaN,1042.51941165526,521.200666434388,NaN,NaN,650.114760665419,806.299333565612,949.885239334581,806.299333565612,1042.51941165526,521.200666434388,800,345,557.480588344736,521.200666434388,0,0,3,3,4,0,6,NaN,horizontal,horizontal,vertical,vertical,horizontal,none
1b,23,100219,4,51,243,20,F,NA,constant,heterogeneous,5,present,0.821663856506348,1,vertical,vertical,1,0.670587105221218,green,2,3,1054.0296480134,577.775285599347,857.362518857686,351.535633479765,899.636437764765,834.728737630372,1054.0296480134,577.775285599347,857.362518857686,351.535633479765,581.422338320961,468.665290897936,607.549057043193,767.295052392579,0,0,0,4,5,6,3,NaN,vertical,vertical,horizontal,horizontal,horizontal,none
1b,23,100219,4,52,244,20,F,NA,constant,heterogeneous,6,present,1.79491400718689,1,vertical,vertical,1,0.635293552610609,green,4,1,891.383827134052,361.936991243214,708.616172865948,838.063008756786,708.616172865948,838.063008756786,960.476699717708,798.172220171528,1051.86052685176,560.109211414741,891.383827134052,361.936991243214,639.523300282292,401.827779828472,548.13947314824,639.890788585259,3,6,3,4,5,6,horizontal,vertical,horizontal,vertical,horizontal,horizontal
1b,23,100219,4,53,245,20,F,NA,constant,heterogeneous,5,absent,0.84766697883606,0,vertical,horizontal,1,1.03528714886418,green,2,NaN,1045.12173246427,670.287525733335,NaN,NaN,808.899371659138,854.844660889869,1045.12173246427,670.287525733335,942.594190385041,388.595418998464,643.006323791957,399.057257830286,560.378381699593,687.215136548046,0,0,3,4,5,6,6,NaN,horizontal,vertical,vertical,vertical,vertical,none
