experiment,subject,uniqueID,block,trial,trial_cumulative,age,gender,color_cond_blocking,color_history,shape_type,set_size,distractor,rt,acc,target_orient,response_key,response_made,iti,target_color,target_item,distractor_item,target_X,target_Y,distractor_X,distractor_Y,item1_X,item1_Y,item2_X,item2_Y,item3_X,item3_Y,item4_X,item4_Y,item5_X,item5_Y,item6_X,item6_Y,item1_shape,item2_shape,item3_shape,item4_shape,item5_shape,item6_shape,item1_line,item2_line,item3_line,item4_line,item5_line,item6_line
1b,24,100236,1,1,1,22,M,NA,constant,heterogeneous,5,absent,NaN,0,horizontal,none,0,0.611764440536499,red,2,NaN,1020.83647796503,727.5,NaN,NaN,746.982518841471,849.42763818712,1020.83647796503,727.5,989.501930496736,429.371695378491,696.282156015671,367.045908301137,546.39691668109,626.654758133252,0,0,3,4,0,5,6,NaN,horizontal,horizontal,vertical,horizontal,vertical,none
1b,24,100236,1,2,2,22,M,NA,constant,heterogeneous,6,absent,NaN,0,horizontal,none,0,1.01175541877747,red,2,NaN,1027.20666366803,715.767577433584,NaN,NaN,813.345668841951,854.650531362416,1027.20666366803,715.767577433584,1013.86099482608,461.117046071168,786.654331158049,345.349468637584,572.793336331966,484.232422566416,586.139005173917,738.882953928832,3,4,0,3,5,5,horizontal,horizontal,horizontal,horizontal,horizontal,vertical
1b,24,100236,1,3,3,22,M,NA,constant,heterogeneous,3,present,1.10918092727661,1,vertical,vertical,1,0.952933216094971,red,2,1,804.450363641507,345.03883773512,1018.57766167904,731.334709102064,1018.57766167904,731.334709102064,804.450363641507,345.03883773512,576.971974679454,723.626453162816,0,0,0,0,0,0,5,4,6,NaN,NaN,NaN,vertical,vertical,horizontal,none,none,none
1b,24,100236,1,4,4,22,M,NA,constant,heterogeneous,6,absent,NaN,0,vertical,none,0,0.929404335021973,red,6,NaN,558.892763222174,683.019879386575,NaN,NaN,751.343706178981,850.314931779154,992.450942956807,767.295052392579,1041.10723677783,516.980120613425,848.656293821019,349.685068220846,607.549057043193,432.704947607421,558.892763222174,683.019879386575,0,0,5,3,3,4,horizontal,vertical,horizontal,horizontal,vertical,vertical
1b,24,100236,1,5,5,22,M,NA,constant,heterogeneous,4,absent,1.41656899452209,1,vertical,vertical,1,0.929404335021973,red,1,NaN,791.100628340862,854.844660889869,NaN,NaN,791.100628340862,854.844660889869,1054.84466088987,608.899371659138,808.899371659138,345.155339110131,545.155339110131,591.100628340862,0,0,0,0,4,5,0,5,NaN,NaN,vertical,horizontal,vertical,horizontal,none,none
1b,24,100236,1,6,6,22,M,NA,constant,heterogeneous,3,present,0.770586967468262,1,vertical,vertical,1,0.694115524291992,red,3,2,572.793336331966,715.767577433584,813.345668841951,345.349468637584,1013.86099482608,738.882953928832,813.345668841951,345.349468637584,572.793336331966,715.767577433584,0,0,0,0,0,0,0,0,4,NaN,NaN,NaN,horizontal,horizontal,vertical,none,none,none
1b,24,100236,1,7,7,22,M,NA,constant,heterogeneous,3,present,1.18441605567932,1,horizontal,horizontal,1,0.905875453948975,red,3,2,622.862115532956,416.568350913644,1047.42541020038,538.309916622085,729.712474266665,845.121732464271,1047.42541020038,538.309916622085,622.862115532956,416.568350913644,0,0,0,0,0,0,3,5,4,NaN,NaN,NaN,horizontal,horizontal,horizontal,none,none,none
1b,24,100236,1,8,8,22,M,NA,constant,heterogeneous,4,absent,1.24896597862244,1,horizontal,horizontal,1,0.635293321609497,red,1,NaN,777.775285599347,854.029648013395,NaN,NaN,777.775285599347,854.029648013395,1054.0296480134,622.224714400653,822.224714400653,345.970351986605,545.970351986605,577.775285599347,0,0,0,0,4,0,6,5,NaN,NaN,horizontal,vertical,vertical,horizontal,none,none
1b,24,100236,1,9,9,22,M,NA,constant,heterogeneous,4,present,0.911733865737915,1,horizontal,horizontal,1,0.694115524291992,red,1,4,942.594190385041,811.404581001536,588.595418998464,742.594190385041,942.594190385041,811.404581001536,1011.40458100154,457.40580961496,657.405809614959,388.595418998464,588.595418998464,742.594190385041,0,0,0,0,4,0,5,3,NaN,NaN,horizontal,vertical,vertical,vertical,none,none
1b,24,100236,1,10,10,22,M,NA,constant,heterogeneous,6,absent,1.04167604446411,1,vertical,vertical,1,0.776466608047485,red,4,NaN,857.362518857686,351.535633479765,NaN,NaN,742.637481142314,848.464366520235,986.495193912888,773.909581815937,1043.85771277057,525.445215295702,857.362518857686,351.535633479765,613.504806087112,426.090418184063,556.142287229426,674.554784704298,5,6,3,4,0,3,horizontal,horizontal,horizontal,vertical,horizontal,vertical
1b,24,100236,1,11,11,22,M,NA,constant,heterogeneous,6,present,1.36753606796265,1,vertical,vertical,1,0.835288810729981,red,6,3,556.142287229426,674.554784704298,1043.85771277057,525.445215295702,742.637481142314,848.464366520235,986.495193912888,773.909581815937,1043.85771277057,525.445215295702,857.362518857686,351.535633479765,613.504806087112,426.090418184063,556.142287229426,674.554784704298,3,5,6,6,5,4,horizontal,vertical,horizontal,horizontal,horizontal,vertical
1b,24,100236,1,12,12,22,M,NA,constant,heterogeneous,3,absent,1.20973515510559,1,vertical,vertical,1,0.941168775558472,red,2,NaN,1046.31108570371,665.998856501143,NaN,NaN,619.68777079743,780.31222920257,1046.31108570371,665.998856501143,734.001143498857,353.688914296288,0,0,0,0,0,0,3,4,0,NaN,NaN,NaN,vertical,vertical,vertical,none,none,none
1b,24,100236,1,13,13,22,M,NA,constant,heterogeneous,3,absent,0.734389066696167,1,vertical,vertical,1,0.799995489120483,red,1,NaN,692.232343256122,831.108485694346,NaN,NaN,692.232343256122,831.108485694346,1054.0296480134,577.775285599347,653.738008730483,391.116228706307,0,0,0,0,0,0,4,5,6,NaN,NaN,NaN,vertical,horizontal,horizontal,none,none,none
1b,24,100236,1,14,14,22,M,NA,constant,heterogeneous,3,absent,1.00164294242859,1,vertical,vertical,1,1.02351985931396,red,3,NaN,746.982518841471,350.57236181288,NaN,NaN,610.498069503264,770.628304621509,1042.51941165526,678.799333565612,746.982518841471,350.57236181288,0,0,0,0,0,0,5,3,4,NaN,NaN,NaN,vertical,horizontal,vertical,none,none,none
1b,24,100236,1,15,15,22,M,NA,constant,heterogeneous,4,present,1.16570401191711,1,horizontal,horizontal,1,0.6,red,3,1,650.114760665419,393.700666434388,949.885239334581,806.299333565612,949.885239334581,806.299333565612,1006.29933356561,450.114760665419,650.114760665419,393.700666434388,593.700666434388,749.885239334581,0,0,0,0,6,3,4,0,NaN,NaN,vertical,vertical,horizontal,horizontal,none,none
1b,24,100236,1,16,16,22,M,NA,constant,heterogeneous,5,present,0.964735984802246,1,horizontal,horizontal,1,0.976462097167969,red,2,3,1023.02802532055,723.626453162816,986.495193912888,426.090418184063,751.343706178981,850.314931779154,1023.02802532055,723.626453162816,986.495193912888,426.090418184063,692.232343256122,368.891514305654,546.900731331463,631.076682568313,0,0,5,4,5,0,3,NaN,horizontal,horizontal,vertical,horizontal,horizontal,none
1b,24,100236,1,17,17,22,M,NA,constant,heterogeneous,3,present,0.873108863830566,1,horizontal,horizontal,1,0.635293321609497,red,1,3,716.980120613425,841.107236777826,632.704947607421,407.549057043193,716.980120613425,841.107236777826,1050.31493177915,551.343706178981,632.704947607421,407.549057043193,0,0,0,0,0,0,4,6,5,NaN,NaN,NaN,horizontal,vertical,vertical,none,none,none
1b,24,100236,1,18,18,22,M,NA,constant,heterogeneous,6,absent,1.39935183525085,1,vertical,vertical,1,1.02351985931396,red,4,NaN,688.215357568785,370.807518193712,NaN,NaN,911.784642431215,829.192481806288,1054.37883281626,617.787900804752,942.594190385041,388.595418998464,688.215357568785,370.807518193712,545.621167183745,582.212099195248,657.405809614959,811.404581001536,5,3,0,4,6,3,vertical,vertical,vertical,vertical,vertical,horizontal
1b,24,100236,1,19,19,22,M,NA,constant,heterogeneous,4,present,1.03313016891479,1,vertical,vertical,1,0.682351083755493,red,2,3,986.495193912888,426.090418184063,626.090418184063,413.504806087112,973.909581815937,786.495193912888,986.495193912888,426.090418184063,626.090418184063,413.504806087112,613.504806087112,773.909581815937,0,0,0,0,3,4,0,5,NaN,NaN,vertical,vertical,horizontal,vertical,none,none
1b,24,100236,1,20,20,22,M,NA,constant,heterogeneous,6,present,1.50881385803223,1,horizontal,horizontal,1,0.952933216094971,red,1,2,895.524681321058,836.431882914531,1052.5183575291,635.489140744817,895.524681321058,836.431882914531,1052.5183575291,635.489140744817,956.993676208043,399.057257830286,704.475318678942,363.568117085469,547.481642470899,564.510859255183,643.006323791957,800.942742169714,4,5,5,6,0,0,horizontal,vertical,vertical,vertical,vertical,vertical
1b,24,100236,1,21,21,22,M,NA,constant,heterogeneous,3,absent,0.998687028884888,1,vertical,vertical,1,0.976462097167969,red,2,NaN,1016.25226451989,464.870587620533,NaN,NaN,808.899371659138,854.844660889869,1016.25226451989,464.870587620533,574.848363820974,480.284751489598,0,0,0,0,0,0,0,4,3,NaN,NaN,NaN,horizontal,vertical,horizontal,none,none,none
1b,24,100236,1,22,22,22,M,NA,constant,heterogeneous,5,present,1.11912703514099,1,horizontal,horizontal,1,1.01175541877747,red,5,2,545.03883773512,604.450363641507,1008.88377129369,746.261991269517,725.445215295702,843.857712770574,1008.88377129369,746.261991269517,1003.65205506206,446.537169096228,716.980120613425,358.892763222174,545.03883773512,604.450363641507,0,0,6,5,6,0,4,NaN,horizontal,vertical,horizontal,vertical,horizontal,none
1b,24,100236,1,23,23,22,M,NA,constant,heterogeneous,4,absent,1.35096001625061,0,horizontal,vertical,1,0.847053251266479,red,1,NaN,831.076682568313,853.099268668537,NaN,NaN,831.076682568313,853.099268668537,1053.09926866854,568.923317431687,768.923317431687,346.900731331463,546.900731331463,631.076682568313,0,0,0,0,4,6,3,5,NaN,NaN,horizontal,vertical,vertical,vertical,none,none
1b,24,100236,1,24,24,22,M,NA,constant,heterogeneous,5,present,1.10952711105347,1,vertical,vertical,1,0.776466608047485,red,5,1,545.970351986605,577.775285599347,700.363562235235,834.728737630372,700.363562235235,834.728737630372,992.450942956807,767.295052392579,1018.57766167904,468.665290897936,742.637481142314,351.535633479765,545.970351986605,577.775285599347,0,0,3,0,0,6,4,NaN,horizontal,horizontal,vertical,horizontal,vertical,none
1b,24,100236,1,25,25,22,M,NA,constant,heterogeneous,6,present,1.11311292648315,1,horizontal,horizontal,1,1.07057762145996,red,6,3,604.658667004661,763.910840470068,995.341332995339,436.089159529932,844.280285305067,851.125977018113,1039.62161830041,687.215136548046,995.341332995339,436.089159529932,755.719714694933,348.874022981887,560.378381699593,512.784863451954,604.658667004661,763.910840470068,0,0,3,6,6,4,horizontal,vertical,horizontal,vertical,vertical,horizontal
1b,24,100236,1,26,26,22,M,NA,constant,heterogeneous,6,absent,1.49125909805298,1,horizontal,horizontal,1,0.776466608047485,red,5,NaN,672.5,379.163522034968,NaN,NaN,672.5,820.836477965032,927.5,820.836477965032,1055,600,927.5,379.163522034968,672.5,379.163522034968,545,600,3,0,0,5,4,3,vertical,vertical,vertical,vertical,horizontal,horizontal
1b,24,100236,1,27,27,22,M,NA,constant,heterogeneous,3,present,0.79810094833374,1,vertical,vertical,1,0.847053251266479,red,3,1,657.405809614959,388.595418998464,688.215357568785,829.192481806288,688.215357568785,829.192481806288,1054.37883281626,582.212099195248,657.405809614959,388.595418998464,0,0,0,0,0,0,5,0,4,NaN,NaN,NaN,vertical,vertical,vertical,none,none,none
1b,24,100236,1,28,28,22,M,NA,constant,heterogeneous,6,present,0.547538042068481,1,vertical,vertical,1,1.08234206199646,red,5,1,636.089159529932,404.658667004661,712.784863451954,839.621618300407,712.784863451954,839.621618300407,963.910840470068,795.341332995339,1051.12597701811,555.719714694933,887.215136548046,360.378381699593,636.089159529932,404.658667004661,548.874022981887,644.280285305067,6,0,0,3,4,6,vertical,vertical,vertical,vertical,vertical,vertical
1b,24,100236,1,29,29,22,M,NA,constant,heterogeneous,3,present,1.18779492378235,1,horizontal,horizontal,1,0.647057762145996,red,3,1,581.422338320961,468.665290897936,795.549636358493,854.96116226488,795.549636358493,854.96116226488,1023.02802532055,476.373546837184,581.422338320961,468.665290897936,0,0,0,0,0,0,6,3,4,NaN,NaN,NaN,horizontal,vertical,horizontal,none,none,none
1b,24,100236,1,30,30,22,M,NA,constant,heterogeneous,6,present,1.88746309280396,1,horizontal,horizontal,1,0.788231048583984,red,2,6,1052.5183575291,635.489140744817,643.006323791957,800.942742169714,895.524681321058,836.431882914531,1052.5183575291,635.489140744817,956.993676208043,399.057257830286,704.475318678942,363.568117085469,547.481642470899,564.510859255183,643.006323791957,800.942742169714,0,4,6,3,6,0,horizontal,horizontal,vertical,vertical,vertical,horizontal
1b,24,100236,1,31,31,22,M,NA,constant,heterogeneous,4,absent,1.30215716362,1,horizontal,horizontal,1,0.835288810729981,red,2,NaN,1003.65205506206,753.462830903772,NaN,NaN,646.537169096228,803.65205506206,1003.65205506206,753.462830903772,953.462830903772,396.34794493794,596.34794493794,446.537169096228,0,0,0,0,3,4,0,5,NaN,NaN,vertical,horizontal,horizontal,horizontal,none,none
1b,24,100236,1,32,32,22,M,NA,constant,heterogeneous,4,absent,0.903201103210449,1,horizontal,horizontal,1,0.741173286437988,red,3,NaN,907.767656743878,368.891514305654,NaN,NaN,692.232343256122,831.108485694346,1031.10848569435,707.767656743878,907.767656743878,368.891514305654,568.891514305654,492.232343256122,0,0,0,0,0,3,4,5,NaN,NaN,horizontal,vertical,horizontal,vertical,none,none
1b,24,100236,1,33,33,22,M,NA,constant,heterogeneous,5,absent,1.24688196182251,1,horizontal,horizontal,1,1.07057762145996,red,3,NaN,953.462830903772,396.34794493794,NaN,NaN,795.549636358493,854.96116226488,1041.10723677783,683.019879386575,953.462830903772,396.34794493794,653.738008730483,391.116228706307,556.142287229426,674.554784704298,0,0,6,0,4,5,3,NaN,vertical,vertical,horizontal,horizontal,vertical,none
1b,24,100236,1,34,34,22,M,NA,constant,heterogeneous,5,absent,1.51987481117249,0,vertical,horizontal,1,0.788231048583984,red,1,NaN,826.654758133252,853.60308331891,NaN,NaN,826.654758133252,853.60308331891,1049.42763818712,653.017481158529,927.5,379.163522034968,629.371695378491,410.498069503264,567.045908301137,703.717843984329,0,0,4,3,5,0,3,NaN,vertical,vertical,vertical,vertical,vertical,none
1b,24,100236,1,35,35,22,M,NA,constant,heterogeneous,4,absent,0.865040063858032,1,vertical,vertical,1,0.741173286437988,red,4,NaN,553.688914296288,534.001143498857,NaN,NaN,734.001143498857,846.311085703712,1046.31108570371,665.998856501143,865.998856501143,353.688914296288,553.688914296288,534.001143498857,0,0,0,0,0,0,3,4,NaN,NaN,horizontal,horizontal,horizontal,vertical,none,none
1b,24,100236,1,36,36,22,M,NA,constant,heterogeneous,5,absent,1.72121000289917,1,horizontal,horizontal,1,0.929404335021973,red,2,NaN,1053.60308331891,626.654758133252,NaN,NaN,853.017481158529,849.42763818712,1053.60308331891,626.654758133252,903.717843984329,367.045908301137,610.498069503264,429.371695378491,579.163522034968,727.5,0,0,3,4,5,5,0,NaN,horizontal,horizontal,horizontal,vertical,vertical,none
1b,24,100236,1,37,37,22,M,NA,constant,heterogeneous,4,present,1.00937509536743,1,horizontal,horizontal,1,0.870582132339478,red,3,1,870.287525733335,354.878267535729,729.712474266665,845.121732464271,729.712474266665,845.121732464271,1045.12173246427,670.287525733335,870.287525733335,354.878267535729,554.878267535729,529.712474266665,0,0,0,0,5,3,4,6,NaN,NaN,horizontal,vertical,horizontal,horizontal,none,none
1b,24,100236,1,38,38,22,M,NA,constant,heterogeneous,4,absent,1.01636099815369,1,vertical,vertical,1,0.741173286437988,red,4,NaN,558.892763222174,683.019879386575,NaN,NaN,883.019879386575,841.107236777826,1041.10723677783,516.980120613425,716.980120613425,358.892763222174,558.892763222174,683.019879386575,0,0,0,0,0,0,3,4,NaN,NaN,horizontal,vertical,horizontal,vertical,none,none
1b,24,100236,1,39,39,22,M,NA,constant,heterogeneous,5,absent,1.0459520816803,1,vertical,vertical,1,1.05881318092346,red,3,NaN,983.431649086356,422.862115532956,NaN,NaN,755.719714694933,851.125977018113,1025.15163617903,719.715248510402,983.431649086356,422.862115532956,688.215357568785,370.807518193712,547.481642470899,635.489140744817,0,0,0,6,4,5,5,NaN,vertical,vertical,vertical,horizontal,vertical,none
1b,24,100236,1,40,40,22,M,NA,constant,heterogeneous,5,present,0.985758066177368,1,vertical,vertical,1,0.729408845901489,red,1,4,738.309916622085,847.425410200379,704.475318678942,363.568117085469,738.309916622085,847.425410200379,1016.25226451989,735.129412379467,995.341332995339,436.089159529932,704.475318678942,363.568117085469,545.621167183745,617.787900804752,0,0,4,6,0,6,0,NaN,vertical,horizontal,horizontal,vertical,horizontal,none
1b,24,100236,1,41,41,22,M,NA,constant,heterogeneous,4,present,1.03473496437073,1,vertical,vertical,1,1.05881318092346,red,1,4,903.717843984329,832.954091698863,567.045908301137,703.717843984329,903.717843984329,832.954091698863,1032.95409169886,496.282156015671,696.282156015671,367.045908301137,567.045908301137,703.717843984329,0,0,0,0,4,6,3,5,NaN,NaN,vertical,horizontal,horizontal,vertical,none,none
1b,24,100236,1,42,42,22,M,NA,constant,heterogeneous,3,absent,1.14066290855408,1,horizontal,horizontal,1,0.847053251266479,red,3,NaN,680.284751489598,374.848363820974,NaN,NaN,664.870587620533,816.252264519889,1054.84466088987,608.899371659138,680.284751489598,374.848363820974,0,0,0,0,0,0,3,0,4,NaN,NaN,NaN,horizontal,horizontal,horizontal,none,none,none
1b,24,100236,1,43,43,22,M,NA,constant,heterogeneous,6,present,NaN,0,horizontal,none,0,0.929404335021973,red,2,6,935.129412379467,816.252264519889,545.155339110131,608.899371659138,680.284751489598,825.151636179026,935.129412379467,816.252264519889,1054.84466088987,591.100628340862,919.715248510402,374.848363820974,664.870587620533,383.747735480111,545.155339110131,608.899371659138,3,4,3,6,5,0,vertical,horizontal,vertical,vertical,vertical,horizontal
1b,24,100236,1,44,44,22,M,NA,constant,heterogeneous,4,absent,0.799491167068481,1,vertical,vertical,1,0.647057762145996,red,1,NaN,844.280285305067,851.125977018113,NaN,NaN,844.280285305067,851.125977018113,1051.12597701811,555.719714694933,755.719714694933,348.874022981887,548.874022981887,644.280285305067,0,0,0,0,4,6,0,0,NaN,NaN,vertical,horizontal,horizontal,vertical,none,none
1b,24,100236,1,45,45,22,M,NA,constant,heterogeneous,3,present,0.804805040359497,1,vertical,vertical,1,0.847053251266479,red,3,2,558.892763222174,683.019879386575,848.656293821019,349.685068220846,992.450942956807,767.295052392579,848.656293821019,349.685068220846,558.892763222174,683.019879386575,0,0,0,0,0,0,5,6,4,NaN,NaN,NaN,horizontal,vertical,vertical,none,none,none
1b,24,100236,1,46,46,22,M,NA,constant,heterogeneous,4,present,0.618551969528198,1,vertical,vertical,1,0.670586643218994,red,4,1,610.498069503264,429.371695378491,629.371695378491,789.501930496736,629.371695378491,789.501930496736,989.501930496736,770.628304621509,970.628304621509,410.498069503264,610.498069503264,429.371695378491,0,0,0,0,5,6,0,4,NaN,NaN,vertical,horizontal,horizontal,vertical,none,none
1b,24,100236,1,47,47,22,M,NA,constant,heterogeneous,3,present,0.844526052474976,1,horizontal,horizontal,1,0.670586643218994,red,3,1,622.862115532956,416.568350913644,729.712474266665,845.121732464271,729.712474266665,845.121732464271,1047.42541020038,538.309916622085,622.862115532956,416.568350913644,0,0,0,0,0,0,3,6,4,NaN,NaN,NaN,horizontal,vertical,horizontal,none,none,none
1b,24,100236,1,48,48,22,M,NA,constant,heterogeneous,6,present,1.69564890861511,1,vertical,vertical,1,0.71764440536499,red,6,4,558.892763222174,683.019879386575,848.656293821019,349.685068220846,751.343706178981,850.314931779154,992.450942956807,767.295052392579,1041.10723677783,516.980120613425,848.656293821019,349.685068220846,607.549057043193,432.704947607421,558.892763222174,683.019879386575,0,5,3,5,6,4,vertical,horizontal,vertical,horizontal,horizontal,vertical
1b,24,100236,1,49,49,22,M,NA,constant,heterogeneous,5,present,1.46557307243347,1,horizontal,horizontal,1,0.988226537704468,red,1,4,927.5,820.836477965032,567.045908301137,496.282156015671,927.5,820.836477965032,1049.42763818712,546.982518841471,826.654758133252,346.39691668109,567.045908301137,496.282156015671,629.371695378491,789.501930496736,0,0,4,3,3,5,5,NaN,horizontal,vertical,horizontal,horizontal,horizontal,none
1b,24,100236,1,50,50,22,M,NA,constant,heterogeneous,3,absent,1.13816094398499,1,horizontal,horizontal,1,0.952933216094971,red,1,NaN,700.363562235235,834.728737630372,NaN,NaN,700.363562235235,834.728737630372,1053.09926866854,568.923317431687,646.537169096228,396.34794493794,0,0,0,0,0,0,4,5,3,NaN,NaN,NaN,horizontal,horizontal,horizontal,none,none,none
1b,24,100236,1,51,51,22,M,NA,constant,heterogeneous,5,present,0.89850115776062,1,vertical,vertical,1,0.682351083755493,red,5,4,568.891514305654,707.767656743878,626.090418184063,413.504806087112,831.076682568313,853.099268668537,1050.31493177915,648.656293821019,923.626453162816,376.971974679454,626.090418184063,413.504806087112,568.891514305654,707.767656743878,0,0,6,5,0,5,4,NaN,vertical,vertical,horizontal,horizontal,vertical,none
1b,24,100236,1,52,52,22,M,NA,constant,heterogeneous,3,absent,1.17771983146667,1,horizontal,horizontal,1,0.847053251266479,red,3,NaN,696.282156015671,367.045908301137,NaN,NaN,650.114760665419,806.299333565612,1053.60308331891,626.654758133252,696.282156015671,367.045908301137,0,0,0,0,0,0,6,0,4,NaN,NaN,NaN,vertical,vertical,horizontal,none,none,none
1b,24,100236,1,53,53,22,M,NA,constant,heterogeneous,3,absent,0.962058067321777,1,horizontal,horizontal,1,0.611764440536499,red,2,NaN,1025.15163617903,480.284751489598,NaN,NaN,791.100628340862,854.844660889869,1025.15163617903,480.284751489598,583.747735480111,464.870587620533,0,0,0,0,0,0,0,4,0,NaN,NaN,NaN,horizontal,horizontal,horizontal,none,none,none
1b,24,100236,1,54,54,22,M,NA,constant,heterogeneous,6,absent,0.791321992874146,1,vertical,vertical,1,0.917639894485474,red,2,NaN,989.501930496736,770.628304621509,NaN,NaN,746.982518841471,849.42763818712,989.501930496736,770.628304621509,1042.51941165526,521.200666434388,853.017481158529,350.57236181288,610.498069503264,429.371695378491,557.480588344736,678.799333565612,0,4,5,6,5,0,horizontal,vertical,horizontal,horizontal,horizontal,horizontal
1b,24,100236,1,55,55,22,M,NA,constant,heterogeneous,5,absent,0.775698900222778,1,vertical,vertical,1,0.799995489120483,red,3,NaN,1006.29933356561,450.114760665419,NaN,NaN,721.200666434388,842.519411655264,1006.29933356561,749.885239334581,1006.29933356561,450.114760665419,721.200666434388,357.480588344736,545,600,0,0,0,5,4,6,3,NaN,horizontal,horizontal,vertical,horizontal,horizontal,none
1b,24,100236,1,56,56,22,M,NA,constant,heterogeneous,5,present,0.687168121337891,1,vertical,vertical,1,1.01175541877747,red,4,5,795.549636358493,345.03883773512,556.142287229426,525.445215295702,653.738008730483,808.883771293693,953.462830903772,803.65205506206,1041.10723677783,516.980120613425,795.549636358493,345.03883773512,556.142287229426,525.445215295702,0,0,5,6,0,4,0,NaN,horizontal,horizontal,horizontal,vertical,vertical,none
1b,24,100236,1,57,57,22,M,NA,constant,heterogeneous,4,present,0.661251068115234,1,vertical,vertical,1,0.788231048583984,red,3,4,923.626453162816,376.971974679454,576.971974679454,476.373546837184,676.373546837184,823.028025320546,1023.02802532055,723.626453162816,923.626453162816,376.971974679454,576.971974679454,476.373546837184,0,0,0,0,0,0,4,5,NaN,NaN,horizontal,vertical,vertical,horizontal,none,none
1b,24,100236,1,58,58,22,M,NA,constant,heterogeneous,5,absent,NaN,0,vertical,none,0,0.929404335021973,red,5,NaN,560.378381699593,687.215136548046,NaN,NaN,808.899371659138,854.844660889869,1045.12173246427,670.287525733335,942.594190385041,388.595418998464,643.006323791957,399.057257830286,560.378381699593,687.215136548046,0,0,5,6,0,3,4,NaN,vertical,vertical,vertical,horizontal,vertical,none
1b,24,100236,1,59,59,22,M,NA,constant,heterogeneous,4,present,1.10314178466797,1,horizontal,horizontal,1,1.08234206199646,red,2,4,1038.06300875679,691.383827134052,561.936991243214,508.616172865948,708.616172865948,838.063008756786,1038.06300875679,691.383827134052,891.383827134052,361.936991243214,561.936991243214,508.616172865948,0,0,0,0,0,4,5,3,NaN,NaN,horizontal,horizontal,horizontal,horizontal,none,none
1b,24,100236,1,60,60,22,M,NA,constant,heterogeneous,6,absent,1.74785590171814,1,horizontal,horizontal,1,0.729408845901489,red,2,NaN,953.462830903772,803.65205506206,NaN,NaN,700.363562235235,834.728737630372,953.462830903772,803.65205506206,1053.09926866854,568.923317431687,899.636437764765,365.271262369628,646.537169096228,396.34794493794,546.900731331463,631.076682568313,0,4,6,0,5,6,horizontal,horizontal,vertical,vertical,horizontal,vertical
1b,24,100236,1,61,61,22,M,NA,constant,heterogeneous,6,present,1.316251039505,1,vertical,vertical,1,0.870582132339478,red,4,1,839.890788585259,348.13947314824,760.109211414741,851.86052685176,760.109211414741,851.86052685176,998.172220171528,760.476699717708,1038.06300875679,508.616172865948,839.890788585259,348.13947314824,601.827779828472,439.523300282291,561.936991243214,691.383827134052,0,5,3,4,3,0,vertical,vertical,vertical,vertical,horizontal,vertical
1b,24,100236,1,62,62,22,M,NA,constant,heterogeneous,5,absent,0.814740180969238,1,horizontal,horizontal,1,1.01175541877747,red,4,NaN,800,345,NaN,NaN,650.114760665419,806.299333565612,949.885239334581,806.299333565612,1042.51941165526,521.200666434388,800,345,557.480588344736,521.200666434388,0,0,6,0,5,4,3,NaN,vertical,vertical,horizontal,horizontal,horizontal,none
1b,24,100236,1,63,63,22,M,NA,constant,heterogeneous,6,absent,1.04151391983032,1,horizontal,horizontal,1,0.694115524291992,red,6,NaN,545.155339110131,608.899371659138,NaN,NaN,680.284751489598,825.151636179026,935.129412379467,816.252264519889,1054.84466088987,591.100628340862,919.715248510402,374.848363820974,664.870587620533,383.747735480111,545.155339110131,608.899371659138,0,3,6,5,0,4,vertical,vertical,horizontal,horizontal,horizontal,horizontal
1b,24,100236,1,64,64,22,M,NA,constant,heterogeneous,5,present,1.48600101470947,1,horizontal,horizontal,1,0.988226537704468,red,3,5,878.799333565612,357.480588344736,593.700666434388,749.885239334581,878.799333565612,842.519411655264,1055,600,878.799333565612,357.480588344736,593.700666434388,450.114760665419,593.700666434388,749.885239334581,0,0,6,0,4,5,3,NaN,horizontal,vertical,horizontal,vertical,vertical,none
1b,24,100236,2,1,65,22,M,NA,constant,heterogeneous,3,absent,0.596903085708618,1,vertical,vertical,1,1.05881318092346,red,3,NaN,583.747735480111,464.870587620533,NaN,NaN,791.100628340862,854.844660889869,1025.15163617903,480.284751489598,583.747735480111,464.870587620533,0,0,0,0,0,0,5,6,4,NaN,NaN,NaN,vertical,horizontal,vertical,none,none,none
1b,24,100236,2,2,66,22,M,NA,constant,heterogeneous,6,present,1.48998379707336,1,vertical,vertical,1,1.03528429985046,red,2,4,1048.46436652023,657.362518857686,725.445215295702,356.142287229426,874.554784704298,843.857712770574,1048.46436652023,657.362518857686,973.909581815937,413.504806087112,725.445215295702,356.142287229426,551.535633479765,542.637481142314,626.090418184063,786.495193912888,6,4,3,0,5,3,vertical,vertical,horizontal,horizontal,horizontal,vertical
1b,24,100236,2,3,67,22,M,NA,constant,heterogeneous,4,absent,1.25385594367981,1,vertical,vertical,1,1.09410650253296,red,2,NaN,1032.95409169886,703.717843984329,NaN,NaN,696.282156015671,832.954091698863,1032.95409169886,703.717843984329,903.717843984329,367.045908301137,567.045908301137,496.282156015671,0,0,0,0,5,4,6,0,NaN,NaN,vertical,vertical,vertical,vertical,none,none
1b,24,100236,2,4,68,22,M,NA,constant,heterogeneous,6,present,1.06934905052185,1,vertical,vertical,1,0.71764440536499,red,3,4,1013.86099482608,461.117046071168,786.654331158049,345.349468637584,813.345668841951,854.650531362416,1027.20666366803,715.767577433584,1013.86099482608,461.117046071168,786.654331158049,345.349468637584,572.793336331966,484.232422566416,586.139005173917,738.882953928832,5,6,4,0,3,6,vertical,vertical,vertical,vertical,horizontal,horizontal
1b,24,100236,2,5,69,22,M,NA,constant,heterogeneous,3,present,0.641247034072876,1,vertical,vertical,1,0.929404335021973,red,1,3,923.626453162816,823.028025320546,545.03883773512,595.549636358493,923.626453162816,823.028025320546,931.334709102064,381.422338320961,545.03883773512,595.549636358493,0,0,0,0,0,0,4,6,0,NaN,NaN,NaN,vertical,vertical,horizontal,none,none,none
1b,24,100236,2,6,70,22,M,NA,constant,heterogeneous,6,present,1.49302697181702,1,horizontal,horizontal,1,0.741173286437988,red,2,3,1039.62161830041,687.215136548046,995.341332995339,436.089159529932,844.280285305067,851.125977018113,1039.62161830041,687.215136548046,995.341332995339,436.089159529932,755.719714694933,348.874022981887,560.378381699593,512.784863451954,604.658667004661,763.910840470068,3,4,5,6,5,0,vertical,horizontal,horizontal,vertical,vertical,horizontal
1b,24,100236,2,7,71,22,M,NA,constant,heterogeneous,3,absent,1.15528106689453,1,vertical,vertical,1,0.799995489120483,red,1,NaN,946.261991269517,808.883771293693,NaN,NaN,946.261991269517,808.883771293693,907.767656743878,368.891514305654,545.970351986605,622.224714400653,0,0,0,0,0,0,4,6,3,NaN,NaN,NaN,vertical,vertical,vertical,none,none,none
1b,24,100236,2,8,72,22,M,NA,constant,heterogeneous,5,absent,0.890352964401245,1,horizontal,horizontal,1,0.988226537704468,red,3,NaN,953.462830903772,396.34794493794,NaN,NaN,795.549636358493,854.96116226488,1041.10723677783,683.019879386575,953.462830903772,396.34794493794,653.738008730483,391.116228706307,556.142287229426,674.554784704298,0,0,6,0,4,0,6,NaN,vertical,vertical,horizontal,vertical,horizontal,none
1b,24,100236,2,9,73,22,M,NA,constant,heterogeneous,4,present,0.57355809211731,1,vertical,vertical,1,1.07057762145996,red,2,4,1036.43188291453,504.475318678942,563.568117085469,695.524681321058,895.524681321058,836.431882914531,1036.43188291453,504.475318678942,704.475318678942,363.568117085469,563.568117085469,695.524681321058,0,0,0,0,5,4,0,6,NaN,NaN,horizontal,vertical,horizontal,vertical,none,none
1b,24,100236,2,10,74,22,M,NA,constant,heterogeneous,6,absent,1.68714189529419,1,horizontal,horizontal,1,1.09410650253296,red,2,NaN,960.476699717708,798.172220171528,NaN,NaN,708.616172865948,838.063008756786,960.476699717708,798.172220171528,1051.86052685176,560.109211414741,891.383827134052,361.936991243214,639.523300282292,401.827779828472,548.13947314824,639.890788585259,0,4,0,6,3,6,vertical,horizontal,horizontal,vertical,vertical,vertical
1b,24,100236,2,11,75,22,M,NA,constant,heterogeneous,3,present,1.34921908378601,0,vertical,horizontal,1,0.611764440536499,red,3,2,563.568117085469,695.524681321058,835.489140744817,347.4816424709,1000.94274216971,756.993676208043,835.489140744817,347.4816424709,563.568117085469,695.524681321058,0,0,0,0,0,0,3,6,4,NaN,NaN,NaN,vertical,vertical,vertical,none,none,none
1b,24,100236,2,12,76,22,M,NA,constant,heterogeneous,4,present,1.26838397979736,1,vertical,vertical,1,0.999990978240967,red,1,2,764.510859255183,852.518357529101,1052.5183575291,635.489140744817,764.510859255183,852.518357529101,1052.5183575291,635.489140744817,835.489140744817,347.4816424709,547.481642470899,564.510859255183,0,0,0,0,4,3,0,6,NaN,NaN,vertical,horizontal,vertical,vertical,none,none
1b,24,100236,2,13,77,22,M,NA,constant,heterogeneous,5,present,1.10750603675842,1,horizontal,horizontal,1,1.08234206199646,red,3,1,911.784642431215,370.807518193712,844.280285305067,851.125977018113,844.280285305067,851.125977018113,1052.5183575291,635.489140744817,911.784642431215,370.807518193712,616.568350913644,422.862115532956,574.848363820974,719.715248510402,0,0,0,5,4,6,0,NaN,horizontal,horizontal,horizontal,vertical,vertical,none
1b,24,100236,2,14,78,22,M,NA,constant,heterogeneous,4,present,1.19729113578796,1,horizontal,horizontal,1,0.776466608047485,red,1,3,712.784863451954,839.621618300407,887.215136548046,360.378381699593,712.784863451954,839.621618300407,1039.62161830041,687.215136548046,887.215136548046,360.378381699593,560.378381699593,512.784863451954,0,0,0,0,4,5,3,6,NaN,NaN,horizontal,vertical,horizontal,vertical,none,none
1b,24,100236,2,15,79,22,M,NA,constant,heterogeneous,4,present,1.2383918762207,1,vertical,vertical,1,0.647057762145996,red,4,2,549.685068220846,551.343706178981,1050.31493177915,648.656293821019,751.343706178981,850.314931779154,1050.31493177915,648.656293821019,848.656293821019,349.685068220846,549.685068220846,551.343706178981,0,0,0,0,5,3,6,4,NaN,NaN,vertical,horizontal,horizontal,vertical,none,none
1b,24,100236,2,16,80,22,M,NA,constant,heterogeneous,3,present,0.653532028198242,1,vertical,vertical,1,0.905875453948975,red,3,1,570.807518193712,488.215357568785,817.787900804752,854.378832816255,817.787900804752,854.378832816255,1011.40458100154,457.40580961496,570.807518193712,488.215357568785,0,0,0,0,0,0,6,6,4,NaN,NaN,NaN,vertical,vertical,vertical,none,none,none
1b,24,100236,2,17,81,22,M,NA,constant,heterogeneous,6,absent,1.29672598838806,1,vertical,vertical,1,0.905875453948975,red,2,NaN,1054.65053136242,613.345668841951,NaN,NaN,915.767577433584,827.206663668034,1054.65053136242,613.345668841951,938.882953928832,386.139005173917,684.232422566416,372.793336331966,545.349468637584,586.654331158049,661.117046071168,813.860994826083,0,4,6,3,0,5,vertical,vertical,vertical,horizontal,vertical,horizontal
1b,24,100236,2,18,82,22,M,NA,constant,heterogeneous,4,absent,1.47108697891235,1,horizontal,horizontal,1,0.999990978240967,red,2,NaN,1051.12597701811,644.280285305067,NaN,NaN,755.719714694933,851.125977018113,1051.12597701811,644.280285305067,844.280285305067,348.874022981887,548.874022981887,555.719714694933,0,0,0,0,3,4,0,6,NaN,NaN,vertical,horizontal,horizontal,horizontal,none,none
1b,24,100236,2,19,83,22,M,NA,constant,heterogeneous,4,present,1.0559298992157,1,horizontal,horizontal,1,0.96469765663147,red,4,1,570.807518193712,488.215357568785,688.215357568785,829.192481806288,688.215357568785,829.192481806288,1029.19248180629,711.784642431215,911.784642431215,370.807518193712,570.807518193712,488.215357568785,0,0,0,0,6,3,0,4,NaN,NaN,horizontal,horizontal,vertical,horizontal,none,none
1b,24,100236,2,20,84,22,M,NA,constant,heterogeneous,3,present,0.922324895858765,1,horizontal,horizontal,1,0.658822202682495,red,1,3,579.163522034968,727.5,800,345,579.163522034968,727.5,1020.83647796503,727.5,800,345,0,0,0,0,0,0,4,3,3,NaN,NaN,NaN,horizontal,horizontal,horizontal,none,none,none
1b,24,100236,2,21,85,22,M,NA,constant,heterogeneous,4,absent,1.71708798408508,1,vertical,vertical,1,1.01175541877747,red,1,NaN,725.445215295702,843.857712770574,NaN,NaN,725.445215295702,843.857712770574,1043.85771277057,674.554784704298,874.554784704298,356.142287229426,556.142287229426,525.445215295702,0,0,0,0,4,5,3,0,NaN,NaN,vertical,vertical,horizontal,vertical,none,none
1b,24,100236,2,22,86,22,M,NA,constant,heterogeneous,6,absent,1.07055711746216,1,horizontal,horizontal,1,0.741173286437988,red,6,NaN,588.595418998464,742.594190385041,NaN,NaN,817.787900804752,854.378832816255,1029.19248180629,711.784642431215,1011.40458100154,457.40580961496,782.212099195248,345.621167183745,570.807518193712,488.215357568785,588.595418998464,742.594190385041,0,3,6,5,0,4,vertical,vertical,vertical,horizontal,vertical,horizontal
1b,24,100236,2,23,87,22,M,NA,constant,heterogeneous,4,present,1.05933880805969,1,vertical,vertical,1,0.752937726974487,red,4,1,613.504806087112,773.909581815937,973.909581815937,786.495193912888,973.909581815937,786.495193912888,986.495193912888,426.090418184063,626.090418184063,413.504806087112,613.504806087112,773.909581815937,0,0,0,0,6,5,0,4,NaN,NaN,vertical,vertical,horizontal,vertical,none,none
1b,24,100236,2,24,88,22,M,NA,constant,heterogeneous,5,present,1.12598896026611,1,horizontal,horizontal,1,0.847053251266479,red,3,4,817.787900804752,345.621167183745,563.568117085469,504.475318678942,935.129412379467,816.252264519889,1047.42541020038,538.309916622085,817.787900804752,345.621167183745,563.568117085469,504.475318678942,636.089159529932,795.341332995339,0,0,5,6,4,0,6,NaN,horizontal,vertical,horizontal,horizontal,horizontal,none
1b,24,100236,2,25,89,22,M,NA,constant,heterogeneous,3,present,0.55256199836731,1,horizontal,horizontal,1,1.01175541877747,red,3,1,688.215357568785,370.807518193712,657.405809614959,811.404581001536,657.405809614959,811.404581001536,1054.37883281626,617.787900804752,688.215357568785,370.807518193712,0,0,0,0,0,0,6,0,4,NaN,NaN,NaN,horizontal,vertical,horizontal,none,none,none
1b,24,100236,2,26,90,22,M,NA,constant,heterogeneous,5,present,NaN,0,horizontal,none,0,0.835288810729981,red,3,4,1023.02802532055,476.373546837184,751.343706178981,349.685068220846,692.232343256122,831.108485694346,986.495193912888,773.909581815937,1023.02802532055,476.373546837184,751.343706178981,349.685068220846,546.900731331463,568.923317431687,0,0,6,3,4,5,0,NaN,vertical,vertical,horizontal,vertical,horizontal,none
1b,24,100236,2,27,91,22,M,NA,constant,heterogeneous,4,absent,0.675770998001099,1,vertical,vertical,1,0.929404335021973,red,3,NaN,716.980120613425,358.892763222174,NaN,NaN,883.019879386575,841.107236777826,1041.10723677783,516.980120613425,716.980120613425,358.892763222174,558.892763222174,683.019879386575,0,0,0,0,3,6,4,3,NaN,NaN,vertical,horizontal,vertical,vertical,none,none
1b,24,100236,2,28,92,22,M,NA,constant,heterogeneous,5,absent,NaN,0,horizontal,none,0,1.05881318092346,red,1,NaN,915.767577433584,827.206663668034,NaN,NaN,915.767577433584,827.206663668034,1051.86052685176,560.109211414741,839.890788585259,348.13947314824,572.793336331966,484.232422566416,619.68777079743,780.31222920257,0,0,4,3,0,3,5,NaN,horizontal,horizontal,vertical,vertical,vertical,none
1b,24,100236,2,29,93,22,M,NA,constant,heterogeneous,3,absent,0.631680965423584,1,vertical,vertical,1,1.05881318092346,red,3,NaN,795.549636358493,345.03883773512,NaN,NaN,581.422338320961,731.334709102064,1023.02802532055,723.626453162816,795.549636358493,345.03883773512,0,0,0,0,0,0,0,6,4,NaN,NaN,NaN,vertical,horizontal,vertical,none,none,none
1b,24,100236,2,30,94,22,M,NA,constant,heterogeneous,6,absent,1.83793210983276,1,horizontal,horizontal,1,1.07057762145996,red,6,NaN,636.089159529932,795.341332995339,NaN,NaN,887.215136548046,839.621618300407,1051.12597701811,644.280285305067,963.910840470068,404.658667004661,712.784863451954,360.378381699593,548.874022981887,555.719714694933,636.089159529932,795.341332995339,5,0,5,3,6,4,vertical,vertical,vertical,horizontal,vertical,horizontal
1b,24,100236,2,31,95,22,M,NA,constant,heterogeneous,4,absent,0.772053956985474,1,horizontal,horizontal,1,0.658822202682495,red,4,NaN,560.378381699593,512.784863451954,NaN,NaN,712.784863451954,839.621618300407,1039.62161830041,687.215136548046,887.215136548046,360.378381699593,560.378381699593,512.784863451954,0,0,0,0,3,6,5,4,NaN,NaN,vertical,vertical,vertical,horizontal,none,none
1b,24,100236,2,32,96,22,M,NA,constant,heterogeneous,3,present,0.563005924224854,1,horizontal,horizontal,1,0.952933216094971,red,3,1,636.089159529932,404.658667004661,712.784863451954,839.621618300407,712.784863451954,839.621618300407,1051.12597701811,555.719714694933,636.089159529932,404.658667004661,0,0,0,0,0,0,3,5,4,NaN,NaN,NaN,horizontal,horizontal,horizontal,none,none,none
1b,24,100236,2,33,97,22,M,NA,constant,heterogeneous,5,absent,0.779519081115723,1,vertical,vertical,1,0.882346572875977,red,4,NaN,676.373546837184,376.971974679454,NaN,NaN,768.923317431687,853.099268668537,1031.10848569435,707.767656743878,973.909581815937,413.504806087112,676.373546837184,376.971974679454,549.685068220846,648.656293821019,0,0,3,6,6,4,5,NaN,horizontal,vertical,horizontal,vertical,vertical,none
1b,24,100236,2,34,98,22,M,NA,constant,heterogeneous,5,absent,1.16665697097778,1,vertical,vertical,1,0.952933216094971,red,1,NaN,704.475318678942,836.431882914531,NaN,NaN,704.475318678942,836.431882914531,995.341332995339,763.910840470068,1016.25226451989,464.870587620533,738.309916622085,352.574589799621,545.621167183745,582.212099195248,0,0,4,5,0,3,3,NaN,vertical,horizontal,vertical,vertical,horizontal,none
1b,24,100236,2,35,99,22,M,NA,constant,heterogeneous,6,present,1.25488615036011,1,vertical,vertical,1,0.847053251266479,red,3,6,1036.43188291453,504.475318678942,563.568117085469,695.524681321058,764.510859255183,852.518357529101,1000.94274216971,756.993676208043,1036.43188291453,504.475318678942,835.489140744817,347.4816424709,599.057257830286,443.006323791957,563.568117085469,695.524681321058,3,6,4,5,3,0,vertical,vertical,vertical,horizontal,horizontal,vertical
1b,24,100236,2,36,100,22,M,NA,constant,heterogeneous,5,absent,1.32008194923401,1,horizontal,horizontal,1,1.01175541877747,red,4,NaN,567.045908301137,496.282156015671,NaN,NaN,927.5,820.836477965032,1049.42763818712,546.982518841471,826.654758133252,346.39691668109,567.045908301137,496.282156015671,629.371695378491,789.501930496736,0,0,6,3,3,4,0,NaN,horizontal,vertical,vertical,horizontal,horizontal,none
1b,24,100236,2,37,101,22,M,NA,constant,heterogeneous,4,present,0.756359100341797,1,horizontal,horizontal,1,1.05881318092346,red,3,2,716.980120613425,358.892763222174,1041.10723677783,516.980120613425,883.019879386575,841.107236777826,1041.10723677783,516.980120613425,716.980120613425,358.892763222174,558.892763222174,683.019879386575,0,0,0,0,3,6,4,6,NaN,NaN,horizontal,vertical,horizontal,vertical,none,none
1b,24,100236,2,38,102,22,M,NA,constant,heterogeneous,5,present,1.64786005020142,1,vertical,vertical,1,0.6,red,2,5,1049.42763818712,653.017481158529,567.045908301137,703.717843984329,826.654758133252,853.60308331891,1049.42763818712,653.017481158529,927.5,379.163522034968,629.371695378491,410.498069503264,567.045908301137,703.717843984329,0,0,3,4,5,0,6,NaN,horizontal,vertical,horizontal,horizontal,vertical,none
1b,24,100236,2,39,103,22,M,NA,constant,heterogeneous,4,absent,0.683848857879639,1,vertical,vertical,1,0.952933216094971,red,3,NaN,777.775285599347,345.970351986605,NaN,NaN,822.224714400653,854.029648013395,1054.0296480134,577.775285599347,777.775285599347,345.970351986605,545.970351986605,622.224714400653,0,0,0,0,6,0,4,3,NaN,NaN,horizontal,vertical,vertical,horizontal,none,none
1b,24,100236,2,40,104,22,M,NA,constant,heterogeneous,5,present,0.887579917907715,1,horizontal,horizontal,1,0.894111013412476,red,3,5,963.910840470068,404.658667004661,552.574589799621,661.690083377915,782.212099195248,854.378832816255,1036.43188291453,695.524681321058,963.910840470068,404.658667004661,664.870587620533,383.747735480111,552.574589799621,661.690083377915,0,0,0,3,4,6,3,NaN,horizontal,horizontal,horizontal,vertical,horizontal,none
1b,24,100236,2,41,105,22,M,NA,constant,heterogeneous,5,absent,NaN,0,horizontal,none,0,0.71764440536499,red,1,NaN,768.923317431687,853.099268668537,NaN,NaN,768.923317431687,853.099268668537,1031.10848569435,707.767656743878,973.909581815937,413.504806087112,676.373546837184,376.971974679454,549.685068220846,648.656293821019,0,0,4,6,5,3,0,NaN,horizontal,vertical,vertical,horizontal,horizontal,none
1b,24,100236,2,42,106,22,M,NA,constant,heterogeneous,6,present,0.989434957504272,1,vertical,vertical,1,0.658822202682495,red,6,3,632.704947607421,792.450942956807,967.295052392579,407.549057043193,883.019879386575,841.107236777826,1050.31493177915,648.656293821019,967.295052392579,407.549057043193,716.980120613425,358.892763222174,549.685068220846,551.343706178981,632.704947607421,792.450942956807,5,6,3,0,6,4,vertical,horizontal,vertical,horizontal,vertical,vertical
1b,24,100236,2,43,107,22,M,NA,constant,heterogeneous,6,absent,1.43419003486633,1,horizontal,horizontal,1,0.635293321609497,red,3,NaN,953.462830903772,396.34794493794,NaN,NaN,899.636437764765,834.728737630372,1053.09926866854,631.076682568313,953.462830903772,396.34794493794,700.363562235235,365.271262369628,546.900731331463,568.923317431687,646.537169096228,803.65205506206,5,6,4,3,0,0,horizontal,vertical,horizontal,horizontal,vertical,vertical
1b,24,100236,2,44,108,22,M,NA,constant,heterogeneous,3,absent,0.612099170684814,1,vertical,vertical,1,0.847053251266479,red,2,NaN,817.787900804752,345.621167183745,NaN,NaN,1011.40458100154,742.594190385041,817.787900804752,345.621167183745,570.807518193712,711.784642431215,0,0,0,0,0,0,5,4,6,NaN,NaN,NaN,horizontal,vertical,vertical,none,none,none
1b,24,100236,2,45,109,22,M,NA,constant,heterogeneous,3,present,0.783720016479492,1,horizontal,horizontal,1,0.96469765663147,red,1,3,899.636437764765,834.728737630372,546.900731331463,568.923317431687,899.636437764765,834.728737630372,953.462830903772,396.34794493794,546.900731331463,568.923317431687,0,0,0,0,0,0,4,0,5,NaN,NaN,NaN,horizontal,horizontal,horizontal,none,none,none
1b,24,100236,2,46,110,22,M,NA,constant,heterogeneous,6,absent,1.21401500701904,1,vertical,vertical,1,0.71764440536499,red,1,NaN,853.017481158529,849.42763818712,NaN,NaN,853.017481158529,849.42763818712,1042.51941165526,678.799333565612,989.501930496736,429.371695378491,746.982518841471,350.57236181288,557.480588344736,521.200666434388,610.498069503264,770.628304621509,4,0,5,6,5,3,vertical,vertical,horizontal,vertical,vertical,vertical
1b,24,100236,2,47,111,22,M,NA,constant,heterogeneous,4,present,0.704140186309814,1,horizontal,horizontal,1,1.09410650253296,red,3,1,935.129412379467,383.747735480111,664.870587620533,816.252264519889,664.870587620533,816.252264519889,1016.25226451989,735.129412379467,935.129412379467,383.747735480111,583.747735480111,464.870587620533,0,0,0,0,5,6,4,5,NaN,NaN,horizontal,vertical,horizontal,horizontal,none,none
1b,24,100236,2,48,112,22,M,NA,constant,heterogeneous,5,present,1.21921491622925,1,vertical,vertical,1,0.623528881072998,red,2,1,1036.43188291453,695.524681321058,782.212099195248,854.378832816255,782.212099195248,854.378832816255,1036.43188291453,695.524681321058,963.910840470068,404.658667004661,664.870587620533,383.747735480111,552.574589799621,661.690083377915,0,0,0,4,0,5,3,NaN,horizontal,vertical,horizontal,horizontal,horizontal,none
1b,24,100236,2,49,113,22,M,NA,constant,heterogeneous,6,present,NaN,0,horizontal,none,0,0.905875453948975,red,2,5,946.261991269517,808.883771293693,653.738008730483,391.116228706307,692.232343256122,831.108485694346,946.261991269517,808.883771293693,1054.0296480134,577.775285599347,907.767656743878,368.891514305654,653.738008730483,391.116228706307,545.970351986605,622.224714400653,3,4,5,5,0,3,horizontal,horizontal,vertical,horizontal,horizontal,horizontal
1b,24,100236,2,50,114,22,M,NA,constant,heterogeneous,5,present,1.07722306251526,1,vertical,vertical,1,0.752937726974487,red,2,5,1053.09926866854,568.923317431687,613.504806087112,773.909581815937,907.767656743878,831.108485694346,1053.09926866854,568.923317431687,848.656293821019,349.685068220846,576.971974679454,476.373546837184,613.504806087112,773.909581815937,0,0,0,4,5,6,3,NaN,vertical,vertical,horizontal,vertical,horizontal,none
1b,24,100236,2,51,115,22,M,NA,constant,heterogeneous,4,absent,1.47911405563354,1,horizontal,horizontal,1,0.611764440536499,red,3,NaN,636.089159529932,404.658667004661,NaN,NaN,963.910840470068,795.341332995339,995.341332995339,436.089159529932,636.089159529932,404.658667004661,604.658667004661,763.910840470068,0,0,0,0,5,6,4,3,NaN,NaN,vertical,horizontal,horizontal,horizontal,none,none
1b,24,100236,2,52,116,22,M,NA,constant,heterogeneous,6,present,1.46033596992493,1,horizontal,horizontal,1,0.776466608047485,red,5,6,588.595418998464,457.40580961496,570.807518193712,711.784642431215,782.212099195248,854.378832816255,1011.40458100154,742.594190385041,1029.19248180629,488.215357568785,817.787900804752,345.621167183745,588.595418998464,457.40580961496,570.807518193712,711.784642431215,6,5,3,6,4,3,vertical,vertical,vertical,horizontal,horizontal,horizontal
1b,24,100236,2,53,117,22,M,NA,constant,heterogeneous,3,absent,1.31310415267944,1,horizontal,horizontal,1,0.96469765663147,red,2,NaN,1043.85771277057,674.554784704298,NaN,NaN,613.504806087112,773.909581815937,1043.85771277057,674.554784704298,742.637481142314,351.535633479765,0,0,0,0,0,0,6,4,0,NaN,NaN,NaN,vertical,horizontal,horizontal,none,none,none
1b,24,100236,2,54,118,22,M,NA,constant,heterogeneous,6,present,1.43923497200012,1,horizontal,horizontal,1,0.988226537704468,red,4,5,721.200666434388,357.480588344736,550.57236181288,546.982518841471,878.799333565612,842.519411655264,1049.42763818712,653.017481158529,970.628304621509,410.498069503264,721.200666434388,357.480588344736,550.57236181288,546.982518841471,629.371695378491,789.501930496736,5,0,6,4,6,3,vertical,horizontal,horizontal,horizontal,vertical,horizontal
1b,24,100236,2,55,119,22,M,NA,constant,heterogeneous,6,absent,1.76215815544128,1,vertical,vertical,1,0.694115524291992,red,5,NaN,593.700666434388,450.114760665419,NaN,NaN,773.345241866748,853.60308331891,1006.29933356561,749.885239334581,1032.95409169886,496.282156015671,826.654758133252,346.39691668109,593.700666434388,450.114760665419,567.045908301137,703.717843984329,6,0,5,3,4,5,horizontal,vertical,horizontal,vertical,vertical,vertical
1b,24,100236,2,56,120,22,M,NA,constant,heterogeneous,5,absent,0.622822046279907,1,vertical,vertical,1,0.670586643218994,red,4,NaN,622.862115532956,416.568350913644,NaN,NaN,835.489140744817,852.518357529101,1051.12597701811,644.280285305067,919.715248510402,374.848363820974,622.862115532956,416.568350913644,570.807518193712,711.784642431215,0,0,5,6,3,4,0,NaN,horizontal,vertical,vertical,vertical,vertical,none
1b,24,100236,2,57,121,22,M,NA,constant,heterogeneous,4,absent,1.59765911102295,1,horizontal,horizontal,1,1.09410650253296,red,4,NaN,568.891514305654,492.232343256122,NaN,NaN,692.232343256122,831.108485694346,1031.10848569435,707.767656743878,907.767656743878,368.891514305654,568.891514305654,492.232343256122,0,0,0,0,6,0,5,4,NaN,NaN,vertical,horizontal,horizontal,horizontal,none,none
1b,24,100236,2,58,122,22,M,NA,constant,heterogeneous,3,absent,1.08585500717163,1,horizontal,horizontal,1,1.02351985931396,red,1,NaN,704.475318678942,836.431882914531,NaN,NaN,704.475318678942,836.431882914531,1052.5183575291,564.510859255183,643.006323791957,399.057257830286,0,0,0,0,0,0,4,6,6,NaN,NaN,NaN,horizontal,horizontal,vertical,none,none,none
1b,24,100236,2,59,123,22,M,NA,constant,heterogeneous,6,absent,1.00988912582397,0,vertical,horizontal,1,0.694115524291992,red,5,NaN,545.970351986605,577.775285599347,NaN,NaN,907.767656743878,831.108485694346,1054.0296480134,622.224714400653,946.261991269517,391.116228706307,692.232343256122,368.891514305654,545.970351986605,577.775285599347,653.738008730483,808.883771293693,3,6,5,0,4,0,horizontal,horizontal,horizontal,vertical,vertical,horizontal
1b,24,100236,2,60,124,22,M,NA,constant,heterogeneous,5,present,1.30566906929016,1,vertical,vertical,1,0.788231048583984,red,2,5,1053.09926866854,631.076682568313,576.971974679454,723.626453162816,848.656293821019,850.314931779154,1053.09926866854,631.076682568313,907.767656743878,368.891514305654,613.504806087112,426.090418184063,576.971974679454,723.626453162816,0,0,6,4,5,0,0,NaN,horizontal,vertical,horizontal,vertical,horizontal,none
1b,24,100236,2,61,125,22,M,NA,constant,heterogeneous,3,absent,0.936910152435303,1,horizontal,horizontal,1,0.635293321609497,red,3,NaN,591.116228706307,453.738008730483,NaN,NaN,777.775285599347,854.029648013395,1031.10848569435,492.232343256122,591.116228706307,453.738008730483,0,0,0,0,0,0,3,5,4,NaN,NaN,NaN,horizontal,vertical,horizontal,none,none,none
1b,24,100236,2,62,126,22,M,NA,constant,heterogeneous,5,absent,1.67886686325073,1,vertical,vertical,1,0.764702167510986,red,5,NaN,548.874022981887,644.280285305067,NaN,NaN,764.510859255183,852.518357529101,1029.19248180629,711.784642431215,977.137884467044,416.568350913644,680.284751489598,374.848363820974,548.874022981887,644.280285305067,0,0,5,0,0,6,4,NaN,horizontal,vertical,vertical,horizontal,vertical,none
1b,24,100236,2,63,127,22,M,NA,constant,heterogeneous,3,present,0.634013891220093,0,vertical,horizontal,1,0.658822202682495,red,2,3,1038.06300875679,691.383827134052,760.109211414741,348.13947314824,601.827779828472,760.476699717708,1038.06300875679,691.383827134052,760.109211414741,348.13947314824,0,0,0,0,0,0,0,4,6,NaN,NaN,NaN,horizontal,vertical,vertical,none,none,none
1b,24,100236,2,64,128,22,M,NA,constant,heterogeneous,3,absent,1.29182910919189,1,horizontal,horizontal,1,0.647057762145996,red,1,NaN,755.719714694933,851.125977018113,NaN,NaN,755.719714694933,851.125977018113,1039.62161830041,512.784863451954,604.658667004661,436.089159529932,0,0,0,0,0,0,4,6,3,NaN,NaN,NaN,horizontal,horizontal,horizontal,none,none,none
1b,24,100236,3,1,129,22,M,NA,constant,heterogeneous,5,absent,1.67917799949646,1,horizontal,horizontal,1,1.09410650253296,red,2,NaN,986.495193912888,773.909581815937,NaN,NaN,692.232343256122,831.108485694346,986.495193912888,773.909581815937,1023.02802532055,476.373546837184,751.343706178981,349.685068220846,546.900731331463,568.923317431687,0,0,6,4,5,3,6,NaN,horizontal,horizontal,horizontal,horizontal,vertical,none
1b,24,100236,3,2,130,22,M,NA,constant,heterogeneous,4,present,0.985372066497803,1,vertical,vertical,1,0.835288810729981,red,2,4,1053.60308331891,626.654758133252,546.39691668109,573.345241866748,773.345241866748,853.60308331891,1053.60308331891,626.654758133252,826.654758133252,346.39691668109,546.39691668109,573.345241866748,0,0,0,0,3,4,5,0,NaN,NaN,vertical,vertical,horizontal,horizontal,none,none
1b,24,100236,3,3,131,22,M,NA,constant,heterogeneous,5,absent,0.695624113082886,1,vertical,vertical,1,0.917639894485474,red,5,NaN,576.971974679454,723.626453162816,NaN,NaN,848.656293821019,850.314931779154,1053.09926866854,631.076682568313,907.767656743878,368.891514305654,613.504806087112,426.090418184063,576.971974679454,723.626453162816,0,0,6,3,5,5,4,NaN,vertical,vertical,horizontal,horizontal,vertical,none
1b,24,100236,3,4,132,22,M,NA,constant,heterogeneous,4,present,0.732960939407349,1,horizontal,horizontal,1,0.952933216094971,red,3,1,622.862115532956,416.568350913644,977.137884467044,783.431649086356,977.137884467044,783.431649086356,983.431649086356,422.862115532956,622.862115532956,416.568350913644,616.568350913644,777.137884467044,0,0,0,0,6,0,4,0,NaN,NaN,horizontal,vertical,horizontal,horizontal,none,none
1b,24,100236,3,5,133,22,M,NA,constant,heterogeneous,5,absent,0.881670951843262,1,horizontal,horizontal,1,1.09410650253296,red,1,NaN,676.373546837184,823.028025320546,NaN,NaN,676.373546837184,823.028025320546,973.909581815937,786.495193912888,1031.10848569435,492.232343256122,768.923317431687,346.900731331463,549.685068220846,551.343706178981,0,0,4,6,0,0,5,NaN,horizontal,horizontal,horizontal,horizontal,horizontal,none
1b,24,100236,3,6,134,22,M,NA,constant,heterogeneous,4,absent,1.52916312217712,1,horizontal,horizontal,1,1.08234206199646,red,1,NaN,653.738008730483,808.883771293693,NaN,NaN,653.738008730483,808.883771293693,1008.88377129369,746.261991269517,946.261991269517,391.116228706307,591.116228706307,453.738008730483,0,0,0,0,4,5,6,3,NaN,NaN,horizontal,horizontal,vertical,vertical,none,none
1b,24,100236,3,7,135,22,M,NA,constant,heterogeneous,6,present,1.31282305717468,1,vertical,vertical,1,0.835288810729981,red,3,4,1029.19248180629,488.215357568785,817.787900804752,345.621167183745,782.212099195248,854.378832816255,1011.40458100154,742.594190385041,1029.19248180629,488.215357568785,817.787900804752,345.621167183745,588.595418998464,457.40580961496,570.807518193712,711.784642431215,6,6,4,5,0,3,horizontal,horizontal,vertical,horizontal,horizontal,horizontal
1b,24,100236,3,8,136,22,M,NA,constant,heterogeneous,5,present,1.69403576850891,1,horizontal,horizontal,1,0.941168775558472,red,5,3,586.139005173917,738.882953928832,891.383827134052,361.936991243214,865.998856501143,846.311085703712,1054.65053136242,613.345668841951,891.383827134052,361.936991243214,601.827779828472,439.523300282291,586.139005173917,738.882953928832,0,0,6,0,0,6,4,NaN,vertical,vertical,vertical,vertical,horizontal,none
1b,24,100236,3,9,137,22,M,NA,constant,heterogeneous,4,absent,0.738306045532227,1,vertical,vertical,1,0.705879964828491,red,2,NaN,1032.95409169886,496.282156015671,NaN,NaN,903.717843984329,832.954091698863,1032.95409169886,496.282156015671,696.282156015671,367.045908301137,567.045908301137,703.717843984329,0,0,0,0,6,4,5,3,NaN,NaN,vertical,vertical,horizontal,vertical,none,none
1b,24,100236,3,10,138,22,M,NA,constant,heterogeneous,5,present,1.01705384254456,1,vertical,vertical,1,0.788231048583984,red,1,4,764.510859255183,852.518357529101,680.284751489598,374.848363820974,764.510859255183,852.518357529101,1029.19248180629,711.784642431215,977.137884467044,416.568350913644,680.284751489598,374.848363820974,548.874022981887,644.280285305067,0,0,4,6,3,5,6,NaN,vertical,horizontal,vertical,vertical,horizontal,none
1b,24,100236,3,11,139,22,M,NA,constant,heterogeneous,5,present,1.64991521835327,1,horizontal,horizontal,1,0.823524370193481,red,5,4,545.970351986605,622.224714400653,700.363562235235,365.271262369628,742.637481142314,848.464366520235,1018.57766167904,731.334709102064,992.450942956807,432.704947607421,700.363562235235,365.271262369628,545.970351986605,622.224714400653,0,0,6,5,3,3,4,NaN,vertical,horizontal,vertical,horizontal,horizontal,none
1b,24,100236,3,12,140,22,M,NA,constant,heterogeneous,3,present,0.87863302230835,1,horizontal,horizontal,1,0.776466608047485,red,2,1,1016.25226451989,464.870587620533,808.899371659138,854.844660889869,808.899371659138,854.844660889869,1016.25226451989,464.870587620533,574.848363820974,480.284751489598,0,0,0,0,0,0,0,4,5,NaN,NaN,NaN,vertical,horizontal,vertical,none,none,none
1b,24,100236,3,13,141,22,M,NA,constant,heterogeneous,5,absent,1.15251898765564,1,vertical,vertical,1,0.811759929656982,red,2,NaN,1049.42763818712,546.982518841471,NaN,NaN,927.5,820.836477965032,1049.42763818712,546.982518841471,826.654758133252,346.39691668109,567.045908301137,496.282156015671,629.371695378491,789.501930496736,0,0,0,4,0,3,3,NaN,vertical,vertical,horizontal,vertical,vertical,none
1b,24,100236,3,14,142,22,M,NA,constant,heterogeneous,6,absent,1.49232006072998,1,vertical,vertical,1,0.623528881072998,red,4,NaN,680.284751489598,374.848363820974,NaN,NaN,919.715248510402,825.151636179026,1054.84466088987,608.899371659138,935.129412379467,383.747735480111,680.284751489598,374.848363820974,545.155339110131,591.100628340862,664.870587620533,816.252264519889,3,0,3,4,6,0,horizontal,horizontal,vertical,vertical,vertical,vertical
1b,24,100236,3,15,143,22,M,NA,constant,heterogeneous,4,absent,1.12502598762512,1,horizontal,horizontal,1,0.729408845901489,red,2,NaN,1000.94274216971,443.006323791957,NaN,NaN,956.993676208043,800.942742169714,1000.94274216971,443.006323791957,643.006323791957,399.057257830286,599.057257830286,756.993676208043,0,0,0,0,5,4,3,6,NaN,NaN,vertical,horizontal,vertical,horizontal,none,none
1b,24,100236,3,16,144,22,M,NA,constant,heterogeneous,3,absent,0.589265108108521,1,vertical,vertical,1,0.894111013412476,red,2,NaN,1034.72873763037,500.363562235235,NaN,NaN,768.923317431687,853.099268668537,1034.72873763037,500.363562235235,596.34794493794,446.537169096228,0,0,0,0,0,0,0,4,6,NaN,NaN,NaN,vertical,vertical,horizontal,none,none,none
1b,24,100236,3,17,145,22,M,NA,constant,heterogeneous,3,absent,0.775308847427368,1,vertical,vertical,1,0.894111013412476,red,3,NaN,545.155339110131,608.899371659138,NaN,NaN,935.129412379467,816.252264519889,919.715248510402,374.848363820974,545.155339110131,608.899371659138,0,0,0,0,0,0,6,0,4,NaN,NaN,NaN,vertical,horizontal,vertical,none,none,none
1b,24,100236,3,18,146,22,M,NA,constant,heterogeneous,4,present,1.72392201423645,1,horizontal,horizontal,1,1.04704874038696,red,3,2,935.129412379467,383.747735480111,1016.25226451989,735.129412379467,664.870587620533,816.252264519889,1016.25226451989,735.129412379467,935.129412379467,383.747735480111,583.747735480111,464.870587620533,0,0,0,0,5,5,4,3,NaN,NaN,vertical,vertical,horizontal,vertical,none,none
1b,24,100236,3,19,147,22,M,NA,constant,heterogeneous,5,present,0.914110898971558,1,vertical,vertical,1,0.776466608047485,red,1,2,808.899371659138,854.844660889869,1045.12173246427,670.287525733335,808.899371659138,854.844660889869,1045.12173246427,670.287525733335,942.594190385041,388.595418998464,643.006323791957,399.057257830286,560.378381699593,687.215136548046,0,0,4,0,5,5,3,NaN,vertical,horizontal,horizontal,horizontal,vertical,none
1b,24,100236,3,20,148,22,M,NA,constant,heterogeneous,5,present,1.07619285583496,1,horizontal,horizontal,1,0.776466608047485,red,4,5,626.090418184063,413.504806087112,568.891514305654,707.767656743878,831.076682568313,853.099268668537,1050.31493177915,648.656293821019,923.626453162816,376.971974679454,626.090418184063,413.504806087112,568.891514305654,707.767656743878,0,0,0,5,6,4,0,NaN,vertical,horizontal,vertical,horizontal,vertical,none
1b,24,100236,3,21,149,22,M,NA,constant,heterogeneous,6,absent,1.62996816635132,1,horizontal,horizontal,1,0.811759929656982,red,5,NaN,546.900731331463,568.923317431687,NaN,NaN,899.636437764765,834.728737630372,1053.09926866854,631.076682568313,953.462830903772,396.34794493794,700.363562235235,365.271262369628,546.900731331463,568.923317431687,646.537169096228,803.65205506206,5,6,3,0,4,3,vertical,horizontal,horizontal,horizontal,horizontal,vertical
1b,24,100236,3,22,150,22,M,NA,constant,heterogeneous,6,present,0.648189067840576,1,horizontal,horizontal,1,0.882346572875977,red,5,4,557.480588344736,521.200666434388,746.982518841471,350.57236181288,853.017481158529,849.42763818712,1042.51941165526,678.799333565612,989.501930496736,429.371695378491,746.982518841471,350.57236181288,557.480588344736,521.200666434388,610.498069503264,770.628304621509,6,6,5,0,4,3,vertical,vertical,vertical,vertical,horizontal,vertical
1b,24,100236,3,23,151,22,M,NA,constant,heterogeneous,3,absent,0.749489068984985,1,horizontal,horizontal,1,0.999990978240967,red,2,NaN,844.280285305067,348.874022981887,NaN,NaN,995.341332995339,763.910840470068,844.280285305067,348.874022981887,560.378381699593,687.215136548046,0,0,0,0,0,0,6,4,0,NaN,NaN,NaN,vertical,horizontal,horizontal,none,none,none
1b,24,100236,3,24,152,22,M,NA,constant,heterogeneous,3,present,1.18624114990234,1,horizontal,horizontal,1,1.08234206199646,red,3,1,622.862115532956,416.568350913644,729.712474266665,845.121732464271,729.712474266665,845.121732464271,1047.42541020038,538.309916622085,622.862115532956,416.568350913644,0,0,0,0,0,0,6,5,4,NaN,NaN,NaN,horizontal,vertical,horizontal,none,none,none
1b,24,100236,3,25,153,22,M,NA,constant,heterogeneous,3,present,0.615898132324219,1,horizontal,horizontal,1,1.09410650253296,red,3,1,742.637481142314,351.535633479765,613.504806087112,773.909581815937,613.504806087112,773.909581815937,1043.85771277057,674.554784704298,742.637481142314,351.535633479765,0,0,0,0,0,0,5,0,4,NaN,NaN,NaN,horizontal,horizontal,horizontal,none,none,none
1b,24,100236,3,26,154,22,M,NA,constant,heterogeneous,4,present,0.646600961685181,1,vertical,vertical,1,0.705879964828491,red,3,1,931.334709102064,381.422338320961,668.665290897936,818.577661679039,668.665290897936,818.577661679039,1018.57766167904,731.334709102064,931.334709102064,381.422338320961,581.422338320961,468.665290897936,0,0,0,0,5,3,4,0,NaN,NaN,vertical,horizontal,vertical,horizontal,none,none
1b,24,100236,3,27,155,22,M,NA,constant,heterogeneous,3,present,0.95296311378479,1,vertical,vertical,1,0.858817691802979,red,3,1,557.480588344736,521.200666434388,853.017481158529,849.42763818712,853.017481158529,849.42763818712,989.501930496736,429.371695378491,557.480588344736,521.200666434388,0,0,0,0,0,0,6,6,4,NaN,NaN,NaN,vertical,vertical,vertical,none,none,none
1b,24,100236,3,28,156,22,M,NA,constant,heterogeneous,5,absent,1.28940391540527,1,horizontal,horizontal,1,0.858817691802979,red,5,NaN,646.537169096228,803.65205506206,NaN,NaN,946.261991269517,808.883771293693,1043.85771277057,525.445215295702,804.450363641507,345.03883773512,558.892763222174,516.980120613425,646.537169096228,803.65205506206,0,0,0,5,6,0,4,NaN,horizontal,vertical,horizontal,horizontal,horizontal,none
1b,24,100236,3,29,157,22,M,NA,constant,heterogeneous,6,present,1.37674188613892,1,vertical,vertical,1,0.858817691802979,red,5,1,551.535633479765,542.637481142314,874.554784704298,843.857712770574,874.554784704298,843.857712770574,1048.46436652023,657.362518857686,973.909581815937,413.504806087112,725.445215295702,356.142287229426,551.535633479765,542.637481142314,626.090418184063,786.495193912888,0,6,3,6,4,0,horizontal,horizontal,vertical,vertical,vertical,vertical
1b,24,100236,3,30,158,22,M,NA,constant,heterogeneous,5,present,0.590220928192139,1,vertical,vertical,1,1.09410650253296,red,4,5,676.373546837184,376.971974679454,549.685068220846,648.656293821019,768.923317431687,853.099268668537,1031.10848569435,707.767656743878,973.909581815937,413.504806087112,676.373546837184,376.971974679454,549.685068220846,648.656293821019,0,0,5,3,5,4,6,NaN,vertical,vertical,horizontal,vertical,vertical,none
1b,24,100236,3,31,159,22,M,NA,constant,heterogeneous,3,present,0.579872131347656,1,vertical,vertical,1,0.882346572875977,red,3,1,593.700666434388,450.114760665419,773.345241866748,853.60308331891,773.345241866748,853.60308331891,1032.95409169886,496.282156015671,593.700666434388,450.114760665419,0,0,0,0,0,0,5,3,4,NaN,NaN,NaN,vertical,horizontal,vertical,none,none,none
1b,24,100236,3,32,160,22,M,NA,constant,heterogeneous,3,present,1.01479315757751,1,vertical,vertical,1,0.752937726974487,red,2,1,1051.12597701811,644.280285305067,636.089159529932,795.341332995339,636.089159529932,795.341332995339,1051.12597701811,644.280285305067,712.784863451954,360.378381699593,0,0,0,0,0,0,6,4,0,NaN,NaN,NaN,vertical,vertical,vertical,none,none,none
1b,24,100236,3,33,161,22,M,NA,constant,heterogeneous,4,absent,0.654364824295044,1,vertical,vertical,1,0.952933216094971,red,4,NaN,558.892763222174,516.980120613425,NaN,NaN,716.980120613425,841.107236777826,1041.10723677783,683.019879386575,883.019879386575,358.892763222174,558.892763222174,516.980120613425,0,0,0,0,0,6,5,4,NaN,NaN,horizontal,vertical,horizontal,vertical,none,none
1b,24,100236,3,34,162,22,M,NA,constant,heterogeneous,4,absent,0.923611879348755,1,horizontal,horizontal,1,0.799995489120483,red,4,NaN,545.621167183745,617.787900804752,NaN,NaN,817.787900804752,854.378832816255,1054.37883281626,582.212099195248,782.212099195248,345.621167183745,545.621167183745,617.787900804752,0,0,0,0,5,3,0,4,NaN,NaN,horizontal,vertical,vertical,horizontal,none,none
1b,24,100236,3,35,163,22,M,NA,constant,heterogeneous,4,absent,0.827394008636475,1,vertical,vertical,1,1.07057762145996,red,2,NaN,1046.31108570371,534.001143498857,NaN,NaN,865.998856501143,846.311085703712,1046.31108570371,534.001143498857,734.001143498857,353.688914296288,553.688914296288,665.998856501143,0,0,0,0,6,4,5,0,NaN,NaN,horizontal,vertical,vertical,horizontal,none,none
1b,24,100236,3,36,164,22,M,NA,constant,heterogeneous,6,absent,0.937206029891968,1,horizontal,horizontal,1,0.847053251266479,red,4,NaN,878.799333565612,357.480588344736,NaN,NaN,721.200666434388,842.519411655264,970.628304621509,789.501930496736,1049.42763818712,546.982518841471,878.799333565612,357.480588344736,629.371695378491,410.498069503264,550.57236181288,653.017481158529,6,3,6,4,0,0,horizontal,vertical,vertical,horizontal,vertical,horizontal
1b,24,100236,3,37,165,22,M,NA,constant,heterogeneous,6,present,0.535979986190796,1,vertical,vertical,1,1.01175541877747,red,4,3,891.383827134052,361.936991243214,1051.86052685176,560.109211414741,708.616172865948,838.063008756786,960.476699717708,798.172220171528,1051.86052685176,560.109211414741,891.383827134052,361.936991243214,639.523300282292,401.827779828472,548.13947314824,639.890788585259,5,0,0,4,3,6,vertical,vertical,vertical,vertical,horizontal,horizontal
1b,24,100236,3,38,166,22,M,NA,constant,heterogeneous,6,absent,0.8973388671875,1,vertical,vertical,1,0.905875453948975,red,4,NaN,813.345668841951,345.349468637584,NaN,NaN,786.654331158049,854.650531362416,1013.86099482608,738.882953928832,1027.20666366803,484.232422566416,813.345668841951,345.349468637584,586.139005173917,461.117046071168,572.793336331966,715.767577433584,0,5,5,4,3,3,horizontal,horizontal,vertical,vertical,horizontal,horizontal
1b,24,100236,3,39,167,22,M,NA,constant,heterogeneous,3,absent,1.98728799819946,1,horizontal,horizontal,1,0.788231048583984,red,2,NaN,1031.10848569435,707.767656743878,NaN,NaN,591.116228706307,746.261991269517,1031.10848569435,707.767656743878,777.775285599347,345.970351986605,0,0,0,0,0,0,3,4,0,NaN,NaN,NaN,horizontal,horizontal,vertical,none,none,none
1b,24,100236,3,40,168,22,M,NA,constant,heterogeneous,6,present,1.33821797370911,1,horizontal,horizontal,1,0.952933216094971,red,1,5,861.690083377915,847.425410200379,554.878267535729,529.712474266665,861.690083377915,847.425410200379,1045.12173246427,670.287525733335,983.431649086356,422.862115532956,738.309916622085,352.574589799621,554.878267535729,529.712474266665,616.568350913644,777.137884467044,4,0,5,6,6,3,horizontal,vertical,horizontal,vertical,horizontal,vertical
1b,24,100236,3,41,169,22,M,NA,constant,heterogeneous,3,absent,1.02540397644043,1,vertical,vertical,1,0.811759929656982,red,2,NaN,1023.02802532055,723.626453162816,NaN,NaN,581.422338320961,731.334709102064,1023.02802532055,723.626453162816,795.549636358493,345.03883773512,0,0,0,0,0,0,5,4,3,NaN,NaN,NaN,horizontal,vertical,vertical,none,none,none
1b,24,100236,3,42,170,22,M,NA,constant,heterogeneous,3,present,0.922706842422485,1,vertical,vertical,1,1.03528429985046,red,1,3,931.334709102064,818.577661679039,545.03883773512,604.450363641507,931.334709102064,818.577661679039,923.626453162816,376.971974679454,545.03883773512,604.450363641507,0,0,0,0,0,0,4,3,0,NaN,NaN,NaN,vertical,horizontal,horizontal,none,none,none
1b,24,100236,3,43,171,22,M,NA,constant,heterogeneous,5,absent,1.81252098083496,1,horizontal,horizontal,1,0.741173286437988,red,1,NaN,870.287525733335,845.121732464271,NaN,NaN,870.287525733335,845.121732464271,1054.84466088987,608.899371659138,887.215136548046,360.378381699593,599.057257830286,443.006323791957,588.595418998464,742.594190385041,0,0,4,3,0,3,6,NaN,horizontal,vertical,vertical,vertical,vertical,none
1b,24,100236,3,44,172,22,M,NA,constant,heterogeneous,5,present,0.703816890716553,1,horizontal,horizontal,1,0.741173286437988,red,3,4,1011.40458100154,457.40580961496,729.712474266665,354.878267535729,712.784863451954,839.621618300407,1000.94274216971,756.993676208043,1011.40458100154,457.40580961496,729.712474266665,354.878267535729,545.155339110131,591.100628340862,0,0,3,5,4,6,6,NaN,horizontal,vertical,horizontal,horizontal,horizontal,none
1b,24,100236,3,45,173,22,M,NA,constant,heterogeneous,6,absent,1.36100792884827,1,vertical,vertical,1,0.764702167510986,red,1,NaN,874.554784704298,843.857712770574,NaN,NaN,874.554784704298,843.857712770574,1048.46436652023,657.362518857686,973.909581815937,413.504806087112,725.445215295702,356.142287229426,551.535633479765,542.637481142314,626.090418184063,786.495193912888,4,3,0,3,6,5,vertical,horizontal,horizontal,vertical,horizontal,horizontal
1b,24,100236,3,46,174,22,M,NA,constant,heterogeneous,4,absent,1.30245590209961,1,horizontal,horizontal,1,0.694115524291992,red,2,NaN,1053.09926866854,568.923317431687,NaN,NaN,831.076682568313,853.099268668537,1053.09926866854,568.923317431687,768.923317431687,346.900731331463,546.900731331463,631.076682568313,0,0,0,0,6,4,3,6,NaN,NaN,horizontal,horizontal,vertical,vertical,none,none
1b,24,100236,3,47,175,22,M,NA,constant,heterogeneous,3,absent,1.01111793518066,1,horizontal,horizontal,1,0.729408845901489,red,3,NaN,545.970351986605,622.224714400653,NaN,NaN,946.261991269517,808.883771293693,907.767656743878,368.891514305654,545.970351986605,622.224714400653,0,0,0,0,0,0,5,0,4,NaN,NaN,NaN,horizontal,vertical,horizontal,none,none,none
1b,24,100236,3,48,176,22,M,NA,constant,heterogeneous,6,present,NaN,0,horizontal,none,0,0.647057762145996,red,1,2,800,855,1020.83647796503,727.5,800,855,1020.83647796503,727.5,1020.83647796503,472.5,800,345,579.163522034968,472.5,579.163522034968,727.5,4,6,5,0,6,3,horizontal,horizontal,vertical,horizontal,horizontal,horizontal
1b,24,100236,3,49,177,22,M,NA,constant,heterogeneous,6,present,0.735097885131836,1,horizontal,horizontal,1,0.929404335021973,red,5,6,613.504806087112,426.090418184063,556.142287229426,674.554784704298,742.637481142314,848.464366520235,986.495193912888,773.909581815937,1043.85771277057,525.445215295702,857.362518857686,351.535633479765,613.504806087112,426.090418184063,556.142287229426,674.554784704298,0,3,5,5,4,6,horizontal,horizontal,vertical,horizontal,horizontal,vertical
1b,24,100236,3,50,178,22,M,NA,constant,heterogeneous,6,absent,1.79265809059143,1,vertical,vertical,1,0.729408845901489,red,6,NaN,561.936991243214,691.383827134052,NaN,NaN,760.109211414741,851.86052685176,998.172220171528,760.476699717708,1038.06300875679,508.616172865948,839.890788585259,348.13947314824,601.827779828472,439.523300282291,561.936991243214,691.383827134052,6,0,0,6,3,4,vertical,horizontal,horizontal,vertical,horizontal,vertical
1b,24,100236,3,51,179,22,M,NA,constant,heterogeneous,3,absent,1.37483906745911,1,vertical,vertical,1,0.905875453948975,red,3,NaN,548.874022981887,555.719714694933,NaN,NaN,887.215136548046,839.621618300407,963.910840470068,404.658667004661,548.874022981887,555.719714694933,0,0,0,0,0,0,0,6,4,NaN,NaN,NaN,vertical,horizontal,vertical,none,none,none
1b,24,100236,3,52,180,22,M,NA,constant,heterogeneous,3,absent,0.858194828033447,1,horizontal,horizontal,1,0.788231048583984,red,1,NaN,746.982518841471,849.42763818712,NaN,NaN,746.982518841471,849.42763818712,1042.51941165526,521.200666434388,610.498069503264,429.371695378491,0,0,0,0,0,0,4,6,5,NaN,NaN,NaN,horizontal,horizontal,horizontal,none,none,none
1b,24,100236,3,53,181,22,M,NA,constant,heterogeneous,6,absent,NaN,0,horizontal,none,0,0.976462097167969,red,1,NaN,878.799333565612,842.519411655264,NaN,NaN,878.799333565612,842.519411655264,1049.42763818712,653.017481158529,970.628304621509,410.498069503264,721.200666434388,357.480588344736,550.57236181288,546.982518841471,629.371695378491,789.501930496736,4,5,6,5,0,3,horizontal,horizontal,horizontal,vertical,vertical,horizontal
1b,24,100236,3,54,182,22,M,NA,constant,heterogeneous,5,absent,0.811053991317749,1,vertical,vertical,1,0.764702167510986,red,3,NaN,915.767577433584,372.793336331966,NaN,NaN,839.890788585259,851.86052685176,1051.86052685176,639.890788585259,915.767577433584,372.793336331966,619.68777079743,419.68777079743,572.793336331966,715.767577433584,0,0,3,6,4,5,0,NaN,vertical,vertical,vertical,vertical,vertical,none
1b,24,100236,3,55,183,22,M,NA,constant,heterogeneous,3,present,1.2802050113678,1,horizontal,horizontal,1,1.05881318092346,red,1,3,661.117046071168,813.860994826083,684.232422566416,372.793336331966,661.117046071168,813.860994826083,1054.65053136242,613.345668841951,684.232422566416,372.793336331966,0,0,0,0,0,0,4,3,3,NaN,NaN,NaN,horizontal,horizontal,horizontal,none,none,none
1b,24,100236,3,56,184,22,M,NA,constant,heterogeneous,4,absent,1.05036902427673,1,vertical,vertical,1,0.611764440536499,red,4,NaN,548.13947314824,639.890788585259,NaN,NaN,839.890788585259,851.86052685176,1051.86052685176,560.109211414741,760.109211414741,348.13947314824,548.13947314824,639.890788585259,0,0,0,0,6,3,0,4,NaN,NaN,vertical,horizontal,horizontal,vertical,none,none
1b,24,100236,3,57,185,22,M,NA,constant,heterogeneous,5,absent,0.683979034423828,1,vertical,vertical,1,0.811759929656982,red,4,NaN,688.215357568785,370.807518193712,NaN,NaN,755.719714694933,851.125977018113,1025.15163617903,719.715248510402,983.431649086356,422.862115532956,688.215357568785,370.807518193712,547.481642470899,635.489140744817,0,0,3,0,5,4,0,NaN,horizontal,horizontal,horizontal,vertical,horizontal,none
1b,24,100236,3,58,186,22,M,NA,constant,heterogeneous,6,absent,1.36392688751221,1,horizontal,horizontal,1,0.705879964828491,red,1,NaN,760.109211414741,851.86052685176,NaN,NaN,760.109211414741,851.86052685176,998.172220171528,760.476699717708,1038.06300875679,508.616172865948,839.890788585259,348.13947314824,601.827779828472,439.523300282291,561.936991243214,691.383827134052,4,5,0,3,6,0,horizontal,vertical,horizontal,vertical,horizontal,horizontal
1b,24,100236,3,59,187,22,M,NA,constant,heterogeneous,4,present,0.824143171310425,1,horizontal,horizontal,1,0.635293321609497,red,4,3,579.163522034968,472.5,927.5,379.163522034968,672.5,820.836477965032,1020.83647796503,727.5,927.5,379.163522034968,579.163522034968,472.5,0,0,0,0,5,6,3,4,NaN,NaN,horizontal,vertical,horizontal,horizontal,none,none
1b,24,100236,3,60,188,22,M,NA,constant,heterogeneous,6,present,1.4115879535675,1,vertical,vertical,1,0.929404335021973,red,6,1,581.422338320961,731.334709102064,804.450363641507,854.96116226488,804.450363641507,854.96116226488,1023.02802532055,723.626453162816,1018.57766167904,468.665290897936,795.549636358493,345.03883773512,576.971974679454,476.373546837184,581.422338320961,731.334709102064,3,0,6,0,6,4,vertical,vertical,vertical,horizontal,horizontal,vertical
1b,24,100236,3,61,189,22,M,NA,constant,heterogeneous,4,present,0.828758001327515,1,horizontal,horizontal,1,1.04704874038696,red,4,3,549.685068220846,551.343706178981,848.656293821019,349.685068220846,751.343706178981,850.314931779154,1050.31493177915,648.656293821019,848.656293821019,349.685068220846,549.685068220846,551.343706178981,0,0,0,0,6,6,5,4,NaN,NaN,horizontal,horizontal,vertical,horizontal,none,none
1b,24,100236,3,62,190,22,M,NA,constant,heterogeneous,5,present,1.02233505249023,1,vertical,vertical,1,0.635293321609497,red,1,4,725.445215295702,843.857712770574,716.980120613425,358.892763222174,725.445215295702,843.857712770574,1008.88377129369,746.261991269517,1003.65205506206,446.537169096228,716.980120613425,358.892763222174,545.03883773512,604.450363641507,0,0,4,6,5,3,3,NaN,vertical,vertical,vertical,horizontal,horizontal,none
1b,24,100236,3,63,191,22,M,NA,constant,heterogeneous,4,present,0.981520891189575,1,vertical,vertical,1,0.71764440536499,red,4,1,545.970351986605,577.775285599347,777.775285599347,854.029648013395,777.775285599347,854.029648013395,1054.0296480134,622.224714400653,822.224714400653,345.970351986605,545.970351986605,577.775285599347,0,0,0,0,0,5,6,4,NaN,NaN,vertical,horizontal,vertical,vertical,none,none
1b,24,100236,3,64,192,22,M,NA,constant,heterogeneous,4,present,0.983243942260742,1,vertical,vertical,1,0.705879964828491,red,3,2,734.001143498857,353.688914296288,1046.31108570371,534.001143498857,865.998856501143,846.311085703712,1046.31108570371,534.001143498857,734.001143498857,353.688914296288,553.688914296288,665.998856501143,0,0,0,0,0,5,4,3,NaN,NaN,horizontal,vertical,vertical,vertical,none,none
1b,24,100236,4,1,193,22,M,NA,constant,heterogeneous,5,absent,1.61732220649719,1,horizontal,horizontal,1,0.917639894485474,red,1,NaN,946.261991269517,808.883771293693,NaN,NaN,946.261991269517,808.883771293693,1043.85771277057,525.445215295702,804.450363641507,345.03883773512,558.892763222174,516.980120613425,646.537169096228,803.65205506206,0,0,4,5,6,0,0,NaN,horizontal,horizontal,horizontal,vertical,vertical,none
1b,24,100236,4,2,194,22,M,NA,constant,heterogeneous,3,present,0.607470989227295,1,vertical,vertical,1,1.08234206199646,red,3,2,773.345241866748,346.39691668109,1032.95409169886,703.717843984329,593.700666434388,749.885239334581,1032.95409169886,703.717843984329,773.345241866748,346.39691668109,0,0,0,0,0,0,6,5,4,NaN,NaN,NaN,vertical,vertical,vertical,none,none,none
1b,24,100236,4,3,195,22,M,NA,constant,heterogeneous,5,absent,0.849807977676392,1,horizontal,horizontal,1,0.905875453948975,red,3,NaN,946.261991269517,391.116228706307,NaN,NaN,804.450363641507,854.96116226488,1043.85771277057,674.554784704298,946.261991269517,391.116228706307,646.537169096228,396.34794493794,558.892763222174,683.019879386575,0,0,6,0,4,5,0,NaN,horizontal,horizontal,horizontal,vertical,vertical,none
1b,24,100236,4,4,196,22,M,NA,constant,heterogeneous,6,present,1.59186291694641,1,horizontal,horizontal,1,0.847053251266479,red,5,3,616.568350913644,422.862115532956,1045.12173246427,529.712474266665,738.309916622085,847.425410200379,983.431649086356,777.137884467044,1045.12173246427,529.712474266665,861.690083377915,352.574589799621,616.568350913644,422.862115532956,554.878267535729,670.287525733335,3,6,3,5,4,5,horizontal,vertical,horizontal,horizontal,horizontal,horizontal
1b,24,100236,4,5,197,22,M,NA,constant,heterogeneous,4,absent,1.63397908210754,1,horizontal,horizontal,1,1.09410650253296,red,1,NaN,883.019879386575,841.107236777826,NaN,NaN,883.019879386575,841.107236777826,1041.10723677783,516.980120613425,716.980120613425,358.892763222174,558.892763222174,683.019879386575,0,0,0,0,4,3,0,6,NaN,NaN,horizontal,horizontal,vertical,vertical,none,none
1b,24,100236,4,6,198,22,M,NA,constant,heterogeneous,4,present,1.40810298919678,1,horizontal,horizontal,1,1.05881318092346,red,2,1,1051.86052685176,560.109211414741,839.890788585259,851.86052685176,839.890788585259,851.86052685176,1051.86052685176,560.109211414741,760.109211414741,348.13947314824,548.13947314824,639.890788585259,0,0,0,0,5,4,3,6,NaN,NaN,vertical,horizontal,horizontal,horizontal,none,none
1b,24,100236,4,7,199,22,M,NA,constant,heterogeneous,6,absent,1.13663578033447,1,vertical,vertical,1,0.811759929656982,red,2,NaN,995.341332995339,763.910840470068,NaN,NaN,755.719714694933,851.125977018113,995.341332995339,763.910840470068,1039.62161830041,512.784863451954,844.280285305067,348.874022981887,604.658667004661,436.089159529932,560.378381699593,687.215136548046,0,4,5,0,6,6,horizontal,vertical,horizontal,horizontal,horizontal,horizontal
1b,24,100236,4,8,200,22,M,NA,constant,heterogeneous,4,present,0.607261896133423,1,vertical,vertical,1,0.988226537704468,red,3,2,895.524681321058,363.568117085469,1036.43188291453,695.524681321058,704.475318678942,836.431882914531,1036.43188291453,695.524681321058,895.524681321058,363.568117085469,563.568117085469,504.475318678942,0,0,0,0,6,3,4,3,NaN,NaN,horizontal,horizontal,vertical,horizontal,none,none
1b,24,100236,4,9,201,22,M,NA,constant,heterogeneous,5,absent,1.1446578502655,1,horizontal,horizontal,1,1.05881318092346,red,5,NaN,545.970351986605,622.224714400653,NaN,NaN,742.637481142314,848.464366520235,1018.57766167904,731.334709102064,992.450942956807,432.704947607421,700.363562235235,365.271262369628,545.970351986605,622.224714400653,0,0,0,0,3,6,4,NaN,vertical,vertical,horizontal,vertical,horizontal,none
1b,24,100236,4,10,202,22,M,NA,constant,heterogeneous,6,present,1.47342705726624,1,vertical,vertical,1,0.870582132339478,red,2,3,995.341332995339,763.910840470068,1039.62161830041,512.784863451954,755.719714694933,851.125977018113,995.341332995339,763.910840470068,1039.62161830041,512.784863451954,844.280285305067,348.874022981887,604.658667004661,436.089159529932,560.378381699593,687.215136548046,5,4,0,5,3,6,vertical,vertical,horizontal,vertical,vertical,vertical
1b,24,100236,4,11,203,22,M,NA,constant,heterogeneous,4,present,1.12731385231018,1,horizontal,horizontal,1,0.623528881072998,red,2,1,1027.20666366803,484.232422566416,915.767577433584,827.206663668034,915.767577433584,827.206663668034,1027.20666366803,484.232422566416,684.232422566416,372.793336331966,572.793336331966,715.767577433584,0,0,0,0,0,4,5,3,NaN,NaN,vertical,horizontal,horizontal,horizontal,none,none
1b,24,100236,4,12,204,22,M,NA,constant,heterogeneous,3,present,1.0774199962616,1,horizontal,horizontal,1,0.776466608047485,red,3,1,563.568117085469,695.524681321058,1000.94274216971,756.993676208043,1000.94274216971,756.993676208043,835.489140744817,347.4816424709,563.568117085469,695.524681321058,0,0,0,0,0,0,0,3,4,NaN,NaN,NaN,vertical,vertical,horizontal,none,none,none
1b,24,100236,4,13,205,22,M,NA,constant,heterogeneous,3,absent,0.636516094207764,1,vertical,vertical,1,0.670586643218994,red,3,NaN,704.475318678942,363.568117085469,NaN,NaN,643.006323791957,800.942742169714,1052.5183575291,635.489140744817,704.475318678942,363.568117085469,0,0,0,0,0,0,6,5,4,NaN,NaN,NaN,horizontal,horizontal,vertical,none,none,none
1b,24,100236,4,14,206,22,M,NA,constant,heterogeneous,5,absent,1.33391809463501,1,vertical,vertical,1,1.02351985931396,red,1,NaN,899.636437764765,834.728737630372,NaN,NaN,899.636437764765,834.728737630372,1054.0296480134,577.775285599347,857.362518857686,351.535633479765,581.422338320961,468.665290897936,607.549057043193,767.295052392579,0,0,4,6,3,5,0,NaN,vertical,vertical,horizontal,horizontal,horizontal,none
1b,24,100236,4,15,207,22,M,NA,constant,heterogeneous,3,absent,1.18769097328186,1,horizontal,horizontal,1,0.741173286437988,red,3,NaN,567.045908301137,496.282156015671,NaN,NaN,826.654758133252,853.60308331891,1006.29933356561,450.114760665419,567.045908301137,496.282156015671,0,0,0,0,0,0,5,3,4,NaN,NaN,NaN,vertical,horizontal,horizontal,none,none,none
1b,24,100236,4,16,208,22,M,NA,constant,heterogeneous,4,absent,0.886470079421997,1,vertical,vertical,1,0.941168775558472,red,2,NaN,1053.60308331891,573.345241866748,NaN,NaN,826.654758133252,853.60308331891,1053.60308331891,573.345241866748,773.345241866748,346.39691668109,546.39691668109,626.654758133252,0,0,0,0,3,4,3,0,NaN,NaN,horizontal,vertical,vertical,horizontal,none,none
1b,24,100236,4,17,209,22,M,NA,constant,heterogeneous,3,absent,0.771353006362915,1,vertical,vertical,1,0.741173286437988,red,3,NaN,596.34794493794,446.537169096228,NaN,NaN,768.923317431687,853.099268668537,1034.72873763037,500.363562235235,596.34794493794,446.537169096228,0,0,0,0,0,0,0,3,4,NaN,NaN,NaN,vertical,horizontal,vertical,none,none,none
1b,24,100236,4,18,210,22,M,NA,constant,heterogeneous,4,absent,1.33651399612427,1,horizontal,horizontal,1,0.882346572875977,red,2,NaN,980.31222920257,419.68777079743,NaN,NaN,980.31222920257,780.31222920257,980.31222920257,419.68777079743,619.68777079743,419.68777079743,619.68777079743,780.31222920257,0,0,0,0,5,4,5,0,NaN,NaN,vertical,horizontal,horizontal,horizontal,none,none
1b,24,100236,4,19,211,22,M,NA,constant,heterogeneous,6,absent,1.73705697059631,1,horizontal,horizontal,1,0.882346572875977,red,3,NaN,1052.5183575291,564.510859255183,NaN,NaN,704.475318678942,836.431882914531,956.993676208043,800.942742169714,1052.5183575291,564.510859255183,895.524681321058,363.568117085469,643.006323791957,399.057257830286,547.481642470899,635.489140744817,6,0,4,5,0,5,horizontal,horizontal,horizontal,vertical,vertical,vertical
1b,24,100236,4,20,212,22,M,NA,constant,heterogeneous,4,present,0.639955043792725,1,vertical,vertical,1,0.811759929656982,red,3,4,903.717843984329,367.045908301137,567.045908301137,496.282156015671,696.282156015671,832.954091698863,1032.95409169886,703.717843984329,903.717843984329,367.045908301137,567.045908301137,496.282156015671,0,0,0,0,6,6,4,3,NaN,NaN,horizontal,vertical,vertical,vertical,none,none
1b,24,100236,4,21,213,22,M,NA,constant,heterogeneous,5,absent,0.687700033187866,1,vertical,vertical,1,0.729408845901489,red,3,NaN,1003.65205506206,446.537169096228,NaN,NaN,725.445215295702,843.857712770574,1008.88377129369,746.261991269517,1003.65205506206,446.537169096228,716.980120613425,358.892763222174,545.03883773512,604.450363641507,0,0,5,3,4,5,0,NaN,vertical,horizontal,vertical,horizontal,vertical,none
1b,24,100236,4,22,214,22,M,NA,constant,heterogeneous,4,absent,0.693382024765015,1,vertical,vertical,1,0.788231048583984,red,4,NaN,593.700666434388,749.885239334581,NaN,NaN,949.885239334581,806.299333565612,1006.29933356561,450.114760665419,650.114760665419,393.700666434388,593.700666434388,749.885239334581,0,0,0,0,3,6,0,4,NaN,NaN,horizontal,horizontal,horizontal,vertical,none,none
1b,24,100236,4,23,215,22,M,NA,constant,heterogeneous,6,absent,1.21037316322327,1,horizontal,horizontal,1,0.952933216094971,red,2,NaN,1054.96116226488,604.450363641507,NaN,NaN,923.626453162816,823.028025320546,1054.96116226488,604.450363641507,931.334709102064,381.422338320961,676.373546837184,376.971974679454,545.03883773512,595.549636358493,668.665290897936,818.577661679039,6,4,3,0,5,0,vertical,horizontal,horizontal,horizontal,horizontal,horizontal
1b,24,100236,4,24,216,22,M,NA,constant,heterogeneous,5,absent,0.896349906921387,1,vertical,vertical,1,0.658822202682495,red,3,NaN,808.899371659138,345.155339110131,NaN,NaN,942.594190385041,811.404581001536,1045.12173246427,529.712474266665,808.899371659138,345.155339110131,560.378381699593,512.784863451954,643.006323791957,800.942742169714,0,0,5,5,4,3,0,NaN,vertical,vertical,vertical,horizontal,vertical,none
1b,24,100236,4,25,217,22,M,NA,constant,heterogeneous,4,absent,1.6308228969574,1,vertical,vertical,1,0.823524370193481,red,1,NaN,786.654331158049,854.650531362416,NaN,NaN,786.654331158049,854.650531362416,1054.65053136242,613.345668841951,813.345668841951,345.349468637584,545.349468637584,586.654331158049,0,0,0,0,4,3,6,0,NaN,NaN,vertical,vertical,vertical,horizontal,none,none
1b,24,100236,4,26,218,22,M,NA,constant,heterogeneous,3,absent,0.954130172729492,1,vertical,vertical,1,0.929404335021973,red,1,NaN,935.129412379467,816.252264519889,NaN,NaN,935.129412379467,816.252264519889,919.715248510402,374.848363820974,545.155339110131,608.899371659138,0,0,0,0,0,0,4,3,6,NaN,NaN,NaN,vertical,vertical,horizontal,none,none,none
1b,24,100236,4,27,219,22,M,NA,constant,heterogeneous,3,present,0.975831985473633,1,horizontal,horizontal,1,0.917639894485474,red,1,2,938.882953928832,813.860994826083,915.767577433584,372.793336331966,938.882953928832,813.860994826083,915.767577433584,372.793336331966,545.349468637584,613.345668841951,0,0,0,0,0,0,4,0,6,NaN,NaN,NaN,horizontal,vertical,horizontal,none,none,none
1b,24,100236,4,28,220,22,M,NA,constant,heterogeneous,4,present,1.09225702285767,1,horizontal,horizontal,1,0.623528881072998,red,4,1,599.057257830286,443.006323791957,643.006323791957,800.942742169714,643.006323791957,800.942742169714,1000.94274216971,756.993676208043,956.993676208043,399.057257830286,599.057257830286,443.006323791957,0,0,0,0,3,0,6,4,NaN,NaN,horizontal,horizontal,vertical,horizontal,none,none
1b,24,100236,4,29,221,22,M,NA,constant,heterogeneous,6,present,NaN,0,horizontal,none,0,1.02351985931396,red,5,3,572.793336331966,484.232422566416,1013.86099482608,461.117046071168,813.345668841951,854.650531362416,1027.20666366803,715.767577433584,1013.86099482608,461.117046071168,786.654331158049,345.349468637584,572.793336331966,484.232422566416,586.139005173917,738.882953928832,5,6,3,6,4,0,vertical,vertical,horizontal,vertical,horizontal,horizontal
1b,24,100236,4,30,222,22,M,NA,constant,heterogeneous,5,present,0.613965034484863,1,horizontal,horizontal,1,0.764702167510986,red,4,2,639.523300282292,401.827779828472,1046.31108570371,665.998856501143,813.345668841951,854.650531362416,1046.31108570371,665.998856501143,938.882953928832,386.139005173917,639.523300282292,401.827779828472,561.936991243214,691.383827134052,0,0,3,5,0,4,6,NaN,horizontal,horizontal,horizontal,horizontal,horizontal,none
1b,24,100236,4,31,223,22,M,NA,constant,heterogeneous,4,present,0.904083967208862,1,vertical,vertical,1,1.07057762145996,red,4,2,545.155339110131,608.899371659138,1054.84466088987,591.100628340862,808.899371659138,854.844660889869,1054.84466088987,591.100628340862,791.100628340862,345.155339110131,545.155339110131,608.899371659138,0,0,0,0,3,5,0,4,NaN,NaN,vertical,vertical,vertical,vertical,none,none
1b,24,100236,4,32,224,22,M,NA,constant,heterogeneous,5,present,NaN,0,horizontal,none,0,0.870582132339478,red,2,4,956.993676208043,800.942742169714,791.100628340862,345.155339110131,657.405809614959,811.404581001536,956.993676208043,800.942742169714,1039.62161830041,512.784863451954,791.100628340862,345.155339110131,554.878267535729,529.712474266665,0,0,3,4,6,6,5,NaN,vertical,horizontal,vertical,horizontal,horizontal,none
1b,24,100236,4,33,225,22,M,NA,constant,heterogeneous,4,absent,1.37409615516663,1,horizontal,horizontal,1,0.71764440536499,red,4,NaN,561.936991243214,691.383827134052,NaN,NaN,891.383827134052,838.063008756786,1038.06300875679,508.616172865948,708.616172865948,361.936991243214,561.936991243214,691.383827134052,0,0,0,0,0,6,3,4,NaN,NaN,vertical,horizontal,vertical,horizontal,none,none
1b,24,100236,4,34,226,22,M,NA,constant,heterogeneous,3,absent,0.854392051696777,1,vertical,vertical,1,0.823524370193481,red,1,NaN,839.890788585259,851.86052685176,NaN,NaN,839.890788585259,851.86052685176,998.172220171528,439.523300282291,561.936991243214,508.616172865948,0,0,0,0,0,0,4,0,5,NaN,NaN,NaN,vertical,horizontal,vertical,none,none,none
1b,24,100236,4,35,227,22,M,NA,constant,heterogeneous,5,present,1.11317205429077,1,vertical,vertical,1,0.882346572875977,red,2,5,1047.42541020038,538.309916622085,636.089159529932,795.341332995339,935.129412379467,816.252264519889,1047.42541020038,538.309916622085,817.787900804752,345.621167183745,563.568117085469,504.475318678942,636.089159529932,795.341332995339,0,0,3,4,5,0,5,NaN,horizontal,vertical,vertical,horizontal,horizontal,none
1b,24,100236,4,36,228,22,M,NA,constant,heterogeneous,6,present,0.865985155105591,1,vertical,vertical,1,0.729408845901489,red,3,4,1008.88377129369,453.738008730483,777.775285599347,345.970351986605,822.224714400653,854.029648013395,1031.10848569435,707.767656743878,1008.88377129369,453.738008730483,777.775285599347,345.970351986605,568.891514305654,492.232343256122,591.116228706307,746.261991269517,5,0,4,0,6,6,vertical,vertical,vertical,horizontal,horizontal,vertical
1b,24,100236,4,37,229,22,M,NA,constant,heterogeneous,3,present,1.22145199775696,1,horizontal,horizontal,1,0.694115524291992,red,1,2,1006.29933356561,749.885239334581,826.654758133252,346.39691668109,1006.29933356561,749.885239334581,826.654758133252,346.39691668109,567.045908301137,703.717843984329,0,0,0,0,0,0,4,3,3,NaN,NaN,NaN,horizontal,horizontal,horizontal,none,none,none
1b,24,100236,4,38,230,22,M,NA,constant,heterogeneous,5,absent,1.11886501312256,1,horizontal,horizontal,1,0.847053251266479,red,4,NaN,574.848363820974,480.284751489598,NaN,NaN,911.784642431215,829.192481806288,1052.5183575291,564.510859255183,844.280285305067,348.874022981887,574.848363820974,480.284751489598,616.568350913644,777.137884467044,0,0,5,6,5,4,0,NaN,horizontal,horizontal,vertical,horizontal,vertical,none
1b,24,100236,4,39,231,22,M,NA,constant,heterogeneous,3,absent,1.4735221862793,1,horizontal,horizontal,1,1.01175541877747,red,3,NaN,557.480588344736,678.799333565612,NaN,NaN,989.501930496736,770.628304621509,853.017481158529,350.57236181288,557.480588344736,678.799333565612,0,0,0,0,0,0,0,3,4,NaN,NaN,NaN,vertical,horizontal,horizontal,none,none,none
1b,24,100236,4,40,232,22,M,NA,constant,heterogeneous,5,present,1.01951813697815,1,vertical,vertical,1,0.811759929656982,red,5,2,550.57236181288,653.017481158529,1032.95409169886,703.717843984329,773.345241866748,853.60308331891,1032.95409169886,703.717843984329,970.628304621509,410.498069503264,672.5,379.163522034968,550.57236181288,653.017481158529,0,0,5,5,6,0,4,NaN,horizontal,horizontal,horizontal,vertical,vertical,none
1b,24,100236,4,41,233,22,M,NA,constant,heterogeneous,6,present,1.20872616767883,1,horizontal,horizontal,1,0.835288810729981,red,1,6,721.200666434388,842.519411655264,550.57236181288,653.017481158529,721.200666434388,842.519411655264,970.628304621509,789.501930496736,1049.42763818712,546.982518841471,878.799333565612,357.480588344736,629.371695378491,410.498069503264,550.57236181288,653.017481158529,4,3,0,3,6,5,horizontal,horizontal,vertical,vertical,horizontal,horizontal
1b,24,100236,4,42,234,22,M,NA,constant,heterogeneous,3,present,1.0127739906311,1,horizontal,horizontal,1,0.776466608047485,red,3,1,657.405809614959,388.595418998464,688.215357568785,829.192481806288,688.215357568785,829.192481806288,1054.37883281626,582.212099195248,657.405809614959,388.595418998464,0,0,0,0,0,0,5,3,4,NaN,NaN,NaN,vertical,horizontal,horizontal,none,none,none
1b,24,100236,4,43,235,22,M,NA,constant,heterogeneous,3,absent,1.42729997634888,1,horizontal,horizontal,1,0.705879964828491,red,2,NaN,1032.95409169886,703.717843984329,NaN,NaN,593.700666434388,749.885239334581,1032.95409169886,703.717843984329,773.345241866748,346.39691668109,0,0,0,0,0,0,3,4,0,NaN,NaN,NaN,horizontal,horizontal,vertical,none,none,none
1b,24,100236,4,44,236,22,M,NA,constant,heterogeneous,3,absent,0.648837089538574,1,horizontal,horizontal,1,0.847053251266479,red,2,NaN,857.362518857686,351.535633479765,NaN,NaN,986.495193912888,773.909581815937,857.362518857686,351.535633479765,556.142287229426,674.554784704298,0,0,0,0,0,0,5,4,3,NaN,NaN,NaN,horizontal,horizontal,horizontal,none,none,none
1b,24,100236,4,45,237,22,M,NA,constant,heterogeneous,4,absent,0.701081991195679,1,vertical,vertical,1,0.952933216094971,red,2,NaN,1053.60308331891,626.654758133252,NaN,NaN,773.345241866748,853.60308331891,1053.60308331891,626.654758133252,826.654758133252,346.39691668109,546.39691668109,573.345241866748,0,0,0,0,5,4,0,6,NaN,NaN,vertical,vertical,horizontal,horizontal,none,none
1b,24,100236,4,46,238,22,M,NA,constant,heterogeneous,6,absent,0.976928949356079,1,vertical,vertical,1,1.08234206199646,red,4,NaN,826.654758133252,346.39691668109,NaN,NaN,773.345241866748,853.60308331891,1006.29933356561,749.885239334581,1032.95409169886,496.282156015671,826.654758133252,346.39691668109,593.700666434388,450.114760665419,567.045908301137,703.717843984329,6,3,5,4,5,0,vertical,horizontal,vertical,vertical,horizontal,vertical
1b,24,100236,4,47,239,22,M,NA,constant,heterogeneous,5,present,0.766008853912354,1,vertical,vertical,1,0.870582132339478,red,4,5,755.719714694933,348.874022981887,547.481642470899,564.510859255183,688.215357568785,829.192481806288,983.431649086356,777.137884467044,1025.15163617903,480.284751489598,755.719714694933,348.874022981887,547.481642470899,564.510859255183,0,0,3,6,6,4,5,NaN,vertical,horizontal,horizontal,vertical,vertical,none
1b,24,100236,4,48,240,22,M,NA,constant,heterogeneous,4,present,0.848496913909912,1,horizontal,horizontal,1,0.741173286437988,red,4,3,601.827779828472,439.523300282291,960.476699717708,401.827779828472,639.523300282292,798.172220171528,998.172220171528,760.476699717708,960.476699717708,401.827779828472,601.827779828472,439.523300282291,0,0,0,0,0,5,3,4,NaN,NaN,vertical,horizontal,horizontal,horizontal,none,none
1b,24,100236,4,49,241,22,M,NA,constant,heterogeneous,6,present,0.930408000946045,1,horizontal,horizontal,1,0.835288810729981,red,3,6,949.885239334581,393.700666434388,650.114760665419,806.299333565612,903.717843984329,832.954091698863,1053.60308331891,626.654758133252,949.885239334581,393.700666434388,696.282156015671,367.045908301137,546.39691668109,573.345241866748,650.114760665419,806.299333565612,3,5,4,0,3,5,vertical,vertical,horizontal,horizontal,horizontal,horizontal
1b,24,100236,4,50,242,22,M,NA,constant,heterogeneous,6,absent,1.39974999427795,1,horizontal,horizontal,1,0.71764440536499,red,6,NaN,572.793336331966,715.767577433584,NaN,NaN,786.654331158049,854.650531362416,1013.86099482608,738.882953928832,1027.20666366803,484.232422566416,813.345668841951,345.349468637584,586.139005173917,461.117046071168,572.793336331966,715.767577433584,3,5,6,0,6,4,horizontal,horizontal,horizontal,horizontal,horizontal,horizontal
1b,24,100236,4,51,243,22,M,NA,constant,heterogeneous,5,present,1.64617300033569,1,horizontal,horizontal,1,0.917639894485474,red,3,5,1039.62161830041,512.784863451954,554.878267535729,529.712474266665,657.405809614959,811.404581001536,956.993676208043,800.942742169714,1039.62161830041,512.784863451954,791.100628340862,345.155339110131,554.878267535729,529.712474266665,0,0,6,6,4,3,0,NaN,vertical,vertical,horizontal,vertical,horizontal,none
1b,24,100236,4,52,244,22,M,NA,constant,heterogeneous,5,present,0.906738042831421,1,horizontal,horizontal,1,0.776466608047485,red,5,1,557.480588344736,521.200666434388,650.114760665419,806.299333565612,650.114760665419,806.299333565612,949.885239334581,806.299333565612,1042.51941165526,521.200666434388,800,345,557.480588344736,521.200666434388,0,0,0,6,5,0,4,NaN,horizontal,vertical,horizontal,vertical,horizontal,none
