experiment,subject,uniqueID,block,trial,trial_cumulative,age,gender,color_cond_blocking,color_history,shape_type,set_size,distractor,rt,acc,target_orient,response_key,response_made,iti,target_color,target_item,distractor_item,target_X,target_Y,distractor_X,distractor_Y,item1_X,item1_Y,item2_X,item2_Y,item3_X,item3_Y,item4_X,item4_Y,item5_X,item5_Y,item6_X,item6_Y,item1_shape,item2_shape,item3_shape,item4_shape,item5_shape,item6_shape,item1_line,item2_line,item3_line,item4_line,item5_line,item6_line
1b,2,100154,1,1,1,18,M,NA,constant,heterogeneous,3,present,0.89534592628479,1,vertical,vertical,1,0.705881333351135,red,1,2,751.343706178981,850.314931779154,1041.10723677783,516.980120613425,751.343706178981,850.314931779154,1041.10723677783,516.980120613425,607.549057043193,432.704947607421,0,0,0,0,0,0,4,3,0,NaN,NaN,NaN,vertical,horizontal,horizontal,none,none,none
1b,2,100154,1,2,2,18,M,NA,constant,heterogeneous,4,absent,0.929111003875732,1,vertical,vertical,1,0.788233481513129,red,1,NaN,629.371695378491,789.501930496736,NaN,NaN,629.371695378491,789.501930496736,989.501930496736,770.628304621509,970.628304621509,410.498069503264,610.498069503264,429.371695378491,0,0,0,0,4,5,6,5,NaN,NaN,vertical,vertical,horizontal,vertical,none,none
1b,2,100154,1,3,3,18,M,NA,constant,heterogeneous,5,absent,0.965094089508057,1,vertical,vertical,1,1.07058370378282,red,3,NaN,923.626453162816,376.971974679454,NaN,NaN,831.076682568313,853.099268668537,1050.31493177915,648.656293821019,923.626453162816,376.971974679454,626.090418184063,413.504806087112,568.891514305654,707.767656743878,0,0,3,3,4,5,0,NaN,horizontal,vertical,vertical,horizontal,vertical,none
1b,2,100154,1,4,4,18,M,NA,constant,heterogeneous,4,absent,0.617401123046875,1,horizontal,horizontal,1,0.611764592594571,red,2,NaN,1027.20666366803,484.232422566416,NaN,NaN,915.767577433584,827.206663668034,1027.20666366803,484.232422566416,684.232422566416,372.793336331966,572.793336331966,715.767577433584,0,0,0,0,0,4,6,3,NaN,NaN,vertical,horizontal,vertical,horizontal,none,none
1b,2,100154,1,5,5,18,M,NA,constant,heterogeneous,4,present,0.899445056915283,1,horizontal,horizontal,1,1.09411288897196,red,1,3,636.089159529932,795.341332995339,963.910840470068,404.658667004661,636.089159529932,795.341332995339,995.341332995339,763.910840470068,963.910840470068,404.658667004661,604.658667004661,436.089159529932,0,0,0,0,4,5,3,5,NaN,NaN,horizontal,horizontal,vertical,horizontal,none,none
1b,2,100154,1,6,6,18,M,NA,constant,heterogeneous,3,present,0.539361953735352,1,vertical,vertical,1,0.694116740756565,red,1,2,899.636437764765,834.728737630372,953.462830903772,396.34794493794,899.636437764765,834.728737630372,953.462830903772,396.34794493794,546.900731331463,568.923317431687,0,0,0,0,0,0,4,5,6,NaN,NaN,NaN,vertical,vertical,horizontal,none,none,none
1b,2,100154,1,7,7,18,M,NA,constant,heterogeneous,6,absent,1.09482789039612,1,vertical,vertical,1,1.02352533340454,red,5,NaN,619.68777079743,419.68777079743,NaN,NaN,734.001143498857,846.311085703712,980.31222920257,780.31222920257,1046.31108570371,534.001143498857,865.998856501143,353.688914296288,619.68777079743,419.68777079743,553.688914296288,665.998856501143,6,0,5,5,4,3,vertical,horizontal,vertical,vertical,vertical,vertical
1b,2,100154,1,8,8,18,M,NA,constant,heterogeneous,3,absent,0.746099948883057,1,horizontal,horizontal,1,0.658822962972853,red,1,NaN,953.462830903772,803.65205506206,NaN,NaN,953.462830903772,803.65205506206,899.636437764765,365.271262369628,546.900731331463,631.076682568313,0,0,0,0,0,0,4,3,0,NaN,NaN,NaN,horizontal,vertical,vertical,none,none,none
1b,2,100154,1,9,9,18,M,NA,constant,heterogeneous,6,present,1.07704305648804,1,horizontal,horizontal,1,0.788233481513129,red,4,2,835.489140744817,347.4816424709,1000.94274216971,756.993676208043,764.510859255183,852.518357529101,1000.94274216971,756.993676208043,1036.43188291453,504.475318678942,835.489140744817,347.4816424709,599.057257830286,443.006323791957,563.568117085469,695.524681321058,0,5,6,4,3,5,vertical,horizontal,vertical,horizontal,horizontal,horizontal
1b,2,100154,1,10,10,18,M,NA,constant,heterogeneous,6,absent,0.560859203338623,1,vertical,vertical,1,0.905879407458835,red,1,NaN,874.554784704298,843.857712770574,NaN,NaN,874.554784704298,843.857712770574,1048.46436652023,657.362518857686,973.909581815937,413.504806087112,725.445215295702,356.142287229426,551.535633479765,542.637481142314,626.090418184063,786.495193912888,4,6,3,3,0,5,vertical,horizontal,vertical,vertical,horizontal,vertical
1b,2,100154,1,11,11,18,M,NA,constant,heterogeneous,4,absent,1.15010809898376,1,horizontal,horizontal,1,0.694116740756565,red,1,NaN,650.114760665419,806.299333565612,NaN,NaN,650.114760665419,806.299333565612,1006.29933356561,749.885239334581,949.885239334581,393.700666434388,593.700666434388,450.114760665419,0,0,0,0,4,5,0,3,NaN,NaN,horizontal,horizontal,vertical,vertical,none,none
1b,2,100154,1,12,12,18,M,NA,constant,heterogeneous,5,absent,1.05025410652161,1,horizontal,horizontal,1,0.658822962972853,red,4,NaN,708.616172865948,361.936991243214,NaN,NaN,734.001143498857,846.311085703712,1013.86099482608,738.882953928832,998.172220171528,439.523300282291,708.616172865948,361.936991243214,545.349468637584,613.345668841951,0,0,6,3,5,4,0,NaN,horizontal,horizontal,horizontal,horizontal,vertical,none
1b,2,100154,1,13,13,18,M,NA,constant,heterogeneous,4,absent,0.871028900146484,1,vertical,vertical,1,0.776468888918559,red,1,NaN,804.450363641507,854.96116226488,NaN,NaN,804.450363641507,854.96116226488,1054.96116226488,595.549636358493,795.549636358493,345.03883773512,545.03883773512,604.450363641507,0,0,0,0,4,3,5,3,NaN,NaN,vertical,vertical,horizontal,horizontal,none,none
1b,2,100154,1,14,14,18,M,NA,constant,heterogeneous,4,absent,0.666708946228027,1,vertical,vertical,1,0.905879407458835,red,2,NaN,1013.86099482608,461.117046071168,NaN,NaN,938.882953928832,813.860994826083,1013.86099482608,461.117046071168,661.117046071168,386.139005173917,586.139005173917,738.882953928832,0,0,0,0,3,4,0,5,NaN,NaN,horizontal,vertical,vertical,vertical,none,none
1b,2,100154,1,15,15,18,M,NA,constant,heterogeneous,3,present,0.57129693031311,1,vertical,vertical,1,0.752939703729418,red,2,3,1055,600,672.5,379.163522034968,672.5,820.836477965032,1055,600,672.5,379.163522034968,0,0,0,0,0,0,3,4,5,NaN,NaN,NaN,horizontal,vertical,vertical,none,none,none
1b,2,100154,1,16,16,18,M,NA,constant,heterogeneous,4,present,0.842381000518799,1,vertical,vertical,1,0.976466963026259,red,3,2,639.523300282292,401.827779828472,998.172220171528,439.523300282291,960.476699717708,798.172220171528,998.172220171528,439.523300282291,639.523300282292,401.827779828472,601.827779828472,760.476699717708,0,0,0,0,3,0,4,5,NaN,NaN,vertical,horizontal,vertical,horizontal,none,none
1b,2,100154,1,17,17,18,M,NA,constant,heterogeneous,4,present,0.884166955947876,1,horizontal,horizontal,1,0.647058370378282,red,2,1,1027.20666366803,715.767577433584,684.232422566416,827.206663668034,684.232422566416,827.206663668034,1027.20666366803,715.767577433584,915.767577433584,372.793336331966,572.793336331966,484.232422566416,0,0,0,0,0,4,6,5,NaN,NaN,vertical,horizontal,vertical,vertical,none,none
1b,2,100154,1,18,18,18,M,NA,constant,heterogeneous,3,absent,0.72235894203186,1,horizontal,horizontal,1,0.611764592594571,red,1,NaN,764.510859255183,852.518357529101,NaN,NaN,764.510859255183,852.518357529101,1036.43188291453,504.475318678942,599.057257830286,443.006323791957,0,0,0,0,0,0,4,6,5,NaN,NaN,NaN,horizontal,vertical,horizontal,none,none,none
1b,2,100154,1,19,19,18,M,NA,constant,heterogeneous,6,present,0.893616914749146,0,vertical,horizontal,1,1.03528992599911,red,2,3,1046.31108570371,665.998856501143,980.31222920257,419.68777079743,865.998856501143,846.311085703712,1046.31108570371,665.998856501143,980.31222920257,419.68777079743,734.001143498857,353.688914296288,553.688914296288,534.001143498857,619.68777079743,780.31222920257,6,4,3,6,5,5,vertical,vertical,horizontal,vertical,horizontal,vertical
1b,2,100154,1,20,20,18,M,NA,constant,heterogeneous,5,present,0.869803905487061,1,horizontal,horizontal,1,0.694116740756565,red,1,4,857.362518857686,848.464366520235,607.549057043193,432.704947607421,857.362518857686,848.464366520235,1054.0296480134,622.224714400653,899.636437764765,365.271262369628,607.549057043193,432.704947607421,581.422338320961,731.334709102064,0,0,4,3,5,5,3,NaN,horizontal,horizontal,vertical,horizontal,vertical,none
1b,2,100154,1,21,21,18,M,NA,constant,heterogeneous,3,present,0.837240934371948,1,horizontal,horizontal,1,0.694116740756565,red,3,2,622.862115532956,416.568350913644,1047.42541020038,538.309916622085,729.712474266665,845.121732464271,1047.42541020038,538.309916622085,622.862115532956,416.568350913644,0,0,0,0,0,0,3,0,4,NaN,NaN,NaN,vertical,vertical,horizontal,none,none,none
1b,2,100154,1,22,22,18,M,NA,constant,heterogeneous,3,absent,0.87131404876709,1,horizontal,horizontal,1,0.847056444485982,red,2,NaN,1023.02802532055,476.373546837184,NaN,NaN,795.549636358493,854.96116226488,1023.02802532055,476.373546837184,581.422338320961,468.665290897936,0,0,0,0,0,0,6,4,3,NaN,NaN,NaN,horizontal,horizontal,horizontal,none,none,none
1b,2,100154,1,23,23,18,M,NA,constant,heterogeneous,6,absent,0.911319017410278,1,horizontal,horizontal,1,0.917644000053406,red,1,NaN,887.215136548046,839.621618300407,NaN,NaN,887.215136548046,839.621618300407,1051.12597701811,644.280285305067,963.910840470068,404.658667004661,712.784863451954,360.378381699593,548.874022981887,555.719714694933,636.089159529932,795.341332995339,4,5,5,6,3,0,horizontal,vertical,horizontal,horizontal,vertical,horizontal
1b,2,100154,1,24,24,18,M,NA,constant,heterogeneous,5,present,0.971505880355835,1,vertical,vertical,1,0.694116740756565,red,4,3,751.343706178981,349.685068220846,1023.02802532055,476.373546837184,692.232343256122,831.108485694346,986.495193912888,773.909581815937,1023.02802532055,476.373546837184,751.343706178981,349.685068220846,546.900731331463,568.923317431687,0,0,3,0,0,4,6,NaN,horizontal,vertical,vertical,vertical,horizontal,none
1b,2,100154,1,25,25,18,M,NA,constant,heterogeneous,5,present,1.22602701187134,0,horizontal,vertical,1,0.752939703729418,red,5,2,546.900731331463,568.923317431687,986.495193912888,773.909581815937,692.232343256122,831.108485694346,986.495193912888,773.909581815937,1023.02802532055,476.373546837184,751.343706178981,349.685068220846,546.900731331463,568.923317431687,0,0,0,0,3,5,4,NaN,vertical,horizontal,horizontal,vertical,horizontal,none
1b,2,100154,1,26,26,18,M,NA,constant,heterogeneous,6,absent,0.70806622505188,1,vertical,vertical,1,0.858821037080553,red,3,NaN,1034.72873763037,500.363562235235,NaN,NaN,768.923317431687,853.099268668537,1003.65205506206,753.462830903772,1034.72873763037,500.363562235235,831.076682568313,346.900731331463,596.34794493794,446.537169096228,565.271262369628,699.636437764765,5,5,4,6,6,0,horizontal,horizontal,vertical,horizontal,horizontal,vertical
1b,2,100154,1,27,27,18,M,NA,constant,heterogeneous,6,absent,1.15973305702209,1,horizontal,horizontal,1,0.670587555567423,red,4,NaN,891.383827134052,361.936991243214,NaN,NaN,708.616172865948,838.063008756786,960.476699717708,798.172220171528,1051.86052685176,560.109211414741,891.383827134052,361.936991243214,639.523300282292,401.827779828472,548.13947314824,639.890788585259,0,3,5,4,3,0,horizontal,vertical,vertical,horizontal,horizontal,horizontal
1b,2,100154,1,28,28,18,M,NA,constant,heterogeneous,3,absent,0.600939035415649,1,vertical,vertical,1,1.08234829637739,red,3,NaN,546.39691668109,626.654758133252,NaN,NaN,949.885239334581,806.299333565612,903.717843984329,367.045908301137,546.39691668109,626.654758133252,0,0,0,0,0,0,3,6,4,NaN,NaN,NaN,vertical,horizontal,vertical,none,none,none
1b,2,100154,1,29,29,18,M,NA,constant,heterogeneous,3,absent,1.02472710609436,1,vertical,vertical,1,0.788233481513129,red,3,NaN,646.537169096228,396.34794493794,NaN,NaN,700.363562235235,834.728737630372,1053.09926866854,568.923317431687,646.537169096228,396.34794493794,0,0,0,0,0,0,6,5,4,NaN,NaN,NaN,vertical,vertical,vertical,none,none,none
1b,2,100154,1,30,30,18,M,NA,constant,heterogeneous,5,absent,1.14303088188171,1,vertical,vertical,1,1.07058370378282,red,1,NaN,826.654758133252,853.60308331891,NaN,NaN,826.654758133252,853.60308331891,1049.42763818712,653.017481158529,927.5,379.163522034968,629.371695378491,410.498069503264,567.045908301137,703.717843984329,0,0,4,5,0,6,3,NaN,vertical,vertical,vertical,horizontal,horizontal,none
1b,2,100154,1,31,31,18,M,NA,constant,heterogeneous,5,present,1.33563995361328,1,vertical,vertical,1,1.07058370378282,red,4,5,738.309916622085,352.574589799621,545.621167183745,582.212099195248,704.475318678942,836.431882914531,995.341332995339,763.910840470068,1016.25226451989,464.870587620533,738.309916622085,352.574589799621,545.621167183745,582.212099195248,0,0,6,5,3,4,3,NaN,vertical,vertical,horizontal,vertical,vertical,none
1b,2,100154,1,32,32,18,M,NA,constant,heterogeneous,3,present,0.694541931152344,1,horizontal,horizontal,1,0.81176266670227,red,3,2,607.549057043193,432.704947607421,1041.10723677783,516.980120613425,751.343706178981,850.314931779154,1041.10723677783,516.980120613425,607.549057043193,432.704947607421,0,0,0,0,0,0,6,3,4,NaN,NaN,NaN,vertical,horizontal,horizontal,none,none,none
1b,2,100154,1,33,33,18,M,NA,constant,heterogeneous,6,present,0.793973207473755,1,vertical,vertical,1,0.858821037080553,red,4,5,903.717843984329,367.045908301137,650.114760665419,393.700666434388,696.282156015671,832.954091698863,949.885239334581,806.299333565612,1053.60308331891,573.345241866748,903.717843984329,367.045908301137,650.114760665419,393.700666434388,546.39691668109,626.654758133252,6,0,6,4,3,5,horizontal,horizontal,horizontal,vertical,horizontal,vertical
1b,2,100154,1,34,34,18,M,NA,constant,heterogeneous,4,present,0.932820081710815,1,horizontal,horizontal,1,0.941173185242547,red,2,3,992.450942956807,767.295052392579,967.295052392579,407.549057043193,632.704947607421,792.450942956807,992.450942956807,767.295052392579,967.295052392579,407.549057043193,607.549057043193,432.704947607421,0,0,0,0,0,4,3,6,NaN,NaN,horizontal,horizontal,horizontal,vertical,none,none
1b,2,100154,1,35,35,18,M,NA,constant,heterogeneous,3,present,1.03639006614685,0,horizontal,vertical,1,1.03528992599911,red,1,2,768.923317431687,853.099268668537,1034.72873763037,500.363562235235,768.923317431687,853.099268668537,1034.72873763037,500.363562235235,596.34794493794,446.537169096228,0,0,0,0,0,0,4,6,5,NaN,NaN,NaN,horizontal,horizontal,vertical,none,none,none
1b,2,100154,1,36,36,18,M,NA,constant,heterogeneous,5,present,0.621358871459961,1,vertical,vertical,1,0.9999961482154,red,2,1,1027.20666366803,715.767577433584,760.109211414741,851.86052685176,760.109211414741,851.86052685176,1027.20666366803,715.767577433584,980.31222920257,419.68777079743,684.232422566416,372.793336331966,548.13947314824,639.890788585259,0,0,0,4,3,6,5,NaN,vertical,vertical,vertical,vertical,horizontal,none
1b,2,100154,1,37,37,18,M,NA,constant,heterogeneous,3,present,0.598245859146118,1,horizontal,horizontal,1,1.02352533340454,red,1,2,817.787900804752,854.378832816255,1011.40458100154,457.40580961496,817.787900804752,854.378832816255,1011.40458100154,457.40580961496,570.807518193712,488.215357568785,0,0,0,0,0,0,4,5,6,NaN,NaN,NaN,horizontal,vertical,horizontal,none,none,none
1b,2,100154,1,38,38,18,M,NA,constant,heterogeneous,3,present,0.516910076141357,1,vertical,vertical,1,0.929408592647976,red,1,2,768.923317431687,853.099268668537,1034.72873763037,500.363562235235,768.923317431687,853.099268668537,1034.72873763037,500.363562235235,596.34794493794,446.537169096228,0,0,0,0,0,0,4,3,5,NaN,NaN,NaN,vertical,vertical,vertical,none,none,none
1b,2,100154,1,39,39,18,M,NA,constant,heterogeneous,4,present,0.808269023895264,1,horizontal,horizontal,1,0.835291851891412,red,3,2,817.787900804752,345.621167183745,1054.37883281626,617.787900804752,782.212099195248,854.378832816255,1054.37883281626,617.787900804752,817.787900804752,345.621167183745,545.621167183745,582.212099195248,0,0,0,0,3,5,4,6,NaN,NaN,vertical,horizontal,horizontal,horizontal,none,none
1b,2,100154,1,40,40,18,M,NA,constant,heterogeneous,6,absent,0.747588872909546,1,vertical,vertical,1,0.752939703729418,red,4,NaN,817.787900804752,345.621167183745,NaN,NaN,782.212099195248,854.378832816255,1011.40458100154,742.594190385041,1029.19248180629,488.215357568785,817.787900804752,345.621167183745,588.595418998464,457.40580961496,570.807518193712,711.784642431215,0,5,0,4,3,6,vertical,vertical,vertical,vertical,vertical,horizontal
1b,2,100154,1,41,41,18,M,NA,constant,heterogeneous,5,present,1.36749410629272,1,horizontal,horizontal,1,0.635293777783712,red,5,1,560.378381699593,687.215136548046,808.899371659138,854.844660889869,808.899371659138,854.844660889869,1045.12173246427,670.287525733335,942.594190385041,388.595418998464,643.006323791957,399.057257830286,560.378381699593,687.215136548046,0,0,0,0,3,5,4,NaN,vertical,horizontal,vertical,horizontal,horizontal,none
1b,2,100154,1,42,42,18,M,NA,constant,heterogeneous,3,absent,1.08656811714172,1,horizontal,horizontal,1,0.776468888918559,red,3,NaN,545.349468637584,613.345668841951,NaN,NaN,938.882953928832,813.860994826083,915.767577433584,372.793336331966,545.349468637584,613.345668841951,0,0,0,0,0,0,3,3,4,NaN,NaN,NaN,vertical,vertical,horizontal,none,none,none
1b,2,100154,1,43,43,18,M,NA,constant,heterogeneous,5,absent,0.774139881134033,1,vertical,vertical,1,1.08234829637739,red,3,NaN,953.462830903772,396.34794493794,NaN,NaN,795.549636358493,854.96116226488,1041.10723677783,683.019879386575,953.462830903772,396.34794493794,653.738008730483,391.116228706307,556.142287229426,674.554784704298,0,0,3,6,4,0,5,NaN,vertical,vertical,vertical,horizontal,vertical,none
1b,2,100154,1,44,44,18,M,NA,constant,heterogeneous,6,absent,1.0036768913269,1,horizontal,horizontal,1,0.705881333351135,red,6,NaN,591.116228706307,746.261991269517,NaN,NaN,822.224714400653,854.029648013395,1031.10848569435,707.767656743878,1008.88377129369,453.738008730483,777.775285599347,345.970351986605,568.891514305654,492.232343256122,591.116228706307,746.261991269517,6,0,5,5,3,4,vertical,horizontal,horizontal,vertical,vertical,horizontal
1b,2,100154,1,45,45,18,M,NA,constant,heterogeneous,6,present,1.20080709457397,1,horizontal,horizontal,1,0.847056444485982,red,3,5,1027.20666366803,484.232422566416,586.139005173917,461.117046071168,786.654331158049,854.650531362416,1013.86099482608,738.882953928832,1027.20666366803,484.232422566416,813.345668841951,345.349468637584,586.139005173917,461.117046071168,572.793336331966,715.767577433584,0,3,4,5,5,0,horizontal,vertical,horizontal,vertical,horizontal,vertical
1b,2,100154,1,46,46,18,M,NA,constant,heterogeneous,5,absent,1.40329313278198,1,vertical,vertical,1,0.705881333351135,red,1,NaN,725.445215295702,843.857712770574,NaN,NaN,725.445215295702,843.857712770574,1008.88377129369,746.261991269517,1003.65205506206,446.537169096228,716.980120613425,358.892763222174,545.03883773512,604.450363641507,0,0,4,6,6,3,3,NaN,vertical,vertical,vertical,horizontal,vertical,none
1b,2,100154,1,47,47,18,M,NA,constant,heterogeneous,5,present,1.07299184799194,1,horizontal,horizontal,1,1.07058370378282,red,5,3,545.970351986605,622.224714400653,992.450942956807,432.704947607421,742.637481142314,848.464366520235,1018.57766167904,731.334709102064,992.450942956807,432.704947607421,700.363562235235,365.271262369628,545.970351986605,622.224714400653,0,0,6,3,6,0,4,NaN,horizontal,horizontal,horizontal,horizontal,horizontal,none
1b,2,100154,1,48,48,18,M,NA,constant,heterogeneous,6,present,0.724355936050415,1,vertical,vertical,1,1.08234829637739,red,4,1,751.343706178981,349.685068220846,848.656293821019,850.314931779154,848.656293821019,850.314931779154,1041.10723677783,683.019879386575,992.450942956807,432.704947607421,751.343706178981,349.685068220846,558.892763222174,516.980120613425,607.549057043193,767.295052392579,6,0,6,4,5,0,vertical,horizontal,horizontal,vertical,horizontal,vertical
1b,2,100154,1,49,49,18,M,NA,constant,heterogeneous,4,present,0.70930814743042,1,vertical,vertical,1,0.917644000053406,red,4,3,619.68777079743,780.31222920257,619.68777079743,419.68777079743,980.31222920257,780.31222920257,980.31222920257,419.68777079743,619.68777079743,419.68777079743,619.68777079743,780.31222920257,0,0,0,0,0,5,3,4,NaN,NaN,vertical,horizontal,vertical,vertical,none,none
1b,2,100154,1,50,50,18,M,NA,constant,heterogeneous,5,present,0.710204124450684,1,vertical,vertical,1,0.729410518540276,red,5,2,596.34794493794,753.462830903772,1054.96116226488,595.549636358493,883.019879386575,841.107236777826,1054.96116226488,595.549636358493,874.554784704298,356.142287229426,591.116228706307,453.738008730483,596.34794493794,753.462830903772,0,0,3,6,5,6,4,NaN,vertical,vertical,vertical,vertical,vertical,none
1b,2,100154,1,51,51,18,M,NA,constant,heterogeneous,5,absent,1.12586116790771,1,horizontal,horizontal,1,0.658822962972853,red,2,NaN,1045.12173246427,670.287525733335,NaN,NaN,808.899371659138,854.844660889869,1045.12173246427,670.287525733335,942.594190385041,388.595418998464,643.006323791957,399.057257830286,560.378381699593,687.215136548046,0,0,5,4,3,6,3,NaN,horizontal,horizontal,vertical,horizontal,horizontal,none
1b,2,100154,1,52,52,18,M,NA,constant,heterogeneous,4,absent,0.887147903442383,1,horizontal,horizontal,1,0.941173185242547,red,4,NaN,565.271262369628,500.363562235235,NaN,NaN,700.363562235235,834.728737630372,1034.72873763037,699.636437764765,899.636437764765,365.271262369628,565.271262369628,500.363562235235,0,0,0,0,5,0,0,4,NaN,NaN,horizontal,vertical,vertical,horizontal,none,none
1b,2,100154,1,53,53,18,M,NA,constant,heterogeneous,6,present,1.2274010181427,0,horizontal,vertical,1,0.917644000053406,red,6,4,550.57236181288,653.017481158529,878.799333565612,357.480588344736,721.200666434388,842.519411655264,970.628304621509,789.501930496736,1049.42763818712,546.982518841471,878.799333565612,357.480588344736,629.371695378491,410.498069503264,550.57236181288,653.017481158529,0,5,6,0,3,4,horizontal,vertical,vertical,vertical,vertical,horizontal
1b,2,100154,1,54,54,18,M,NA,constant,heterogeneous,6,absent,1.19729685783386,1,horizontal,horizontal,1,0.858821037080553,red,5,NaN,622.862115532956,416.568350913644,NaN,NaN,729.712474266665,845.121732464271,977.137884467044,783.431649086356,1047.42541020038,538.309916622085,870.287525733335,354.878267535729,622.862115532956,416.568350913644,552.574589799621,661.690083377915,5,0,6,6,4,3,vertical,vertical,vertical,horizontal,horizontal,horizontal
1b,2,100154,1,55,55,18,M,NA,constant,heterogeneous,4,absent,0.770251989364624,1,vertical,vertical,1,1.03528992599911,red,4,NaN,556.142287229426,525.445215295702,NaN,NaN,725.445215295702,843.857712770574,1043.85771277057,674.554784704298,874.554784704298,356.142287229426,556.142287229426,525.445215295702,0,0,0,0,3,6,3,4,NaN,NaN,horizontal,vertical,horizontal,vertical,none,none
1b,2,100154,1,56,56,18,M,NA,constant,heterogeneous,6,present,1.08170986175537,1,horizontal,horizontal,1,0.9999961482154,red,1,3,777.775285599347,854.029648013395,1031.10848569435,492.232343256122,777.775285599347,854.029648013395,1008.88377129369,746.261991269517,1031.10848569435,492.232343256122,822.224714400653,345.970351986605,591.116228706307,453.738008730483,568.891514305654,707.767656743878,4,0,3,6,5,5,horizontal,horizontal,vertical,horizontal,horizontal,vertical
1b,2,100154,1,57,57,18,M,NA,constant,heterogeneous,6,present,0.72303295135498,1,vertical,vertical,1,0.752939703729418,red,5,2,643.006323791957,399.057257830286,956.993676208043,800.942742169714,704.475318678942,836.431882914531,956.993676208043,800.942742169714,1052.5183575291,564.510859255183,895.524681321058,363.568117085469,643.006323791957,399.057257830286,547.481642470899,635.489140744817,6,0,5,3,4,6,horizontal,vertical,vertical,vertical,vertical,horizontal
1b,2,100154,1,58,58,18,M,NA,constant,heterogeneous,3,absent,0.550621032714844,1,vertical,vertical,1,0.658822962972853,red,1,NaN,619.68777079743,780.31222920257,NaN,NaN,619.68777079743,780.31222920257,1046.31108570371,665.998856501143,734.001143498857,353.688914296288,0,0,0,0,0,0,4,5,6,NaN,NaN,NaN,vertical,horizontal,horizontal,none,none,none
1b,2,100154,1,59,59,18,M,NA,constant,heterogeneous,4,absent,1.00939917564392,1,horizontal,horizontal,1,0.788233481513129,red,2,NaN,1034.72873763037,500.363562235235,NaN,NaN,899.636437764765,834.728737630372,1034.72873763037,500.363562235235,700.363562235235,365.271262369628,565.271262369628,699.636437764765,0,0,0,0,3,4,0,5,NaN,NaN,vertical,horizontal,vertical,horizontal,none,none
1b,2,100154,1,60,60,18,M,NA,constant,heterogeneous,4,present,0.767577171325684,1,vertical,vertical,1,0.894114814864265,red,2,3,995.341332995339,436.089159529932,636.089159529932,404.658667004661,963.910840470068,795.341332995339,995.341332995339,436.089159529932,636.089159529932,404.658667004661,604.658667004661,763.910840470068,0,0,0,0,6,4,0,5,NaN,NaN,horizontal,vertical,horizontal,vertical,none,none
1b,2,100154,1,61,61,18,M,NA,constant,heterogeneous,5,absent,1.09935402870178,1,horizontal,horizontal,1,0.81176266670227,red,4,NaN,565.271262369628,500.363562235235,NaN,NaN,931.334709102064,818.577661679039,1048.46436652023,542.637481142314,822.224714400653,345.970351986605,565.271262369628,500.363562235235,632.704947607421,792.450942956807,0,0,6,3,0,4,5,NaN,vertical,vertical,horizontal,horizontal,horizontal,none
1b,2,100154,1,62,62,18,M,NA,constant,heterogeneous,4,present,0.511605024337769,1,vertical,vertical,1,0.705881333351135,red,3,1,942.594190385041,388.595418998464,657.405809614959,811.404581001536,657.405809614959,811.404581001536,1011.40458100154,742.594190385041,942.594190385041,388.595418998464,588.595418998464,457.40580961496,0,0,0,0,0,6,4,3,NaN,NaN,horizontal,horizontal,vertical,horizontal,none,none
1b,2,100154,1,63,63,18,M,NA,constant,heterogeneous,3,absent,0.515791177749634,1,vertical,vertical,1,0.894114814864265,red,1,NaN,1006.29933356561,749.885239334581,NaN,NaN,1006.29933356561,749.885239334581,826.654758133252,346.39691668109,567.045908301137,703.717843984329,0,0,0,0,0,0,4,3,3,NaN,NaN,NaN,vertical,vertical,vertical,none,none,none
1b,2,100154,1,64,64,18,M,NA,constant,heterogeneous,5,absent,0.781922817230225,0,horizontal,vertical,1,0.976466963026259,red,3,NaN,883.019879386575,358.892763222174,NaN,NaN,874.554784704298,843.857712770574,1054.96116226488,604.450363641507,883.019879386575,358.892763222174,596.34794493794,446.537169096228,591.116228706307,746.261991269517,0,0,3,3,4,6,0,NaN,vertical,horizontal,horizontal,vertical,horizontal,none
1b,2,100154,2,1,65,18,M,NA,constant,heterogeneous,3,absent,0.60715913772583,1,vertical,vertical,1,0.964702370431688,red,3,NaN,604.658667004661,436.089159529932,NaN,NaN,755.719714694933,851.125977018113,1039.62161830041,512.784863451954,604.658667004661,436.089159529932,0,0,0,0,0,0,3,0,4,NaN,NaN,NaN,horizontal,vertical,vertical,none,none,none
1b,2,100154,2,2,66,18,M,NA,constant,heterogeneous,4,present,0.576721906661987,1,vertical,vertical,1,0.858821037080553,red,4,3,549.685068220846,648.656293821019,751.343706178981,349.685068220846,848.656293821019,850.314931779154,1050.31493177915,551.343706178981,751.343706178981,349.685068220846,549.685068220846,648.656293821019,0,0,0,0,3,0,6,4,NaN,NaN,horizontal,horizontal,horizontal,vertical,none,none
1b,2,100154,2,3,67,18,M,NA,constant,heterogeneous,5,absent,0.92070198059082,1,vertical,vertical,1,0.611764592594571,red,2,NaN,949.885239334581,806.299333565612,NaN,NaN,650.114760665419,806.299333565612,949.885239334581,806.299333565612,1042.51941165526,521.200666434388,800,345,557.480588344736,521.200666434388,0,0,5,4,3,3,5,NaN,horizontal,vertical,vertical,horizontal,horizontal,none
1b,2,100154,2,4,68,18,M,NA,constant,heterogeneous,3,present,0.7917799949646,1,horizontal,horizontal,1,0.823527259296841,red,1,2,650.114760665419,806.299333565612,1053.60308331891,626.654758133252,650.114760665419,806.299333565612,1053.60308331891,626.654758133252,696.282156015671,367.045908301137,0,0,0,0,0,0,4,0,3,NaN,NaN,NaN,horizontal,vertical,horizontal,none,none,none
1b,2,100154,2,5,69,18,M,NA,constant,heterogeneous,4,present,1.35766291618347,1,horizontal,horizontal,1,0.705881333351135,red,1,4,676.373546837184,823.028025320546,576.971974679454,476.373546837184,676.373546837184,823.028025320546,1023.02802532055,723.626453162816,923.626453162816,376.971974679454,576.971974679454,476.373546837184,0,0,0,0,4,5,6,3,NaN,NaN,horizontal,horizontal,horizontal,horizontal,none,none
1b,2,100154,2,6,70,18,M,NA,constant,heterogeneous,3,absent,0.521228075027466,1,vertical,vertical,1,0.9999961482154,red,1,NaN,1008.88377129369,746.261991269517,NaN,NaN,1008.88377129369,746.261991269517,822.224714400653,345.970351986605,568.891514305654,707.767656743878,0,0,0,0,0,0,4,3,0,NaN,NaN,NaN,vertical,horizontal,horizontal,none,none,none
1b,2,100154,2,7,71,18,M,NA,constant,heterogeneous,6,absent,0.764091968536377,1,horizontal,horizontal,1,0.611764592594571,red,6,NaN,599.057257830286,756.993676208043,NaN,NaN,835.489140744817,852.518357529101,1036.43188291453,695.524681321058,1000.94274216971,443.006323791957,764.510859255183,347.4816424709,563.568117085469,504.475318678942,599.057257830286,756.993676208043,6,5,3,6,0,4,horizontal,horizontal,vertical,horizontal,horizontal,horizontal
1b,2,100154,2,8,72,18,M,NA,constant,heterogeneous,5,present,0.998939037322998,1,horizontal,horizontal,1,0.764704296323988,red,3,1,1006.29933356561,450.114760665419,721.200666434388,842.519411655264,721.200666434388,842.519411655264,1006.29933356561,749.885239334581,1006.29933356561,450.114760665419,721.200666434388,357.480588344736,545,600,0,0,6,6,4,0,3,NaN,horizontal,horizontal,horizontal,vertical,vertical,none
1b,2,100154,2,9,73,18,M,NA,constant,heterogeneous,6,present,0.77453088760376,0,vertical,horizontal,1,0.764704296323988,red,5,2,599.057257830286,443.006323791957,1000.94274216971,756.993676208043,764.510859255183,852.518357529101,1000.94274216971,756.993676208043,1036.43188291453,504.475318678942,835.489140744817,347.4816424709,599.057257830286,443.006323791957,563.568117085469,695.524681321058,3,5,0,3,4,0,horizontal,vertical,horizontal,horizontal,vertical,vertical
1b,2,100154,2,10,74,18,M,NA,constant,heterogeneous,3,present,0.808901071548462,1,vertical,vertical,1,0.941173185242547,red,3,2,721.200666434388,357.480588344736,1049.42763818712,653.017481158529,629.371695378491,789.501930496736,1049.42763818712,653.017481158529,721.200666434388,357.480588344736,0,0,0,0,0,0,6,6,4,NaN,NaN,NaN,horizontal,vertical,vertical,none,none,none
1b,2,100154,2,11,75,18,M,NA,constant,heterogeneous,6,present,1.08196902275085,1,vertical,vertical,1,0.835291851891412,red,2,1,977.137884467044,783.431649086356,729.712474266665,845.121732464271,729.712474266665,845.121732464271,977.137884467044,783.431649086356,1047.42541020038,538.309916622085,870.287525733335,354.878267535729,622.862115532956,416.568350913644,552.574589799621,661.690083377915,0,4,0,5,6,3,horizontal,vertical,horizontal,vertical,vertical,horizontal
1b,2,100154,2,12,76,18,M,NA,constant,heterogeneous,5,absent,0.633606910705566,1,vertical,vertical,1,0.705881333351135,red,4,NaN,708.616172865948,361.936991243214,NaN,NaN,734.001143498857,846.311085703712,1013.86099482608,738.882953928832,998.172220171528,439.523300282291,708.616172865948,361.936991243214,545.349468637584,613.345668841951,0,0,0,0,6,4,5,NaN,horizontal,vertical,horizontal,vertical,horizontal,none
1b,2,100154,2,13,77,18,M,NA,constant,heterogeneous,4,absent,0.596275091171265,1,vertical,vertical,1,0.670587555567423,red,1,NaN,716.980120613425,841.107236777826,NaN,NaN,716.980120613425,841.107236777826,1041.10723677783,683.019879386575,883.019879386575,358.892763222174,558.892763222174,516.980120613425,0,0,0,0,4,0,3,6,NaN,NaN,vertical,horizontal,horizontal,vertical,none,none
1b,2,100154,2,14,78,18,M,NA,constant,heterogeneous,5,present,0.647030115127563,1,horizontal,horizontal,1,0.741175111134847,red,1,3,773.345241866748,853.60308331891,970.628304621509,410.498069503264,773.345241866748,853.60308331891,1032.95409169886,703.717843984329,970.628304621509,410.498069503264,672.5,379.163522034968,550.57236181288,653.017481158529,0,0,4,5,5,3,0,NaN,horizontal,horizontal,vertical,horizontal,horizontal,none
1b,2,100154,2,15,79,18,M,NA,constant,heterogeneous,3,present,0.675873041152954,1,horizontal,horizontal,1,0.976466963026259,red,3,2,619.68777079743,419.68777079743,1046.31108570371,534.001143498857,734.001143498857,846.311085703712,1046.31108570371,534.001143498857,619.68777079743,419.68777079743,0,0,0,0,0,0,6,5,4,NaN,NaN,NaN,vertical,horizontal,horizontal,none,none,none
1b,2,100154,2,16,80,18,M,NA,constant,heterogeneous,5,absent,0.861743927001953,1,horizontal,horizontal,1,0.81176266670227,red,1,NaN,721.200666434388,842.519411655264,NaN,NaN,721.200666434388,842.519411655264,1006.29933356561,749.885239334581,1006.29933356561,450.114760665419,721.200666434388,357.480588344736,545,600,0,0,4,3,6,6,0,NaN,horizontal,horizontal,horizontal,horizontal,vertical,none
1b,2,100154,2,17,81,18,M,NA,constant,heterogeneous,3,present,0.60655403137207,1,vertical,vertical,1,0.976466963026259,red,3,2,607.549057043193,432.704947607421,1041.10723677783,516.980120613425,751.343706178981,850.314931779154,1041.10723677783,516.980120613425,607.549057043193,432.704947607421,0,0,0,0,0,0,0,5,4,NaN,NaN,NaN,horizontal,horizontal,vertical,none,none,none
1b,2,100154,2,18,82,18,M,NA,constant,heterogeneous,6,absent,0.731663942337036,1,vertical,vertical,1,1.02352533340454,red,5,NaN,565.271262369628,500.363562235235,NaN,NaN,831.076682568313,853.099268668537,1034.72873763037,699.636437764765,1003.65205506206,446.537169096228,768.923317431687,346.900731331463,565.271262369628,500.363562235235,596.34794493794,753.462830903772,0,5,5,6,4,3,horizontal,horizontal,vertical,vertical,vertical,horizontal
1b,2,100154,2,19,83,18,M,NA,constant,heterogeneous,3,absent,0.509344816207886,1,horizontal,horizontal,1,0.752939703729418,red,2,NaN,911.784642431215,370.807518193712,NaN,NaN,942.594190385041,811.404581001536,911.784642431215,370.807518193712,545.621167183745,617.787900804752,0,0,0,0,0,0,0,4,5,NaN,NaN,NaN,horizontal,horizontal,horizontal,none,none,none
1b,2,100154,2,20,84,18,M,NA,constant,heterogeneous,5,absent,0.828095197677612,1,vertical,vertical,1,0.81176266670227,red,2,NaN,1054.37883281626,582.212099195248,NaN,NaN,895.524681321058,836.431882914531,1054.37883281626,582.212099195248,861.690083377915,352.574589799621,583.747735480111,464.870587620533,604.658667004661,763.910840470068,0,0,0,4,5,6,3,NaN,vertical,vertical,horizontal,vertical,horizontal,none
1b,2,100154,2,21,85,18,M,NA,constant,heterogeneous,3,present,0.50142502784729,1,vertical,vertical,1,0.635293777783712,red,1,3,696.282156015671,832.954091698863,650.114760665419,393.700666434388,696.282156015671,832.954091698863,1053.60308331891,573.345241866748,650.114760665419,393.700666434388,0,0,0,0,0,0,4,6,0,NaN,NaN,NaN,vertical,vertical,horizontal,none,none,none
1b,2,100154,2,22,86,18,M,NA,constant,heterogeneous,4,absent,0.540413856506348,1,vertical,vertical,1,0.647058370378282,red,1,NaN,927.5,820.836477965032,NaN,NaN,927.5,820.836477965032,1020.83647796503,472.5,672.5,379.163522034968,579.163522034968,727.5,0,0,0,0,4,6,3,0,NaN,NaN,vertical,horizontal,horizontal,vertical,none,none
1b,2,100154,2,23,87,18,M,NA,constant,heterogeneous,3,absent,0.49206805229187,1,vertical,vertical,1,0.623529185189141,red,1,NaN,831.076682568313,853.099268668537,NaN,NaN,831.076682568313,853.099268668537,1003.65205506206,446.537169096228,565.271262369628,500.363562235235,0,0,0,0,0,0,4,5,0,NaN,NaN,NaN,vertical,vertical,vertical,none,none,none
1b,2,100154,2,24,88,18,M,NA,constant,heterogeneous,6,absent,0.778570890426636,1,vertical,vertical,1,0.635293777783712,red,5,NaN,548.13947314824,560.109211414741,NaN,NaN,891.383827134052,838.063008756786,1051.86052685176,639.890788585259,960.476699717708,401.827779828472,708.616172865948,361.936991243214,548.13947314824,560.109211414741,639.523300282292,798.172220171528,0,5,3,0,4,6,vertical,vertical,horizontal,vertical,vertical,vertical
1b,2,100154,2,25,89,18,M,NA,constant,heterogeneous,5,present,0.731208086013794,1,horizontal,horizontal,1,0.835291851891412,red,1,5,844.280285305067,851.125977018113,574.848363820974,719.715248510402,844.280285305067,851.125977018113,1052.5183575291,635.489140744817,911.784642431215,370.807518193712,616.568350913644,422.862115532956,574.848363820974,719.715248510402,0,0,4,6,6,5,3,NaN,horizontal,vertical,horizontal,horizontal,horizontal,none
1b,2,100154,2,26,90,18,M,NA,constant,heterogeneous,4,present,0.63821005821228,1,vertical,vertical,1,0.7999980741077,red,3,2,760.109211414741,348.13947314824,1051.86052685176,560.109211414741,839.890788585259,851.86052685176,1051.86052685176,560.109211414741,760.109211414741,348.13947314824,548.13947314824,639.890788585259,0,0,0,0,0,3,4,3,NaN,NaN,vertical,horizontal,vertical,vertical,none,none
1b,2,100154,2,27,91,18,M,NA,constant,heterogeneous,6,present,0.655503034591675,0,horizontal,vertical,1,0.823527259296841,red,2,5,946.261991269517,808.883771293693,653.738008730483,391.116228706307,692.232343256122,831.108485694346,946.261991269517,808.883771293693,1054.0296480134,577.775285599347,907.767656743878,368.891514305654,653.738008730483,391.116228706307,545.970351986605,622.224714400653,0,4,5,0,5,3,vertical,horizontal,vertical,horizontal,horizontal,vertical
1b,2,100154,2,28,92,18,M,NA,constant,heterogeneous,4,absent,0.471978902816772,1,vertical,vertical,1,0.764704296323988,red,3,NaN,729.712474266665,354.878267535729,NaN,NaN,870.287525733335,845.121732464271,1045.12173246427,529.712474266665,729.712474266665,354.878267535729,554.878267535729,670.287525733335,0,0,0,0,6,0,4,0,NaN,NaN,vertical,vertical,vertical,vertical,none,none
1b,2,100154,2,29,93,18,M,NA,constant,heterogeneous,6,present,0.734572172164917,1,horizontal,horizontal,1,0.847056444485982,red,1,3,813.345668841951,854.650531362416,1013.86099482608,461.117046071168,813.345668841951,854.650531362416,1027.20666366803,715.767577433584,1013.86099482608,461.117046071168,786.654331158049,345.349468637584,572.793336331966,484.232422566416,586.139005173917,738.882953928832,4,3,3,5,6,0,horizontal,vertical,horizontal,vertical,horizontal,vertical
1b,2,100154,2,30,94,18,M,NA,constant,heterogeneous,3,absent,0.49137806892395,1,vertical,vertical,1,0.694116740756565,red,2,NaN,1003.65205506206,446.537169096228,NaN,NaN,831.076682568313,853.099268668537,1003.65205506206,446.537169096228,565.271262369628,500.363562235235,0,0,0,0,0,0,0,4,5,NaN,NaN,NaN,horizontal,vertical,horizontal,none,none,none
1b,2,100154,2,31,95,18,M,NA,constant,heterogeneous,5,absent,0.646140098571777,1,horizontal,horizontal,1,0.647058370378282,red,5,NaN,552.574589799621,538.309916622085,NaN,NaN,664.870587620533,816.252264519889,963.910840470068,795.341332995339,1036.43188291453,504.475318678942,782.212099195248,345.621167183745,552.574589799621,538.309916622085,0,0,0,5,3,6,4,NaN,vertical,horizontal,vertical,vertical,horizontal,none
1b,2,100154,2,32,96,18,M,NA,constant,heterogeneous,3,absent,0.817960023880005,1,horizontal,horizontal,1,0.729410518540276,red,1,NaN,610.498069503264,770.628304621509,NaN,NaN,610.498069503264,770.628304621509,1042.51941165526,678.799333565612,746.982518841471,350.57236181288,0,0,0,0,0,0,4,3,3,NaN,NaN,NaN,horizontal,horizontal,vertical,none,none,none
1b,2,100154,2,33,97,18,M,NA,constant,heterogeneous,4,absent,0.756544828414917,1,vertical,vertical,1,0.694116740756565,red,1,NaN,903.717843984329,832.954091698863,NaN,NaN,903.717843984329,832.954091698863,1032.95409169886,496.282156015671,696.282156015671,367.045908301137,567.045908301137,703.717843984329,0,0,0,0,4,0,6,3,NaN,NaN,vertical,horizontal,vertical,horizontal,none,none
1b,2,100154,2,34,98,18,M,NA,constant,heterogeneous,6,present,1.24118089675903,1,horizontal,horizontal,1,0.894114814864265,red,3,4,995.341332995339,436.089159529932,755.719714694933,348.874022981887,844.280285305067,851.125977018113,1039.62161830041,687.215136548046,995.341332995339,436.089159529932,755.719714694933,348.874022981887,560.378381699593,512.784863451954,604.658667004661,763.910840470068,5,3,4,0,6,6,vertical,horizontal,horizontal,horizontal,horizontal,horizontal
1b,2,100154,2,35,99,18,M,NA,constant,heterogeneous,5,absent,0.700416088104248,1,horizontal,horizontal,1,1.09411288897196,red,1,NaN,696.282156015671,832.954091698863,NaN,NaN,696.282156015671,832.954091698863,989.501930496736,770.628304621509,1020.83647796503,472.5,746.982518841471,350.57236181288,546.39691668109,573.345241866748,0,0,4,3,6,0,6,NaN,horizontal,vertical,horizontal,vertical,horizontal,none
1b,2,100154,2,36,100,18,M,NA,constant,heterogeneous,6,absent,0.858947992324829,1,vertical,vertical,1,1.02352533340454,red,6,NaN,545,600,NaN,NaN,672.5,820.836477965032,927.5,820.836477965032,1055,600,927.5,379.163522034968,672.5,379.163522034968,545,600,5,3,0,3,6,4,vertical,horizontal,horizontal,vertical,vertical,vertical
1b,2,100154,2,37,101,18,M,NA,constant,heterogeneous,3,present,0.815721988677979,1,horizontal,horizontal,1,0.764704296323988,red,1,2,607.549057043193,767.295052392579,1041.10723677783,683.019879386575,607.549057043193,767.295052392579,1041.10723677783,683.019879386575,751.343706178981,349.685068220846,0,0,0,0,0,0,4,0,6,NaN,NaN,NaN,horizontal,horizontal,vertical,none,none,none
1b,2,100154,2,38,102,18,M,NA,constant,heterogeneous,5,present,0.566874980926514,1,horizontal,horizontal,1,0.929408592647976,red,4,1,601.827779828472,439.523300282291,865.998856501143,846.311085703712,865.998856501143,846.311085703712,1054.65053136242,613.345668841951,891.383827134052,361.936991243214,601.827779828472,439.523300282291,586.139005173917,738.882953928832,0,0,5,3,6,4,0,NaN,vertical,horizontal,horizontal,horizontal,horizontal,none
1b,2,100154,2,39,103,18,M,NA,constant,heterogeneous,4,present,0.723328113555908,1,vertical,vertical,1,0.658822962972853,red,2,1,1042.51941165526,521.200666434388,878.799333565612,842.519411655264,878.799333565612,842.519411655264,1042.51941165526,521.200666434388,721.200666434388,357.480588344736,557.480588344736,678.799333565612,0,0,0,0,3,4,0,5,NaN,NaN,horizontal,vertical,horizontal,vertical,none,none
1b,2,100154,2,40,104,18,M,NA,constant,heterogeneous,4,absent,1.16308784484863,1,horizontal,horizontal,1,0.847056444485982,red,2,NaN,1041.10723677783,683.019879386575,NaN,NaN,716.980120613425,841.107236777826,1041.10723677783,683.019879386575,883.019879386575,358.892763222174,558.892763222174,516.980120613425,0,0,0,0,0,4,5,5,NaN,NaN,vertical,horizontal,vertical,vertical,none,none
1b,2,100154,2,41,105,18,M,NA,constant,heterogeneous,4,present,1.31045007705688,1,horizontal,horizontal,1,0.6,red,2,4,1046.31108570371,534.001143498857,553.688914296288,665.998856501143,865.998856501143,846.311085703712,1046.31108570371,534.001143498857,734.001143498857,353.688914296288,553.688914296288,665.998856501143,0,0,0,0,5,4,3,5,NaN,NaN,vertical,horizontal,horizontal,vertical,none,none
1b,2,100154,2,42,106,18,M,NA,constant,heterogeneous,5,present,0.756250143051147,1,vertical,vertical,1,0.964702370431688,red,5,3,588.595418998464,742.594190385041,887.215136548046,360.378381699593,870.287525733335,845.121732464271,1054.84466088987,608.899371659138,887.215136548046,360.378381699593,599.057257830286,443.006323791957,588.595418998464,742.594190385041,0,0,3,6,5,6,4,NaN,horizontal,vertical,vertical,vertical,vertical,none
1b,2,100154,2,43,107,18,M,NA,constant,heterogeneous,5,present,1.1328010559082,1,vertical,vertical,1,0.858821037080553,red,2,5,989.501930496736,770.628304621509,546.39691668109,573.345241866748,696.282156015671,832.954091698863,989.501930496736,770.628304621509,1020.83647796503,472.5,746.982518841471,350.57236181288,546.39691668109,573.345241866748,0,0,3,4,6,0,5,NaN,vertical,vertical,vertical,horizontal,horizontal,none
1b,2,100154,2,44,108,18,M,NA,constant,heterogeneous,4,present,0.502977848052979,1,vertical,vertical,1,0.976466963026259,red,3,2,768.923317431687,346.900731331463,1053.09926866854,568.923317431687,831.076682568313,853.099268668537,1053.09926866854,568.923317431687,768.923317431687,346.900731331463,546.900731331463,631.076682568313,0,0,0,0,0,6,4,5,NaN,NaN,vertical,vertical,vertical,horizontal,none,none
1b,2,100154,2,45,109,18,M,NA,constant,heterogeneous,3,present,0.55687689781189,1,vertical,vertical,1,0.9999961482154,red,2,3,1052.5183575291,635.489140744817,704.475318678942,363.568117085469,643.006323791957,800.942742169714,1052.5183575291,635.489140744817,704.475318678942,363.568117085469,0,0,0,0,0,0,6,4,3,NaN,NaN,NaN,horizontal,vertical,horizontal,none,none,none
1b,2,100154,2,46,110,18,M,NA,constant,heterogeneous,4,absent,0.700685024261475,1,horizontal,horizontal,1,0.611764592594571,red,2,NaN,992.450942956807,767.295052392579,NaN,NaN,632.704947607421,792.450942956807,992.450942956807,767.295052392579,967.295052392579,407.549057043193,607.549057043193,432.704947607421,0,0,0,0,0,4,5,3,NaN,NaN,horizontal,horizontal,horizontal,vertical,none,none
1b,2,100154,2,47,111,18,M,NA,constant,heterogeneous,4,present,0.554781913757324,1,horizontal,horizontal,1,0.7999980741077,red,3,2,622.862115532956,416.568350913644,983.431649086356,422.862115532956,977.137884467044,783.431649086356,983.431649086356,422.862115532956,622.862115532956,416.568350913644,616.568350913644,777.137884467044,0,0,0,0,3,5,4,0,NaN,NaN,vertical,vertical,horizontal,vertical,none,none
1b,2,100154,2,48,112,18,M,NA,constant,heterogeneous,4,absent,0.778892040252686,1,horizontal,horizontal,1,1.03528992599911,red,1,NaN,883.019879386575,841.107236777826,NaN,NaN,883.019879386575,841.107236777826,1041.10723677783,516.980120613425,716.980120613425,358.892763222174,558.892763222174,683.019879386575,0,0,0,0,4,3,6,3,NaN,NaN,horizontal,vertical,horizontal,horizontal,none,none
1b,2,100154,2,49,113,18,M,NA,constant,heterogeneous,5,absent,0.599678993225098,1,horizontal,horizontal,1,0.647058370378282,red,2,NaN,977.137884467044,783.431649086356,NaN,NaN,680.284751489598,825.151636179026,977.137884467044,783.431649086356,1029.19248180629,488.215357568785,764.510859255183,347.4816424709,548.874022981887,555.719714694933,0,0,6,4,5,3,3,NaN,vertical,horizontal,horizontal,horizontal,vertical,none
1b,2,100154,2,50,114,18,M,NA,constant,heterogeneous,3,absent,1.04148578643799,1,horizontal,horizontal,1,0.882350222269694,red,2,NaN,800,345,NaN,NaN,1020.83647796503,727.5,800,345,579.163522034968,727.5,0,0,0,0,0,0,5,4,6,NaN,NaN,NaN,vertical,horizontal,vertical,none,none,none
1b,2,100154,2,51,115,18,M,NA,constant,heterogeneous,4,present,0.56867504119873,1,horizontal,horizontal,1,0.705881333351135,red,2,1,1054.65053136242,613.345668841951,786.654331158049,854.650531362416,786.654331158049,854.650531362416,1054.65053136242,613.345668841951,813.345668841951,345.349468637584,545.349468637584,586.654331158049,0,0,0,0,5,4,6,3,NaN,NaN,horizontal,horizontal,horizontal,horizontal,none,none
1b,2,100154,2,52,116,18,M,NA,constant,heterogeneous,6,present,1.11999201774597,1,vertical,vertical,1,0.6,red,5,4,591.116228706307,453.738008730483,822.224714400653,345.970351986605,777.775285599347,854.029648013395,1008.88377129369,746.261991269517,1031.10848569435,492.232343256122,822.224714400653,345.970351986605,591.116228706307,453.738008730483,568.891514305654,707.767656743878,5,6,0,6,4,3,horizontal,horizontal,horizontal,vertical,vertical,vertical
1b,2,100154,2,53,117,18,M,NA,constant,heterogeneous,3,present,0.894364833831787,1,horizontal,horizontal,1,0.776468888918559,red,1,2,835.489140744817,852.518357529101,1000.94274216971,443.006323791957,835.489140744817,852.518357529101,1000.94274216971,443.006323791957,563.568117085469,504.475318678942,0,0,0,0,0,0,4,6,3,NaN,NaN,NaN,horizontal,horizontal,vertical,none,none,none
1b,2,100154,2,54,118,18,M,NA,constant,heterogeneous,5,present,1.14208006858826,1,vertical,vertical,1,1.09411288897196,red,2,3,1051.86052685176,639.890788585259,915.767577433584,372.793336331966,839.890788585259,851.86052685176,1051.86052685176,639.890788585259,915.767577433584,372.793336331966,619.68777079743,419.68777079743,572.793336331966,715.767577433584,0,0,5,4,3,6,5,NaN,horizontal,vertical,horizontal,horizontal,horizontal,none
1b,2,100154,2,55,119,18,M,NA,constant,heterogeneous,6,absent,0.935285091400146,1,horizontal,horizontal,1,0.894114814864265,red,6,NaN,596.34794493794,753.462830903772,NaN,NaN,831.076682568313,853.099268668537,1034.72873763037,699.636437764765,1003.65205506206,446.537169096228,768.923317431687,346.900731331463,565.271262369628,500.363562235235,596.34794493794,753.462830903772,5,5,0,3,6,4,horizontal,horizontal,vertical,vertical,vertical,horizontal
1b,2,100154,2,56,120,18,M,NA,constant,heterogeneous,3,absent,0.73198390007019,1,horizontal,horizontal,1,1.09411288897196,red,3,NaN,548.874022981887,555.719714694933,NaN,NaN,887.215136548046,839.621618300407,963.910840470068,404.658667004661,548.874022981887,555.719714694933,0,0,0,0,0,0,0,6,4,NaN,NaN,NaN,vertical,horizontal,horizontal,none,none,none
1b,2,100154,2,57,121,18,M,NA,constant,heterogeneous,6,absent,1.18715715408325,1,horizontal,horizontal,1,0.611764592594571,red,1,NaN,839.890788585259,851.86052685176,NaN,NaN,839.890788585259,851.86052685176,1038.06300875679,691.383827134052,998.172220171528,439.523300282291,760.109211414741,348.13947314824,561.936991243214,508.616172865948,601.827779828472,760.476699717708,4,0,5,3,6,6,horizontal,vertical,horizontal,vertical,vertical,vertical
1b,2,100154,2,58,122,18,M,NA,constant,heterogeneous,6,absent,1.03606390953064,1,vertical,vertical,1,0.847056444485982,red,1,NaN,742.637481142314,848.464366520235,NaN,NaN,742.637481142314,848.464366520235,986.495193912888,773.909581815937,1043.85771277057,525.445215295702,857.362518857686,351.535633479765,613.504806087112,426.090418184063,556.142287229426,674.554784704298,4,6,3,0,3,6,vertical,vertical,horizontal,horizontal,horizontal,vertical
1b,2,100154,2,59,123,18,M,NA,constant,heterogeneous,5,absent,0.644983053207397,1,vertical,vertical,1,0.9999961482154,red,1,NaN,650.114760665419,806.299333565612,NaN,NaN,650.114760665419,806.299333565612,949.885239334581,806.299333565612,1042.51941165526,521.200666434388,800,345,557.480588344736,521.200666434388,0,0,4,5,5,3,6,NaN,vertical,horizontal,horizontal,horizontal,vertical,none
1b,2,100154,2,60,124,18,M,NA,constant,heterogeneous,6,present,1.30292510986328,1,horizontal,horizontal,1,0.847056444485982,red,3,4,1043.85771277057,525.445215295702,857.362518857686,351.535633479765,742.637481142314,848.464366520235,986.495193912888,773.909581815937,1043.85771277057,525.445215295702,857.362518857686,351.535633479765,613.504806087112,426.090418184063,556.142287229426,674.554784704298,5,3,4,0,6,3,horizontal,horizontal,horizontal,vertical,vertical,vertical
1b,2,100154,2,61,125,18,M,NA,constant,heterogeneous,4,absent,1.27870607376099,1,horizontal,horizontal,1,0.670587555567423,red,2,NaN,1013.86099482608,461.117046071168,NaN,NaN,938.882953928832,813.860994826083,1013.86099482608,461.117046071168,661.117046071168,386.139005173917,586.139005173917,738.882953928832,0,0,0,0,6,4,0,5,NaN,NaN,vertical,horizontal,vertical,vertical,none,none
1b,2,100154,2,62,126,18,M,NA,constant,heterogeneous,5,present,0.597056865692139,1,vertical,vertical,1,0.647058370378282,red,2,1,1051.12597701811,555.719714694933,919.715248510402,825.151636179026,919.715248510402,825.151636179026,1051.12597701811,555.719714694933,835.489140744817,347.4816424709,570.807518193712,488.215357568785,622.862115532956,783.431649086356,0,0,0,4,6,0,6,NaN,horizontal,vertical,vertical,vertical,vertical,none
1b,2,100154,2,63,127,18,M,NA,constant,heterogeneous,6,absent,1.37083196640015,1,horizontal,horizontal,1,0.882350222269694,red,4,NaN,708.616172865948,361.936991243214,NaN,NaN,891.383827134052,838.063008756786,1051.86052685176,639.890788585259,960.476699717708,401.827779828472,708.616172865948,361.936991243214,548.13947314824,560.109211414741,639.523300282292,798.172220171528,0,3,3,4,6,5,vertical,vertical,vertical,horizontal,horizontal,horizontal
1b,2,100154,2,64,128,18,M,NA,constant,heterogeneous,6,present,0.711430072784424,1,vertical,vertical,1,0.858821037080553,red,3,1,998.172220171528,439.523300282291,839.890788585259,851.86052685176,839.890788585259,851.86052685176,1038.06300875679,691.383827134052,998.172220171528,439.523300282291,760.109211414741,348.13947314824,561.936991243214,508.616172865948,601.827779828472,760.476699717708,0,0,4,3,6,5,horizontal,horizontal,vertical,horizontal,vertical,vertical
1b,2,100154,3,1,129,18,M,NA,constant,heterogeneous,5,absent,0.579421997070312,1,vertical,vertical,1,0.776468888918559,red,1,NaN,795.549636358493,854.96116226488,NaN,NaN,795.549636358493,854.96116226488,1041.10723677783,683.019879386575,953.462830903772,396.34794493794,653.738008730483,391.116228706307,556.142287229426,674.554784704298,0,0,4,0,5,3,6,NaN,vertical,vertical,vertical,vertical,horizontal,none
1b,2,100154,3,2,130,18,M,NA,constant,heterogeneous,3,absent,0.663299083709717,0,vertical,horizontal,1,0.7999980741077,red,3,NaN,629.371695378491,410.498069503264,NaN,NaN,721.200666434388,842.519411655264,1049.42763818712,546.982518841471,629.371695378491,410.498069503264,0,0,0,0,0,0,3,6,4,NaN,NaN,NaN,vertical,horizontal,vertical,none,none,none
1b,2,100154,3,3,131,18,M,NA,constant,heterogeneous,5,present,0.659505844116211,1,vertical,vertical,1,0.741175111134847,red,2,5,1054.96116226488,604.450363641507,591.116228706307,746.261991269517,874.554784704298,843.857712770574,1054.96116226488,604.450363641507,883.019879386575,358.892763222174,596.34794493794,446.537169096228,591.116228706307,746.261991269517,0,0,3,4,0,5,5,NaN,horizontal,vertical,vertical,vertical,horizontal,none
1b,2,100154,3,4,132,18,M,NA,constant,heterogeneous,6,absent,0.536185026168823,1,vertical,vertical,1,0.764704296323988,red,5,NaN,593.700666434388,450.114760665419,NaN,NaN,773.345241866748,853.60308331891,1006.29933356561,749.885239334581,1032.95409169886,496.282156015671,826.654758133252,346.39691668109,593.700666434388,450.114760665419,567.045908301137,703.717843984329,6,3,0,5,4,5,horizontal,vertical,vertical,horizontal,vertical,horizontal
1b,2,100154,3,5,133,18,M,NA,constant,heterogeneous,4,present,0.76029896736145,1,horizontal,horizontal,1,0.658822962972853,red,1,3,768.923317431687,853.099268668537,831.076682568313,346.900731331463,768.923317431687,853.099268668537,1053.09926866854,631.076682568313,831.076682568313,346.900731331463,546.900731331463,568.923317431687,0,0,0,0,4,6,6,5,NaN,NaN,horizontal,horizontal,horizontal,vertical,none,none
1b,2,100154,3,6,134,18,M,NA,constant,heterogeneous,3,present,0.595614910125732,1,horizontal,horizontal,1,0.7999980741077,red,1,3,596.34794493794,753.462830903772,768.923317431687,346.900731331463,596.34794493794,753.462830903772,1034.72873763037,699.636437764765,768.923317431687,346.900731331463,0,0,0,0,0,0,4,3,0,NaN,NaN,NaN,horizontal,horizontal,vertical,none,none,none
1b,2,100154,3,7,135,18,M,NA,constant,heterogeneous,3,absent,0.819977998733521,1,horizontal,horizontal,1,0.623529185189141,red,1,NaN,795.549636358493,854.96116226488,NaN,NaN,795.549636358493,854.96116226488,1023.02802532055,476.373546837184,581.422338320961,468.665290897936,0,0,0,0,0,0,4,5,3,NaN,NaN,NaN,horizontal,vertical,horizontal,none,none,none
1b,2,100154,3,8,136,18,M,NA,constant,heterogeneous,6,absent,0.705029964447021,1,vertical,vertical,1,1.03528992599911,red,6,NaN,552.574589799621,661.690083377915,NaN,NaN,729.712474266665,845.121732464271,977.137884467044,783.431649086356,1047.42541020038,538.309916622085,870.287525733335,354.878267535729,622.862115532956,416.568350913644,552.574589799621,661.690083377915,3,0,6,3,5,4,horizontal,horizontal,horizontal,vertical,horizontal,vertical
1b,2,100154,3,9,137,18,M,NA,constant,heterogeneous,5,absent,1.22535586357117,0,horizontal,vertical,1,0.682352148161994,red,3,NaN,874.554784704298,356.142287229426,NaN,NaN,883.019879386575,841.107236777826,1054.96116226488,595.549636358493,874.554784704298,356.142287229426,591.116228706307,453.738008730483,596.34794493794,753.462830903772,0,0,3,0,4,3,5,NaN,vertical,horizontal,horizontal,horizontal,horizontal,none
1b,2,100154,3,10,138,18,M,NA,constant,heterogeneous,3,present,0.650300025939941,1,horizontal,horizontal,1,0.611764592594571,red,2,1,1036.43188291453,695.524681321058,599.057257830286,756.993676208043,599.057257830286,756.993676208043,1036.43188291453,695.524681321058,764.510859255183,347.4816424709,0,0,0,0,0,0,3,4,6,NaN,NaN,NaN,horizontal,horizontal,vertical,none,none,none
1b,2,100154,3,11,139,18,M,NA,constant,heterogeneous,6,present,0.613039016723633,1,vertical,vertical,1,0.882350222269694,red,2,6,1043.85771277057,674.554784704298,613.504806087112,773.909581815937,857.362518857686,848.464366520235,1043.85771277057,674.554784704298,986.495193912888,426.090418184063,742.637481142314,351.535633479765,556.142287229426,525.445215295702,613.504806087112,773.909581815937,0,4,0,6,3,6,vertical,vertical,horizontal,horizontal,horizontal,vertical
1b,2,100154,3,12,140,18,M,NA,constant,heterogeneous,4,present,0.494527101516724,1,vertical,vertical,1,0.647058370378282,red,2,4,1051.12597701811,644.280285305067,548.874022981887,555.719714694933,755.719714694933,851.125977018113,1051.12597701811,644.280285305067,844.280285305067,348.874022981887,548.874022981887,555.719714694933,0,0,0,0,0,4,6,6,NaN,NaN,vertical,vertical,horizontal,horizontal,none,none
1b,2,100154,3,13,141,18,M,NA,constant,heterogeneous,5,absent,1.12617111206055,1,horizontal,horizontal,1,1.07058370378282,red,1,NaN,734.001143498857,846.311085703712,NaN,NaN,734.001143498857,846.311085703712,1013.86099482608,738.882953928832,998.172220171528,439.523300282291,708.616172865948,361.936991243214,545.349468637584,613.345668841951,0,0,4,6,5,0,5,NaN,horizontal,vertical,vertical,horizontal,vertical,none
1b,2,100154,3,14,142,18,M,NA,constant,heterogeneous,4,absent,1.44365978240967,1,horizontal,horizontal,1,0.752939703729418,red,3,NaN,755.719714694933,348.874022981887,NaN,NaN,844.280285305067,851.125977018113,1051.12597701811,555.719714694933,755.719714694933,348.874022981887,548.874022981887,644.280285305067,0,0,0,0,6,3,4,5,NaN,NaN,horizontal,vertical,horizontal,vertical,none,none
1b,2,100154,3,15,143,18,M,NA,constant,heterogeneous,5,absent,1.02725791931152,1,horizontal,horizontal,1,0.929408592647976,red,4,NaN,570.807518193712,488.215357568785,NaN,NaN,919.715248510402,825.151636179026,1051.12597701811,555.719714694933,835.489140744817,347.4816424709,570.807518193712,488.215357568785,622.862115532956,783.431649086356,0,0,5,0,5,4,3,NaN,vertical,horizontal,horizontal,horizontal,horizontal,none
1b,2,100154,3,16,144,18,M,NA,constant,heterogeneous,5,absent,1.04618501663208,1,vertical,vertical,1,0.905879407458835,red,5,NaN,561.936991243214,691.383827134052,NaN,NaN,813.345668841951,854.650531362416,1046.31108570371,665.998856501143,938.882953928832,386.139005173917,639.523300282292,401.827779828472,561.936991243214,691.383827134052,0,0,3,0,5,6,4,NaN,vertical,horizontal,vertical,horizontal,vertical,none
1b,2,100154,3,17,145,18,M,NA,constant,heterogeneous,4,absent,1.5770890712738,1,vertical,vertical,1,0.682352148161994,red,2,NaN,1054.37883281626,582.212099195248,NaN,NaN,817.787900804752,854.378832816255,1054.37883281626,582.212099195248,782.212099195248,345.621167183745,545.621167183745,617.787900804752,0,0,0,0,6,4,5,5,NaN,NaN,vertical,vertical,horizontal,horizontal,none,none
1b,2,100154,3,18,146,18,M,NA,constant,heterogeneous,4,absent,0.579983949661255,1,horizontal,horizontal,1,0.952937777837118,red,2,NaN,1049.42763818712,653.017481158529,NaN,NaN,746.982518841471,849.42763818712,1049.42763818712,653.017481158529,853.017481158529,350.57236181288,550.57236181288,546.982518841471,0,0,0,0,5,4,6,3,NaN,NaN,horizontal,horizontal,horizontal,horizontal,none,none
1b,2,100154,3,19,147,18,M,NA,constant,heterogeneous,3,absent,0.742791891098022,1,horizontal,horizontal,1,0.952937777837118,red,1,NaN,704.475318678942,836.431882914531,NaN,NaN,704.475318678942,836.431882914531,1052.5183575291,564.510859255183,643.006323791957,399.057257830286,0,0,0,0,0,0,4,0,0,NaN,NaN,NaN,horizontal,horizontal,horizontal,none,none,none
1b,2,100154,3,20,148,18,M,NA,constant,heterogeneous,5,present,0.74661922454834,1,horizontal,horizontal,1,0.835291851891412,red,5,2,546.900731331463,568.923317431687,986.495193912888,773.909581815937,692.232343256122,831.108485694346,986.495193912888,773.909581815937,1023.02802532055,476.373546837184,751.343706178981,349.685068220846,546.900731331463,568.923317431687,0,0,3,3,0,5,4,NaN,vertical,vertical,horizontal,vertical,horizontal,none
1b,2,100154,3,21,149,18,M,NA,constant,heterogeneous,3,present,0.956079006195068,1,horizontal,horizontal,1,0.717645925945706,red,1,3,696.282156015671,832.954091698863,650.114760665419,393.700666434388,696.282156015671,832.954091698863,1053.60308331891,573.345241866748,650.114760665419,393.700666434388,0,0,0,0,0,0,4,3,5,NaN,NaN,NaN,horizontal,vertical,horizontal,none,none,none
1b,2,100154,3,22,150,18,M,NA,constant,heterogeneous,5,absent,0.583230018615723,1,vertical,vertical,1,0.7999980741077,red,1,NaN,708.616172865948,838.063008756786,NaN,NaN,708.616172865948,838.063008756786,998.172220171528,760.476699717708,1013.86099482608,461.117046071168,734.001143498857,353.688914296288,545.349468637584,586.654331158049,0,0,4,5,0,3,6,NaN,vertical,horizontal,vertical,horizontal,horizontal,none
1b,2,100154,3,23,151,18,M,NA,constant,heterogeneous,6,absent,1.51402401924133,1,horizontal,horizontal,1,0.752939703729418,red,6,NaN,565.271262369628,699.636437764765,NaN,NaN,768.923317431687,853.099268668537,1003.65205506206,753.462830903772,1034.72873763037,500.363562235235,831.076682568313,346.900731331463,596.34794493794,446.537169096228,565.271262369628,699.636437764765,0,5,0,6,3,4,horizontal,horizontal,horizontal,horizontal,vertical,horizontal
1b,2,100154,3,24,152,18,M,NA,constant,heterogeneous,3,absent,0.510289907455444,1,vertical,vertical,1,0.670587555567423,red,3,NaN,572.793336331966,715.767577433584,NaN,NaN,1013.86099482608,738.882953928832,813.345668841951,345.349468637584,572.793336331966,715.767577433584,0,0,0,0,0,0,0,3,4,NaN,NaN,NaN,horizontal,horizontal,vertical,none,none,none
1b,2,100154,3,25,153,18,M,NA,constant,heterogeneous,3,present,0.556985139846802,1,vertical,vertical,1,1.03528992599911,red,3,2,549.685068220846,551.343706178981,967.295052392579,407.549057043193,883.019879386575,841.107236777826,967.295052392579,407.549057043193,549.685068220846,551.343706178981,0,0,0,0,0,0,5,0,4,NaN,NaN,NaN,horizontal,vertical,vertical,none,none,none
1b,2,100154,3,26,154,18,M,NA,constant,heterogeneous,4,absent,0.550554037094116,1,vertical,vertical,1,0.705881333351135,red,4,NaN,572.793336331966,715.767577433584,NaN,NaN,915.767577433584,827.206663668034,1027.20666366803,484.232422566416,684.232422566416,372.793336331966,572.793336331966,715.767577433584,0,0,0,0,5,0,6,4,NaN,NaN,horizontal,horizontal,vertical,vertical,none,none
1b,2,100154,3,27,155,18,M,NA,constant,heterogeneous,5,present,1.68135714530945,1,horizontal,horizontal,1,0.788233481513129,red,3,1,891.383827134052,361.936991243214,865.998856501143,846.311085703712,865.998856501143,846.311085703712,1054.65053136242,613.345668841951,891.383827134052,361.936991243214,601.827779828472,439.523300282291,586.139005173917,738.882953928832,0,0,3,0,4,6,5,NaN,horizontal,horizontal,horizontal,vertical,horizontal,none
1b,2,100154,3,28,156,18,M,NA,constant,heterogeneous,6,absent,1.08615303039551,1,vertical,vertical,1,0.941173185242547,red,3,NaN,1051.86052685176,560.109211414741,NaN,NaN,708.616172865948,838.063008756786,960.476699717708,798.172220171528,1051.86052685176,560.109211414741,891.383827134052,361.936991243214,639.523300282292,401.827779828472,548.13947314824,639.890788585259,0,5,4,0,6,6,vertical,vertical,vertical,vertical,horizontal,horizontal
1b,2,100154,3,29,157,18,M,NA,constant,heterogeneous,3,absent,0.593021869659424,0,horizontal,vertical,1,0.847056444485982,red,2,NaN,1006.29933356561,450.114760665419,NaN,NaN,826.654758133252,853.60308331891,1006.29933356561,450.114760665419,567.045908301137,496.282156015671,0,0,0,0,0,0,0,4,3,NaN,NaN,NaN,horizontal,horizontal,horizontal,none,none,none
1b,2,100154,3,30,158,18,M,NA,constant,heterogeneous,4,present,1.03712391853333,1,horizontal,horizontal,1,0.81176266670227,red,2,1,1051.12597701811,644.280285305067,755.719714694933,851.125977018113,755.719714694933,851.125977018113,1051.12597701811,644.280285305067,844.280285305067,348.874022981887,548.874022981887,555.719714694933,0,0,0,0,3,4,3,0,NaN,NaN,horizontal,horizontal,vertical,vertical,none,none
1b,2,100154,3,31,159,18,M,NA,constant,heterogeneous,6,present,0.952036142349243,1,vertical,vertical,1,0.894114814864265,red,3,5,1054.37883281626,582.212099195248,657.405809614959,388.595418998464,688.215357568785,829.192481806288,942.594190385041,811.404581001536,1054.37883281626,582.212099195248,911.784642431215,370.807518193712,657.405809614959,388.595418998464,545.621167183745,617.787900804752,6,3,4,0,5,6,vertical,horizontal,vertical,vertical,vertical,horizontal
1b,2,100154,3,32,160,18,M,NA,constant,heterogeneous,5,absent,1.5756471157074,1,horizontal,horizontal,1,1.01176074080997,red,2,NaN,1041.10723677783,683.019879386575,NaN,NaN,795.549636358493,854.96116226488,1041.10723677783,683.019879386575,953.462830903772,396.34794493794,653.738008730483,391.116228706307,556.142287229426,674.554784704298,0,0,6,4,3,6,0,NaN,vertical,horizontal,vertical,horizontal,horizontal,none
1b,2,100154,3,33,161,18,M,NA,constant,heterogeneous,6,absent,1.18229484558105,1,horizontal,horizontal,1,0.741175111134847,red,5,NaN,599.057257830286,443.006323791957,NaN,NaN,764.510859255183,852.518357529101,1000.94274216971,756.993676208043,1036.43188291453,504.475318678942,835.489140744817,347.4816424709,599.057257830286,443.006323791957,563.568117085469,695.524681321058,6,0,0,3,4,5,horizontal,horizontal,horizontal,horizontal,horizontal,horizontal
1b,2,100154,3,34,162,18,M,NA,constant,heterogeneous,6,present,0.91536021232605,1,vertical,vertical,1,0.847056444485982,red,6,2,554.878267535729,670.287525733335,983.431649086356,777.137884467044,738.309916622085,847.425410200379,983.431649086356,777.137884467044,1045.12173246427,529.712474266665,861.690083377915,352.574589799621,616.568350913644,422.862115532956,554.878267535729,670.287525733335,0,5,3,6,0,4,horizontal,horizontal,vertical,vertical,vertical,vertical
1b,2,100154,3,35,163,18,M,NA,constant,heterogeneous,3,present,0.699958086013794,1,vertical,vertical,1,0.929408592647976,red,2,1,995.341332995339,436.089159529932,844.280285305067,851.125977018113,844.280285305067,851.125977018113,995.341332995339,436.089159529932,560.378381699593,512.784863451954,0,0,0,0,0,0,0,4,0,NaN,NaN,NaN,vertical,vertical,vertical,none,none,none
1b,2,100154,3,36,164,18,M,NA,constant,heterogeneous,3,absent,0.584352970123291,1,vertical,vertical,1,0.905879407458835,red,3,NaN,558.892763222174,516.980120613425,NaN,NaN,848.656293821019,850.314931779154,992.450942956807,432.704947607421,558.892763222174,516.980120613425,0,0,0,0,0,0,5,0,4,NaN,NaN,NaN,horizontal,vertical,vertical,none,none,none
1b,2,100154,3,37,165,18,M,NA,constant,heterogeneous,3,present,0.645833015441895,1,vertical,vertical,1,0.694116740756565,red,2,3,1020.83647796503,472.5,579.163522034968,472.5,800,855,1020.83647796503,472.5,579.163522034968,472.5,0,0,0,0,0,0,6,4,5,NaN,NaN,NaN,vertical,vertical,horizontal,none,none,none
1b,2,100154,3,38,166,18,M,NA,constant,heterogeneous,4,present,0.967041015625,1,horizontal,horizontal,1,0.788233481513129,red,1,2,953.462830903772,803.65205506206,1003.65205506206,446.537169096228,953.462830903772,803.65205506206,1003.65205506206,446.537169096228,646.537169096228,396.34794493794,596.34794493794,753.462830903772,0,0,0,0,4,5,5,3,NaN,NaN,horizontal,horizontal,horizontal,vertical,none,none
1b,2,100154,3,39,167,18,M,NA,constant,heterogeneous,4,absent,0.966844081878662,1,vertical,vertical,1,1.02352533340454,red,4,NaN,583.747735480111,464.870587620533,NaN,NaN,664.870587620533,816.252264519889,1016.25226451989,735.129412379467,935.129412379467,383.747735480111,583.747735480111,464.870587620533,0,0,0,0,6,5,0,4,NaN,NaN,horizontal,vertical,vertical,vertical,none,none
1b,2,100154,3,40,168,18,M,NA,constant,heterogeneous,4,present,0.591397047042847,1,vertical,vertical,1,0.847056444485982,red,3,1,729.712474266665,354.878267535729,870.287525733335,845.121732464271,870.287525733335,845.121732464271,1045.12173246427,529.712474266665,729.712474266665,354.878267535729,554.878267535729,670.287525733335,0,0,0,0,3,0,4,5,NaN,NaN,vertical,vertical,vertical,horizontal,none,none
1b,2,100154,3,41,169,18,M,NA,constant,heterogeneous,5,absent,0.847028017044067,1,vertical,vertical,1,0.976466963026259,red,3,NaN,1032.95409169886,496.282156015671,NaN,NaN,672.5,820.836477965032,970.628304621509,789.501930496736,1032.95409169886,496.282156015671,773.345241866748,346.39691668109,550.57236181288,546.982518841471,0,0,0,5,4,3,6,NaN,vertical,horizontal,vertical,horizontal,horizontal,none
1b,2,100154,3,42,170,18,M,NA,constant,heterogeneous,4,present,0.57569694519043,1,vertical,vertical,1,0.764704296323988,red,4,1,557.480588344736,521.200666434388,721.200666434388,842.519411655264,721.200666434388,842.519411655264,1042.51941165526,678.799333565612,878.799333565612,357.480588344736,557.480588344736,521.200666434388,0,0,0,0,5,6,0,4,NaN,NaN,horizontal,vertical,horizontal,vertical,none,none
1b,2,100154,3,43,171,18,M,NA,constant,heterogeneous,6,absent,1.58123302459717,1,horizontal,horizontal,1,1.09411288897196,red,6,NaN,610.498069503264,770.628304621509,NaN,NaN,853.017481158529,849.42763818712,1042.51941165526,678.799333565612,989.501930496736,429.371695378491,746.982518841471,350.57236181288,557.480588344736,521.200666434388,610.498069503264,770.628304621509,5,6,3,0,3,4,vertical,horizontal,vertical,horizontal,horizontal,horizontal
1b,2,100154,3,44,172,18,M,NA,constant,heterogeneous,6,absent,0.656954050064087,1,vertical,vertical,1,0.7999980741077,red,5,NaN,558.892763222174,516.980120613425,NaN,NaN,848.656293821019,850.314931779154,1041.10723677783,683.019879386575,992.450942956807,432.704947607421,751.343706178981,349.685068220846,558.892763222174,516.980120613425,607.549057043193,767.295052392579,0,5,0,5,4,6,horizontal,horizontal,vertical,horizontal,vertical,vertical
1b,2,100154,3,45,173,18,M,NA,constant,heterogeneous,3,absent,1.12747406959534,1,horizontal,horizontal,1,0.870585629675123,red,2,NaN,1049.42763818712,546.982518841471,NaN,NaN,721.200666434388,842.519411655264,1049.42763818712,546.982518841471,629.371695378491,410.498069503264,0,0,0,0,0,0,0,4,5,NaN,NaN,NaN,vertical,horizontal,vertical,none,none,none
1b,2,100154,3,46,174,18,M,NA,constant,heterogeneous,5,present,1.00385284423828,1,vertical,vertical,1,1.08234829637739,red,3,1,857.362518857686,351.535633479765,899.636437764765,834.728737630372,899.636437764765,834.728737630372,1054.0296480134,577.775285599347,857.362518857686,351.535633479765,581.422338320961,468.665290897936,607.549057043193,767.295052392579,0,0,6,0,4,5,6,NaN,horizontal,vertical,vertical,horizontal,horizontal,none
1b,2,100154,3,47,175,18,M,NA,constant,heterogeneous,6,present,1.30938196182251,1,horizontal,horizontal,1,1.05881911118825,red,2,1,970.628304621509,789.501930496736,721.200666434388,842.519411655264,721.200666434388,842.519411655264,970.628304621509,789.501930496736,1049.42763818712,546.982518841471,878.799333565612,357.480588344736,629.371695378491,410.498069503264,550.57236181288,653.017481158529,3,4,6,6,0,5,vertical,horizontal,vertical,vertical,vertical,vertical
1b,2,100154,3,48,176,18,M,NA,constant,heterogeneous,4,present,0.60684609413147,1,vertical,vertical,1,0.952937777837118,red,4,3,545.155339110131,608.899371659138,791.100628340862,345.155339110131,808.899371659138,854.844660889869,1054.84466088987,591.100628340862,791.100628340862,345.155339110131,545.155339110131,608.899371659138,0,0,0,0,0,0,5,4,NaN,NaN,horizontal,vertical,vertical,vertical,none,none
1b,2,100154,3,49,177,18,M,NA,constant,heterogeneous,5,present,0.853422880172729,1,vertical,vertical,1,0.917644000053406,red,3,1,822.224714400653,345.970351986605,931.334709102064,818.577661679039,931.334709102064,818.577661679039,1048.46436652023,542.637481142314,822.224714400653,345.970351986605,565.271262369628,500.363562235235,632.704947607421,792.450942956807,0,0,6,6,4,0,5,NaN,horizontal,horizontal,vertical,vertical,horizontal,none
1b,2,100154,3,50,178,18,M,NA,constant,heterogeneous,4,present,0.659140110015869,1,horizontal,horizontal,1,0.623529185189141,red,4,2,613.504806087112,426.090418184063,986.495193912888,773.909581815937,626.090418184063,786.495193912888,986.495193912888,773.909581815937,973.909581815937,413.504806087112,613.504806087112,426.090418184063,0,0,0,0,5,3,6,4,NaN,NaN,horizontal,horizontal,horizontal,horizontal,none,none
1b,2,100154,3,51,179,18,M,NA,constant,heterogeneous,5,present,1.42470693588257,1,horizontal,horizontal,1,0.611764592594571,red,2,3,1043.85771277057,525.445215295702,804.450363641507,345.03883773512,946.261991269517,808.883771293693,1043.85771277057,525.445215295702,804.450363641507,345.03883773512,558.892763222174,516.980120613425,646.537169096228,803.65205506206,0,0,3,4,5,3,5,NaN,horizontal,horizontal,vertical,vertical,horizontal,none
1b,2,100154,3,52,180,18,M,NA,constant,heterogeneous,3,absent,0.59938907623291,1,vertical,vertical,1,0.694116740756565,red,3,NaN,668.665290897936,381.422338320961,NaN,NaN,676.373546837184,823.028025320546,1054.96116226488,595.549636358493,668.665290897936,381.422338320961,0,0,0,0,0,0,3,6,4,NaN,NaN,NaN,horizontal,horizontal,vertical,none,none,none
1b,2,100154,3,53,181,18,M,NA,constant,heterogeneous,3,present,0.92363715171814,1,vertical,vertical,1,0.7999980741077,red,1,2,874.554784704298,843.857712770574,973.909581815937,413.504806087112,874.554784704298,843.857712770574,973.909581815937,413.504806087112,551.535633479765,542.637481142314,0,0,0,0,0,0,4,3,6,NaN,NaN,NaN,vertical,horizontal,horizontal,none,none,none
1b,2,100154,3,54,182,18,M,NA,constant,heterogeneous,6,present,1.35178995132446,0,vertical,horizontal,1,1.08234829637739,red,2,1,938.882953928832,813.860994826083,684.232422566416,827.206663668034,684.232422566416,827.206663668034,938.882953928832,813.860994826083,1054.65053136242,586.654331158049,915.767577433584,372.793336331966,661.117046071168,386.139005173917,545.349468637584,613.345668841951,5,4,6,6,0,3,vertical,vertical,vertical,vertical,vertical,vertical
1b,2,100154,3,55,183,18,M,NA,constant,heterogeneous,4,absent,1.06862497329712,1,vertical,vertical,1,0.670587555567423,red,3,NaN,742.637481142314,351.535633479765,NaN,NaN,857.362518857686,848.464366520235,1048.46436652023,542.637481142314,742.637481142314,351.535633479765,551.535633479765,657.362518857686,0,0,0,0,5,3,4,5,NaN,NaN,horizontal,horizontal,vertical,vertical,none,none
1b,2,100154,3,56,184,18,M,NA,constant,heterogeneous,4,absent,0.851834058761597,1,horizontal,horizontal,1,0.682352148161994,red,3,NaN,742.637481142314,351.535633479765,NaN,NaN,857.362518857686,848.464366520235,1048.46436652023,542.637481142314,742.637481142314,351.535633479765,551.535633479765,657.362518857686,0,0,0,0,6,5,4,0,NaN,NaN,horizontal,horizontal,horizontal,horizontal,none,none
1b,2,100154,3,57,185,18,M,NA,constant,heterogeneous,6,present,1.43624901771545,1,horizontal,horizontal,1,0.964702370431688,red,4,1,676.373546837184,376.971974679454,923.626453162816,823.028025320546,923.626453162816,823.028025320546,1054.96116226488,604.450363641507,931.334709102064,381.422338320961,676.373546837184,376.971974679454,545.03883773512,595.549636358493,668.665290897936,818.577661679039,0,6,0,4,5,3,horizontal,vertical,horizontal,horizontal,vertical,vertical
1b,2,100154,3,58,186,18,M,NA,constant,heterogeneous,6,absent,1.0954909324646,1,horizontal,horizontal,1,0.917644000053406,red,2,NaN,1051.12597701811,644.280285305067,NaN,NaN,887.215136548046,839.621618300407,1051.12597701811,644.280285305067,963.910840470068,404.658667004661,712.784863451954,360.378381699593,548.874022981887,555.719714694933,636.089159529932,795.341332995339,3,4,0,5,6,5,horizontal,horizontal,horizontal,horizontal,vertical,horizontal
1b,2,100154,3,59,187,18,M,NA,constant,heterogeneous,5,present,0.614244937896729,1,vertical,vertical,1,0.823527259296841,red,4,1,613.504806087112,426.090418184063,848.656293821019,850.314931779154,848.656293821019,850.314931779154,1053.09926866854,631.076682568313,907.767656743878,368.891514305654,613.504806087112,426.090418184063,576.971974679454,723.626453162816,0,0,5,6,0,4,5,NaN,vertical,horizontal,vertical,vertical,horizontal,none
1b,2,100154,3,60,188,18,M,NA,constant,heterogeneous,4,absent,1.14982795715332,1,horizontal,horizontal,1,0.952937777837118,red,2,NaN,1029.19248180629,488.215357568785,NaN,NaN,911.784642431215,829.192481806288,1029.19248180629,488.215357568785,688.215357568785,370.807518193712,570.807518193712,711.784642431215,0,0,0,0,0,4,3,5,NaN,NaN,horizontal,horizontal,horizontal,horizontal,none,none
1b,2,100154,3,61,189,18,M,NA,constant,heterogeneous,3,present,0.919749021530151,1,horizontal,horizontal,1,0.941173185242547,red,2,3,891.383827134052,361.936991243214,548.13947314824,639.890788585259,960.476699717708,798.172220171528,891.383827134052,361.936991243214,548.13947314824,639.890788585259,0,0,0,0,0,0,6,4,5,NaN,NaN,NaN,vertical,horizontal,horizontal,none,none,none
1b,2,100154,3,62,190,18,M,NA,constant,heterogeneous,6,present,1.01712608337402,1,horizontal,horizontal,1,0.741175111134847,red,4,6,692.232343256122,368.891514305654,653.738008730483,808.883771293693,907.767656743878,831.108485694346,1054.0296480134,622.224714400653,946.261991269517,391.116228706307,692.232343256122,368.891514305654,545.970351986605,577.775285599347,653.738008730483,808.883771293693,6,5,0,4,6,3,vertical,vertical,vertical,horizontal,vertical,vertical
1b,2,100154,3,63,191,18,M,NA,constant,heterogeneous,6,present,0.975728034973145,1,horizontal,horizontal,1,0.705881333351135,red,1,3,826.654758133252,853.60308331891,1006.29933356561,450.114760665419,826.654758133252,853.60308331891,1032.95409169886,703.717843984329,1006.29933356561,450.114760665419,773.345241866748,346.39691668109,567.045908301137,496.282156015671,593.700666434388,749.885239334581,4,6,0,0,5,6,horizontal,horizontal,horizontal,horizontal,horizontal,horizontal
1b,2,100154,3,64,192,18,M,NA,constant,heterogeneous,5,present,1.04173493385315,1,horizontal,horizontal,1,0.705881333351135,red,3,2,1039.62161830041,512.784863451954,956.993676208043,800.942742169714,657.405809614959,811.404581001536,956.993676208043,800.942742169714,1039.62161830041,512.784863451954,791.100628340862,345.155339110131,554.878267535729,529.712474266665,0,0,6,5,4,0,3,NaN,vertical,horizontal,horizontal,vertical,horizontal,none
1b,2,100154,4,1,193,18,M,NA,constant,heterogeneous,5,absent,0.806034088134766,1,horizontal,horizontal,1,0.847056444485982,red,2,NaN,973.909581815937,786.495193912888,NaN,NaN,676.373546837184,823.028025320546,973.909581815937,786.495193912888,1031.10848569435,492.232343256122,768.923317431687,346.900731331463,549.685068220846,551.343706178981,0,0,6,4,3,5,0,NaN,vertical,horizontal,vertical,vertical,vertical,none
1b,2,100154,4,2,194,18,M,NA,constant,heterogeneous,4,absent,0.700649976730347,1,vertical,vertical,1,0.917644000053406,red,2,NaN,1025.15163617903,480.284751489598,NaN,NaN,919.715248510402,825.151636179026,1025.15163617903,480.284751489598,680.284751489598,374.848363820974,574.848363820974,719.715248510402,0,0,0,0,0,4,5,6,NaN,NaN,horizontal,vertical,vertical,horizontal,none,none
1b,2,100154,4,3,195,18,M,NA,constant,heterogeneous,3,absent,0.927923917770386,1,horizontal,horizontal,1,0.858821037080553,red,2,NaN,1000.94274216971,443.006323791957,NaN,NaN,835.489140744817,852.518357529101,1000.94274216971,443.006323791957,563.568117085469,504.475318678942,0,0,0,0,0,0,5,4,6,NaN,NaN,NaN,horizontal,horizontal,vertical,none,none,none
1b,2,100154,4,4,196,18,M,NA,constant,heterogeneous,6,present,0.628681898117065,1,horizontal,horizontal,1,0.694116740756565,red,2,1,1043.85771277057,674.554784704298,857.362518857686,848.464366520235,857.362518857686,848.464366520235,1043.85771277057,674.554784704298,986.495193912888,426.090418184063,742.637481142314,351.535633479765,556.142287229426,525.445215295702,613.504806087112,773.909581815937,5,4,5,3,0,3,vertical,horizontal,horizontal,vertical,vertical,horizontal
1b,2,100154,4,5,197,18,M,NA,constant,heterogeneous,5,absent,0.569250106811523,1,vertical,vertical,1,0.9999961482154,red,1,NaN,853.017481158529,849.42763818712,NaN,NaN,853.017481158529,849.42763818712,1053.60308331891,626.654758133252,903.717843984329,367.045908301137,610.498069503264,429.371695378491,579.163522034968,727.5,0,0,4,3,0,3,5,NaN,vertical,vertical,horizontal,horizontal,horizontal,none
1b,2,100154,4,6,198,18,M,NA,constant,heterogeneous,3,absent,0.757213830947876,1,vertical,vertical,1,0.81176266670227,red,3,NaN,546.900731331463,631.076682568313,NaN,NaN,953.462830903772,803.65205506206,899.636437764765,365.271262369628,546.900731331463,631.076682568313,0,0,0,0,0,0,0,6,4,NaN,NaN,NaN,vertical,vertical,vertical,none,none,none
1b,2,100154,4,7,199,18,M,NA,constant,heterogeneous,5,present,0.829662084579468,1,horizontal,horizontal,1,0.658822962972853,red,4,5,688.215357568785,370.807518193712,547.481642470899,635.489140744817,755.719714694933,851.125977018113,1025.15163617903,719.715248510402,983.431649086356,422.862115532956,688.215357568785,370.807518193712,547.481642470899,635.489140744817,0,0,0,0,5,4,6,NaN,vertical,vertical,horizontal,horizontal,horizontal,none
1b,2,100154,4,8,200,18,M,NA,constant,heterogeneous,5,present,0.774231910705566,1,horizontal,horizontal,1,0.788233481513129,red,4,5,583.747735480111,464.870587620533,604.658667004661,763.910840470068,895.524681321058,836.431882914531,1054.37883281626,582.212099195248,861.690083377915,352.574589799621,583.747735480111,464.870587620533,604.658667004661,763.910840470068,0,0,3,5,6,4,0,NaN,horizontal,horizontal,horizontal,horizontal,vertical,none
1b,2,100154,4,9,201,18,M,NA,constant,heterogeneous,3,present,0.805912971496582,1,horizontal,horizontal,1,0.9999961482154,red,2,3,967.295052392579,407.549057043193,549.685068220846,551.343706178981,883.019879386575,841.107236777826,967.295052392579,407.549057043193,549.685068220846,551.343706178981,0,0,0,0,0,0,0,4,6,NaN,NaN,NaN,vertical,horizontal,vertical,none,none,none
1b,2,100154,4,10,202,18,M,NA,constant,heterogeneous,3,present,0.595221996307373,1,horizontal,horizontal,1,0.847056444485982,red,2,1,1043.85771277057,525.445215295702,742.637481142314,848.464366520235,742.637481142314,848.464366520235,1043.85771277057,525.445215295702,613.504806087112,426.090418184063,0,0,0,0,0,0,6,4,0,NaN,NaN,NaN,vertical,horizontal,vertical,none,none,none
1b,2,100154,4,11,203,18,M,NA,constant,heterogeneous,5,present,0.56869101524353,1,vertical,vertical,1,0.882350222269694,red,3,5,1029.19248180629,488.215357568785,548.874022981887,555.719714694933,680.284751489598,825.151636179026,977.137884467044,783.431649086356,1029.19248180629,488.215357568785,764.510859255183,347.4816424709,548.874022981887,555.719714694933,0,0,6,6,4,0,0,NaN,horizontal,horizontal,vertical,horizontal,horizontal,none
1b,2,100154,4,12,204,18,M,NA,constant,heterogeneous,6,absent,0.752188920974731,1,vertical,vertical,1,0.9999961482154,red,5,NaN,604.658667004661,436.089159529932,NaN,NaN,755.719714694933,851.125977018113,995.341332995339,763.910840470068,1039.62161830041,512.784863451954,844.280285305067,348.874022981887,604.658667004661,436.089159529932,560.378381699593,687.215136548046,6,0,5,5,4,0,horizontal,horizontal,vertical,vertical,vertical,vertical
1b,2,100154,4,13,205,18,M,NA,constant,heterogeneous,6,absent,1.21944499015808,1,horizontal,horizontal,1,0.9999961482154,red,3,NaN,1054.84466088987,591.100628340862,NaN,NaN,680.284751489598,825.151636179026,935.129412379467,816.252264519889,1054.84466088987,591.100628340862,919.715248510402,374.848363820974,664.870587620533,383.747735480111,545.155339110131,608.899371659138,5,3,4,5,6,0,horizontal,horizontal,horizontal,vertical,horizontal,horizontal
1b,2,100154,4,14,206,18,M,NA,constant,heterogeneous,4,present,0.592695951461792,1,horizontal,horizontal,1,1.03528992599911,red,3,1,646.537169096228,396.34794493794,953.462830903772,803.65205506206,953.462830903772,803.65205506206,1003.65205506206,446.537169096228,646.537169096228,396.34794493794,596.34794493794,753.462830903772,0,0,0,0,6,3,4,5,NaN,NaN,horizontal,horizontal,horizontal,vertical,none,none
1b,2,100154,4,15,207,18,M,NA,constant,heterogeneous,5,absent,1.40967607498169,0,horizontal,vertical,1,0.847056444485982,red,3,NaN,989.501930496736,429.371695378491,NaN,NaN,746.982518841471,849.42763818712,1020.83647796503,727.5,989.501930496736,429.371695378491,696.282156015671,367.045908301137,546.39691668109,626.654758133252,0,0,5,0,4,6,3,NaN,horizontal,horizontal,horizontal,vertical,vertical,none
1b,2,100154,4,16,208,18,M,NA,constant,heterogeneous,3,absent,0.945714950561523,1,horizontal,horizontal,1,0.988231555620829,red,2,NaN,911.784642431215,370.807518193712,NaN,NaN,942.594190385041,811.404581001536,911.784642431215,370.807518193712,545.621167183745,617.787900804752,0,0,0,0,0,0,5,4,6,NaN,NaN,NaN,vertical,horizontal,horizontal,none,none,none
1b,2,100154,4,17,209,18,M,NA,constant,heterogeneous,3,present,0.55706000328064,1,vertical,vertical,1,0.611764592594571,red,2,3,956.993676208043,399.057257830286,547.481642470899,564.510859255183,895.524681321058,836.431882914531,956.993676208043,399.057257830286,547.481642470899,564.510859255183,0,0,0,0,0,0,6,4,0,NaN,NaN,NaN,horizontal,vertical,vertical,none,none,none
1b,2,100154,4,18,210,18,M,NA,constant,heterogeneous,3,present,0.683717012405396,1,vertical,vertical,1,0.964702370431688,red,1,3,599.057257830286,756.993676208043,764.510859255183,347.4816424709,599.057257830286,756.993676208043,1036.43188291453,695.524681321058,764.510859255183,347.4816424709,0,0,0,0,0,0,4,3,3,NaN,NaN,NaN,vertical,horizontal,horizontal,none,none,none
1b,2,100154,4,19,211,18,M,NA,constant,heterogeneous,3,absent,0.781096935272217,1,horizontal,horizontal,1,0.776468888918559,red,2,NaN,1018.57766167904,468.665290897936,NaN,NaN,804.450363641507,854.96116226488,1018.57766167904,468.665290897936,576.971974679454,476.373546837184,0,0,0,0,0,0,0,4,5,NaN,NaN,NaN,vertical,horizontal,horizontal,none,none,none
1b,2,100154,4,20,212,18,M,NA,constant,heterogeneous,5,absent,0.726694822311401,1,vertical,vertical,1,0.682352148161994,red,5,NaN,596.34794493794,753.462830903772,NaN,NaN,883.019879386575,841.107236777826,1054.96116226488,595.549636358493,874.554784704298,356.142287229426,591.116228706307,453.738008730483,596.34794493794,753.462830903772,0,0,6,5,6,0,4,NaN,horizontal,vertical,vertical,horizontal,vertical,none
1b,2,100154,4,21,213,18,M,NA,constant,heterogeneous,6,absent,1.29268908500671,1,horizontal,horizontal,1,0.976466963026259,red,4,NaN,927.5,379.163522034968,NaN,NaN,672.5,820.836477965032,927.5,820.836477965032,1055,600,927.5,379.163522034968,672.5,379.163522034968,545,600,0,3,5,4,6,6,vertical,horizontal,horizontal,horizontal,horizontal,vertical
1b,2,100154,4,22,214,18,M,NA,constant,heterogeneous,4,absent,1.3747091293335,1,horizontal,horizontal,1,0.988231555620829,red,2,NaN,1042.51941165526,521.200666434388,NaN,NaN,878.799333565612,842.519411655264,1042.51941165526,521.200666434388,721.200666434388,357.480588344736,557.480588344736,678.799333565612,0,0,0,0,3,4,3,0,NaN,NaN,vertical,horizontal,vertical,horizontal,none,none
1b,2,100154,4,23,215,18,M,NA,constant,heterogeneous,3,present,0.680110931396484,1,horizontal,horizontal,1,0.694116740756565,red,1,3,643.006323791957,800.942742169714,704.475318678942,363.568117085469,643.006323791957,800.942742169714,1052.5183575291,635.489140744817,704.475318678942,363.568117085469,0,0,0,0,0,0,4,5,0,NaN,NaN,NaN,horizontal,horizontal,horizontal,none,none,none
1b,2,100154,4,24,216,18,M,NA,constant,heterogeneous,6,present,0.811476945877075,1,vertical,vertical,1,1.08234829637739,red,5,3,643.006323791957,399.057257830286,1052.5183575291,564.510859255183,704.475318678942,836.431882914531,956.993676208043,800.942742169714,1052.5183575291,564.510859255183,895.524681321058,363.568117085469,643.006323791957,399.057257830286,547.481642470899,635.489140744817,6,6,5,3,4,0,vertical,horizontal,vertical,vertical,vertical,horizontal
1b,2,100154,4,25,217,18,M,NA,constant,heterogeneous,3,absent,0.609004974365234,1,vertical,vertical,1,1.05881911118825,red,2,NaN,980.31222920257,419.68777079743,NaN,NaN,865.998856501143,846.311085703712,980.31222920257,419.68777079743,553.688914296288,534.001143498857,0,0,0,0,0,0,6,4,0,NaN,NaN,NaN,vertical,vertical,vertical,none,none,none
1b,2,100154,4,26,218,18,M,NA,constant,heterogeneous,4,present,1.23871517181396,1,horizontal,horizontal,1,0.670587555567423,red,1,2,949.885239334581,806.299333565612,1006.29933356561,450.114760665419,949.885239334581,806.299333565612,1006.29933356561,450.114760665419,650.114760665419,393.700666434388,593.700666434388,749.885239334581,0,0,0,0,4,5,6,6,NaN,NaN,horizontal,horizontal,vertical,horizontal,none,none
1b,2,100154,4,27,219,18,M,NA,constant,heterogeneous,4,present,0.537121057510376,1,vertical,vertical,1,1.07058370378282,red,3,2,907.767656743878,368.891514305654,1031.10848569435,707.767656743878,692.232343256122,831.108485694346,1031.10848569435,707.767656743878,907.767656743878,368.891514305654,568.891514305654,492.232343256122,0,0,0,0,0,6,4,6,NaN,NaN,vertical,vertical,vertical,horizontal,none,none
1b,2,100154,4,28,220,18,M,NA,constant,heterogeneous,3,present,0.901915073394775,1,horizontal,horizontal,1,0.894114814864265,red,3,2,547.481642470899,564.510859255183,956.993676208043,399.057257830286,895.524681321058,836.431882914531,956.993676208043,399.057257830286,547.481642470899,564.510859255183,0,0,0,0,0,0,3,3,4,NaN,NaN,NaN,vertical,vertical,horizontal,none,none,none
1b,2,100154,4,29,221,18,M,NA,constant,heterogeneous,4,present,0.668324947357178,1,vertical,vertical,1,0.823527259296841,red,1,2,817.787900804752,854.378832816255,1054.37883281626,582.212099195248,817.787900804752,854.378832816255,1054.37883281626,582.212099195248,782.212099195248,345.621167183745,545.621167183745,617.787900804752,0,0,0,0,4,6,0,3,NaN,NaN,vertical,vertical,vertical,horizontal,none,none
1b,2,100154,4,30,222,18,M,NA,constant,heterogeneous,4,present,0.562694072723389,1,vertical,vertical,1,1.03528992599911,red,1,3,949.885239334581,806.299333565612,650.114760665419,393.700666434388,949.885239334581,806.299333565612,1006.29933356561,450.114760665419,650.114760665419,393.700666434388,593.700666434388,749.885239334581,0,0,0,0,4,6,3,5,NaN,NaN,vertical,vertical,horizontal,vertical,none,none
1b,2,100154,4,31,223,18,M,NA,constant,heterogeneous,4,absent,0.858698129653931,1,horizontal,horizontal,1,0.835291851891412,red,4,NaN,554.878267535729,670.287525733335,NaN,NaN,870.287525733335,845.121732464271,1045.12173246427,529.712474266665,729.712474266665,354.878267535729,554.878267535729,670.287525733335,0,0,0,0,6,3,6,4,NaN,NaN,vertical,horizontal,vertical,horizontal,none,none
1b,2,100154,4,32,224,18,M,NA,constant,heterogeneous,4,absent,0.805008172988892,1,vertical,vertical,1,0.647058370378282,red,2,NaN,1032.95409169886,703.717843984329,NaN,NaN,696.282156015671,832.954091698863,1032.95409169886,703.717843984329,903.717843984329,367.045908301137,567.045908301137,496.282156015671,0,0,0,0,5,4,3,5,NaN,NaN,vertical,vertical,vertical,vertical,none,none
1b,2,100154,4,33,225,18,M,NA,constant,heterogeneous,5,present,1.28260207176208,1,horizontal,horizontal,1,0.670587555567423,red,3,5,844.280285305067,348.874022981887,616.568350913644,777.137884467044,911.784642431215,829.192481806288,1052.5183575291,564.510859255183,844.280285305067,348.874022981887,574.848363820974,480.284751489598,616.568350913644,777.137884467044,0,0,6,5,4,3,3,NaN,vertical,vertical,horizontal,vertical,horizontal,none
1b,2,100154,4,34,226,18,M,NA,constant,heterogeneous,6,present,1.28134703636169,1,horizontal,horizontal,1,0.635293777783712,red,6,2,548.13947314824,639.890788585259,960.476699717708,798.172220171528,708.616172865948,838.063008756786,960.476699717708,798.172220171528,1051.86052685176,560.109211414741,891.383827134052,361.936991243214,639.523300282292,401.827779828472,548.13947314824,639.890788585259,5,6,5,0,6,4,vertical,vertical,horizontal,vertical,horizontal,horizontal
1b,2,100154,4,35,227,18,M,NA,constant,heterogeneous,5,present,1.03480696678162,1,vertical,vertical,1,0.776468888918559,red,5,2,616.568350913644,777.137884467044,1052.5183575291,564.510859255183,911.784642431215,829.192481806288,1052.5183575291,564.510859255183,844.280285305067,348.874022981887,574.848363820974,480.284751489598,616.568350913644,777.137884467044,0,0,5,6,3,0,4,NaN,vertical,vertical,horizontal,vertical,vertical,none
1b,2,100154,4,36,228,18,M,NA,constant,heterogeneous,6,absent,0.684215068817139,1,horizontal,horizontal,1,0.623529185189141,red,5,NaN,552.574589799621,538.309916622085,NaN,NaN,870.287525733335,845.121732464271,1047.42541020038,661.690083377915,977.137884467044,416.568350913644,729.712474266665,354.878267535729,552.574589799621,538.309916622085,622.862115532956,783.431649086356,0,0,3,5,4,6,horizontal,vertical,vertical,vertical,horizontal,horizontal
1b,2,100154,4,37,229,18,M,NA,constant,heterogeneous,4,present,0.661144971847534,1,horizontal,horizontal,1,0.752939703729418,red,1,2,870.287525733335,845.121732464271,1045.12173246427,529.712474266665,870.287525733335,845.121732464271,1045.12173246427,529.712474266665,729.712474266665,354.878267535729,554.878267535729,670.287525733335,0,0,0,0,4,5,6,6,NaN,NaN,horizontal,vertical,horizontal,horizontal,none,none
1b,2,100154,4,38,230,18,M,NA,constant,heterogeneous,4,present,0.833355188369751,1,horizontal,horizontal,1,0.741175111134847,red,1,2,903.717843984329,832.954091698863,1032.95409169886,496.282156015671,903.717843984329,832.954091698863,1032.95409169886,496.282156015671,696.282156015671,367.045908301137,567.045908301137,703.717843984329,0,0,0,0,4,6,0,3,NaN,NaN,horizontal,horizontal,horizontal,vertical,none,none
1b,2,100154,4,39,231,18,M,NA,constant,heterogeneous,4,present,0.623249053955078,1,vertical,vertical,1,0.847056444485982,red,4,1,604.658667004661,763.910840470068,963.910840470068,795.341332995339,963.910840470068,795.341332995339,995.341332995339,436.089159529932,636.089159529932,404.658667004661,604.658667004661,763.910840470068,0,0,0,0,5,0,0,4,NaN,NaN,horizontal,vertical,vertical,vertical,none,none
1b,2,100154,4,40,232,18,M,NA,constant,heterogeneous,3,absent,1.02872204780579,0,vertical,horizontal,1,0.847056444485982,red,1,NaN,583.747735480111,735.129412379467,NaN,NaN,583.747735480111,735.129412379467,1025.15163617903,719.715248510402,791.100628340862,345.155339110131,0,0,0,0,0,0,4,5,3,NaN,NaN,NaN,vertical,horizontal,vertical,none,none,none
1b,2,100154,4,41,233,18,M,NA,constant,heterogeneous,6,present,0.585529088973999,1,vertical,vertical,1,0.9999961482154,red,1,3,712.784863451954,839.621618300407,1051.12597701811,555.719714694933,712.784863451954,839.621618300407,963.910840470068,795.341332995339,1051.12597701811,555.719714694933,887.215136548046,360.378381699593,636.089159529932,404.658667004661,548.874022981887,644.280285305067,4,5,0,0,5,3,vertical,horizontal,vertical,vertical,horizontal,vertical
1b,2,100154,4,42,234,18,M,NA,constant,heterogeneous,6,present,1.02631115913391,1,horizontal,horizontal,1,1.05881911118825,red,1,3,899.636437764765,834.728737630372,953.462830903772,396.34794493794,899.636437764765,834.728737630372,1053.09926866854,631.076682568313,953.462830903772,396.34794493794,700.363562235235,365.271262369628,546.900731331463,568.923317431687,646.537169096228,803.65205506206,4,6,3,6,5,3,horizontal,horizontal,horizontal,horizontal,horizontal,horizontal
1b,2,100154,4,43,235,18,M,NA,constant,heterogeneous,3,absent,0.818735837936401,1,vertical,vertical,1,0.988231555620829,red,3,NaN,545.621167183745,582.212099195248,NaN,NaN,911.784642431215,829.192481806288,942.594190385041,388.595418998464,545.621167183745,582.212099195248,0,0,0,0,0,0,3,0,4,NaN,NaN,NaN,vertical,horizontal,vertical,none,none,none
1b,2,100154,4,44,236,18,M,NA,constant,heterogeneous,5,absent,0.584093809127808,1,horizontal,horizontal,1,0.635293777783712,red,5,NaN,550.57236181288,546.982518841471,NaN,NaN,672.5,820.836477965032,970.628304621509,789.501930496736,1032.95409169886,496.282156015671,773.345241866748,346.39691668109,550.57236181288,546.982518841471,0,0,5,3,0,5,4,NaN,vertical,horizontal,vertical,horizontal,horizontal,none
1b,2,100154,4,45,237,18,M,NA,constant,heterogeneous,5,present,1.01199412345886,1,vertical,vertical,1,0.7999980741077,red,5,3,572.793336331966,715.767577433584,915.767577433584,372.793336331966,839.890788585259,851.86052685176,1051.86052685176,639.890788585259,915.767577433584,372.793336331966,619.68777079743,419.68777079743,572.793336331966,715.767577433584,0,0,6,3,5,3,4,NaN,horizontal,vertical,horizontal,vertical,vertical,none
1b,2,100154,4,46,238,18,M,NA,constant,heterogeneous,4,absent,0.686774015426636,1,vertical,vertical,1,0.717645925945706,red,4,NaN,552.574589799621,661.690083377915,NaN,NaN,861.690083377915,847.425410200379,1047.42541020038,538.309916622085,738.309916622085,352.574589799621,552.574589799621,661.690083377915,0,0,0,0,0,5,6,4,NaN,NaN,vertical,vertical,vertical,vertical,none,none
1b,2,100154,4,47,239,18,M,NA,constant,heterogeneous,6,absent,0.941338062286377,1,vertical,vertical,1,0.611764592594571,red,3,NaN,1054.0296480134,577.775285599347,NaN,NaN,692.232343256122,831.108485694346,946.261991269517,808.883771293693,1054.0296480134,577.775285599347,907.767656743878,368.891514305654,653.738008730483,391.116228706307,545.970351986605,622.224714400653,3,5,4,0,0,6,vertical,vertical,vertical,vertical,horizontal,vertical
1b,2,100154,4,48,240,18,M,NA,constant,heterogeneous,4,absent,1.0658130645752,1,horizontal,horizontal,1,0.682352148161994,red,2,NaN,980.31222920257,419.68777079743,NaN,NaN,980.31222920257,780.31222920257,980.31222920257,419.68777079743,619.68777079743,419.68777079743,619.68777079743,780.31222920257,0,0,0,0,3,4,6,3,NaN,NaN,horizontal,horizontal,horizontal,horizontal,none,none
1b,2,100154,4,49,241,18,M,NA,constant,heterogeneous,5,present,0.533199071884155,1,vertical,vertical,1,1.09411288897196,red,2,4,1052.5183575291,564.510859255183,574.848363820974,480.284751489598,911.784642431215,829.192481806288,1052.5183575291,564.510859255183,844.280285305067,348.874022981887,574.848363820974,480.284751489598,616.568350913644,777.137884467044,0,0,5,4,3,0,3,NaN,vertical,vertical,horizontal,vertical,horizontal,none
1b,2,100154,4,50,242,18,M,NA,constant,heterogeneous,5,absent,0.568395137786865,1,horizontal,horizontal,1,1.02352533340454,red,3,NaN,1036.43188291453,504.475318678942,NaN,NaN,664.870587620533,816.252264519889,963.910840470068,795.341332995339,1036.43188291453,504.475318678942,782.212099195248,345.621167183745,552.574589799621,538.309916622085,0,0,3,5,4,6,6,NaN,horizontal,horizontal,horizontal,horizontal,horizontal,none
1b,2,100154,4,51,243,18,M,NA,constant,heterogeneous,5,absent,0.518493175506592,1,vertical,vertical,1,0.729410518540276,red,2,NaN,1053.09926866854,631.076682568313,NaN,NaN,848.656293821019,850.314931779154,1053.09926866854,631.076682568313,907.767656743878,368.891514305654,613.504806087112,426.090418184063,576.971974679454,723.626453162816,0,0,3,4,6,0,5,NaN,horizontal,vertical,horizontal,vertical,vertical,none
1b,2,100154,4,52,244,18,M,NA,constant,heterogeneous,6,absent,0.494483947753906,1,vertical,vertical,1,0.670587555567423,red,3,NaN,1018.57766167904,468.665290897936,NaN,NaN,804.450363641507,854.96116226488,1023.02802532055,723.626453162816,1018.57766167904,468.665290897936,795.549636358493,345.03883773512,576.971974679454,476.373546837184,581.422338320961,731.334709102064,5,0,4,6,6,3,vertical,horizontal,vertical,vertical,horizontal,vertical
