experiment,subject,uniqueID,block,trial,trial_cumulative,age,gender,color_cond_blocking,color_history,shape_type,set_size,distractor,rt,acc,target_orient,response_key,response_made,iti,target_color,target_item,distractor_item,target_X,target_Y,distractor_X,distractor_Y,item1_X,item1_Y,item2_X,item2_Y,item3_X,item3_Y,item4_X,item4_Y,item5_X,item5_Y,item6_X,item6_Y,item1_shape,item2_shape,item3_shape,item4_shape,item5_shape,item6_shape,item1_line,item2_line,item3_line,item4_line,item5_line,item6_line
1b,3,100175,1,1,1,21,F,NA,constant,heterogeneous,4,absent,0.816716909408569,1,horizontal,horizontal,1,1.08234538555145,green,3,NaN,956.993676208043,399.057257830286,NaN,NaN,643.006323791957,800.942742169714,1000.94274216971,756.993676208043,956.993676208043,399.057257830286,599.057257830286,443.006323791957,0,0,0,0,6,5,4,3,NaN,NaN,horizontal,vertical,horizontal,horizontal,none,none
1b,3,100175,1,2,2,21,F,NA,constant,heterogeneous,3,absent,0.790319919586182,1,vertical,vertical,1,0.85881947517395,green,3,NaN,791.100628340862,345.155339110131,NaN,NaN,583.747735480111,735.129412379467,1025.15163617903,719.715248510402,791.100628340862,345.155339110131,0,0,0,0,0,0,0,5,4,NaN,NaN,NaN,vertical,horizontal,vertical,none,none,none
1b,3,100175,1,3,3,21,F,NA,constant,heterogeneous,3,absent,0.741931915283203,1,vertical,vertical,1,0.776467823982239,green,2,NaN,1046.31108570371,665.998856501143,NaN,NaN,619.68777079743,780.31222920257,1046.31108570371,665.998856501143,734.001143498857,353.688914296288,0,0,0,0,0,0,5,4,0,NaN,NaN,NaN,vertical,vertical,vertical,none,none,none
1b,3,100175,1,4,4,21,F,NA,constant,heterogeneous,4,present,1.03617000579834,1,horizontal,horizontal,1,0.752938780784607,green,2,1,1008.88377129369,746.261991269517,653.738008730483,808.883771293693,653.738008730483,808.883771293693,1008.88377129369,746.261991269517,946.261991269517,391.116228706307,591.116228706307,453.738008730483,0,0,0,0,0,4,5,6,NaN,NaN,vertical,horizontal,vertical,vertical,none,none
1b,3,100175,1,5,5,21,F,NA,constant,heterogeneous,6,absent,1.40920400619507,1,horizontal,horizontal,1,0.811761388778687,green,4,NaN,760.109211414741,348.13947314824,NaN,NaN,839.890788585259,851.86052685176,1038.06300875679,691.383827134052,998.172220171528,439.523300282291,760.109211414741,348.13947314824,561.936991243214,508.616172865948,601.827779828472,760.476699717708,3,5,6,4,5,0,horizontal,vertical,horizontal,horizontal,vertical,vertical
1b,3,100175,1,6,6,21,F,NA,constant,heterogeneous,4,absent,1.08313012123108,1,vertical,vertical,1,0.882348518371582,green,4,NaN,604.658667004661,763.910840470068,NaN,NaN,963.910840470068,795.341332995339,995.341332995339,436.089159529932,636.089159529932,404.658667004661,604.658667004661,763.910840470068,0,0,0,0,0,6,5,4,NaN,NaN,horizontal,horizontal,horizontal,vertical,none,none
1b,3,100175,1,7,7,21,F,NA,constant,heterogeneous,6,absent,0.700989007949829,1,horizontal,horizontal,1,0.799996867179871,green,1,NaN,680.284751489598,825.151636179026,NaN,NaN,680.284751489598,825.151636179026,935.129412379467,816.252264519889,1054.84466088987,591.100628340862,919.715248510402,374.848363820974,664.870587620533,383.747735480111,545.155339110131,608.899371659138,4,3,5,0,0,6,horizontal,vertical,horizontal,horizontal,horizontal,horizontal
1b,3,100175,1,8,8,21,F,NA,constant,heterogeneous,6,absent,1.43237400054932,0,vertical,horizontal,1,0.65882260799408,green,5,NaN,553.688914296288,534.001143498857,NaN,NaN,865.998856501143,846.311085703712,1046.31108570371,665.998856501143,980.31222920257,419.68777079743,734.001143498857,353.688914296288,553.688914296288,534.001143498857,619.68777079743,780.31222920257,0,5,6,0,4,3,horizontal,horizontal,vertical,horizontal,vertical,horizontal
1b,3,100175,1,9,9,21,F,NA,constant,heterogeneous,4,absent,0.959986925125122,1,horizontal,horizontal,1,0.941171126365662,green,4,NaN,616.568350913644,777.137884467044,NaN,NaN,977.137884467044,783.431649086356,983.431649086356,422.862115532956,622.862115532956,416.568350913644,616.568350913644,777.137884467044,0,0,0,0,6,0,3,4,NaN,NaN,horizontal,horizontal,vertical,horizontal,none,none
1b,3,100175,1,10,10,21,F,NA,constant,heterogeneous,5,present,0.973140001296997,1,horizontal,horizontal,1,1.09410990715027,green,2,3,1047.42541020038,661.690083377915,935.129412379467,383.747735480111,817.787900804752,854.378832816255,1047.42541020038,661.690083377915,935.129412379467,383.747735480111,636.089159529932,404.658667004661,563.568117085469,695.524681321058,0,0,6,4,5,3,3,NaN,horizontal,horizontal,vertical,vertical,vertical,none
1b,3,100175,1,11,11,21,F,NA,constant,heterogeneous,5,absent,0.841826200485229,1,vertical,vertical,1,1.05881634235382,green,1,NaN,672.5,820.836477965032,NaN,NaN,672.5,820.836477965032,970.628304621509,789.501930496736,1032.95409169886,496.282156015671,773.345241866748,346.39691668109,550.57236181288,546.982518841471,0,0,4,6,5,0,3,NaN,vertical,horizontal,horizontal,vertical,vertical,none
1b,3,100175,1,12,12,21,F,NA,constant,heterogeneous,4,absent,0.975720882415771,1,vertical,vertical,1,0.635293564796448,green,3,NaN,643.006323791957,399.057257830286,NaN,NaN,956.993676208043,800.942742169714,1000.94274216971,443.006323791957,643.006323791957,399.057257830286,599.057257830286,756.993676208043,0,0,0,0,0,6,4,6,NaN,NaN,vertical,vertical,vertical,horizontal,none,none
1b,3,100175,1,13,13,21,F,NA,constant,heterogeneous,5,present,0.750315189361572,1,vertical,vertical,1,0.741174259185791,green,1,3,791.100628340862,854.844660889869,956.993676208043,399.057257830286,791.100628340862,854.844660889869,1039.62161830041,687.215136548046,956.993676208043,399.057257830286,657.405809614959,388.595418998464,554.878267535729,670.287525733335,0,0,4,3,6,5,3,NaN,vertical,vertical,vertical,horizontal,horizontal,none
1b,3,100175,1,14,14,21,F,NA,constant,heterogeneous,5,present,0.635332822799683,1,vertical,vertical,1,0.905877561569214,green,5,1,574.848363820974,719.715248510402,844.280285305067,851.125977018113,844.280285305067,851.125977018113,1052.5183575291,635.489140744817,911.784642431215,370.807518193712,616.568350913644,422.862115532956,574.848363820974,719.715248510402,0,0,5,6,5,3,4,NaN,vertical,vertical,vertical,vertical,vertical,none
1b,3,100175,1,15,15,21,F,NA,constant,heterogeneous,3,absent,0.66883397102356,1,vertical,vertical,1,1.02352277755737,green,3,NaN,583.747735480111,464.870587620533,NaN,NaN,791.100628340862,854.844660889869,1025.15163617903,480.284751489598,583.747735480111,464.870587620533,0,0,0,0,0,0,3,0,4,NaN,NaN,NaN,horizontal,vertical,vertical,none,none,none
1b,3,100175,1,16,16,21,F,NA,constant,heterogeneous,4,present,0.84157395362854,1,horizontal,horizontal,1,0.764703302383423,green,1,3,721.200666434388,842.519411655264,878.799333565612,357.480588344736,721.200666434388,842.519411655264,1042.51941165526,678.799333565612,878.799333565612,357.480588344736,557.480588344736,521.200666434388,0,0,0,0,4,0,0,3,NaN,NaN,horizontal,vertical,horizontal,vertical,none,none
1b,3,100175,1,17,17,21,F,NA,constant,heterogeneous,6,absent,1.18895387649536,1,horizontal,horizontal,1,0.717645215988159,green,5,NaN,583.747735480111,464.870587620533,NaN,NaN,791.100628340862,854.844660889869,1016.25226451989,735.129412379467,1025.15163617903,480.284751489598,808.899371659138,345.155339110131,583.747735480111,464.870587620533,574.848363820974,719.715248510402,0,6,3,0,4,5,vertical,vertical,horizontal,horizontal,horizontal,vertical
1b,3,100175,1,18,18,21,F,NA,constant,heterogeneous,4,absent,1.56886911392212,1,vertical,vertical,1,1.01175825595856,green,1,NaN,768.923317431687,853.099268668537,NaN,NaN,768.923317431687,853.099268668537,1053.09926866854,631.076682568313,831.076682568313,346.900731331463,546.900731331463,568.923317431687,0,0,0,0,4,3,6,0,NaN,NaN,vertical,vertical,vertical,vertical,none,none
1b,3,100175,1,19,19,21,F,NA,constant,heterogeneous,6,present,1.46286416053772,1,vertical,vertical,1,0.705880694389343,green,6,3,565.271262369628,699.636437764765,1034.72873763037,500.363562235235,768.923317431687,853.099268668537,1003.65205506206,753.462830903772,1034.72873763037,500.363562235235,831.076682568313,346.900731331463,596.34794493794,446.537169096228,565.271262369628,699.636437764765,0,3,6,5,5,4,vertical,vertical,vertical,vertical,horizontal,vertical
1b,3,100175,1,20,20,21,F,NA,constant,heterogeneous,4,present,1.27805399894714,1,horizontal,horizontal,1,1.08234538555145,green,3,4,923.626453162816,376.971974679454,576.971974679454,476.373546837184,676.373546837184,823.028025320546,1023.02802532055,723.626453162816,923.626453162816,376.971974679454,576.971974679454,476.373546837184,0,0,0,0,3,6,4,5,NaN,NaN,horizontal,vertical,horizontal,vertical,none,none
1b,3,100175,1,21,21,21,F,NA,constant,heterogeneous,4,absent,1.27274084091187,1,horizontal,horizontal,1,0.85881947517395,green,3,NaN,949.885239334581,393.700666434388,NaN,NaN,650.114760665419,806.299333565612,1006.29933356561,749.885239334581,949.885239334581,393.700666434388,593.700666434388,450.114760665419,0,0,0,0,3,6,4,3,NaN,NaN,horizontal,vertical,horizontal,horizontal,none,none
1b,3,100175,1,22,22,21,F,NA,constant,heterogeneous,3,absent,0.709604978561401,1,vertical,vertical,1,0.952935647964477,green,1,NaN,861.690083377915,847.425410200379,NaN,NaN,861.690083377915,847.425410200379,983.431649086356,422.862115532956,554.878267535729,529.712474266665,0,0,0,0,0,0,4,6,0,NaN,NaN,NaN,vertical,vertical,horizontal,none,none,none
1b,3,100175,1,23,23,21,F,NA,constant,heterogeneous,3,present,0.68139386177063,0,horizontal,vertical,1,0.670587129592895,green,1,2,596.34794493794,753.462830903772,1034.72873763037,699.636437764765,596.34794493794,753.462830903772,1034.72873763037,699.636437764765,768.923317431687,346.900731331463,0,0,0,0,0,0,4,0,3,NaN,NaN,NaN,horizontal,horizontal,horizontal,none,none,none
1b,3,100175,1,24,24,21,F,NA,constant,heterogeneous,6,present,1.55008292198181,1,vertical,vertical,1,0.741174259185791,green,4,6,895.524681321058,363.568117085469,547.481642470899,635.489140744817,704.475318678942,836.431882914531,956.993676208043,800.942742169714,1052.5183575291,564.510859255183,895.524681321058,363.568117085469,643.006323791957,399.057257830286,547.481642470899,635.489140744817,0,6,5,4,6,5,horizontal,vertical,horizontal,vertical,vertical,horizontal
1b,3,100175,1,25,25,21,F,NA,constant,heterogeneous,5,present,1.32803797721863,1,vertical,vertical,1,0.941171126365662,green,5,1,568.891514305654,707.767656743878,831.076682568313,853.099268668537,831.076682568313,853.099268668537,1050.31493177915,648.656293821019,923.626453162816,376.971974679454,626.090418184063,413.504806087112,568.891514305654,707.767656743878,0,0,3,0,6,5,4,NaN,horizontal,horizontal,vertical,horizontal,vertical,none
1b,3,100175,1,26,26,21,F,NA,constant,heterogeneous,4,present,0.699229001998901,1,vertical,vertical,1,1.02352277755737,green,1,2,704.475318678942,836.431882914531,1036.43188291453,695.524681321058,704.475318678942,836.431882914531,1036.43188291453,695.524681321058,895.524681321058,363.568117085469,563.568117085469,504.475318678942,0,0,0,0,4,6,0,3,NaN,NaN,vertical,vertical,vertical,vertical,none,none
1b,3,100175,1,27,27,21,F,NA,constant,heterogeneous,6,present,0.735610961914062,1,vertical,vertical,1,0.905877561569214,green,1,3,887.215136548046,839.621618300407,963.910840470068,404.658667004661,887.215136548046,839.621618300407,1051.12597701811,644.280285305067,963.910840470068,404.658667004661,712.784863451954,360.378381699593,548.874022981887,555.719714694933,636.089159529932,795.341332995339,4,6,0,6,5,3,vertical,vertical,horizontal,vertical,horizontal,vertical
1b,3,100175,1,28,28,21,F,NA,constant,heterogeneous,3,present,0.652045011520386,1,vertical,vertical,1,0.870583996772766,green,3,1,760.109211414741,348.13947314824,601.827779828472,760.476699717708,601.827779828472,760.476699717708,1038.06300875679,691.383827134052,760.109211414741,348.13947314824,0,0,0,0,0,0,6,6,4,NaN,NaN,NaN,horizontal,vertical,vertical,none,none,none
1b,3,100175,1,29,29,21,F,NA,constant,heterogeneous,5,absent,0.739019870758057,1,vertical,vertical,1,0.694116172790527,green,3,NaN,853.017481158529,350.57236181288,NaN,NaN,903.717843984329,832.954091698863,1053.60308331891,573.345241866748,853.017481158529,350.57236181288,579.163522034968,472.5,610.498069503264,770.628304621509,0,0,0,5,4,5,6,NaN,horizontal,horizontal,vertical,horizontal,vertical,none
1b,3,100175,1,30,30,21,F,NA,constant,heterogeneous,5,present,1.0627920627594,1,horizontal,horizontal,1,0.647058086395264,green,5,3,613.504806087112,773.909581815937,848.656293821019,349.685068220846,907.767656743878,831.108485694346,1053.09926866854,568.923317431687,848.656293821019,349.685068220846,576.971974679454,476.373546837184,613.504806087112,773.909581815937,0,0,5,3,5,6,4,NaN,vertical,horizontal,horizontal,vertical,horizontal,none
1b,3,100175,1,31,31,21,F,NA,constant,heterogeneous,4,present,1.15044617652893,1,vertical,vertical,1,0.905877561569214,green,3,2,956.993676208043,399.057257830286,1000.94274216971,756.993676208043,643.006323791957,800.942742169714,1000.94274216971,756.993676208043,956.993676208043,399.057257830286,599.057257830286,443.006323791957,0,0,0,0,3,6,4,6,NaN,NaN,horizontal,horizontal,vertical,vertical,none,none
1b,3,100175,1,32,32,21,F,NA,constant,heterogeneous,6,present,0.995703935623169,1,horizontal,horizontal,1,0.705880694389343,green,3,4,931.334709102064,381.422338320961,676.373546837184,376.971974679454,923.626453162816,823.028025320546,1054.96116226488,604.450363641507,931.334709102064,381.422338320961,676.373546837184,376.971974679454,545.03883773512,595.549636358493,668.665290897936,818.577661679039,3,0,4,3,5,5,horizontal,horizontal,horizontal,vertical,vertical,vertical
1b,3,100175,1,33,33,21,F,NA,constant,heterogeneous,5,absent,1.06658411026001,1,vertical,vertical,1,0.952935647964477,green,3,NaN,1031.10848569435,492.232343256122,NaN,NaN,676.373546837184,823.028025320546,973.909581815937,786.495193912888,1031.10848569435,492.232343256122,768.923317431687,346.900731331463,549.685068220846,551.343706178981,0,0,0,5,4,5,6,NaN,horizontal,horizontal,vertical,horizontal,vertical,none
1b,3,100175,1,34,34,21,F,NA,constant,heterogeneous,5,absent,0.904081106185913,1,vertical,vertical,1,1.01175825595856,green,1,NaN,839.890788585259,851.86052685176,NaN,NaN,839.890788585259,851.86052685176,1051.86052685176,639.890788585259,915.767577433584,372.793336331966,619.68777079743,419.68777079743,572.793336331966,715.767577433584,0,0,4,3,0,5,0,NaN,vertical,vertical,horizontal,vertical,horizontal,none
1b,3,100175,1,35,35,21,F,NA,constant,heterogeneous,4,absent,1.15657520294189,1,vertical,vertical,1,0.705880694389343,green,1,NaN,970.628304621509,789.501930496736,NaN,NaN,970.628304621509,789.501930496736,989.501930496736,429.371695378491,629.371695378491,410.498069503264,610.498069503264,770.628304621509,0,0,0,0,4,3,6,0,NaN,NaN,vertical,horizontal,vertical,horizontal,none,none
1b,3,100175,1,36,36,21,F,NA,constant,heterogeneous,4,present,0.725110054016113,1,horizontal,horizontal,1,0.65882260799408,green,2,3,1006.29933356561,749.885239334581,949.885239334581,393.700666434388,650.114760665419,806.299333565612,1006.29933356561,749.885239334581,949.885239334581,393.700666434388,593.700666434388,450.114760665419,0,0,0,0,6,4,3,3,NaN,NaN,horizontal,horizontal,horizontal,horizontal,none,none
1b,3,100175,1,37,37,21,F,NA,constant,heterogeneous,3,present,0.78535008430481,1,horizontal,horizontal,1,1.08234538555145,green,3,1,626.090418184063,413.504806087112,725.445215295702,843.857712770574,725.445215295702,843.857712770574,1048.46436652023,542.637481142314,626.090418184063,413.504806087112,0,0,0,0,0,0,5,3,4,NaN,NaN,NaN,vertical,horizontal,horizontal,none,none,none
1b,3,100175,1,38,38,21,F,NA,constant,heterogeneous,6,absent,0.807998895645142,1,vertical,vertical,1,0.941171126365662,green,3,NaN,1048.46436652023,542.637481142314,NaN,NaN,725.445215295702,843.857712770574,973.909581815937,786.495193912888,1048.46436652023,542.637481142314,874.554784704298,356.142287229426,626.090418184063,413.504806087112,551.535633479765,657.362518857686,0,0,4,6,5,6,vertical,horizontal,vertical,vertical,vertical,vertical
1b,3,100175,1,39,39,21,F,NA,constant,heterogeneous,3,present,0.823210000991821,1,horizontal,horizontal,1,0.941171126365662,green,1,2,596.34794493794,753.462830903772,1034.72873763037,699.636437764765,596.34794493794,753.462830903772,1034.72873763037,699.636437764765,768.923317431687,346.900731331463,0,0,0,0,0,0,4,3,0,NaN,NaN,NaN,horizontal,horizontal,horizontal,none,none,none
1b,3,100175,1,40,40,21,F,NA,constant,heterogeneous,3,present,0.712987899780273,1,vertical,vertical,1,0.65882260799408,green,3,2,646.537169096228,396.34794493794,1053.09926866854,568.923317431687,700.363562235235,834.728737630372,1053.09926866854,568.923317431687,646.537169096228,396.34794493794,0,0,0,0,0,0,6,3,4,NaN,NaN,NaN,horizontal,vertical,vertical,none,none,none
1b,3,100175,1,41,41,21,F,NA,constant,heterogeneous,4,absent,0.720016002655029,1,horizontal,horizontal,1,0.635293564796448,green,3,NaN,657.405809614959,388.595418998464,NaN,NaN,942.594190385041,811.404581001536,1011.40458100154,457.40580961496,657.405809614959,388.595418998464,588.595418998464,742.594190385041,0,0,0,0,6,5,4,3,NaN,NaN,horizontal,horizontal,horizontal,horizontal,none,none
1b,3,100175,1,42,42,21,F,NA,constant,heterogeneous,6,absent,0.635711908340454,1,vertical,vertical,1,0.65882260799408,green,3,NaN,1003.65205506206,446.537169096228,NaN,NaN,831.076682568313,853.099268668537,1034.72873763037,699.636437764765,1003.65205506206,446.537169096228,768.923317431687,346.900731331463,565.271262369628,500.363562235235,596.34794493794,753.462830903772,3,0,4,6,5,6,horizontal,vertical,vertical,horizontal,horizontal,horizontal
1b,3,100175,1,43,43,21,F,NA,constant,heterogeneous,3,present,0.697509050369263,0,vertical,horizontal,1,0.635293564796448,green,1,2,768.923317431687,853.099268668537,1034.72873763037,500.363562235235,768.923317431687,853.099268668537,1034.72873763037,500.363562235235,596.34794493794,446.537169096228,0,0,0,0,0,0,4,0,5,NaN,NaN,NaN,vertical,vertical,horizontal,none,none,none
1b,3,100175,1,44,44,21,F,NA,constant,heterogeneous,5,present,0.77476692199707,1,horizontal,horizontal,1,0.752938780784607,green,5,4,545.03883773512,595.549636358493,725.445215295702,356.142287229426,716.980120613425,841.107236777826,1003.65205506206,753.462830903772,1008.88377129369,453.738008730483,725.445215295702,356.142287229426,545.03883773512,595.549636358493,0,0,0,6,0,3,4,NaN,vertical,vertical,vertical,vertical,horizontal,none
1b,3,100175,1,45,45,21,F,NA,constant,heterogeneous,6,present,1.12918710708618,1,horizontal,horizontal,1,0.941171126365662,green,3,6,963.910840470068,404.658667004661,636.089159529932,795.341332995339,887.215136548046,839.621618300407,1051.12597701811,644.280285305067,963.910840470068,404.658667004661,712.784863451954,360.378381699593,548.874022981887,555.719714694933,636.089159529932,795.341332995339,5,0,4,0,6,6,horizontal,vertical,horizontal,horizontal,horizontal,vertical
1b,3,100175,1,46,46,21,F,NA,constant,heterogeneous,3,absent,0.80968189239502,1,horizontal,horizontal,1,0.882348518371582,green,1,NaN,927.5,820.836477965032,NaN,NaN,927.5,820.836477965032,927.5,379.163522034968,545,600,0,0,0,0,0,0,4,0,3,NaN,NaN,NaN,horizontal,vertical,horizontal,none,none,none
1b,3,100175,1,47,47,21,F,NA,constant,heterogeneous,3,absent,0.671693086624146,1,horizontal,horizontal,1,0.894113039970398,green,1,NaN,980.31222920257,780.31222920257,NaN,NaN,980.31222920257,780.31222920257,865.998856501143,353.688914296288,553.688914296288,665.998856501143,0,0,0,0,0,0,4,0,0,NaN,NaN,NaN,horizontal,vertical,horizontal,none,none,none
1b,3,100175,1,48,48,21,F,NA,constant,heterogeneous,3,present,0.695369005203247,1,horizontal,horizontal,1,0.894113039970398,green,2,1,874.554784704298,356.142287229426,973.909581815937,786.495193912888,973.909581815937,786.495193912888,874.554784704298,356.142287229426,551.535633479765,657.362518857686,0,0,0,0,0,0,5,4,0,NaN,NaN,NaN,horizontal,horizontal,horizontal,none,none,none
1b,3,100175,1,49,49,21,F,NA,constant,heterogeneous,4,present,0.627140998840332,1,vertical,vertical,1,0.682351651191711,green,3,4,874.554784704298,356.142287229426,556.142287229426,525.445215295702,725.445215295702,843.857712770574,1043.85771277057,674.554784704298,874.554784704298,356.142287229426,556.142287229426,525.445215295702,0,0,0,0,5,6,4,0,NaN,NaN,horizontal,vertical,vertical,vertical,none,none
1b,3,100175,1,50,50,21,F,NA,constant,heterogeneous,6,present,0.598358869552612,1,vertical,vertical,1,0.929406604766846,green,4,3,817.787900804752,345.621167183745,1029.19248180629,488.215357568785,782.212099195248,854.378832816255,1011.40458100154,742.594190385041,1029.19248180629,488.215357568785,817.787900804752,345.621167183745,588.595418998464,457.40580961496,570.807518193712,711.784642431215,6,3,6,4,0,0,vertical,horizontal,horizontal,vertical,vertical,horizontal
1b,3,100175,1,51,51,21,F,NA,constant,heterogeneous,5,present,0.95029616355896,0,horizontal,vertical,1,0.976464691162109,green,2,4,1043.85771277057,674.554784704298,646.537169096228,396.34794493794,804.450363641507,854.96116226488,1043.85771277057,674.554784704298,946.261991269517,391.116228706307,646.537169096228,396.34794493794,558.892763222174,683.019879386575,0,0,5,4,5,0,3,NaN,horizontal,horizontal,vertical,vertical,horizontal,none
1b,3,100175,1,52,52,21,F,NA,constant,heterogeneous,6,present,1.71861386299133,1,horizontal,horizontal,1,1.07058086395264,green,1,4,853.017481158529,849.42763818712,746.982518841471,350.57236181288,853.017481158529,849.42763818712,1042.51941165526,678.799333565612,989.501930496736,429.371695378491,746.982518841471,350.57236181288,557.480588344736,521.200666434388,610.498069503264,770.628304621509,4,5,5,0,3,0,horizontal,horizontal,vertical,horizontal,horizontal,horizontal
1b,3,100175,1,53,53,21,F,NA,constant,heterogeneous,3,absent,0.764672994613647,1,horizontal,horizontal,1,0.976464691162109,green,1,NaN,777.775285599347,854.029648013395,NaN,NaN,777.775285599347,854.029648013395,1031.10848569435,492.232343256122,591.116228706307,453.738008730483,0,0,0,0,0,0,4,3,6,NaN,NaN,NaN,horizontal,horizontal,horizontal,none,none,none
1b,3,100175,1,54,54,21,F,NA,constant,heterogeneous,3,present,0.575070858001709,1,vertical,vertical,1,0.941171126365662,green,1,2,742.637481142314,848.464366520235,1043.85771277057,525.445215295702,742.637481142314,848.464366520235,1043.85771277057,525.445215295702,613.504806087112,426.090418184063,0,0,0,0,0,0,4,5,6,NaN,NaN,NaN,vertical,vertical,vertical,none,none,none
1b,3,100175,1,55,55,21,F,NA,constant,heterogeneous,5,present,0.727694988250732,0,vertical,horizontal,1,0.835290431976318,green,3,2,813.345668841951,345.349468637584,1046.31108570371,534.001143498857,938.882953928832,813.860994826083,1046.31108570371,534.001143498857,813.345668841951,345.349468637584,561.936991243214,508.616172865948,639.523300282292,798.172220171528,0,0,0,6,4,6,5,NaN,vertical,vertical,vertical,horizontal,horizontal,none
1b,3,100175,1,56,56,21,F,NA,constant,heterogeneous,5,absent,1.59583306312561,1,horizontal,horizontal,1,0.682351651191711,green,5,NaN,561.936991243214,691.383827134052,NaN,NaN,813.345668841951,854.650531362416,1046.31108570371,665.998856501143,938.882953928832,386.139005173917,639.523300282292,401.827779828472,561.936991243214,691.383827134052,0,0,6,0,3,0,4,NaN,vertical,vertical,horizontal,horizontal,horizontal,none
1b,3,100175,1,57,57,21,F,NA,constant,heterogeneous,5,absent,NaN,0,horizontal,none,0,0.717645215988159,green,4,NaN,591.116228706307,453.738008730483,NaN,NaN,883.019879386575,841.107236777826,1054.96116226488,595.549636358493,874.554784704298,356.142287229426,591.116228706307,453.738008730483,596.34794493794,753.462830903772,0,0,3,5,3,4,6,NaN,vertical,vertical,vertical,horizontal,vertical,none
1b,3,100175,1,58,58,21,F,NA,constant,heterogeneous,5,absent,0.901187181472778,1,horizontal,horizontal,1,0.941171126365662,green,4,NaN,791.100628340862,345.155339110131,NaN,NaN,657.405809614959,811.404581001536,956.993676208043,800.942742169714,1039.62161830041,512.784863451954,791.100628340862,345.155339110131,554.878267535729,529.712474266665,0,0,5,5,3,4,0,NaN,horizontal,vertical,vertical,horizontal,vertical,none
1b,3,100175,1,59,59,21,F,NA,constant,heterogeneous,3,absent,0.748364925384521,1,horizontal,horizontal,1,0.647058086395264,green,1,NaN,668.665290897936,818.577661679039,NaN,NaN,668.665290897936,818.577661679039,1054.96116226488,604.450363641507,676.373546837184,376.971974679454,0,0,0,0,0,0,4,0,3,NaN,NaN,NaN,horizontal,horizontal,horizontal,none,none,none
1b,3,100175,1,60,60,21,F,NA,constant,heterogeneous,5,absent,1.64587092399597,0,horizontal,vertical,1,0.717645215988159,green,3,NaN,1031.10848569435,492.232343256122,NaN,NaN,676.373546837184,823.028025320546,973.909581815937,786.495193912888,1031.10848569435,492.232343256122,768.923317431687,346.900731331463,549.685068220846,551.343706178981,0,0,3,3,4,5,0,NaN,horizontal,vertical,horizontal,vertical,horizontal,none
1b,3,100175,1,61,61,21,F,NA,constant,heterogeneous,6,present,1.172532081604,1,horizontal,horizontal,1,0.670587129592895,green,6,4,560.378381699593,687.215136548046,844.280285305067,348.874022981887,755.719714694933,851.125977018113,995.341332995339,763.910840470068,1039.62161830041,512.784863451954,844.280285305067,348.874022981887,604.658667004661,436.089159529932,560.378381699593,687.215136548046,0,0,6,3,5,4,vertical,horizontal,vertical,horizontal,vertical,horizontal
1b,3,100175,1,62,62,21,F,NA,constant,heterogeneous,4,present,1.22287893295288,1,vertical,vertical,1,0.941171126365662,green,2,3,1054.0296480134,577.775285599347,777.775285599347,345.970351986605,822.224714400653,854.029648013395,1054.0296480134,577.775285599347,777.775285599347,345.970351986605,545.970351986605,622.224714400653,0,0,0,0,5,4,6,0,NaN,NaN,horizontal,vertical,horizontal,vertical,none,none
1b,3,100175,1,63,63,21,F,NA,constant,heterogeneous,6,absent,1.66328001022339,1,vertical,vertical,1,0.988229212760925,green,1,NaN,817.787900804752,854.378832816255,NaN,NaN,817.787900804752,854.378832816255,1029.19248180629,711.784642431215,1011.40458100154,457.40580961496,782.212099195248,345.621167183745,570.807518193712,488.215357568785,588.595418998464,742.594190385041,4,5,0,5,6,3,vertical,horizontal,vertical,vertical,vertical,horizontal
1b,3,100175,1,64,64,21,F,NA,constant,heterogeneous,6,absent,0.915201187133789,1,horizontal,horizontal,1,0.91764208316803,green,5,NaN,556.142287229426,525.445215295702,NaN,NaN,857.362518857686,848.464366520235,1043.85771277057,674.554784704298,986.495193912888,426.090418184063,742.637481142314,351.535633479765,556.142287229426,525.445215295702,613.504806087112,773.909581815937,0,3,6,0,4,6,horizontal,vertical,horizontal,vertical,horizontal,horizontal
1b,3,100175,2,1,65,21,F,NA,constant,heterogeneous,5,absent,0.708259105682373,1,vertical,vertical,1,1.04705182075501,green,3,NaN,891.383827134052,361.936991243214,NaN,NaN,865.998856501143,846.311085703712,1054.65053136242,613.345668841951,891.383827134052,361.936991243214,601.827779828472,439.523300282291,586.139005173917,738.882953928832,0,0,3,0,4,5,6,NaN,horizontal,vertical,vertical,vertical,horizontal,none
1b,3,100175,2,2,66,21,F,NA,constant,heterogeneous,5,absent,1.72010803222656,1,vertical,vertical,1,0.670587129592895,green,3,NaN,1027.20666366803,484.232422566416,NaN,NaN,684.232422566416,827.206663668034,980.31222920257,780.31222920257,1027.20666366803,484.232422566416,760.109211414741,348.13947314824,548.13947314824,560.109211414741,0,0,0,3,4,0,3,NaN,horizontal,horizontal,vertical,horizontal,vertical,none
1b,3,100175,2,3,67,21,F,NA,constant,heterogeneous,6,absent,1.07156705856323,0,vertical,horizontal,1,0.847054953575134,green,1,NaN,684.232422566416,827.206663668034,NaN,NaN,684.232422566416,827.206663668034,938.882953928832,813.860994826083,1054.65053136242,586.654331158049,915.767577433584,372.793336331966,661.117046071168,386.139005173917,545.349468637584,613.345668841951,4,0,6,0,5,3,vertical,horizontal,horizontal,horizontal,vertical,vertical
1b,3,100175,2,4,68,21,F,NA,constant,heterogeneous,4,absent,1.09744501113892,1,horizontal,horizontal,1,0.811761388778687,green,3,NaN,746.982518841471,350.57236181288,NaN,NaN,853.017481158529,849.42763818712,1049.42763818712,546.982518841471,746.982518841471,350.57236181288,550.57236181288,653.017481158529,0,0,0,0,0,3,4,0,NaN,NaN,horizontal,horizontal,horizontal,vertical,none,none
1b,3,100175,2,5,69,21,F,NA,constant,heterogeneous,3,present,0.589492082595825,1,horizontal,horizontal,1,0.882348518371582,green,1,3,857.362518857686,848.464366520235,556.142287229426,525.445215295702,857.362518857686,848.464366520235,986.495193912888,426.090418184063,556.142287229426,525.445215295702,0,0,0,0,0,0,4,3,6,NaN,NaN,NaN,horizontal,horizontal,horizontal,none,none,none
1b,3,100175,2,6,70,21,F,NA,constant,heterogeneous,4,absent,0.9064040184021,1,horizontal,horizontal,1,0.85881947517395,green,3,NaN,696.282156015671,367.045908301137,NaN,NaN,903.717843984329,832.954091698863,1032.95409169886,496.282156015671,696.282156015671,367.045908301137,567.045908301137,703.717843984329,0,0,0,0,0,6,4,0,NaN,NaN,horizontal,horizontal,horizontal,vertical,none,none
1b,3,100175,2,7,71,21,F,NA,constant,heterogeneous,6,present,NaN,0,vertical,none,0,0.647058086395264,green,6,1,550.57236181288,653.017481158529,721.200666434388,842.519411655264,721.200666434388,842.519411655264,970.628304621509,789.501930496736,1049.42763818712,546.982518841471,878.799333565612,357.480588344736,629.371695378491,410.498069503264,550.57236181288,653.017481158529,6,5,3,6,0,4,horizontal,horizontal,vertical,vertical,horizontal,vertical
1b,3,100175,2,8,72,21,F,NA,constant,heterogeneous,5,present,0.926907062530518,1,vertical,vertical,1,1.03528729915619,green,2,4,1020.83647796503,727.5,696.282156015671,367.045908301137,746.982518841471,849.42763818712,1020.83647796503,727.5,989.501930496736,429.371695378491,696.282156015671,367.045908301137,546.39691668109,626.654758133252,0,0,3,4,5,3,5,NaN,horizontal,vertical,vertical,vertical,vertical,none
1b,3,100175,2,9,73,21,F,NA,constant,heterogeneous,6,absent,1.89816188812256,0,vertical,horizontal,1,1.03528729915619,green,3,NaN,1036.43188291453,504.475318678942,NaN,NaN,764.510859255183,852.518357529101,1000.94274216971,756.993676208043,1036.43188291453,504.475318678942,835.489140744817,347.4816424709,599.057257830286,443.006323791957,563.568117085469,695.524681321058,3,5,4,6,0,5,horizontal,horizontal,vertical,horizontal,vertical,horizontal
1b,3,100175,2,10,74,21,F,NA,constant,heterogeneous,4,absent,1.14526391029358,1,horizontal,horizontal,1,1.04705182075501,green,2,NaN,1039.62161830041,687.215136548046,NaN,NaN,712.784863451954,839.621618300407,1039.62161830041,687.215136548046,887.215136548046,360.378381699593,560.378381699593,512.784863451954,0,0,0,0,0,4,3,5,NaN,NaN,vertical,horizontal,vertical,vertical,none,none
1b,3,100175,2,11,75,21,F,NA,constant,heterogeneous,6,present,1.18062615394592,0,horizontal,vertical,1,0.611764521598816,green,4,6,870.287525733335,354.878267535729,552.574589799621,661.690083377915,729.712474266665,845.121732464271,977.137884467044,783.431649086356,1047.42541020038,538.309916622085,870.287525733335,354.878267535729,622.862115532956,416.568350913644,552.574589799621,661.690083377915,3,6,5,4,5,0,vertical,vertical,vertical,horizontal,horizontal,vertical
1b,3,100175,2,12,76,21,F,NA,constant,heterogeneous,6,absent,NaN,0,horizontal,none,0,0.65882260799408,green,2,NaN,1034.72873763037,699.636437764765,NaN,NaN,831.076682568313,853.099268668537,1034.72873763037,699.636437764765,1003.65205506206,446.537169096228,768.923317431687,346.900731331463,565.271262369628,500.363562235235,596.34794493794,753.462830903772,6,4,5,0,3,3,vertical,horizontal,vertical,horizontal,horizontal,vertical
1b,3,100175,2,13,77,21,F,NA,constant,heterogeneous,3,absent,1.06724810600281,1,vertical,vertical,1,0.870583996772766,green,1,NaN,672.5,820.836477965032,NaN,NaN,672.5,820.836477965032,1055,600,672.5,379.163522034968,0,0,0,0,0,0,4,5,6,NaN,NaN,NaN,vertical,horizontal,horizontal,none,none,none
1b,3,100175,2,14,78,21,F,NA,constant,heterogeneous,3,absent,0.993936061859131,1,vertical,vertical,1,0.85881947517395,green,3,NaN,688.215357568785,370.807518193712,NaN,NaN,657.405809614959,811.404581001536,1054.37883281626,617.787900804752,688.215357568785,370.807518193712,0,0,0,0,0,0,0,3,4,NaN,NaN,NaN,vertical,vertical,vertical,none,none,none
1b,3,100175,2,15,79,21,F,NA,constant,heterogeneous,6,present,0.6873619556427,1,vertical,vertical,1,0.882348518371582,green,4,5,786.654331158049,345.349468637584,572.793336331966,484.232422566416,813.345668841951,854.650531362416,1027.20666366803,715.767577433584,1013.86099482608,461.117046071168,786.654331158049,345.349468637584,572.793336331966,484.232422566416,586.139005173917,738.882953928832,3,0,6,4,3,5,horizontal,horizontal,horizontal,vertical,vertical,vertical
1b,3,100175,2,16,80,21,F,NA,constant,heterogeneous,3,present,0.743119955062866,1,vertical,vertical,1,0.682351651191711,green,2,3,923.626453162816,376.971974679454,545.03883773512,604.450363641507,931.334709102064,818.577661679039,923.626453162816,376.971974679454,545.03883773512,604.450363641507,0,0,0,0,0,0,3,4,0,NaN,NaN,NaN,horizontal,vertical,horizontal,none,none,none
1b,3,100175,2,17,81,21,F,NA,constant,heterogeneous,6,absent,1.46412587165833,1,vertical,vertical,1,0.694116172790527,green,3,NaN,1045.12173246427,529.712474266665,NaN,NaN,738.309916622085,847.425410200379,983.431649086356,777.137884467044,1045.12173246427,529.712474266665,861.690083377915,352.574589799621,616.568350913644,422.862115532956,554.878267535729,670.287525733335,6,0,4,5,6,5,vertical,vertical,vertical,vertical,horizontal,horizontal
1b,3,100175,2,18,82,21,F,NA,constant,heterogeneous,4,absent,0.538992881774902,1,vertical,vertical,1,1.07058086395264,green,3,NaN,804.450363641507,345.03883773512,NaN,NaN,795.549636358493,854.96116226488,1054.96116226488,604.450363641507,804.450363641507,345.03883773512,545.03883773512,595.549636358493,0,0,0,0,0,6,4,5,NaN,NaN,vertical,vertical,vertical,vertical,none,none
1b,3,100175,2,19,83,21,F,NA,constant,heterogeneous,5,absent,0.945147037506104,1,horizontal,horizontal,1,0.964700169563294,green,1,NaN,657.405809614959,811.404581001536,NaN,NaN,657.405809614959,811.404581001536,956.993676208043,800.942742169714,1039.62161830041,512.784863451954,791.100628340862,345.155339110131,554.878267535729,529.712474266665,0,0,4,5,0,6,3,NaN,horizontal,horizontal,vertical,vertical,horizontal,none
1b,3,100175,2,20,84,21,F,NA,constant,heterogeneous,3,present,0.595441102981567,1,horizontal,horizontal,1,0.764703302383423,green,1,2,927.5,820.836477965032,927.5,379.163522034968,927.5,820.836477965032,927.5,379.163522034968,545,600,0,0,0,0,0,0,4,0,6,NaN,NaN,NaN,horizontal,vertical,horizontal,none,none,none
1b,3,100175,2,21,85,21,F,NA,constant,heterogeneous,6,present,0.987056016921997,1,vertical,vertical,1,0.776467823982239,green,6,3,545.349468637584,613.345668841951,1054.65053136242,586.654331158049,684.232422566416,827.206663668034,938.882953928832,813.860994826083,1054.65053136242,586.654331158049,915.767577433584,372.793336331966,661.117046071168,386.139005173917,545.349468637584,613.345668841951,5,3,6,0,3,4,vertical,horizontal,horizontal,vertical,horizontal,vertical
1b,3,100175,2,22,86,21,F,NA,constant,heterogeneous,4,absent,1.10492515563965,1,horizontal,horizontal,1,0.882348518371582,green,3,NaN,938.882953928832,386.139005173917,NaN,NaN,661.117046071168,813.860994826083,1013.86099482608,738.882953928832,938.882953928832,386.139005173917,586.139005173917,461.117046071168,0,0,0,0,3,5,4,5,NaN,NaN,horizontal,vertical,horizontal,horizontal,none,none
1b,3,100175,2,23,87,21,F,NA,constant,heterogeneous,5,present,0.995213985443115,0,horizontal,vertical,1,0.799996867179871,green,5,2,545.349468637584,586.654331158049,998.172220171528,760.476699717708,708.616172865948,838.063008756786,998.172220171528,760.476699717708,1013.86099482608,461.117046071168,734.001143498857,353.688914296288,545.349468637584,586.654331158049,0,0,6,0,3,6,4,NaN,horizontal,horizontal,horizontal,vertical,horizontal,none
1b,3,100175,2,24,88,21,F,NA,constant,heterogeneous,5,present,1.06768298149109,1,vertical,vertical,1,0.623529043197632,green,2,5,1051.12597701811,555.719714694933,622.862115532956,783.431649086356,919.715248510402,825.151636179026,1051.12597701811,555.719714694933,835.489140744817,347.4816424709,570.807518193712,488.215357568785,622.862115532956,783.431649086356,0,0,0,4,6,3,5,NaN,horizontal,vertical,horizontal,vertical,horizontal,none
1b,3,100175,2,25,89,21,F,NA,constant,heterogeneous,3,absent,0.734950065612793,1,horizontal,horizontal,1,0.894113039970398,green,2,NaN,865.998856501143,353.688914296288,NaN,NaN,980.31222920257,780.31222920257,865.998856501143,353.688914296288,553.688914296288,665.998856501143,0,0,0,0,0,0,6,4,5,NaN,NaN,NaN,horizontal,horizontal,horizontal,none,none,none
1b,3,100175,2,26,90,21,F,NA,constant,heterogeneous,3,present,0.646219968795776,1,vertical,vertical,1,0.811761388778687,green,3,2,680.284751489598,374.848363820974,1054.84466088987,608.899371659138,664.870587620533,816.252264519889,1054.84466088987,608.899371659138,680.284751489598,374.848363820974,0,0,0,0,0,0,3,0,4,NaN,NaN,NaN,vertical,vertical,vertical,none,none,none
1b,3,100175,2,27,91,21,F,NA,constant,heterogeneous,4,absent,0.9598069190979,0,vertical,horizontal,1,1.03528729915619,green,2,NaN,1052.5183575291,635.489140744817,NaN,NaN,764.510859255183,852.518357529101,1052.5183575291,635.489140744817,835.489140744817,347.4816424709,547.481642470899,564.510859255183,0,0,0,0,5,4,5,3,NaN,NaN,horizontal,vertical,horizontal,vertical,none,none
1b,3,100175,2,28,92,21,F,NA,constant,heterogeneous,5,present,0.975470066070557,1,horizontal,horizontal,1,0.611764521598816,green,5,2,553.688914296288,665.998856501143,1038.06300875679,691.383827134052,786.654331158049,854.650531362416,1038.06300875679,691.383827134052,960.476699717708,401.827779828472,661.117046071168,386.139005173917,553.688914296288,665.998856501143,0,0,3,5,0,6,4,NaN,vertical,vertical,vertical,horizontal,horizontal,none
1b,3,100175,2,29,93,21,F,NA,constant,heterogeneous,3,absent,0.903563976287842,1,vertical,vertical,1,0.611764521598816,green,2,NaN,1051.86052685176,639.890788585259,NaN,NaN,639.523300282292,798.172220171528,1051.86052685176,639.890788585259,708.616172865948,361.936991243214,0,0,0,0,0,0,5,4,3,NaN,NaN,NaN,horizontal,vertical,horizontal,none,none,none
1b,3,100175,2,30,94,21,F,NA,constant,heterogeneous,6,present,1.43255496025085,1,horizontal,horizontal,1,0.941171126365662,green,6,4,599.057257830286,756.993676208043,764.510859255183,347.4816424709,835.489140744817,852.518357529101,1036.43188291453,695.524681321058,1000.94274216971,443.006323791957,764.510859255183,347.4816424709,563.568117085469,504.475318678942,599.057257830286,756.993676208043,6,3,5,6,0,4,horizontal,horizontal,vertical,vertical,vertical,horizontal
1b,3,100175,2,31,95,21,F,NA,constant,heterogeneous,5,present,1.41324687004089,1,horizontal,horizontal,1,0.799996867179871,green,3,5,822.224714400653,345.970351986605,632.704947607421,792.450942956807,931.334709102064,818.577661679039,1048.46436652023,542.637481142314,822.224714400653,345.970351986605,565.271262369628,500.363562235235,632.704947607421,792.450942956807,0,0,3,6,4,6,5,NaN,vertical,horizontal,horizontal,vertical,vertical,none
1b,3,100175,2,32,96,21,F,NA,constant,heterogeneous,3,present,0.584173917770386,1,horizontal,horizontal,1,0.91764208316803,green,3,1,581.422338320961,468.665290897936,795.549636358493,854.96116226488,795.549636358493,854.96116226488,1023.02802532055,476.373546837184,581.422338320961,468.665290897936,0,0,0,0,0,0,5,0,4,NaN,NaN,NaN,horizontal,vertical,horizontal,none,none,none
1b,3,100175,2,33,97,21,F,NA,constant,heterogeneous,5,present,0.594583988189697,1,vertical,vertical,1,0.929406604766846,green,4,3,700.363562235235,365.271262369628,992.450942956807,432.704947607421,742.637481142314,848.464366520235,1018.57766167904,731.334709102064,992.450942956807,432.704947607421,700.363562235235,365.271262369628,545.970351986605,622.224714400653,0,0,3,5,3,4,0,NaN,horizontal,vertical,vertical,vertical,vertical,none
1b,3,100175,2,34,98,21,F,NA,constant,heterogeneous,5,absent,0.972450971603394,1,horizontal,horizontal,1,1.09410990715027,green,5,NaN,553.688914296288,665.998856501143,NaN,NaN,786.654331158049,854.650531362416,1038.06300875679,691.383827134052,960.476699717708,401.827779828472,661.117046071168,386.139005173917,553.688914296288,665.998856501143,0,0,3,6,0,3,4,NaN,vertical,vertical,vertical,vertical,horizontal,none
1b,3,100175,2,35,99,21,F,NA,constant,heterogeneous,6,absent,0.957424879074097,1,vertical,vertical,1,0.870583996772766,green,2,NaN,956.993676208043,800.942742169714,NaN,NaN,704.475318678942,836.431882914531,956.993676208043,800.942742169714,1052.5183575291,564.510859255183,895.524681321058,363.568117085469,643.006323791957,399.057257830286,547.481642470899,635.489140744817,5,4,0,6,3,3,vertical,vertical,vertical,horizontal,horizontal,vertical
1b,3,100175,2,36,100,21,F,NA,constant,heterogeneous,5,absent,0.779559135437012,1,horizontal,horizontal,1,0.941171126365662,green,3,NaN,822.224714400653,345.970351986605,NaN,NaN,931.334709102064,818.577661679039,1048.46436652023,542.637481142314,822.224714400653,345.970351986605,565.271262369628,500.363562235235,632.704947607421,792.450942956807,0,0,6,5,4,3,5,NaN,horizontal,horizontal,horizontal,horizontal,horizontal,none
1b,3,100175,2,37,101,21,F,NA,constant,heterogeneous,4,present,0.869942188262939,1,vertical,vertical,1,0.729409737586975,green,2,4,986.495193912888,773.909581815937,613.504806087112,426.090418184063,626.090418184063,786.495193912888,986.495193912888,773.909581815937,973.909581815937,413.504806087112,613.504806087112,426.090418184063,0,0,0,0,3,4,3,6,NaN,NaN,horizontal,vertical,vertical,vertical,none,none
1b,3,100175,2,38,102,21,F,NA,constant,heterogeneous,4,present,0.906576871871948,1,horizontal,horizontal,1,0.952935647964477,green,4,2,547.481642470899,564.510859255183,1052.5183575291,635.489140744817,764.510859255183,852.518357529101,1052.5183575291,635.489140744817,835.489140744817,347.4816424709,547.481642470899,564.510859255183,0,0,0,0,3,0,6,4,NaN,NaN,horizontal,horizontal,horizontal,horizontal,none,none
1b,3,100175,2,39,103,21,F,NA,constant,heterogeneous,3,absent,0.637670993804932,1,horizontal,horizontal,1,0.823525910377502,green,1,NaN,946.261991269517,808.883771293693,NaN,NaN,946.261991269517,808.883771293693,907.767656743878,368.891514305654,545.970351986605,622.224714400653,0,0,0,0,0,0,4,3,5,NaN,NaN,NaN,horizontal,horizontal,vertical,none,none,none
1b,3,100175,2,40,104,21,F,NA,constant,heterogeneous,4,present,0.831912994384766,1,horizontal,horizontal,1,0.670587129592895,green,2,3,998.172220171528,760.476699717708,960.476699717708,401.827779828472,639.523300282292,798.172220171528,998.172220171528,760.476699717708,960.476699717708,401.827779828472,601.827779828472,439.523300282291,0,0,0,0,3,4,5,6,NaN,NaN,horizontal,horizontal,vertical,vertical,none,none
1b,3,100175,2,41,105,21,F,NA,constant,heterogeneous,4,present,1.25033783912659,1,vertical,vertical,1,0.682351651191711,green,3,1,680.284751489598,374.848363820974,919.715248510402,825.151636179026,919.715248510402,825.151636179026,1025.15163617903,480.284751489598,680.284751489598,374.848363820974,574.848363820974,719.715248510402,0,0,0,0,5,0,4,0,NaN,NaN,horizontal,horizontal,vertical,horizontal,none,none
1b,3,100175,2,42,106,21,F,NA,constant,heterogeneous,4,absent,0.856943845748901,1,vertical,vertical,1,0.870583996772766,green,4,NaN,561.936991243214,691.383827134052,NaN,NaN,891.383827134052,838.063008756786,1038.06300875679,508.616172865948,708.616172865948,361.936991243214,561.936991243214,691.383827134052,0,0,0,0,6,0,3,4,NaN,NaN,vertical,vertical,vertical,vertical,none,none
1b,3,100175,2,43,107,21,F,NA,constant,heterogeneous,3,absent,0.604321956634521,1,horizontal,horizontal,1,0.705880694389343,green,3,NaN,650.114760665419,393.700666434388,NaN,NaN,696.282156015671,832.954091698863,1053.60308331891,573.345241866748,650.114760665419,393.700666434388,0,0,0,0,0,0,0,6,4,NaN,NaN,NaN,vertical,vertical,horizontal,none,none,none
1b,3,100175,2,44,108,21,F,NA,constant,heterogeneous,6,absent,1.5944230556488,1,horizontal,horizontal,1,0.894113039970398,green,5,NaN,547.481642470899,564.510859255183,NaN,NaN,895.524681321058,836.431882914531,1052.5183575291,635.489140744817,956.993676208043,399.057257830286,704.475318678942,363.568117085469,547.481642470899,564.510859255183,643.006323791957,800.942742169714,0,3,3,6,4,6,horizontal,horizontal,vertical,horizontal,horizontal,horizontal
1b,3,100175,2,45,109,21,F,NA,constant,heterogeneous,6,present,1.21133804321289,1,horizontal,horizontal,1,1.04705182075501,green,1,3,672.5,820.836477965032,1055,600,672.5,820.836477965032,927.5,820.836477965032,1055,600,927.5,379.163522034968,672.5,379.163522034968,545,600,4,5,0,6,5,3,horizontal,vertical,horizontal,vertical,horizontal,horizontal
1b,3,100175,2,46,110,21,F,NA,constant,heterogeneous,3,present,0.547873973846436,0,vertical,horizontal,1,0.6,green,1,3,610.498069503264,770.628304621509,746.982518841471,350.57236181288,610.498069503264,770.628304621509,1042.51941165526,678.799333565612,746.982518841471,350.57236181288,0,0,0,0,0,0,4,5,0,NaN,NaN,NaN,vertical,horizontal,vertical,none,none,none
1b,3,100175,2,47,111,21,F,NA,constant,heterogeneous,6,present,0.767189025878906,1,vertical,vertical,1,0.611764521598816,green,6,4,643.006323791957,800.942742169714,704.475318678942,363.568117085469,895.524681321058,836.431882914531,1052.5183575291,635.489140744817,956.993676208043,399.057257830286,704.475318678942,363.568117085469,547.481642470899,564.510859255183,643.006323791957,800.942742169714,6,5,5,3,0,4,horizontal,horizontal,horizontal,horizontal,horizontal,vertical
1b,3,100175,2,48,112,21,F,NA,constant,heterogeneous,5,absent,0.650540113449097,1,horizontal,horizontal,1,1.01175825595856,green,3,NaN,813.345668841951,345.349468637584,NaN,NaN,938.882953928832,813.860994826083,1046.31108570371,534.001143498857,813.345668841951,345.349468637584,561.936991243214,508.616172865948,639.523300282292,798.172220171528,0,0,6,5,4,3,5,NaN,vertical,vertical,horizontal,horizontal,vertical,none
1b,3,100175,2,49,113,21,F,NA,constant,heterogeneous,3,present,0.581467151641846,0,vertical,horizontal,1,1.05881634235382,green,3,1,579.163522034968,472.5,800,855,800,855,1020.83647796503,472.5,579.163522034968,472.5,0,0,0,0,0,0,0,0,4,NaN,NaN,NaN,vertical,vertical,vertical,none,none,none
1b,3,100175,2,50,114,21,F,NA,constant,heterogeneous,3,absent,0.858922004699707,0,vertical,horizontal,1,1.09410990715027,green,2,NaN,970.628304621509,410.498069503264,NaN,NaN,878.799333565612,842.519411655264,970.628304621509,410.498069503264,550.57236181288,546.982518841471,0,0,0,0,0,0,3,4,6,NaN,NaN,NaN,horizontal,vertical,horizontal,none,none,none
1b,3,100175,2,51,115,21,F,NA,constant,heterogeneous,5,absent,1.11168909072876,1,vertical,vertical,1,0.964700169563294,green,5,NaN,626.090418184063,786.495193912888,NaN,NaN,923.626453162816,823.028025320546,1050.31493177915,551.343706178981,831.076682568313,346.900731331463,568.891514305654,492.232343256122,626.090418184063,786.495193912888,0,0,0,0,6,3,4,NaN,vertical,vertical,horizontal,horizontal,vertical,none
1b,3,100175,2,52,116,21,F,NA,constant,heterogeneous,5,absent,1.17526197433472,1,vertical,vertical,1,1.05881634235382,green,3,NaN,970.628304621509,410.498069503264,NaN,NaN,773.345241866748,853.60308331891,1032.95409169886,703.717843984329,970.628304621509,410.498069503264,672.5,379.163522034968,550.57236181288,653.017481158529,0,0,3,5,4,0,6,NaN,vertical,horizontal,vertical,vertical,vertical,none
1b,3,100175,2,53,117,21,F,NA,constant,heterogeneous,3,absent,0.872207880020142,1,horizontal,horizontal,1,0.65882260799408,green,1,NaN,1000.94274216971,756.993676208043,NaN,NaN,1000.94274216971,756.993676208043,835.489140744817,347.4816424709,563.568117085469,695.524681321058,0,0,0,0,0,0,4,3,6,NaN,NaN,NaN,horizontal,vertical,horizontal,none,none,none
1b,3,100175,2,54,118,21,F,NA,constant,heterogeneous,6,absent,1.73905396461487,0,horizontal,vertical,1,0.635293564796448,green,2,NaN,1053.09926866854,631.076682568313,NaN,NaN,899.636437764765,834.728737630372,1053.09926866854,631.076682568313,953.462830903772,396.34794493794,700.363562235235,365.271262369628,546.900731331463,568.923317431687,646.537169096228,803.65205506206,3,4,3,5,0,0,horizontal,horizontal,vertical,vertical,horizontal,vertical
1b,3,100175,2,55,119,21,F,NA,constant,heterogeneous,4,present,1.22712779045105,0,vertical,horizontal,1,0.682351651191711,green,4,3,553.688914296288,665.998856501143,734.001143498857,353.688914296288,865.998856501143,846.311085703712,1046.31108570371,534.001143498857,734.001143498857,353.688914296288,553.688914296288,665.998856501143,0,0,0,0,3,6,3,4,NaN,NaN,horizontal,horizontal,vertical,vertical,none,none
1b,3,100175,2,56,120,21,F,NA,constant,heterogeneous,4,absent,0.7811279296875,1,vertical,vertical,1,0.65882260799408,green,4,NaN,554.878267535729,529.712474266665,NaN,NaN,729.712474266665,845.121732464271,1045.12173246427,670.287525733335,870.287525733335,354.878267535729,554.878267535729,529.712474266665,0,0,0,0,3,0,6,4,NaN,NaN,horizontal,horizontal,vertical,vertical,none,none
1b,3,100175,2,57,121,21,F,NA,constant,heterogeneous,4,present,0.856557130813599,1,horizontal,horizontal,1,0.976464691162109,green,1,4,931.334709102064,818.577661679039,581.422338320961,731.334709102064,931.334709102064,818.577661679039,1018.57766167904,468.665290897936,668.665290897936,381.422338320961,581.422338320961,731.334709102064,0,0,0,0,4,3,6,5,NaN,NaN,horizontal,horizontal,vertical,horizontal,none,none
1b,3,100175,2,58,122,21,F,NA,constant,heterogeneous,5,present,0.787217140197754,1,vertical,vertical,1,0.682351651191711,green,4,5,760.109211414741,348.13947314824,548.13947314824,560.109211414741,684.232422566416,827.206663668034,980.31222920257,780.31222920257,1027.20666366803,484.232422566416,760.109211414741,348.13947314824,548.13947314824,560.109211414741,0,0,3,3,5,4,0,NaN,vertical,vertical,horizontal,vertical,vertical,none
1b,3,100175,2,59,123,21,F,NA,constant,heterogeneous,6,present,1.05224895477295,0,horizontal,vertical,1,0.847054953575134,green,4,3,895.524681321058,363.568117085469,1052.5183575291,564.510859255183,704.475318678942,836.431882914531,956.993676208043,800.942742169714,1052.5183575291,564.510859255183,895.524681321058,363.568117085469,643.006323791957,399.057257830286,547.481642470899,635.489140744817,3,0,6,4,0,6,vertical,vertical,vertical,horizontal,horizontal,vertical
1b,3,100175,2,60,124,21,F,NA,constant,heterogeneous,6,absent,1.38366603851318,1,horizontal,horizontal,1,0.905877561569214,green,1,NaN,870.287525733335,845.121732464271,NaN,NaN,870.287525733335,845.121732464271,1047.42541020038,661.690083377915,977.137884467044,416.568350913644,729.712474266665,354.878267535729,552.574589799621,538.309916622085,622.862115532956,783.431649086356,4,0,0,5,3,6,horizontal,horizontal,horizontal,vertical,vertical,vertical
1b,3,100175,2,61,125,21,F,NA,constant,heterogeneous,4,present,0.699492931365967,1,vertical,vertical,1,0.999993734359741,green,2,1,1045.12173246427,670.287525733335,729.712474266665,845.121732464271,729.712474266665,845.121732464271,1045.12173246427,670.287525733335,870.287525733335,354.878267535729,554.878267535729,529.712474266665,0,0,0,0,6,4,0,0,NaN,NaN,horizontal,vertical,vertical,horizontal,none,none
1b,3,100175,2,62,126,21,F,NA,constant,heterogeneous,3,present,0.607937097549438,1,horizontal,horizontal,1,0.929406604766846,green,3,1,664.870587620533,383.747735480111,680.284751489598,825.151636179026,680.284751489598,825.151636179026,1054.84466088987,591.100628340862,664.870587620533,383.747735480111,0,0,0,0,0,0,3,0,4,NaN,NaN,NaN,vertical,horizontal,horizontal,none,none,none
1b,3,100175,2,63,127,21,F,NA,constant,heterogeneous,5,present,1.01952981948853,1,horizontal,horizontal,1,0.952935647964477,green,5,3,545.970351986605,577.775285599347,1018.57766167904,468.665290897936,700.363562235235,834.728737630372,992.450942956807,767.295052392579,1018.57766167904,468.665290897936,742.637481142314,351.535633479765,545.970351986605,577.775285599347,0,0,0,5,6,3,4,NaN,horizontal,horizontal,vertical,horizontal,horizontal,none
1b,3,100175,2,64,128,21,F,NA,constant,heterogeneous,4,present,0.646647214889526,1,horizontal,horizontal,1,0.741174259185791,green,2,3,1043.85771277057,525.445215295702,725.445215295702,356.142287229426,874.554784704298,843.857712770574,1043.85771277057,525.445215295702,725.445215295702,356.142287229426,556.142287229426,674.554784704298,0,0,0,0,3,4,5,5,NaN,NaN,vertical,horizontal,horizontal,horizontal,none,none
1b,3,100175,3,1,129,21,F,NA,constant,heterogeneous,6,absent,1.22223901748657,1,vertical,vertical,1,1.02352277755737,green,1,NaN,738.309916622085,847.425410200379,NaN,NaN,738.309916622085,847.425410200379,983.431649086356,777.137884467044,1045.12173246427,529.712474266665,861.690083377915,352.574589799621,616.568350913644,422.862115532956,554.878267535729,670.287525733335,4,5,3,5,0,6,vertical,horizontal,horizontal,horizontal,vertical,horizontal
1b,3,100175,3,2,130,21,F,NA,constant,heterogeneous,6,absent,1.17191910743713,1,vertical,vertical,1,0.823525910377502,green,2,NaN,1051.86052685176,639.890788585259,NaN,NaN,891.383827134052,838.063008756786,1051.86052685176,639.890788585259,960.476699717708,401.827779828472,708.616172865948,361.936991243214,548.13947314824,560.109211414741,639.523300282292,798.172220171528,0,4,5,3,6,5,vertical,vertical,horizontal,horizontal,vertical,horizontal
1b,3,100175,3,3,131,21,F,NA,constant,heterogeneous,4,present,0.761852025985718,1,horizontal,horizontal,1,0.929406604766846,green,4,3,553.688914296288,534.001143498857,865.998856501143,353.688914296288,734.001143498857,846.311085703712,1046.31108570371,665.998856501143,865.998856501143,353.688914296288,553.688914296288,534.001143498857,0,0,0,0,3,3,6,4,NaN,NaN,horizontal,horizontal,vertical,horizontal,none,none
1b,3,100175,3,4,132,21,F,NA,constant,heterogeneous,3,present,0.619264841079712,0,vertical,horizontal,1,0.905877561569214,green,1,3,643.006323791957,800.942742169714,704.475318678942,363.568117085469,643.006323791957,800.942742169714,1052.5183575291,635.489140744817,704.475318678942,363.568117085469,0,0,0,0,0,0,4,3,0,NaN,NaN,NaN,vertical,horizontal,vertical,none,none,none
1b,3,100175,3,5,133,21,F,NA,constant,heterogeneous,4,absent,1.05462098121643,1,horizontal,horizontal,1,0.741174259185791,green,2,NaN,1041.10723677783,516.980120613425,NaN,NaN,883.019879386575,841.107236777826,1041.10723677783,516.980120613425,716.980120613425,358.892763222174,558.892763222174,683.019879386575,0,0,0,0,6,4,3,3,NaN,NaN,horizontal,horizontal,horizontal,vertical,none,none
1b,3,100175,3,6,134,21,F,NA,constant,heterogeneous,6,absent,1.10453605651855,1,horizontal,horizontal,1,0.635293564796448,green,6,NaN,629.371695378491,789.501930496736,NaN,NaN,878.799333565612,842.519411655264,1049.42763818712,653.017481158529,970.628304621509,410.498069503264,721.200666434388,357.480588344736,550.57236181288,546.982518841471,629.371695378491,789.501930496736,5,0,3,6,0,4,horizontal,horizontal,horizontal,vertical,horizontal,horizontal
1b,3,100175,3,7,135,21,F,NA,constant,heterogeneous,4,present,0.620359182357788,1,horizontal,horizontal,1,0.870583996772766,green,3,4,646.537169096228,396.34794493794,596.34794493794,753.462830903772,953.462830903772,803.65205506206,1003.65205506206,446.537169096228,646.537169096228,396.34794493794,596.34794493794,753.462830903772,0,0,0,0,6,3,4,6,NaN,NaN,vertical,vertical,horizontal,vertical,none,none
1b,3,100175,3,8,136,21,F,NA,constant,heterogeneous,3,present,0.649470806121826,1,horizontal,horizontal,1,1.03528729915619,green,1,3,1013.86099482608,738.882953928832,572.793336331966,715.767577433584,1013.86099482608,738.882953928832,813.345668841951,345.349468637584,572.793336331966,715.767577433584,0,0,0,0,0,0,4,3,6,NaN,NaN,NaN,horizontal,vertical,vertical,none,none,none
1b,3,100175,3,9,137,21,F,NA,constant,heterogeneous,6,present,1.37277293205261,0,horizontal,vertical,1,0.905877561569214,green,4,6,883.019879386575,358.892763222174,549.685068220846,648.656293821019,716.980120613425,841.107236777826,967.295052392579,792.450942956807,1050.31493177915,551.343706178981,883.019879386575,358.892763222174,632.704947607421,407.549057043193,549.685068220846,648.656293821019,5,6,6,4,3,5,vertical,horizontal,vertical,horizontal,vertical,horizontal
1b,3,100175,3,10,138,21,F,NA,constant,heterogeneous,4,present,0.758262872695923,1,vertical,vertical,1,0.694116172790527,green,1,4,764.510859255183,852.518357529101,547.481642470899,564.510859255183,764.510859255183,852.518357529101,1052.5183575291,635.489140744817,835.489140744817,347.4816424709,547.481642470899,564.510859255183,0,0,0,0,4,0,3,3,NaN,NaN,vertical,horizontal,horizontal,horizontal,none,none
1b,3,100175,3,11,139,21,F,NA,constant,heterogeneous,6,present,1.08115482330322,1,vertical,vertical,1,0.976464691162109,green,4,6,725.445215295702,356.142287229426,626.090418184063,786.495193912888,874.554784704298,843.857712770574,1048.46436652023,657.362518857686,973.909581815937,413.504806087112,725.445215295702,356.142287229426,551.535633479765,542.637481142314,626.090418184063,786.495193912888,3,6,0,4,6,3,vertical,vertical,vertical,vertical,horizontal,vertical
1b,3,100175,3,12,140,21,F,NA,constant,heterogeneous,5,absent,1.23256397247314,1,vertical,vertical,1,0.682351651191711,green,3,NaN,1008.88377129369,453.738008730483,NaN,NaN,716.980120613425,841.107236777826,1003.65205506206,753.462830903772,1008.88377129369,453.738008730483,725.445215295702,356.142287229426,545.03883773512,595.549636358493,0,0,6,0,4,0,5,NaN,horizontal,vertical,vertical,vertical,vertical,none
1b,3,100175,3,13,141,21,F,NA,constant,heterogeneous,4,absent,1.35231494903564,1,horizontal,horizontal,1,0.941171126365662,green,3,NaN,899.636437764765,365.271262369628,NaN,NaN,700.363562235235,834.728737630372,1034.72873763037,699.636437764765,899.636437764765,365.271262369628,565.271262369628,500.363562235235,0,0,0,0,3,3,4,5,NaN,NaN,horizontal,horizontal,horizontal,horizontal,none,none
1b,3,100175,3,14,142,21,F,NA,constant,heterogeneous,5,absent,0.615428924560547,1,horizontal,horizontal,1,0.988229212760925,green,5,NaN,548.13947314824,560.109211414741,NaN,NaN,684.232422566416,827.206663668034,980.31222920257,780.31222920257,1027.20666366803,484.232422566416,760.109211414741,348.13947314824,548.13947314824,560.109211414741,0,0,3,6,0,6,4,NaN,horizontal,vertical,vertical,vertical,horizontal,none
1b,3,100175,3,15,143,21,F,NA,constant,heterogeneous,3,present,0.872473955154419,1,vertical,vertical,1,0.823525910377502,green,3,1,643.006323791957,399.057257830286,704.475318678942,836.431882914531,704.475318678942,836.431882914531,1052.5183575291,564.510859255183,643.006323791957,399.057257830286,0,0,0,0,0,0,0,3,4,NaN,NaN,NaN,vertical,vertical,vertical,none,none,none
1b,3,100175,3,16,144,21,F,NA,constant,heterogeneous,5,absent,0.72026801109314,1,vertical,vertical,1,0.91764208316803,green,4,NaN,626.090418184063,413.504806087112,NaN,NaN,831.076682568313,853.099268668537,1050.31493177915,648.656293821019,923.626453162816,376.971974679454,626.090418184063,413.504806087112,568.891514305654,707.767656743878,0,0,3,0,6,4,5,NaN,vertical,horizontal,vertical,vertical,horizontal,none
1b,3,100175,3,17,145,21,F,NA,constant,heterogeneous,4,absent,1.06370782852173,0,vertical,horizontal,1,1.04705182075501,green,1,NaN,653.738008730483,808.883771293693,NaN,NaN,653.738008730483,808.883771293693,1008.88377129369,746.261991269517,946.261991269517,391.116228706307,591.116228706307,453.738008730483,0,0,0,0,4,3,5,0,NaN,NaN,vertical,vertical,horizontal,horizontal,none,none
1b,3,100175,3,18,146,21,F,NA,constant,heterogeneous,4,absent,1.22882103919983,1,horizontal,horizontal,1,0.964700169563294,green,1,NaN,853.017481158529,849.42763818712,NaN,NaN,853.017481158529,849.42763818712,1049.42763818712,546.982518841471,746.982518841471,350.57236181288,550.57236181288,653.017481158529,0,0,0,0,4,6,0,5,NaN,NaN,horizontal,vertical,horizontal,horizontal,none,none
1b,3,100175,3,19,147,21,F,NA,constant,heterogeneous,3,absent,0.80944299697876,1,vertical,vertical,1,0.799996867179871,green,1,NaN,861.690083377915,847.425410200379,NaN,NaN,861.690083377915,847.425410200379,983.431649086356,422.862115532956,554.878267535729,529.712474266665,0,0,0,0,0,0,4,3,5,NaN,NaN,NaN,vertical,horizontal,horizontal,none,none,none
1b,3,100175,3,20,148,21,F,NA,constant,heterogeneous,6,present,0.880346059799194,1,vertical,vertical,1,0.741174259185791,green,2,1,1039.62161830041,687.215136548046,844.280285305067,851.125977018113,844.280285305067,851.125977018113,1039.62161830041,687.215136548046,995.341332995339,436.089159529932,755.719714694933,348.874022981887,560.378381699593,512.784863451954,604.658667004661,763.910840470068,0,4,5,6,6,3,vertical,vertical,horizontal,horizontal,vertical,horizontal
1b,3,100175,3,21,149,21,F,NA,constant,heterogeneous,5,absent,1.08290886878967,0,horizontal,vertical,1,1.03528729915619,green,3,NaN,1011.40458100154,457.40580961496,NaN,NaN,712.784863451954,839.621618300407,1000.94274216971,756.993676208043,1011.40458100154,457.40580961496,729.712474266665,354.878267535729,545.155339110131,591.100628340862,0,0,3,0,4,6,6,NaN,horizontal,horizontal,horizontal,vertical,vertical,none
1b,3,100175,3,22,150,21,F,NA,constant,heterogeneous,6,absent,1.30214691162109,1,vertical,vertical,1,0.670587129592895,green,6,NaN,668.665290897936,818.577661679039,NaN,NaN,923.626453162816,823.028025320546,1054.96116226488,604.450363641507,931.334709102064,381.422338320961,676.373546837184,376.971974679454,545.03883773512,595.549636358493,668.665290897936,818.577661679039,5,6,0,5,0,4,horizontal,vertical,vertical,horizontal,horizontal,vertical
1b,3,100175,3,23,151,21,F,NA,constant,heterogeneous,5,present,0.643450975418091,1,vertical,vertical,1,0.952935647964477,green,4,5,692.232343256122,368.891514305654,546.900731331463,631.076682568313,751.343706178981,850.314931779154,1023.02802532055,723.626453162816,986.495193912888,426.090418184063,692.232343256122,368.891514305654,546.900731331463,631.076682568313,0,0,6,6,0,4,5,NaN,horizontal,horizontal,vertical,vertical,vertical,none
1b,3,100175,3,24,152,21,F,NA,constant,heterogeneous,4,present,0.648320198059082,1,horizontal,horizontal,1,0.788232345581055,green,3,2,946.261991269517,391.116228706307,1008.88377129369,746.261991269517,653.738008730483,808.883771293693,1008.88377129369,746.261991269517,946.261991269517,391.116228706307,591.116228706307,453.738008730483,0,0,0,0,0,0,4,5,NaN,NaN,horizontal,vertical,horizontal,vertical,none,none
1b,3,100175,3,25,153,21,F,NA,constant,heterogeneous,3,absent,0.669868946075439,1,vertical,vertical,1,1.02352277755737,green,1,NaN,865.998856501143,846.311085703712,NaN,NaN,865.998856501143,846.311085703712,980.31222920257,419.68777079743,553.688914296288,534.001143498857,0,0,0,0,0,0,4,6,0,NaN,NaN,NaN,vertical,vertical,horizontal,none,none,none
1b,3,100175,3,26,154,21,F,NA,constant,heterogeneous,4,present,0.91404390335083,1,horizontal,horizontal,1,0.729409737586975,green,3,4,795.549636358493,345.03883773512,545.03883773512,604.450363641507,804.450363641507,854.96116226488,1054.96116226488,595.549636358493,795.549636358493,345.03883773512,545.03883773512,604.450363641507,0,0,0,0,0,3,4,5,NaN,NaN,horizontal,horizontal,horizontal,horizontal,none,none
1b,3,100175,3,27,155,21,F,NA,constant,heterogeneous,4,present,0.704663038253784,1,vertical,vertical,1,0.811761388778687,green,1,3,664.870587620533,816.252264519889,935.129412379467,383.747735480111,664.870587620533,816.252264519889,1016.25226451989,735.129412379467,935.129412379467,383.747735480111,583.747735480111,464.870587620533,0,0,0,0,4,6,3,0,NaN,NaN,vertical,horizontal,horizontal,vertical,none,none
1b,3,100175,3,28,156,21,F,NA,constant,heterogeneous,3,present,0.590872049331665,1,vertical,vertical,1,0.988229212760925,green,2,1,1006.29933356561,450.114760665419,826.654758133252,853.60308331891,826.654758133252,853.60308331891,1006.29933356561,450.114760665419,567.045908301137,496.282156015671,0,0,0,0,0,0,6,4,3,NaN,NaN,NaN,horizontal,vertical,horizontal,none,none,none
1b,3,100175,3,29,157,21,F,NA,constant,heterogeneous,4,absent,1.18605709075928,1,horizontal,horizontal,1,0.764703302383423,green,3,NaN,963.910840470068,404.658667004661,NaN,NaN,636.089159529932,795.341332995339,995.341332995339,763.910840470068,963.910840470068,404.658667004661,604.658667004661,436.089159529932,0,0,0,0,3,6,4,0,NaN,NaN,horizontal,vertical,horizontal,horizontal,none,none
1b,3,100175,3,30,158,21,F,NA,constant,heterogeneous,5,present,0.715559959411621,1,horizontal,horizontal,1,0.682351651191711,green,4,1,588.595418998464,457.40580961496,887.215136548046,839.621618300407,887.215136548046,839.621618300407,1054.84466088987,591.100628340862,870.287525733335,354.878267535729,588.595418998464,457.40580961496,599.057257830286,756.993676208043,0,0,6,0,3,4,3,NaN,horizontal,vertical,vertical,horizontal,vertical,none
1b,3,100175,3,31,159,21,F,NA,constant,heterogeneous,5,present,0.911628007888794,1,vertical,vertical,1,0.870583996772766,green,1,3,919.715248510402,825.151636179026,835.489140744817,347.4816424709,919.715248510402,825.151636179026,1051.12597701811,555.719714694933,835.489140744817,347.4816424709,570.807518193712,488.215357568785,622.862115532956,783.431649086356,0,0,4,6,5,3,0,NaN,vertical,vertical,horizontal,horizontal,horizontal,none
1b,3,100175,3,32,160,21,F,NA,constant,heterogeneous,6,absent,0.921358108520508,1,horizontal,horizontal,1,0.776467823982239,green,5,NaN,579.163522034968,472.5,NaN,NaN,800,855,1020.83647796503,727.5,1020.83647796503,472.5,800,345,579.163522034968,472.5,579.163522034968,727.5,0,6,5,6,4,3,horizontal,horizontal,horizontal,vertical,horizontal,horizontal
1b,3,100175,3,33,161,21,F,NA,constant,heterogeneous,5,present,0.589035987854004,1,vertical,vertical,1,0.85881947517395,green,3,4,983.431649086356,422.862115532956,688.215357568785,370.807518193712,755.719714694933,851.125977018113,1025.15163617903,719.715248510402,983.431649086356,422.862115532956,688.215357568785,370.807518193712,547.481642470899,635.489140744817,0,0,3,3,4,0,0,NaN,horizontal,vertical,vertical,horizontal,horizontal,none
1b,3,100175,3,34,162,21,F,NA,constant,heterogeneous,3,absent,0.593899965286255,1,vertical,vertical,1,0.835290431976318,green,1,NaN,1008.88377129369,746.261991269517,NaN,NaN,1008.88377129369,746.261991269517,822.224714400653,345.970351986605,568.891514305654,707.767656743878,0,0,0,0,0,0,4,3,0,NaN,NaN,NaN,vertical,horizontal,horizontal,none,none,none
1b,3,100175,3,35,163,21,F,NA,constant,heterogeneous,3,present,0.493311882019043,1,horizontal,horizontal,1,0.964700169563294,green,2,3,1036.43188291453,504.475318678942,599.057257830286,443.006323791957,764.510859255183,852.518357529101,1036.43188291453,504.475318678942,599.057257830286,443.006323791957,0,0,0,0,0,0,5,4,6,NaN,NaN,NaN,horizontal,horizontal,vertical,none,none,none
1b,3,100175,3,36,164,21,F,NA,constant,heterogeneous,6,present,0.78771710395813,1,vertical,vertical,1,0.623529043197632,green,4,1,684.232422566416,372.793336331966,915.767577433584,827.206663668034,915.767577433584,827.206663668034,1054.65053136242,613.345668841951,938.882953928832,386.139005173917,684.232422566416,372.793336331966,545.349468637584,586.654331158049,661.117046071168,813.860994826083,0,5,0,4,3,6,vertical,horizontal,horizontal,vertical,vertical,horizontal
1b,3,100175,3,37,165,21,F,NA,constant,heterogeneous,3,absent,0.868283033370972,1,horizontal,horizontal,1,1.02352277755737,green,3,NaN,572.793336331966,484.232422566416,NaN,NaN,813.345668841951,854.650531362416,1013.86099482608,461.117046071168,572.793336331966,484.232422566416,0,0,0,0,0,0,0,3,4,NaN,NaN,NaN,vertical,vertical,horizontal,none,none,none
1b,3,100175,3,38,166,21,F,NA,constant,heterogeneous,3,present,0.729501962661743,1,vertical,vertical,1,0.788232345581055,green,3,1,554.878267535729,670.287525733335,983.431649086356,777.137884467044,983.431649086356,777.137884467044,861.690083377915,352.574589799621,554.878267535729,670.287525733335,0,0,0,0,0,0,3,0,4,NaN,NaN,NaN,vertical,vertical,vertical,none,none,none
1b,3,100175,3,39,167,21,F,NA,constant,heterogeneous,6,absent,1.38416719436646,1,horizontal,horizontal,1,0.788232345581055,green,1,NaN,734.001143498857,846.311085703712,NaN,NaN,734.001143498857,846.311085703712,980.31222920257,780.31222920257,1046.31108570371,534.001143498857,865.998856501143,353.688914296288,619.68777079743,419.68777079743,553.688914296288,665.998856501143,4,5,6,6,3,3,horizontal,horizontal,horizontal,horizontal,vertical,horizontal
1b,3,100175,3,40,168,21,F,NA,constant,heterogeneous,5,present,0.895862102508545,0,horizontal,vertical,1,1.01175825595856,green,2,3,1054.84466088987,591.100628340862,870.287525733335,354.878267535729,887.215136548046,839.621618300407,1054.84466088987,591.100628340862,870.287525733335,354.878267535729,588.595418998464,457.40580961496,599.057257830286,756.993676208043,0,0,0,4,6,5,3,NaN,horizontal,horizontal,horizontal,horizontal,vertical,none
1b,3,100175,3,41,169,21,F,NA,constant,heterogeneous,6,present,0.67971396446228,1,horizontal,horizontal,1,0.670587129592895,green,6,3,548.13947314824,639.890788585259,1051.86052685176,560.109211414741,708.616172865948,838.063008756786,960.476699717708,798.172220171528,1051.86052685176,560.109211414741,891.383827134052,361.936991243214,639.523300282292,401.827779828472,548.13947314824,639.890788585259,3,5,5,6,3,4,horizontal,vertical,vertical,vertical,vertical,horizontal
1b,3,100175,3,42,170,21,F,NA,constant,heterogeneous,6,present,0.835029125213623,1,horizontal,horizontal,1,0.682351651191711,green,4,5,734.001143498857,353.688914296288,553.688914296288,534.001143498857,865.998856501143,846.311085703712,1046.31108570371,665.998856501143,980.31222920257,419.68777079743,734.001143498857,353.688914296288,553.688914296288,534.001143498857,619.68777079743,780.31222920257,3,6,0,4,3,5,vertical,horizontal,vertical,horizontal,vertical,vertical
1b,3,100175,3,43,171,21,F,NA,constant,heterogeneous,3,absent,0.592622041702271,0,horizontal,vertical,1,1.03528729915619,green,2,NaN,857.362518857686,351.535633479765,NaN,NaN,986.495193912888,773.909581815937,857.362518857686,351.535633479765,556.142287229426,674.554784704298,0,0,0,0,0,0,0,4,5,NaN,NaN,NaN,vertical,horizontal,horizontal,none,none,none
1b,3,100175,3,44,172,21,F,NA,constant,heterogeneous,6,present,0.692445993423462,1,horizontal,horizontal,1,0.988229212760925,green,3,6,983.431649086356,422.862115532956,616.568350913644,777.137884467044,861.690083377915,847.425410200379,1045.12173246427,670.287525733335,983.431649086356,422.862115532956,738.309916622085,352.574589799621,554.878267535729,529.712474266665,616.568350913644,777.137884467044,0,5,4,6,0,3,horizontal,horizontal,horizontal,horizontal,vertical,horizontal
1b,3,100175,3,45,173,21,F,NA,constant,heterogeneous,3,absent,0.598489046096802,1,horizontal,horizontal,1,0.799996867179871,green,2,NaN,989.501930496736,429.371695378491,NaN,NaN,853.017481158529,849.42763818712,989.501930496736,429.371695378491,557.480588344736,521.200666434388,0,0,0,0,0,0,5,4,6,NaN,NaN,NaN,vertical,horizontal,vertical,none,none,none
1b,3,100175,3,46,174,21,F,NA,constant,heterogeneous,3,absent,0.534807920455933,1,horizontal,horizontal,1,0.611764521598816,green,2,NaN,848.656293821019,349.685068220846,NaN,NaN,992.450942956807,767.295052392579,848.656293821019,349.685068220846,558.892763222174,683.019879386575,0,0,0,0,0,0,0,4,5,NaN,NaN,NaN,horizontal,horizontal,horizontal,none,none,none
1b,3,100175,3,47,175,21,F,NA,constant,heterogeneous,5,present,0.629680156707764,1,vertical,vertical,1,0.788232345581055,green,3,2,1016.25226451989,464.870587620533,995.341332995339,763.910840470068,704.475318678942,836.431882914531,995.341332995339,763.910840470068,1016.25226451989,464.870587620533,738.309916622085,352.574589799621,545.621167183745,582.212099195248,0,0,3,5,4,0,0,NaN,horizontal,horizontal,vertical,vertical,vertical,none
1b,3,100175,3,48,176,21,F,NA,constant,heterogeneous,5,absent,1.6296010017395,1,vertical,vertical,1,0.964700169563294,green,2,NaN,956.993676208043,800.942742169714,NaN,NaN,657.405809614959,811.404581001536,956.993676208043,800.942742169714,1039.62161830041,512.784863451954,791.100628340862,345.155339110131,554.878267535729,529.712474266665,0,0,0,4,6,6,3,NaN,horizontal,vertical,vertical,horizontal,vertical,none
1b,3,100175,3,49,177,21,F,NA,constant,heterogeneous,4,absent,1.23112392425537,1,vertical,vertical,1,0.835290431976318,green,2,NaN,980.31222920257,780.31222920257,NaN,NaN,619.68777079743,780.31222920257,980.31222920257,780.31222920257,980.31222920257,419.68777079743,619.68777079743,419.68777079743,0,0,0,0,0,4,3,6,NaN,NaN,horizontal,vertical,vertical,vertical,none,none
1b,3,100175,3,50,178,21,F,NA,constant,heterogeneous,3,present,0.753619194030762,1,horizontal,horizontal,1,0.682351651191711,green,2,3,817.787900804752,345.621167183745,570.807518193712,711.784642431215,1011.40458100154,742.594190385041,817.787900804752,345.621167183745,570.807518193712,711.784642431215,0,0,0,0,0,0,3,4,0,NaN,NaN,NaN,horizontal,horizontal,horizontal,none,none,none
1b,3,100175,3,51,179,21,F,NA,constant,heterogeneous,5,present,0.8176589012146,1,horizontal,horizontal,1,0.635293564796448,green,5,2,557.480588344736,521.200666434388,949.885239334581,806.299333565612,650.114760665419,806.299333565612,949.885239334581,806.299333565612,1042.51941165526,521.200666434388,800,345,557.480588344736,521.200666434388,0,0,0,3,0,5,4,NaN,vertical,horizontal,vertical,vertical,horizontal,none
1b,3,100175,3,52,180,21,F,NA,constant,heterogeneous,5,present,0.733721971511841,1,horizontal,horizontal,1,0.788232345581055,green,5,2,548.13947314824,639.890788585259,1027.20666366803,715.767577433584,760.109211414741,851.86052685176,1027.20666366803,715.767577433584,980.31222920257,419.68777079743,684.232422566416,372.793336331966,548.13947314824,639.890788585259,0,0,5,6,5,3,4,NaN,vertical,horizontal,horizontal,vertical,horizontal,none
1b,3,100175,3,53,181,21,F,NA,constant,heterogeneous,4,present,0.732561826705933,1,vertical,vertical,1,0.988229212760925,green,2,4,1051.86052685176,560.109211414741,548.13947314824,639.890788585259,839.890788585259,851.86052685176,1051.86052685176,560.109211414741,760.109211414741,348.13947314824,548.13947314824,639.890788585259,0,0,0,0,3,4,5,0,NaN,NaN,horizontal,vertical,horizontal,horizontal,none,none
1b,3,100175,3,54,182,21,F,NA,constant,heterogeneous,5,absent,0.805077075958252,1,horizontal,horizontal,1,0.682351651191711,green,4,NaN,795.549636358493,345.03883773512,NaN,NaN,653.738008730483,808.883771293693,953.462830903772,803.65205506206,1041.10723677783,516.980120613425,795.549636358493,345.03883773512,556.142287229426,525.445215295702,0,0,5,0,0,4,3,NaN,horizontal,horizontal,vertical,horizontal,vertical,none
1b,3,100175,3,55,183,21,F,NA,constant,heterogeneous,4,absent,0.996678113937378,1,vertical,vertical,1,0.988229212760925,green,4,NaN,560.378381699593,687.215136548046,NaN,NaN,887.215136548046,839.621618300407,1039.62161830041,512.784863451954,712.784863451954,360.378381699593,560.378381699593,687.215136548046,0,0,0,0,5,3,0,4,NaN,NaN,vertical,horizontal,vertical,vertical,none,none
1b,3,100175,3,56,184,21,F,NA,constant,heterogeneous,3,present,0.608483076095581,1,horizontal,horizontal,1,0.988229212760925,green,1,2,734.001143498857,846.311085703712,1046.31108570371,534.001143498857,734.001143498857,846.311085703712,1046.31108570371,534.001143498857,619.68777079743,419.68777079743,0,0,0,0,0,0,4,5,0,NaN,NaN,NaN,horizontal,horizontal,vertical,none,none,none
1b,3,100175,3,57,185,21,F,NA,constant,heterogeneous,6,absent,0.975251197814941,1,horizontal,horizontal,1,0.717645215988159,green,6,NaN,561.936991243214,691.383827134052,NaN,NaN,760.109211414741,851.86052685176,998.172220171528,760.476699717708,1038.06300875679,508.616172865948,839.890788585259,348.13947314824,601.827779828472,439.523300282291,561.936991243214,691.383827134052,5,5,3,6,6,4,vertical,horizontal,horizontal,vertical,horizontal,horizontal
1b,3,100175,3,58,186,21,F,NA,constant,heterogeneous,3,absent,0.669037818908691,1,vertical,vertical,1,0.894113039970398,green,3,NaN,607.549057043193,432.704947607421,NaN,NaN,751.343706178981,850.314931779154,1041.10723677783,516.980120613425,607.549057043193,432.704947607421,0,0,0,0,0,0,5,6,4,NaN,NaN,NaN,vertical,vertical,vertical,none,none,none
1b,3,100175,3,59,187,21,F,NA,constant,heterogeneous,4,absent,1.49155306816101,1,vertical,vertical,1,0.647058086395264,green,1,NaN,853.017481158529,849.42763818712,NaN,NaN,853.017481158529,849.42763818712,1049.42763818712,546.982518841471,746.982518841471,350.57236181288,550.57236181288,653.017481158529,0,0,0,0,4,3,5,5,NaN,NaN,vertical,vertical,vertical,horizontal,none,none
1b,3,100175,3,60,188,21,F,NA,constant,heterogeneous,4,present,0.587271928787231,1,vertical,vertical,1,0.882348518371582,green,3,2,696.282156015671,367.045908301137,1032.95409169886,496.282156015671,903.717843984329,832.954091698863,1032.95409169886,496.282156015671,696.282156015671,367.045908301137,567.045908301137,703.717843984329,0,0,0,0,0,5,4,3,NaN,NaN,horizontal,horizontal,vertical,horizontal,none,none
1b,3,100175,3,61,189,21,F,NA,constant,heterogeneous,5,absent,0.682302951812744,1,vertical,vertical,1,0.752938780784607,green,3,NaN,1027.20666366803,484.232422566416,NaN,NaN,684.232422566416,827.206663668034,980.31222920257,780.31222920257,1027.20666366803,484.232422566416,760.109211414741,348.13947314824,548.13947314824,560.109211414741,0,0,5,0,4,3,3,NaN,vertical,horizontal,vertical,vertical,horizontal,none
1b,3,100175,3,62,190,21,F,NA,constant,heterogeneous,6,absent,0.980710983276367,1,vertical,vertical,1,0.823525910377502,green,1,NaN,865.998856501143,846.311085703712,NaN,NaN,865.998856501143,846.311085703712,1046.31108570371,665.998856501143,980.31222920257,419.68777079743,734.001143498857,353.688914296288,553.688914296288,534.001143498857,619.68777079743,780.31222920257,4,5,0,0,3,6,vertical,vertical,vertical,horizontal,horizontal,vertical
1b,3,100175,3,63,191,21,F,NA,constant,heterogeneous,6,present,0.515738964080811,1,vertical,vertical,1,0.964700169563294,green,4,1,742.637481142314,351.535633479765,857.362518857686,848.464366520235,857.362518857686,848.464366520235,1043.85771277057,674.554784704298,986.495193912888,426.090418184063,742.637481142314,351.535633479765,556.142287229426,525.445215295702,613.504806087112,773.909581815937,3,3,6,4,6,0,vertical,vertical,vertical,vertical,horizontal,vertical
1b,3,100175,3,64,192,21,F,NA,constant,heterogeneous,5,absent,1.0652449131012,1,horizontal,horizontal,1,0.764703302383423,green,5,NaN,626.090418184063,786.495193912888,NaN,NaN,923.626453162816,823.028025320546,1050.31493177915,551.343706178981,831.076682568313,346.900731331463,568.891514305654,492.232343256122,626.090418184063,786.495193912888,0,0,3,5,0,6,4,NaN,horizontal,vertical,vertical,vertical,horizontal,none
1b,3,100175,4,1,193,21,F,NA,constant,heterogeneous,6,present,0.794947147369385,1,horizontal,horizontal,1,1.08234538555145,green,5,2,567.045908301137,496.282156015671,1032.95409169886,703.717843984329,826.654758133252,853.60308331891,1032.95409169886,703.717843984329,1006.29933356561,450.114760665419,773.345241866748,346.39691668109,567.045908301137,496.282156015671,593.700666434388,749.885239334581,6,3,5,0,4,5,vertical,horizontal,vertical,horizontal,horizontal,vertical
1b,3,100175,4,2,194,21,F,NA,constant,heterogeneous,3,present,0.556349992752075,1,vertical,vertical,1,1.07058086395264,green,3,2,643.006323791957,399.057257830286,1052.5183575291,564.510859255183,704.475318678942,836.431882914531,1052.5183575291,564.510859255183,643.006323791957,399.057257830286,0,0,0,0,0,0,5,6,4,NaN,NaN,NaN,vertical,vertical,vertical,none,none,none
1b,3,100175,4,3,195,21,F,NA,constant,heterogeneous,5,present,0.564367771148682,1,horizontal,horizontal,1,1.03528729915619,green,5,4,563.568117085469,695.524681321058,636.089159529932,404.658667004661,817.787900804752,854.378832816255,1047.42541020038,661.690083377915,935.129412379467,383.747735480111,636.089159529932,404.658667004661,563.568117085469,695.524681321058,0,0,3,0,5,6,4,NaN,vertical,vertical,horizontal,horizontal,horizontal,none
1b,3,100175,4,4,196,21,F,NA,constant,heterogeneous,6,absent,0.65666389465332,1,vertical,vertical,1,0.635293564796448,green,3,NaN,1032.95409169886,496.282156015671,NaN,NaN,773.345241866748,853.60308331891,1006.29933356561,749.885239334581,1032.95409169886,496.282156015671,826.654758133252,346.39691668109,593.700666434388,450.114760665419,567.045908301137,703.717843984329,3,6,4,5,6,5,vertical,vertical,vertical,horizontal,horizontal,horizontal
1b,3,100175,4,5,197,21,F,NA,constant,heterogeneous,3,present,0.65202808380127,0,horizontal,vertical,1,0.905877561569214,green,2,1,1053.09926866854,568.923317431687,700.363562235235,834.728737630372,700.363562235235,834.728737630372,1053.09926866854,568.923317431687,646.537169096228,396.34794493794,0,0,0,0,0,0,6,4,3,NaN,NaN,NaN,vertical,horizontal,vertical,none,none,none
1b,3,100175,4,6,198,21,F,NA,constant,heterogeneous,4,absent,0.610582113265991,1,horizontal,horizontal,1,0.670587129592895,green,3,NaN,643.006323791957,399.057257830286,NaN,NaN,956.993676208043,800.942742169714,1000.94274216971,443.006323791957,643.006323791957,399.057257830286,599.057257830286,756.993676208043,0,0,0,0,3,6,4,5,NaN,NaN,vertical,vertical,horizontal,horizontal,none,none
1b,3,100175,4,7,199,21,F,NA,constant,heterogeneous,4,present,0.489151000976562,1,horizontal,horizontal,1,0.705880694389343,green,3,2,692.232343256122,368.891514305654,1031.10848569435,492.232343256122,907.767656743878,831.108485694346,1031.10848569435,492.232343256122,692.232343256122,368.891514305654,568.891514305654,707.767656743878,0,0,0,0,3,6,4,3,NaN,NaN,vertical,vertical,horizontal,horizontal,none,none
1b,3,100175,4,8,200,21,F,NA,constant,heterogeneous,3,absent,0.55836296081543,1,vertical,vertical,1,0.764703302383423,green,3,NaN,721.200666434388,357.480588344736,NaN,NaN,629.371695378491,789.501930496736,1049.42763818712,653.017481158529,721.200666434388,357.480588344736,0,0,0,0,0,0,6,0,4,NaN,NaN,NaN,vertical,horizontal,vertical,none,none,none
1b,3,100175,4,9,201,21,F,NA,constant,heterogeneous,5,absent,0.550280809402466,1,horizontal,horizontal,1,1.03528729915619,green,4,NaN,563.568117085469,504.475318678942,NaN,NaN,935.129412379467,816.252264519889,1047.42541020038,538.309916622085,817.787900804752,345.621167183745,563.568117085469,504.475318678942,636.089159529932,795.341332995339,0,0,5,6,0,4,3,NaN,horizontal,horizontal,horizontal,horizontal,horizontal,none
1b,3,100175,4,10,202,21,F,NA,constant,heterogeneous,6,absent,1.3146231174469,1,horizontal,horizontal,1,1.05881634235382,green,1,NaN,844.280285305067,851.125977018113,NaN,NaN,844.280285305067,851.125977018113,1039.62161830041,687.215136548046,995.341332995339,436.089159529932,755.719714694933,348.874022981887,560.378381699593,512.784863451954,604.658667004661,763.910840470068,4,5,0,3,6,3,horizontal,horizontal,vertical,vertical,vertical,vertical
1b,3,100175,4,11,203,21,F,NA,constant,heterogeneous,5,present,0.478882074356079,1,horizontal,horizontal,1,1.09410990715027,green,4,3,601.827779828472,439.523300282291,891.383827134052,361.936991243214,865.998856501143,846.311085703712,1054.65053136242,613.345668841951,891.383827134052,361.936991243214,601.827779828472,439.523300282291,586.139005173917,738.882953928832,0,0,3,5,0,4,6,NaN,horizontal,horizontal,horizontal,horizontal,horizontal,none
1b,3,100175,4,12,204,21,F,NA,constant,heterogeneous,4,absent,0.783596992492676,1,vertical,vertical,1,0.741174259185791,green,4,NaN,546.900731331463,568.923317431687,NaN,NaN,768.923317431687,853.099268668537,1053.09926866854,631.076682568313,831.076682568313,346.900731331463,546.900731331463,568.923317431687,0,0,0,0,6,5,3,4,NaN,NaN,horizontal,horizontal,horizontal,vertical,none,none
1b,3,100175,4,13,205,21,F,NA,constant,heterogeneous,5,present,0.645117998123169,1,horizontal,horizontal,1,0.694116172790527,green,4,3,565.271262369628,500.363562235235,822.224714400653,345.970351986605,931.334709102064,818.577661679039,1048.46436652023,542.637481142314,822.224714400653,345.970351986605,565.271262369628,500.363562235235,632.704947607421,792.450942956807,0,0,5,0,3,4,0,NaN,vertical,horizontal,vertical,horizontal,horizontal,none
1b,3,100175,4,14,206,21,F,NA,constant,heterogeneous,3,absent,0.617427110671997,0,horizontal,vertical,1,0.964700169563294,green,2,NaN,970.628304621509,410.498069503264,NaN,NaN,878.799333565612,842.519411655264,970.628304621509,410.498069503264,550.57236181288,546.982518841471,0,0,0,0,0,0,3,4,6,NaN,NaN,NaN,horizontal,horizontal,vertical,none,none,none
1b,3,100175,4,15,207,21,F,NA,constant,heterogeneous,4,present,0.641737937927246,1,vertical,vertical,1,0.999993734359741,green,4,3,588.595418998464,742.594190385041,657.405809614959,388.595418998464,942.594190385041,811.404581001536,1011.40458100154,457.40580961496,657.405809614959,388.595418998464,588.595418998464,742.594190385041,0,0,0,0,6,0,3,4,NaN,NaN,vertical,horizontal,horizontal,vertical,none,none
1b,3,100175,4,16,208,21,F,NA,constant,heterogeneous,3,absent,0.594989061355591,1,horizontal,horizontal,1,0.999993734359741,green,2,NaN,942.594190385041,388.595418998464,NaN,NaN,911.784642431215,829.192481806288,942.594190385041,388.595418998464,545.621167183745,582.212099195248,0,0,0,0,0,0,3,4,5,NaN,NaN,NaN,horizontal,horizontal,horizontal,none,none,none
1b,3,100175,4,17,209,21,F,NA,constant,heterogeneous,5,absent,0.810433149337769,1,horizontal,horizontal,1,0.776467823982239,green,3,NaN,935.129412379467,383.747735480111,NaN,NaN,817.787900804752,854.378832816255,1047.42541020038,661.690083377915,935.129412379467,383.747735480111,636.089159529932,404.658667004661,563.568117085469,695.524681321058,0,0,0,5,4,3,3,NaN,horizontal,vertical,horizontal,vertical,horizontal,none
1b,3,100175,4,18,210,21,F,NA,constant,heterogeneous,3,present,0.561035871505737,1,horizontal,horizontal,1,0.705880694389343,green,2,1,899.636437764765,365.271262369628,953.462830903772,803.65205506206,953.462830903772,803.65205506206,899.636437764765,365.271262369628,546.900731331463,631.076682568313,0,0,0,0,0,0,3,4,3,NaN,NaN,NaN,horizontal,horizontal,horizontal,none,none,none
1b,3,100175,4,19,211,21,F,NA,constant,heterogeneous,6,absent,0.806638956069946,1,vertical,vertical,1,0.717645215988159,green,5,NaN,545,600,NaN,NaN,927.5,820.836477965032,1055,600,927.5,379.163522034968,672.5,379.163522034968,545,600,672.5,820.836477965032,5,0,0,3,4,3,horizontal,vertical,vertical,horizontal,vertical,vertical
1b,3,100175,4,20,212,21,F,NA,constant,heterogeneous,4,present,0.926599025726318,1,vertical,vertical,1,0.788232345581055,green,4,1,619.68777079743,419.68777079743,619.68777079743,780.31222920257,619.68777079743,780.31222920257,980.31222920257,780.31222920257,980.31222920257,419.68777079743,619.68777079743,419.68777079743,0,0,0,0,5,0,3,4,NaN,NaN,vertical,horizontal,vertical,vertical,none,none
1b,3,100175,4,21,213,21,F,NA,constant,heterogeneous,5,absent,0.515945911407471,1,vertical,vertical,1,0.729409737586975,green,4,NaN,607.549057043193,432.704947607421,NaN,NaN,857.362518857686,848.464366520235,1054.0296480134,622.224714400653,899.636437764765,365.271262369628,607.549057043193,432.704947607421,581.422338320961,731.334709102064,0,0,6,5,0,4,3,NaN,vertical,horizontal,vertical,vertical,horizontal,none
1b,3,100175,4,22,214,21,F,NA,constant,heterogeneous,6,present,0.694885015487671,1,horizontal,horizontal,1,0.623529043197632,green,2,3,1008.88377129369,746.261991269517,1031.10848569435,492.232343256122,777.775285599347,854.029648013395,1008.88377129369,746.261991269517,1031.10848569435,492.232343256122,822.224714400653,345.970351986605,591.116228706307,453.738008730483,568.891514305654,707.767656743878,5,4,3,0,0,5,horizontal,horizontal,vertical,horizontal,horizontal,vertical
1b,3,100175,4,23,215,21,F,NA,constant,heterogeneous,6,present,1.44068717956543,0,vertical,horizontal,1,0.788232345581055,green,5,2,613.504806087112,426.090418184063,986.495193912888,773.909581815937,742.637481142314,848.464366520235,986.495193912888,773.909581815937,1043.85771277057,525.445215295702,857.362518857686,351.535633479765,613.504806087112,426.090418184063,556.142287229426,674.554784704298,3,0,3,0,4,6,horizontal,horizontal,vertical,horizontal,vertical,vertical
1b,3,100175,4,24,216,21,F,NA,constant,heterogeneous,3,absent,1.2670419216156,1,vertical,vertical,1,1.07058086395264,green,2,NaN,983.431649086356,422.862115532956,NaN,NaN,861.690083377915,847.425410200379,983.431649086356,422.862115532956,554.878267535729,529.712474266665,0,0,0,0,0,0,3,4,5,NaN,NaN,NaN,vertical,vertical,horizontal,none,none,none
1b,3,100175,4,25,217,21,F,NA,constant,heterogeneous,3,present,0.589879989624023,1,vertical,vertical,1,1.07058086395264,green,3,1,646.537169096228,396.34794493794,700.363562235235,834.728737630372,700.363562235235,834.728737630372,1053.09926866854,568.923317431687,646.537169096228,396.34794493794,0,0,0,0,0,0,3,6,4,NaN,NaN,NaN,horizontal,horizontal,vertical,none,none,none
1b,3,100175,4,26,218,21,F,NA,constant,heterogeneous,4,present,0.688748121261597,1,horizontal,horizontal,1,0.941171126365662,green,3,1,729.712474266665,354.878267535729,870.287525733335,845.121732464271,870.287525733335,845.121732464271,1045.12173246427,529.712474266665,729.712474266665,354.878267535729,554.878267535729,670.287525733335,0,0,0,0,5,0,4,5,NaN,NaN,vertical,horizontal,horizontal,horizontal,none,none
1b,3,100175,4,27,219,21,F,NA,constant,heterogeneous,5,present,1.13968992233276,1,horizontal,horizontal,1,1.04705182075501,green,2,4,1029.19248180629,711.784642431215,680.284751489598,374.848363820974,764.510859255183,852.518357529101,1029.19248180629,711.784642431215,977.137884467044,416.568350913644,680.284751489598,374.848363820974,548.874022981887,644.280285305067,0,0,5,4,6,0,0,NaN,horizontal,horizontal,vertical,vertical,vertical,none
1b,3,100175,4,28,220,21,F,NA,constant,heterogeneous,6,absent,0.650315046310425,1,horizontal,horizontal,1,0.788232345581055,green,5,NaN,570.807518193712,488.215357568785,NaN,NaN,817.787900804752,854.378832816255,1029.19248180629,711.784642431215,1011.40458100154,457.40580961496,782.212099195248,345.621167183745,570.807518193712,488.215357568785,588.595418998464,742.594190385041,5,0,5,0,4,6,vertical,vertical,horizontal,horizontal,horizontal,horizontal
1b,3,100175,4,29,221,21,F,NA,constant,heterogeneous,5,absent,1.14398097991943,1,vertical,vertical,1,1.02352277755737,green,2,NaN,1054.84466088987,591.100628340862,NaN,NaN,887.215136548046,839.621618300407,1054.84466088987,591.100628340862,870.287525733335,354.878267535729,588.595418998464,457.40580961496,599.057257830286,756.993676208043,0,0,5,4,6,0,6,NaN,vertical,vertical,vertical,horizontal,vertical,none
1b,3,100175,4,30,222,21,F,NA,constant,heterogeneous,4,absent,1.71247100830078,1,horizontal,horizontal,1,1.07058086395264,green,1,NaN,874.554784704298,843.857712770574,NaN,NaN,874.554784704298,843.857712770574,1043.85771277057,525.445215295702,725.445215295702,356.142287229426,556.142287229426,674.554784704298,0,0,0,0,4,3,5,0,NaN,NaN,horizontal,vertical,vertical,vertical,none,none
1b,3,100175,4,31,223,21,F,NA,constant,heterogeneous,5,present,1.4955849647522,1,vertical,vertical,1,0.835290431976318,green,3,5,800,345,650.114760665419,806.299333565612,949.885239334581,806.299333565612,1042.51941165526,521.200666434388,800,345,557.480588344736,521.200666434388,650.114760665419,806.299333565612,0,0,5,6,4,5,6,NaN,horizontal,vertical,vertical,horizontal,vertical,none
1b,3,100175,4,32,224,21,F,NA,constant,heterogeneous,5,absent,1.68153595924377,1,horizontal,horizontal,1,1.01175825595856,green,1,NaN,911.784642431215,829.192481806288,NaN,NaN,911.784642431215,829.192481806288,1052.5183575291,564.510859255183,844.280285305067,348.874022981887,574.848363820974,480.284751489598,616.568350913644,777.137884467044,0,0,4,0,6,3,5,NaN,horizontal,horizontal,horizontal,horizontal,vertical,none
1b,3,100175,4,33,225,21,F,NA,constant,heterogeneous,6,absent,0.906919002532959,0,horizontal,vertical,1,0.952935647964477,green,6,NaN,553.688914296288,665.998856501143,NaN,NaN,734.001143498857,846.311085703712,980.31222920257,780.31222920257,1046.31108570371,534.001143498857,865.998856501143,353.688914296288,619.68777079743,419.68777079743,553.688914296288,665.998856501143,6,6,3,5,5,4,vertical,horizontal,vertical,horizontal,horizontal,horizontal
1b,3,100175,4,34,226,21,F,NA,constant,heterogeneous,3,present,0.859334945678711,1,horizontal,horizontal,1,0.705880694389343,green,3,2,773.345241866748,346.39691668109,1032.95409169886,703.717843984329,593.700666434388,749.885239334581,1032.95409169886,703.717843984329,773.345241866748,346.39691668109,0,0,0,0,0,0,3,5,4,NaN,NaN,NaN,horizontal,horizontal,horizontal,none,none,none
1b,3,100175,4,35,227,21,F,NA,constant,heterogeneous,3,absent,0.894989013671875,1,vertical,vertical,1,0.91764208316803,green,1,NaN,992.450942956807,767.295052392579,NaN,NaN,992.450942956807,767.295052392579,848.656293821019,349.685068220846,558.892763222174,683.019879386575,0,0,0,0,0,0,4,0,3,NaN,NaN,NaN,vertical,horizontal,horizontal,none,none,none
1b,3,100175,4,36,228,21,F,NA,constant,heterogeneous,4,present,0.645325899124146,1,horizontal,horizontal,1,0.999993734359741,green,4,1,545.03883773512,595.549636358493,795.549636358493,854.96116226488,795.549636358493,854.96116226488,1054.96116226488,604.450363641507,804.450363641507,345.03883773512,545.03883773512,595.549636358493,0,0,0,0,5,6,0,4,NaN,NaN,horizontal,horizontal,horizontal,horizontal,none,none
1b,3,100175,4,37,229,21,F,NA,constant,heterogeneous,4,present,0.602733135223389,1,vertical,vertical,1,1.03528729915619,green,3,4,949.885239334581,393.700666434388,593.700666434388,450.114760665419,650.114760665419,806.299333565612,1006.29933356561,749.885239334581,949.885239334581,393.700666434388,593.700666434388,450.114760665419,0,0,0,0,0,6,4,6,NaN,NaN,vertical,vertical,vertical,vertical,none,none
1b,3,100175,4,38,230,21,F,NA,constant,heterogeneous,4,present,0.702301025390625,1,horizontal,horizontal,1,0.952935647964477,green,2,3,1052.5183575291,564.510859255183,764.510859255183,347.4816424709,835.489140744817,852.518357529101,1052.5183575291,564.510859255183,764.510859255183,347.4816424709,547.481642470899,635.489140744817,0,0,0,0,0,4,6,3,NaN,NaN,horizontal,horizontal,horizontal,horizontal,none,none
1b,3,100175,4,39,231,21,F,NA,constant,heterogeneous,5,present,0.692574024200439,1,vertical,vertical,1,0.999993734359741,green,5,3,545.349468637584,586.654331158049,1013.86099482608,461.117046071168,708.616172865948,838.063008756786,998.172220171528,760.476699717708,1013.86099482608,461.117046071168,734.001143498857,353.688914296288,545.349468637584,586.654331158049,0,0,3,0,5,3,4,NaN,horizontal,horizontal,vertical,vertical,vertical,none
1b,3,100175,4,40,232,21,F,NA,constant,heterogeneous,3,absent,0.580101013183594,1,horizontal,horizontal,1,0.682351651191711,green,2,NaN,848.656293821019,349.685068220846,NaN,NaN,992.450942956807,767.295052392579,848.656293821019,349.685068220846,558.892763222174,683.019879386575,0,0,0,0,0,0,6,4,0,NaN,NaN,NaN,vertical,horizontal,vertical,none,none,none
1b,3,100175,4,41,233,21,F,NA,constant,heterogeneous,6,present,0.646807193756104,1,vertical,vertical,1,0.952935647964477,green,4,3,700.363562235235,365.271262369628,953.462830903772,396.34794493794,899.636437764765,834.728737630372,1053.09926866854,631.076682568313,953.462830903772,396.34794493794,700.363562235235,365.271262369628,546.900731331463,568.923317431687,646.537169096228,803.65205506206,6,3,5,4,0,3,horizontal,horizontal,vertical,vertical,vertical,horizontal
1b,3,100175,4,42,234,21,F,NA,constant,heterogeneous,5,absent,0.590693950653076,1,vertical,vertical,1,0.91764208316803,green,4,NaN,565.271262369628,500.363562235235,NaN,NaN,931.334709102064,818.577661679039,1048.46436652023,542.637481142314,822.224714400653,345.970351986605,565.271262369628,500.363562235235,632.704947607421,792.450942956807,0,0,3,5,0,4,0,NaN,horizontal,vertical,vertical,vertical,vertical,none
1b,3,100175,4,43,235,21,F,NA,constant,heterogeneous,4,absent,0.442224025726318,1,vertical,vertical,1,0.788232345581055,green,3,NaN,708.616172865948,361.936991243214,NaN,NaN,891.383827134052,838.063008756786,1038.06300875679,508.616172865948,708.616172865948,361.936991243214,561.936991243214,691.383827134052,0,0,0,0,0,6,4,0,NaN,NaN,horizontal,vertical,vertical,vertical,none,none
1b,3,100175,4,44,236,21,F,NA,constant,heterogeneous,3,present,0.495013952255249,1,vertical,vertical,1,0.788232345581055,green,2,3,1036.43188291453,504.475318678942,599.057257830286,443.006323791957,764.510859255183,852.518357529101,1036.43188291453,504.475318678942,599.057257830286,443.006323791957,0,0,0,0,0,0,5,4,3,NaN,NaN,NaN,horizontal,vertical,vertical,none,none,none
1b,3,100175,4,45,237,21,F,NA,constant,heterogeneous,3,absent,0.502574920654297,1,horizontal,horizontal,1,0.670587129592895,green,3,NaN,545,600,NaN,NaN,927.5,820.836477965032,927.5,379.163522034968,545,600,0,0,0,0,0,0,3,5,4,NaN,NaN,NaN,horizontal,horizontal,horizontal,none,none,none
1b,3,100175,4,46,238,21,F,NA,constant,heterogeneous,4,absent,0.606178998947144,1,horizontal,horizontal,1,1.07058086395264,green,3,NaN,712.784863451954,360.378381699593,NaN,NaN,887.215136548046,839.621618300407,1039.62161830041,512.784863451954,712.784863451954,360.378381699593,560.378381699593,687.215136548046,0,0,0,0,5,0,4,5,NaN,NaN,horizontal,vertical,horizontal,vertical,none,none
1b,3,100175,4,47,239,21,F,NA,constant,heterogeneous,5,absent,1.25373983383179,1,vertical,vertical,1,0.964700169563294,green,3,NaN,998.172220171528,439.523300282291,NaN,NaN,734.001143498857,846.311085703712,1013.86099482608,738.882953928832,998.172220171528,439.523300282291,708.616172865948,361.936991243214,545.349468637584,613.345668841951,0,0,5,3,4,3,0,NaN,horizontal,horizontal,vertical,horizontal,horizontal,none
1b,3,100175,4,48,240,21,F,NA,constant,heterogeneous,5,present,0.951120138168335,0,vertical,horizontal,1,0.611764521598816,green,1,2,899.636437764765,834.728737630372,1054.0296480134,577.775285599347,899.636437764765,834.728737630372,1054.0296480134,577.775285599347,857.362518857686,351.535633479765,581.422338320961,468.665290897936,607.549057043193,767.295052392579,0,0,4,0,3,6,5,NaN,vertical,horizontal,horizontal,vertical,horizontal,none
1b,3,100175,4,49,241,21,F,NA,constant,heterogeneous,4,absent,0.702075004577637,1,vertical,vertical,1,0.999993734359741,green,4,NaN,551.535633479765,542.637481142314,NaN,NaN,742.637481142314,848.464366520235,1048.46436652023,657.362518857686,857.362518857686,351.535633479765,551.535633479765,542.637481142314,0,0,0,0,3,6,0,4,NaN,NaN,vertical,vertical,horizontal,vertical,none,none
1b,3,100175,4,50,242,21,F,NA,constant,heterogeneous,4,absent,0.783505916595459,1,vertical,vertical,1,0.764703302383423,green,1,NaN,639.523300282292,798.172220171528,NaN,NaN,639.523300282292,798.172220171528,998.172220171528,760.476699717708,960.476699717708,401.827779828472,601.827779828472,439.523300282291,0,0,0,0,4,3,6,0,NaN,NaN,vertical,horizontal,vertical,horizontal,none,none
1b,3,100175,4,51,243,21,F,NA,constant,heterogeneous,3,absent,0.515862941741943,1,vertical,vertical,1,0.623529043197632,green,2,NaN,1013.86099482608,461.117046071168,NaN,NaN,813.345668841951,854.650531362416,1013.86099482608,461.117046071168,572.793336331966,484.232422566416,0,0,0,0,0,0,6,4,5,NaN,NaN,NaN,horizontal,vertical,horizontal,none,none,none
1b,3,100175,4,52,244,21,F,NA,constant,heterogeneous,6,present,1.27540397644043,1,horizontal,horizontal,1,1.05881634235382,green,6,4,626.090418184063,786.495193912888,725.445215295702,356.142287229426,874.554784704298,843.857712770574,1048.46436652023,657.362518857686,973.909581815937,413.504806087112,725.445215295702,356.142287229426,551.535633479765,542.637481142314,626.090418184063,786.495193912888,6,0,3,3,5,4,horizontal,vertical,vertical,vertical,horizontal,horizontal
