experiment,subject,uniqueID,block,trial,trial_cumulative,age,gender,color_cond_blocking,color_history,shape_type,set_size,distractor,rt,acc,target_orient,response_key,response_made,iti,target_color,target_item,distractor_item,target_X,target_Y,distractor_X,distractor_Y,item1_X,item1_Y,item2_X,item2_Y,item3_X,item3_Y,item4_X,item4_Y,item5_X,item5_Y,item6_X,item6_Y,item1_shape,item2_shape,item3_shape,item4_shape,item5_shape,item6_shape,item1_line,item2_line,item3_line,item4_line,item5_line,item6_line
1b,4,100174,1,1,1,21,F,NA,constant,heterogeneous,6,present,1.23470783233643,1,vertical,vertical,1,0.764706306457519,red,1,3,755.719714694933,851.125977018113,1039.62161830041,512.784863451954,755.719714694933,851.125977018113,995.341332995339,763.910840470068,1039.62161830041,512.784863451954,844.280285305067,348.874022981887,604.658667004661,436.089159529932,560.378381699593,687.215136548046,4,3,5,0,3,5,vertical,horizontal,vertical,vertical,horizontal,horizontal
1b,4,100174,1,2,2,21,F,NA,constant,heterogeneous,3,absent,1.13545083999634,1,vertical,vertical,1,0.611764736175537,red,2,NaN,998.172220171528,439.523300282291,NaN,NaN,839.890788585259,851.86052685176,998.172220171528,439.523300282291,561.936991243214,508.616172865948,0,0,0,0,0,0,5,4,0,NaN,NaN,NaN,vertical,vertical,horizontal,none,none,none
1b,4,100174,1,3,3,21,F,NA,constant,heterogeneous,6,present,0.82383394241333,1,horizontal,horizontal,1,0.658823680877686,red,2,5,1052.5183575291,635.489140744817,547.481642470899,564.510859255183,895.524681321058,836.431882914531,1052.5183575291,635.489140744817,956.993676208043,399.057257830286,704.475318678942,363.568117085469,547.481642470899,564.510859255183,643.006323791957,800.942742169714,0,4,0,6,3,3,vertical,horizontal,vertical,horizontal,horizontal,horizontal
1b,4,100174,1,4,4,21,F,NA,constant,heterogeneous,6,present,0.907871007919312,1,horizontal,horizontal,1,0.776471042633057,red,3,5,938.882953928832,386.139005173917,545.349468637584,586.654331158049,915.767577433584,827.206663668034,1054.65053136242,613.345668841951,938.882953928832,386.139005173917,684.232422566416,372.793336331966,545.349468637584,586.654331158049,661.117046071168,813.860994826083,6,5,4,3,3,0,horizontal,horizontal,horizontal,vertical,vertical,horizontal
1b,4,100174,1,5,5,21,F,NA,constant,heterogeneous,6,present,0.95440411567688,1,vertical,vertical,1,0.811765251159668,red,5,2,626.090418184063,413.504806087112,973.909581815937,786.495193912888,725.445215295702,843.857712770574,973.909581815937,786.495193912888,1048.46436652023,542.637481142314,874.554784704298,356.142287229426,626.090418184063,413.504806087112,551.535633479765,657.362518857686,6,0,6,5,4,0,horizontal,horizontal,horizontal,vertical,vertical,vertical
1b,4,100174,1,6,6,21,F,NA,constant,heterogeneous,5,absent,1.23819184303284,1,horizontal,horizontal,1,0.623529472351074,red,5,NaN,570.807518193712,711.784642431215,NaN,NaN,835.489140744817,852.518357529101,1051.12597701811,644.280285305067,919.715248510402,374.848363820974,622.862115532956,416.568350913644,570.807518193712,711.784642431215,0,0,5,5,3,0,4,NaN,horizontal,vertical,vertical,horizontal,horizontal,none
1b,4,100174,1,7,7,21,F,NA,constant,heterogeneous,5,absent,1.82978487014771,1,horizontal,horizontal,1,0.929412612915039,red,4,NaN,563.568117085469,504.475318678942,NaN,NaN,935.129412379467,816.252264519889,1047.42541020038,538.309916622085,817.787900804752,345.621167183745,563.568117085469,504.475318678942,636.089159529932,795.341332995339,0,0,0,5,6,4,6,NaN,vertical,horizontal,horizontal,horizontal,vertical,none
1b,4,100174,1,8,8,21,F,NA,constant,heterogeneous,6,absent,0.828009843826294,1,vertical,vertical,1,0.670588417053223,red,3,NaN,1053.60308331891,573.345241866748,NaN,NaN,696.282156015671,832.954091698863,949.885239334581,806.299333565612,1053.60308331891,573.345241866748,903.717843984329,367.045908301137,650.114760665419,393.700666434388,546.39691668109,626.654758133252,0,6,4,5,3,5,horizontal,horizontal,vertical,vertical,horizontal,vertical
1b,4,100174,1,9,9,21,F,NA,constant,heterogeneous,5,present,1.89524292945862,1,horizontal,horizontal,1,0.929412612915039,red,4,3,755.719714694933,348.874022981887,1025.15163617903,480.284751489598,688.215357568785,829.192481806288,983.431649086356,777.137884467044,1025.15163617903,480.284751489598,755.719714694933,348.874022981887,547.481642470899,564.510859255183,0,0,3,3,5,4,5,NaN,horizontal,vertical,vertical,horizontal,vertical,none
1b,4,100174,1,10,10,21,F,NA,constant,heterogeneous,3,absent,1.3263988494873,1,horizontal,horizontal,1,1.04705997467041,red,3,NaN,553.688914296288,534.001143498857,NaN,NaN,865.998856501143,846.311085703712,980.31222920257,419.68777079743,553.688914296288,534.001143498857,0,0,0,0,0,0,3,6,4,NaN,NaN,NaN,vertical,horizontal,horizontal,none,none,none
1b,4,100174,1,11,11,21,F,NA,constant,heterogeneous,6,present,1.93301391601562,1,horizontal,horizontal,1,0.800000514984131,red,3,5,983.431649086356,422.862115532956,554.878267535729,529.712474266665,861.690083377915,847.425410200379,1045.12173246427,670.287525733335,983.431649086356,422.862115532956,738.309916622085,352.574589799621,554.878267535729,529.712474266665,616.568350913644,777.137884467044,5,5,4,6,0,3,horizontal,horizontal,horizontal,horizontal,vertical,vertical
1b,4,100174,1,12,12,21,F,NA,constant,heterogeneous,3,absent,0.992329120635986,1,horizontal,horizontal,1,0.823529987335205,red,2,NaN,1048.46436652023,657.362518857686,NaN,NaN,626.090418184063,786.495193912888,1048.46436652023,657.362518857686,725.445215295702,356.142287229426,0,0,0,0,0,0,0,4,3,NaN,NaN,NaN,horizontal,horizontal,horizontal,none,none,none
1b,4,100174,1,13,13,21,F,NA,constant,heterogeneous,5,present,1.43373203277588,1,vertical,vertical,1,0.670588417053223,red,5,1,545.621167183745,582.212099195248,704.475318678942,836.431882914531,704.475318678942,836.431882914531,995.341332995339,763.910840470068,1016.25226451989,464.870587620533,738.309916622085,352.574589799621,545.621167183745,582.212099195248,0,0,5,0,3,3,4,NaN,vertical,horizontal,horizontal,vertical,vertical,none
1b,4,100174,1,14,14,21,F,NA,constant,heterogeneous,6,absent,1.26575684547424,1,horizontal,horizontal,1,0.764706306457519,red,5,NaN,550.57236181288,546.982518841471,NaN,NaN,878.799333565612,842.519411655264,1049.42763818712,653.017481158529,970.628304621509,410.498069503264,721.200666434388,357.480588344736,550.57236181288,546.982518841471,629.371695378491,789.501930496736,6,0,6,5,4,5,horizontal,horizontal,vertical,vertical,horizontal,horizontal
1b,4,100174,1,15,15,21,F,NA,constant,heterogeneous,3,present,1.00843906402588,1,horizontal,horizontal,1,0.858824195861816,red,2,1,931.334709102064,381.422338320961,923.626453162816,823.028025320546,923.626453162816,823.028025320546,931.334709102064,381.422338320961,545.03883773512,595.549636358493,0,0,0,0,0,0,5,4,3,NaN,NaN,NaN,horizontal,horizontal,vertical,none,none,none
1b,4,100174,1,16,16,21,F,NA,constant,heterogeneous,5,absent,1.03061103820801,0,vertical,horizontal,1,0.694117889404297,red,1,NaN,874.554784704298,843.857712770574,NaN,NaN,874.554784704298,843.857712770574,1054.96116226488,604.450363641507,883.019879386575,358.892763222174,596.34794493794,446.537169096228,591.116228706307,746.261991269517,0,0,4,0,6,5,3,NaN,vertical,horizontal,vertical,horizontal,horizontal,none
1b,4,100174,1,17,17,21,F,NA,constant,heterogeneous,4,present,1.37890315055847,1,vertical,vertical,1,0.776471042633057,red,3,2,817.787900804752,345.621167183745,1054.37883281626,617.787900804752,782.212099195248,854.378832816255,1054.37883281626,617.787900804752,817.787900804752,345.621167183745,545.621167183745,582.212099195248,0,0,0,0,3,0,4,6,NaN,NaN,vertical,horizontal,vertical,horizontal,none,none
1b,4,100174,1,18,18,21,F,NA,constant,heterogeneous,3,present,0.716147184371948,1,horizontal,horizontal,1,0.68235315322876,red,2,1,927.5,379.163522034968,927.5,820.836477965032,927.5,820.836477965032,927.5,379.163522034968,545,600,0,0,0,0,0,0,5,4,5,NaN,NaN,NaN,vertical,horizontal,horizontal,none,none,none
1b,4,100174,1,19,19,21,F,NA,constant,heterogeneous,5,present,0.842777967453003,1,horizontal,horizontal,1,1.0117657661438,red,3,5,813.345668841951,345.349468637584,639.523300282292,798.172220171528,938.882953928832,813.860994826083,1046.31108570371,534.001143498857,813.345668841951,345.349468637584,561.936991243214,508.616172865948,639.523300282292,798.172220171528,0,0,3,6,4,0,6,NaN,vertical,vertical,horizontal,vertical,horizontal,none
1b,4,100174,1,20,20,21,F,NA,constant,heterogeneous,4,absent,NaN,0,vertical,none,0,0.705882625579834,red,3,NaN,653.738008730483,391.116228706307,NaN,NaN,946.261991269517,808.883771293693,1008.88377129369,453.738008730483,653.738008730483,391.116228706307,591.116228706307,746.261991269517,0,0,0,0,6,3,4,0,NaN,NaN,vertical,horizontal,vertical,vertical,none,none
1b,4,100174,1,21,21,21,F,NA,constant,heterogeneous,6,absent,1.49100995063782,1,vertical,vertical,1,0.635294208526611,red,2,NaN,1018.57766167904,731.334709102064,NaN,NaN,795.549636358493,854.96116226488,1018.57766167904,731.334709102064,1023.02802532055,476.373546837184,804.450363641507,345.03883773512,581.422338320961,468.665290897936,576.971974679454,723.626453162816,6,4,5,3,0,5,horizontal,vertical,vertical,vertical,horizontal,vertical
1b,4,100174,1,22,22,21,F,NA,constant,heterogeneous,4,absent,NaN,0,horizontal,none,0,0.976471557617187,red,3,NaN,973.909581815937,413.504806087112,NaN,NaN,626.090418184063,786.495193912888,986.495193912888,773.909581815937,973.909581815937,413.504806087112,613.504806087112,426.090418184063,0,0,0,0,6,3,4,6,NaN,NaN,horizontal,horizontal,horizontal,vertical,none,none
1b,4,100174,1,23,23,21,F,NA,constant,heterogeneous,5,present,0.856201171875,1,vertical,vertical,1,0.776471042633057,red,3,1,1000.94274216971,443.006323791957,729.712474266665,845.121732464271,729.712474266665,845.121732464271,1011.40458100154,742.594190385041,1000.94274216971,443.006323791957,712.784863451954,360.378381699593,545.155339110131,608.899371659138,0,0,3,3,4,0,5,NaN,vertical,vertical,vertical,vertical,horizontal,none
1b,4,100174,1,24,24,21,F,NA,constant,heterogeneous,5,present,0.770179986953735,1,horizontal,horizontal,1,1.03529523849487,red,3,2,1006.29933356561,450.114760665419,1006.29933356561,749.885239334581,721.200666434388,842.519411655264,1006.29933356561,749.885239334581,1006.29933356561,450.114760665419,721.200666434388,357.480588344736,545,600,0,0,3,6,4,0,6,NaN,horizontal,horizontal,horizontal,vertical,vertical,none
1b,4,100174,1,25,25,21,F,NA,constant,heterogeneous,3,absent,1.09217715263367,1,horizontal,horizontal,1,0.917647876739502,red,1,NaN,639.523300282292,798.172220171528,NaN,NaN,639.523300282292,798.172220171528,1051.86052685176,639.890788585259,708.616172865948,361.936991243214,0,0,0,0,0,0,4,3,0,NaN,NaN,NaN,horizontal,vertical,vertical,none,none,none
1b,4,100174,1,26,26,21,F,NA,constant,heterogeneous,6,present,1.54195809364319,1,horizontal,horizontal,1,1.00000102996826,red,6,2,629.371695378491,789.501930496736,1049.42763818712,653.017481158529,878.799333565612,842.519411655264,1049.42763818712,653.017481158529,970.628304621509,410.498069503264,721.200666434388,357.480588344736,550.57236181288,546.982518841471,629.371695378491,789.501930496736,6,5,0,6,5,4,vertical,vertical,horizontal,vertical,horizontal,horizontal
1b,4,100174,1,27,27,21,F,NA,constant,heterogeneous,4,present,0.93640398979187,1,vertical,vertical,1,0.764706306457519,red,1,4,626.090418184063,786.495193912888,613.504806087112,426.090418184063,626.090418184063,786.495193912888,986.495193912888,773.909581815937,973.909581815937,413.504806087112,613.504806087112,426.090418184063,0,0,0,0,4,3,6,3,NaN,NaN,vertical,vertical,vertical,vertical,none,none
1b,4,100174,1,28,28,21,F,NA,constant,heterogeneous,4,absent,0.749053001403809,1,vertical,vertical,1,0.894118404388428,red,2,NaN,1049.42763818712,546.982518841471,NaN,NaN,853.017481158529,849.42763818712,1049.42763818712,546.982518841471,746.982518841471,350.57236181288,550.57236181288,653.017481158529,0,0,0,0,3,4,5,5,NaN,NaN,vertical,vertical,horizontal,horizontal,none,none
1b,4,100174,1,29,29,21,F,NA,constant,heterogeneous,4,absent,1.35555195808411,1,horizontal,horizontal,1,0.976471557617187,red,3,NaN,808.899371659138,345.155339110131,NaN,NaN,791.100628340862,854.844660889869,1054.84466088987,608.899371659138,808.899371659138,345.155339110131,545.155339110131,591.100628340862,0,0,0,0,3,5,4,3,NaN,NaN,vertical,vertical,horizontal,vertical,none,none
1b,4,100174,1,30,30,21,F,NA,constant,heterogeneous,3,present,1.61534214019775,1,horizontal,horizontal,1,0.823529987335205,red,1,3,688.215357568785,829.192481806288,657.405809614959,388.595418998464,688.215357568785,829.192481806288,1054.37883281626,582.212099195248,657.405809614959,388.595418998464,0,0,0,0,0,0,4,6,3,NaN,NaN,NaN,horizontal,horizontal,horizontal,none,none,none
1b,4,100174,1,31,31,21,F,NA,constant,heterogeneous,6,absent,0.729488134384155,1,vertical,vertical,1,1.07058944702148,red,3,NaN,1036.43188291453,504.475318678942,NaN,NaN,764.510859255183,852.518357529101,1000.94274216971,756.993676208043,1036.43188291453,504.475318678942,835.489140744817,347.4816424709,599.057257830286,443.006323791957,563.568117085469,695.524681321058,3,0,4,6,5,5,horizontal,horizontal,vertical,horizontal,horizontal,horizontal
1b,4,100174,1,32,32,21,F,NA,constant,heterogeneous,4,present,0.87917685508728,1,vertical,vertical,1,0.741176834106445,red,2,1,1054.84466088987,591.100628340862,808.899371659138,854.844660889869,808.899371659138,854.844660889869,1054.84466088987,591.100628340862,791.100628340862,345.155339110131,545.155339110131,608.899371659138,0,0,0,0,6,4,5,0,NaN,NaN,vertical,vertical,vertical,horizontal,none,none
1b,4,100174,1,33,33,21,F,NA,constant,heterogeneous,5,absent,NaN,0,vertical,none,0,0.705882625579834,red,3,NaN,946.261991269517,391.116228706307,NaN,NaN,804.450363641507,854.96116226488,1043.85771277057,674.554784704298,946.261991269517,391.116228706307,646.537169096228,396.34794493794,558.892763222174,683.019879386575,0,0,5,3,4,0,6,NaN,vertical,vertical,vertical,horizontal,vertical,none
1b,4,100174,1,34,34,21,F,NA,constant,heterogeneous,3,absent,0.817985057830811,1,horizontal,horizontal,1,0.941177349090576,red,2,NaN,878.799333565612,357.480588344736,NaN,NaN,970.628304621509,789.501930496736,878.799333565612,357.480588344736,550.57236181288,653.017481158529,0,0,0,0,0,0,0,4,6,NaN,NaN,NaN,horizontal,horizontal,vertical,none,none,none
1b,4,100174,1,35,35,21,F,NA,constant,heterogeneous,3,present,1.18557405471802,1,horizontal,horizontal,1,0.952942085266113,red,3,2,548.874022981887,644.280285305067,887.215136548046,360.378381699593,963.910840470068,795.341332995339,887.215136548046,360.378381699593,548.874022981887,644.280285305067,0,0,0,0,0,0,0,6,4,NaN,NaN,NaN,vertical,horizontal,horizontal,none,none,none
1b,4,100174,1,36,36,21,F,NA,constant,heterogeneous,4,absent,0.866436004638672,1,vertical,vertical,1,0.858824195861816,red,4,NaN,591.116228706307,453.738008730483,NaN,NaN,653.738008730483,808.883771293693,1008.88377129369,746.261991269517,946.261991269517,391.116228706307,591.116228706307,453.738008730483,0,0,0,0,6,0,6,4,NaN,NaN,horizontal,horizontal,horizontal,vertical,none,none
1b,4,100174,1,37,37,21,F,NA,constant,heterogeneous,4,present,0.888261795043945,1,horizontal,horizontal,1,0.611764736175537,red,4,1,599.057257830286,443.006323791957,643.006323791957,800.942742169714,643.006323791957,800.942742169714,1000.94274216971,756.993676208043,956.993676208043,399.057257830286,599.057257830286,443.006323791957,0,0,0,0,0,0,3,4,NaN,NaN,vertical,vertical,horizontal,horizontal,none,none
1b,4,100174,1,38,38,21,F,NA,constant,heterogeneous,3,present,0.503215789794922,1,vertical,vertical,1,1.05882471084595,red,2,3,977.137884467044,416.568350913644,552.574589799621,538.309916622085,870.287525733335,845.121732464271,977.137884467044,416.568350913644,552.574589799621,538.309916622085,0,0,0,0,0,0,5,4,5,NaN,NaN,NaN,horizontal,vertical,horizontal,none,none,none
1b,4,100174,1,39,39,21,F,NA,constant,heterogeneous,3,present,0.597462892532349,1,vertical,vertical,1,1.00000102996826,red,2,1,1020.83647796503,472.5,800,855,800,855,1020.83647796503,472.5,579.163522034968,472.5,0,0,0,0,0,0,5,4,0,NaN,NaN,NaN,vertical,vertical,horizontal,none,none,none
1b,4,100174,1,40,40,21,F,NA,constant,heterogeneous,4,present,0.897294044494629,1,horizontal,horizontal,1,0.988236293792724,red,4,2,545.03883773512,595.549636358493,1054.96116226488,604.450363641507,795.549636358493,854.96116226488,1054.96116226488,604.450363641507,804.450363641507,345.03883773512,545.03883773512,595.549636358493,0,0,0,0,3,6,5,4,NaN,NaN,horizontal,vertical,vertical,horizontal,none,none
1b,4,100174,1,41,41,21,F,NA,constant,heterogeneous,3,absent,0.97014307975769,1,vertical,vertical,1,0.941177349090576,red,1,NaN,588.595418998464,742.594190385041,NaN,NaN,588.595418998464,742.594190385041,1029.19248180629,711.784642431215,782.212099195248,345.621167183745,0,0,0,0,0,0,4,0,3,NaN,NaN,NaN,vertical,horizontal,horizontal,none,none,none
1b,4,100174,1,42,42,21,F,NA,constant,heterogeneous,6,present,0.857370853424072,1,vertical,vertical,1,0.976471557617187,red,2,1,1051.86052685176,639.890788585259,891.383827134052,838.063008756786,891.383827134052,838.063008756786,1051.86052685176,639.890788585259,960.476699717708,401.827779828472,708.616172865948,361.936991243214,548.13947314824,560.109211414741,639.523300282292,798.172220171528,5,4,3,6,6,5,horizontal,vertical,vertical,vertical,horizontal,horizontal
1b,4,100174,1,43,43,21,F,NA,constant,heterogeneous,3,absent,0.826148986816406,1,vertical,vertical,1,0.776471042633057,red,3,NaN,616.568350913644,422.862115532956,NaN,NaN,738.309916622085,847.425410200379,1045.12173246427,529.712474266665,616.568350913644,422.862115532956,0,0,0,0,0,0,3,3,4,NaN,NaN,NaN,vertical,horizontal,vertical,none,none,none
1b,4,100174,1,44,44,21,F,NA,constant,heterogeneous,3,absent,0.824022054672241,1,vertical,vertical,1,0.847059459686279,red,1,NaN,1006.29933356561,749.885239334581,NaN,NaN,1006.29933356561,749.885239334581,826.654758133252,346.39691668109,567.045908301137,703.717843984329,0,0,0,0,0,0,4,5,3,NaN,NaN,NaN,vertical,vertical,horizontal,none,none,none
1b,4,100174,1,45,45,21,F,NA,constant,heterogeneous,4,present,0.744972944259644,1,vertical,vertical,1,0.811765251159668,red,3,1,760.109211414741,348.13947314824,839.890788585259,851.86052685176,839.890788585259,851.86052685176,1051.86052685176,560.109211414741,760.109211414741,348.13947314824,548.13947314824,639.890788585259,0,0,0,0,6,0,4,3,NaN,NaN,horizontal,vertical,vertical,horizontal,none,none
1b,4,100174,1,46,46,21,F,NA,constant,heterogeneous,4,absent,1.08326196670532,1,horizontal,horizontal,1,0.764706306457519,red,4,NaN,554.878267535729,670.287525733335,NaN,NaN,870.287525733335,845.121732464271,1045.12173246427,529.712474266665,729.712474266665,354.878267535729,554.878267535729,670.287525733335,0,0,0,0,3,3,6,4,NaN,NaN,vertical,horizontal,vertical,horizontal,none,none
1b,4,100174,1,47,47,21,F,NA,constant,heterogeneous,5,present,0.994834899902344,0,vertical,horizontal,1,0.882353668212891,red,4,2,712.784863451954,360.378381699593,1011.40458100154,742.594190385041,729.712474266665,845.121732464271,1011.40458100154,742.594190385041,1000.94274216971,443.006323791957,712.784863451954,360.378381699593,545.155339110131,608.899371659138,0,0,6,5,3,4,5,NaN,vertical,horizontal,horizontal,vertical,vertical,none
1b,4,100174,1,48,48,21,F,NA,constant,heterogeneous,5,absent,1.36017608642578,1,horizontal,horizontal,1,0.858824195861816,red,1,NaN,839.890788585259,851.86052685176,NaN,NaN,839.890788585259,851.86052685176,1051.86052685176,639.890788585259,915.767577433584,372.793336331966,619.68777079743,419.68777079743,572.793336331966,715.767577433584,0,0,4,6,0,5,5,NaN,horizontal,vertical,vertical,vertical,horizontal,none
1b,4,100174,1,49,49,21,F,NA,constant,heterogeneous,5,absent,1.13271117210388,1,vertical,vertical,1,1.07058944702148,red,1,NaN,865.998856501143,846.311085703712,NaN,NaN,865.998856501143,846.311085703712,1054.65053136242,613.345668841951,891.383827134052,361.936991243214,601.827779828472,439.523300282291,586.139005173917,738.882953928832,0,0,4,3,0,3,6,NaN,vertical,vertical,horizontal,vertical,vertical,none
1b,4,100174,1,50,50,21,F,NA,constant,heterogeneous,4,present,1.71594309806824,1,horizontal,horizontal,1,0.611764736175537,red,4,2,550.57236181288,653.017481158529,1049.42763818712,546.982518841471,853.017481158529,849.42763818712,1049.42763818712,546.982518841471,746.982518841471,350.57236181288,550.57236181288,653.017481158529,0,0,0,0,0,3,6,4,NaN,NaN,horizontal,horizontal,vertical,horizontal,none,none
1b,4,100174,1,51,51,21,F,NA,constant,heterogeneous,6,absent,1.14751601219177,1,vertical,vertical,1,0.658823680877686,red,2,NaN,935.129412379467,816.252264519889,NaN,NaN,680.284751489598,825.151636179026,935.129412379467,816.252264519889,1054.84466088987,591.100628340862,919.715248510402,374.848363820974,664.870587620533,383.747735480111,545.155339110131,608.899371659138,5,4,0,6,0,5,vertical,vertical,horizontal,vertical,horizontal,vertical
1b,4,100174,1,52,52,21,F,NA,constant,heterogeneous,6,present,0.694369077682495,1,vertical,vertical,1,0.788235778808594,red,4,1,870.287525733335,354.878267535729,729.712474266665,845.121732464271,729.712474266665,845.121732464271,977.137884467044,783.431649086356,1047.42541020038,538.309916622085,870.287525733335,354.878267535729,622.862115532956,416.568350913644,552.574589799621,661.690083377915,5,0,6,4,5,0,vertical,horizontal,vertical,vertical,horizontal,horizontal
1b,4,100174,1,53,53,21,F,NA,constant,heterogeneous,6,absent,1.2741551399231,1,horizontal,horizontal,1,1.08235418319702,red,1,NaN,721.200666434388,842.519411655264,NaN,NaN,721.200666434388,842.519411655264,970.628304621509,789.501930496736,1049.42763818712,546.982518841471,878.799333565612,357.480588344736,629.371695378491,410.498069503264,550.57236181288,653.017481158529,4,6,3,5,0,6,horizontal,horizontal,vertical,vertical,vertical,horizontal
1b,4,100174,1,54,54,21,F,NA,constant,heterogeneous,5,present,0.931926012039185,1,horizontal,horizontal,1,1.0117657661438,red,1,4,786.654331158049,854.650531362416,661.117046071168,386.139005173917,786.654331158049,854.650531362416,1038.06300875679,691.383827134052,960.476699717708,401.827779828472,661.117046071168,386.139005173917,553.688914296288,665.998856501143,0,0,4,0,3,5,3,NaN,horizontal,horizontal,horizontal,horizontal,horizontal,none
1b,4,100174,1,55,55,21,F,NA,constant,heterogeneous,4,absent,1.13506007194519,1,vertical,vertical,1,1.00000102996826,red,1,NaN,865.998856501143,846.311085703712,NaN,NaN,865.998856501143,846.311085703712,1046.31108570371,534.001143498857,734.001143498857,353.688914296288,553.688914296288,665.998856501143,0,0,0,0,4,3,6,5,NaN,NaN,vertical,vertical,vertical,horizontal,none,none
1b,4,100174,1,56,56,21,F,NA,constant,heterogeneous,4,absent,1.58407711982727,1,horizontal,horizontal,1,0.905883140563965,red,3,NaN,676.373546837184,376.971974679454,NaN,NaN,923.626453162816,823.028025320546,1023.02802532055,476.373546837184,676.373546837184,376.971974679454,576.971974679454,723.626453162816,0,0,0,0,3,0,4,5,NaN,NaN,vertical,horizontal,horizontal,vertical,none,none
1b,4,100174,1,57,57,21,F,NA,constant,heterogeneous,3,present,0.710905790328979,1,vertical,vertical,1,0.96470682144165,red,2,1,1031.10848569435,707.767656743878,591.116228706307,746.261991269517,591.116228706307,746.261991269517,1031.10848569435,707.767656743878,777.775285599347,345.970351986605,0,0,0,0,0,0,0,4,5,NaN,NaN,NaN,vertical,vertical,vertical,none,none,none
1b,4,100174,1,58,58,21,F,NA,constant,heterogeneous,5,present,0.946948051452637,1,vertical,vertical,1,0.870588932037353,red,4,1,696.282156015671,367.045908301137,746.982518841471,849.42763818712,746.982518841471,849.42763818712,1020.83647796503,727.5,989.501930496736,429.371695378491,696.282156015671,367.045908301137,546.39691668109,626.654758133252,0,0,5,3,5,4,6,NaN,vertical,vertical,horizontal,vertical,vertical,none
1b,4,100174,1,59,59,21,F,NA,constant,heterogeneous,3,present,0.657927989959717,1,vertical,vertical,1,1.00000102996826,red,2,3,938.882953928832,386.139005173917,545.349468637584,586.654331158049,915.767577433584,827.206663668034,938.882953928832,386.139005173917,545.349468637584,586.654331158049,0,0,0,0,0,0,6,4,5,NaN,NaN,NaN,horizontal,vertical,vertical,none,none,none
1b,4,100174,1,60,60,21,F,NA,constant,heterogeneous,6,absent,1.28936195373535,1,horizontal,horizontal,1,0.905883140563965,red,1,NaN,791.100628340862,854.844660889869,NaN,NaN,791.100628340862,854.844660889869,1016.25226451989,735.129412379467,1025.15163617903,480.284751489598,808.899371659138,345.155339110131,583.747735480111,464.870587620533,574.848363820974,719.715248510402,4,5,6,3,3,5,horizontal,vertical,horizontal,vertical,horizontal,horizontal
1b,4,100174,1,61,61,21,F,NA,constant,heterogeneous,6,absent,1.87399005889893,1,horizontal,horizontal,1,0.729412097930908,red,3,NaN,938.882953928832,386.139005173917,NaN,NaN,915.767577433584,827.206663668034,1054.65053136242,613.345668841951,938.882953928832,386.139005173917,684.232422566416,372.793336331966,545.349468637584,586.654331158049,661.117046071168,813.860994826083,3,6,4,5,6,0,horizontal,vertical,horizontal,vertical,vertical,vertical
1b,4,100174,1,62,62,21,F,NA,constant,heterogeneous,4,present,0.891891002655029,1,horizontal,horizontal,1,0.811765251159668,red,1,2,977.137884467044,783.431649086356,983.431649086356,422.862115532956,977.137884467044,783.431649086356,983.431649086356,422.862115532956,622.862115532956,416.568350913644,616.568350913644,777.137884467044,0,0,0,0,4,6,6,0,NaN,NaN,horizontal,horizontal,vertical,horizontal,none,none
1b,4,100174,1,63,63,21,F,NA,constant,heterogeneous,5,absent,1.66463494300842,0,vertical,horizontal,1,0.941177349090576,red,2,NaN,977.137884467044,783.431649086356,NaN,NaN,680.284751489598,825.151636179026,977.137884467044,783.431649086356,1029.19248180629,488.215357568785,764.510859255183,347.4816424709,548.874022981887,555.719714694933,0,0,5,4,6,3,0,NaN,vertical,vertical,horizontal,horizontal,vertical,none
1b,4,100174,1,64,64,21,F,NA,constant,heterogeneous,5,absent,1.54176616668701,1,horizontal,horizontal,1,0.788235778808594,red,4,NaN,738.309916622085,352.574589799621,NaN,NaN,704.475318678942,836.431882914531,995.341332995339,763.910840470068,1016.25226451989,464.870587620533,738.309916622085,352.574589799621,545.621167183745,582.212099195248,0,0,6,6,5,4,5,NaN,vertical,horizontal,vertical,horizontal,horizontal,none
1b,4,100174,2,1,65,21,F,NA,constant,heterogeneous,6,absent,NaN,0,vertical,none,0,0.905883140563965,red,5,NaN,619.68777079743,419.68777079743,NaN,NaN,734.001143498857,846.311085703712,980.31222920257,780.31222920257,1046.31108570371,534.001143498857,865.998856501143,353.688914296288,619.68777079743,419.68777079743,553.688914296288,665.998856501143,6,5,6,0,4,3,horizontal,vertical,vertical,horizontal,vertical,vertical
1b,4,100174,2,2,66,21,F,NA,constant,heterogeneous,6,present,1.82098078727722,0,vertical,horizontal,1,0.670588417053223,red,6,2,551.535633479765,657.362518857686,973.909581815937,786.495193912888,725.445215295702,843.857712770574,973.909581815937,786.495193912888,1048.46436652023,542.637481142314,874.554784704298,356.142287229426,626.090418184063,413.504806087112,551.535633479765,657.362518857686,3,5,5,0,3,4,vertical,horizontal,vertical,horizontal,horizontal,vertical
1b,4,100174,2,3,67,21,F,NA,constant,heterogeneous,6,present,1.67663502693176,1,vertical,vertical,1,0.752941570281982,red,5,3,596.34794493794,446.537169096228,1034.72873763037,500.363562235235,768.923317431687,853.099268668537,1003.65205506206,753.462830903772,1034.72873763037,500.363562235235,831.076682568313,346.900731331463,596.34794493794,446.537169096228,565.271262369628,699.636437764765,0,3,6,5,4,0,vertical,horizontal,vertical,vertical,vertical,vertical
1b,4,100174,2,4,68,21,F,NA,constant,heterogeneous,4,absent,0.918129920959473,1,vertical,vertical,1,1.0117657661438,red,4,NaN,601.827779828472,439.523300282291,NaN,NaN,639.523300282292,798.172220171528,998.172220171528,760.476699717708,960.476699717708,401.827779828472,601.827779828472,439.523300282291,0,0,0,0,0,6,5,4,NaN,NaN,vertical,horizontal,vertical,vertical,none,none
1b,4,100174,2,5,69,21,F,NA,constant,heterogeneous,4,absent,0.903945922851562,1,horizontal,horizontal,1,0.941177349090576,red,4,NaN,596.34794493794,753.462830903772,NaN,NaN,953.462830903772,803.65205506206,1003.65205506206,446.537169096228,646.537169096228,396.34794493794,596.34794493794,753.462830903772,0,0,0,0,6,5,0,4,NaN,NaN,horizontal,vertical,horizontal,horizontal,none,none
1b,4,100174,2,6,70,21,F,NA,constant,heterogeneous,4,present,1.23052501678467,0,horizontal,vertical,1,1.02353050231934,red,3,2,878.799333565612,357.480588344736,1042.51941165526,678.799333565612,721.200666434388,842.519411655264,1042.51941165526,678.799333565612,878.799333565612,357.480588344736,557.480588344736,521.200666434388,0,0,0,0,5,6,4,3,NaN,NaN,vertical,horizontal,horizontal,horizontal,none,none
1b,4,100174,2,7,71,21,F,NA,constant,heterogeneous,4,present,1.31669902801514,1,vertical,vertical,1,0.870588932037353,red,3,1,712.784863451954,360.378381699593,887.215136548046,839.621618300407,887.215136548046,839.621618300407,1039.62161830041,512.784863451954,712.784863451954,360.378381699593,560.378381699593,687.215136548046,0,0,0,0,6,5,4,5,NaN,NaN,horizontal,vertical,vertical,horizontal,none,none
1b,4,100174,2,8,72,21,F,NA,constant,heterogeneous,6,absent,1.42876005172729,1,horizontal,horizontal,1,1.07058944702148,red,5,NaN,545.970351986605,577.775285599347,NaN,NaN,907.767656743878,831.108485694346,1054.0296480134,622.224714400653,946.261991269517,391.116228706307,692.232343256122,368.891514305654,545.970351986605,577.775285599347,653.738008730483,808.883771293693,6,3,0,5,4,5,vertical,vertical,horizontal,horizontal,horizontal,horizontal
1b,4,100174,2,9,73,21,F,NA,constant,heterogeneous,3,absent,0.914489030838013,1,vertical,vertical,1,1.04705997467041,red,1,NaN,831.076682568313,853.099268668537,NaN,NaN,831.076682568313,853.099268668537,1003.65205506206,446.537169096228,565.271262369628,500.363562235235,0,0,0,0,0,0,4,5,6,NaN,NaN,NaN,vertical,vertical,horizontal,none,none,none
1b,4,100174,2,10,74,21,F,NA,constant,heterogeneous,6,absent,1.67211508750916,1,horizontal,horizontal,1,0.96470682144165,red,2,NaN,980.31222920257,780.31222920257,NaN,NaN,734.001143498857,846.311085703712,980.31222920257,780.31222920257,1046.31108570371,534.001143498857,865.998856501143,353.688914296288,619.68777079743,419.68777079743,553.688914296288,665.998856501143,5,4,6,0,3,6,horizontal,horizontal,vertical,vertical,horizontal,vertical
1b,4,100174,2,11,75,21,F,NA,constant,heterogeneous,5,present,1.06837320327759,1,horizontal,horizontal,1,0.729412097930908,red,1,2,712.784863451954,839.621618300407,1000.94274216971,756.993676208043,712.784863451954,839.621618300407,1000.94274216971,756.993676208043,1011.40458100154,457.40580961496,729.712474266665,354.878267535729,545.155339110131,591.100628340862,0,0,4,6,0,3,3,NaN,horizontal,vertical,vertical,horizontal,vertical,none
1b,4,100174,2,12,76,21,F,NA,constant,heterogeneous,5,present,1.14765095710754,1,vertical,vertical,1,0.882353668212891,red,4,2,570.807518193712,488.215357568785,1051.12597701811,555.719714694933,919.715248510402,825.151636179026,1051.12597701811,555.719714694933,835.489140744817,347.4816424709,570.807518193712,488.215357568785,622.862115532956,783.431649086356,0,0,0,5,5,4,0,NaN,horizontal,horizontal,horizontal,vertical,vertical,none
1b,4,100174,2,13,77,21,F,NA,constant,heterogeneous,5,absent,0.738248109817505,1,vertical,vertical,1,0.776471042633057,red,3,NaN,891.383827134052,361.936991243214,NaN,NaN,865.998856501143,846.311085703712,1054.65053136242,613.345668841951,891.383827134052,361.936991243214,601.827779828472,439.523300282291,586.139005173917,738.882953928832,0,0,0,6,4,6,0,NaN,vertical,vertical,vertical,horizontal,vertical,none
1b,4,100174,2,14,78,21,F,NA,constant,heterogeneous,5,present,1.18629002571106,1,vertical,vertical,1,0.858824195861816,red,4,1,738.309916622085,352.574589799621,704.475318678942,836.431882914531,704.475318678942,836.431882914531,995.341332995339,763.910840470068,1016.25226451989,464.870587620533,738.309916622085,352.574589799621,545.621167183745,582.212099195248,0,0,0,5,3,4,6,NaN,vertical,horizontal,vertical,vertical,vertical,none
1b,4,100174,2,15,79,21,F,NA,constant,heterogeneous,3,present,0.94007396697998,1,horizontal,horizontal,1,0.705882625579834,red,1,3,903.717843984329,832.954091698863,546.39691668109,573.345241866748,903.717843984329,832.954091698863,949.885239334581,393.700666434388,546.39691668109,573.345241866748,0,0,0,0,0,0,4,3,6,NaN,NaN,NaN,horizontal,vertical,horizontal,none,none,none
1b,4,100174,2,16,80,21,F,NA,constant,heterogeneous,3,present,0.660605907440186,1,vertical,vertical,1,0.670588417053223,red,3,1,545.03883773512,604.450363641507,931.334709102064,818.577661679039,931.334709102064,818.577661679039,923.626453162816,376.971974679454,545.03883773512,604.450363641507,0,0,0,0,0,0,3,6,4,NaN,NaN,NaN,vertical,horizontal,vertical,none,none,none
1b,4,100174,2,17,81,21,F,NA,constant,heterogeneous,5,present,1.92206907272339,1,horizontal,horizontal,1,0.611764736175537,red,1,3,887.215136548046,839.621618300407,870.287525733335,354.878267535729,887.215136548046,839.621618300407,1054.84466088987,591.100628340862,870.287525733335,354.878267535729,588.595418998464,457.40580961496,599.057257830286,756.993676208043,0,0,4,3,6,5,6,NaN,horizontal,horizontal,horizontal,vertical,horizontal,none
1b,4,100174,2,18,82,21,F,NA,constant,heterogeneous,5,absent,1.52242398262024,1,vertical,vertical,1,0.870588932037353,red,3,NaN,907.767656743878,368.891514305654,NaN,NaN,848.656293821019,850.314931779154,1053.09926866854,631.076682568313,907.767656743878,368.891514305654,613.504806087112,426.090418184063,576.971974679454,723.626453162816,0,0,6,5,4,0,0,NaN,vertical,vertical,vertical,vertical,horizontal,none
1b,4,100174,2,19,83,21,F,NA,constant,heterogeneous,5,present,1.25777006149292,1,horizontal,horizontal,1,0.847059459686279,red,4,5,593.700666434388,450.114760665419,593.700666434388,749.885239334581,878.799333565612,842.519411655264,1055,600,878.799333565612,357.480588344736,593.700666434388,450.114760665419,593.700666434388,749.885239334581,0,0,6,5,0,4,6,NaN,vertical,vertical,vertical,horizontal,horizontal,none
1b,4,100174,2,20,84,21,F,NA,constant,heterogeneous,6,present,1.35713982582092,1,vertical,vertical,1,0.694117889404297,red,5,4,557.480588344736,521.200666434388,746.982518841471,350.57236181288,853.017481158529,849.42763818712,1042.51941165526,678.799333565612,989.501930496736,429.371695378491,746.982518841471,350.57236181288,557.480588344736,521.200666434388,610.498069503264,770.628304621509,6,0,3,5,4,0,horizontal,horizontal,horizontal,horizontal,vertical,vertical
1b,4,100174,2,21,85,21,F,NA,constant,heterogeneous,3,absent,0.658447980880737,1,vertical,vertical,1,0.694117889404297,red,2,NaN,998.172220171528,439.523300282291,NaN,NaN,839.890788585259,851.86052685176,998.172220171528,439.523300282291,561.936991243214,508.616172865948,0,0,0,0,0,0,5,4,3,NaN,NaN,NaN,horizontal,vertical,horizontal,none,none,none
1b,4,100174,2,22,86,21,F,NA,constant,heterogeneous,3,present,1.45750594139099,0,horizontal,vertical,1,0.882353668212891,red,2,3,995.341332995339,436.089159529932,560.378381699593,512.784863451954,844.280285305067,851.125977018113,995.341332995339,436.089159529932,560.378381699593,512.784863451954,0,0,0,0,0,0,0,4,5,NaN,NaN,NaN,vertical,horizontal,vertical,none,none,none
1b,4,100174,2,23,87,21,F,NA,constant,heterogeneous,6,absent,1.52113103866577,1,vertical,vertical,1,0.705882625579834,red,5,NaN,558.892763222174,516.980120613425,NaN,NaN,848.656293821019,850.314931779154,1041.10723677783,683.019879386575,992.450942956807,432.704947607421,751.343706178981,349.685068220846,558.892763222174,516.980120613425,607.549057043193,767.295052392579,0,3,6,6,4,3,vertical,vertical,vertical,horizontal,vertical,horizontal
1b,4,100174,2,24,88,21,F,NA,constant,heterogeneous,3,present,0.744673013687134,1,horizontal,horizontal,1,0.847059459686279,red,2,1,1051.86052685176,560.109211414741,708.616172865948,838.063008756786,708.616172865948,838.063008756786,1051.86052685176,560.109211414741,639.523300282292,401.827779828472,0,0,0,0,0,0,3,4,5,NaN,NaN,NaN,horizontal,horizontal,horizontal,none,none,none
1b,4,100174,2,25,89,21,F,NA,constant,heterogeneous,3,absent,1.04717397689819,1,vertical,vertical,1,0.976471557617187,red,1,NaN,700.363562235235,834.728737630372,NaN,NaN,700.363562235235,834.728737630372,1053.09926866854,568.923317431687,646.537169096228,396.34794493794,0,0,0,0,0,0,4,3,5,NaN,NaN,NaN,vertical,vertical,vertical,none,none,none
1b,4,100174,2,26,90,21,F,NA,constant,heterogeneous,3,absent,0.808618068695068,1,horizontal,horizontal,1,0.811765251159668,red,1,NaN,610.498069503264,770.628304621509,NaN,NaN,610.498069503264,770.628304621509,1042.51941165526,678.799333565612,746.982518841471,350.57236181288,0,0,0,0,0,0,4,0,6,NaN,NaN,NaN,horizontal,horizontal,vertical,none,none,none
1b,4,100174,2,27,91,21,F,NA,constant,heterogeneous,3,absent,0.939080953598022,1,horizontal,horizontal,1,0.705882625579834,red,3,NaN,601.827779828472,439.523300282291,NaN,NaN,760.109211414741,851.86052685176,1038.06300875679,508.616172865948,601.827779828472,439.523300282291,0,0,0,0,0,0,0,3,4,NaN,NaN,NaN,vertical,horizontal,horizontal,none,none,none
1b,4,100174,2,28,92,21,F,NA,constant,heterogeneous,5,absent,1.16906189918518,1,horizontal,horizontal,1,0.764706306457519,red,2,NaN,1048.46436652023,657.362518857686,NaN,NaN,822.224714400653,854.029648013395,1048.46436652023,657.362518857686,931.334709102064,381.422338320961,632.704947607421,407.549057043193,565.271262369628,699.636437764765,0,0,5,4,6,6,3,NaN,horizontal,horizontal,horizontal,vertical,vertical,none
1b,4,100174,2,29,93,21,F,NA,constant,heterogeneous,5,absent,0.999212026596069,1,vertical,vertical,1,0.929412612915039,red,3,NaN,804.450363641507,345.03883773512,NaN,NaN,946.261991269517,808.883771293693,1043.85771277057,525.445215295702,804.450363641507,345.03883773512,558.892763222174,516.980120613425,646.537169096228,803.65205506206,0,0,3,0,4,3,6,NaN,vertical,horizontal,vertical,vertical,horizontal,none
1b,4,100174,2,30,94,21,F,NA,constant,heterogeneous,3,present,0.782732009887695,1,vertical,vertical,1,0.96470682144165,red,3,2,548.13947314824,639.890788585259,891.383827134052,361.936991243214,960.476699717708,798.172220171528,891.383827134052,361.936991243214,548.13947314824,639.890788585259,0,0,0,0,0,0,3,5,4,NaN,NaN,NaN,horizontal,vertical,vertical,none,none,none
1b,4,100174,2,31,95,21,F,NA,constant,heterogeneous,6,absent,1.08122205734253,1,horizontal,horizontal,1,0.929412612915039,red,6,NaN,546.900731331463,631.076682568313,NaN,NaN,700.363562235235,834.728737630372,953.462830903772,803.65205506206,1053.09926866854,568.923317431687,899.636437764765,365.271262369628,646.537169096228,396.34794493794,546.900731331463,631.076682568313,6,0,0,3,6,4,horizontal,vertical,vertical,horizontal,vertical,horizontal
1b,4,100174,2,32,96,21,F,NA,constant,heterogeneous,5,absent,0.944380044937134,1,horizontal,horizontal,1,1.05882471084595,red,5,NaN,607.549057043193,767.295052392579,NaN,NaN,899.636437764765,834.728737630372,1054.0296480134,577.775285599347,857.362518857686,351.535633479765,581.422338320961,468.665290897936,607.549057043193,767.295052392579,0,0,5,0,0,6,4,NaN,vertical,vertical,vertical,vertical,horizontal,none
1b,4,100174,2,33,97,21,F,NA,constant,heterogeneous,4,absent,0.697890043258667,1,vertical,vertical,1,0.717647361755371,red,4,NaN,579.163522034968,727.5,NaN,NaN,927.5,820.836477965032,1020.83647796503,472.5,672.5,379.163522034968,579.163522034968,727.5,0,0,0,0,0,5,0,4,NaN,NaN,horizontal,horizontal,horizontal,vertical,none,none
1b,4,100174,2,34,98,21,F,NA,constant,heterogeneous,4,absent,1.05650687217712,1,vertical,vertical,1,0.823529987335205,red,3,NaN,768.923317431687,346.900731331463,NaN,NaN,831.076682568313,853.099268668537,1053.09926866854,568.923317431687,768.923317431687,346.900731331463,546.900731331463,631.076682568313,0,0,0,0,3,5,4,6,NaN,NaN,horizontal,vertical,vertical,vertical,none,none
1b,4,100174,2,35,99,21,F,NA,constant,heterogeneous,5,present,1.85132598876953,1,vertical,vertical,1,0.882353668212891,red,1,5,919.715248510402,825.151636179026,622.862115532956,783.431649086356,919.715248510402,825.151636179026,1051.12597701811,555.719714694933,835.489140744817,347.4816424709,570.807518193712,488.215357568785,622.862115532956,783.431649086356,0,0,4,3,0,5,6,NaN,vertical,vertical,vertical,horizontal,vertical,none
1b,4,100174,2,36,100,21,F,NA,constant,heterogeneous,5,absent,1.6165919303894,1,vertical,vertical,1,1.00000102996826,red,2,NaN,1054.65053136242,586.654331158049,NaN,NaN,891.383827134052,838.063008756786,1054.65053136242,586.654331158049,865.998856501143,353.688914296288,586.139005173917,461.117046071168,601.827779828472,760.476699717708,0,0,3,4,0,6,5,NaN,horizontal,vertical,vertical,horizontal,vertical,none
1b,4,100174,2,37,101,21,F,NA,constant,heterogeneous,6,present,1.6279079914093,1,horizontal,horizontal,1,0.941177349090576,red,1,4,923.626453162816,823.028025320546,676.373546837184,376.971974679454,923.626453162816,823.028025320546,1054.96116226488,604.450363641507,931.334709102064,381.422338320961,676.373546837184,376.971974679454,545.03883773512,595.549636358493,668.665290897936,818.577661679039,4,6,3,6,5,0,horizontal,horizontal,horizontal,vertical,vertical,vertical
1b,4,100174,2,38,102,21,F,NA,constant,heterogeneous,6,absent,1.25064086914062,1,vertical,vertical,1,0.694117889404297,red,1,NaN,826.654758133252,853.60308331891,NaN,NaN,826.654758133252,853.60308331891,1032.95409169886,703.717843984329,1006.29933356561,450.114760665419,773.345241866748,346.39691668109,567.045908301137,496.282156015671,593.700666434388,749.885239334581,4,0,3,6,6,0,vertical,vertical,vertical,horizontal,horizontal,horizontal
1b,4,100174,2,39,103,21,F,NA,constant,heterogeneous,3,present,0.914592027664185,1,horizontal,horizontal,1,0.741176834106445,red,1,2,1020.83647796503,727.5,800,345,1020.83647796503,727.5,800,345,579.163522034968,727.5,0,0,0,0,0,0,4,3,6,NaN,NaN,NaN,horizontal,horizontal,horizontal,none,none,none
1b,4,100174,2,40,104,21,F,NA,constant,heterogeneous,4,present,0.938621997833252,1,horizontal,horizontal,1,0.882353668212891,red,3,2,853.017481158529,350.57236181288,1049.42763818712,653.017481158529,746.982518841471,849.42763818712,1049.42763818712,653.017481158529,853.017481158529,350.57236181288,550.57236181288,546.982518841471,0,0,0,0,6,0,4,3,NaN,NaN,horizontal,horizontal,horizontal,vertical,none,none
1b,4,100174,2,41,105,21,F,NA,constant,heterogeneous,4,absent,1.2384090423584,0,horizontal,vertical,1,1.04705997467041,red,2,NaN,1048.46436652023,657.362518857686,NaN,NaN,742.637481142314,848.464366520235,1048.46436652023,657.362518857686,857.362518857686,351.535633479765,551.535633479765,542.637481142314,0,0,0,0,3,4,3,0,NaN,NaN,horizontal,horizontal,horizontal,horizontal,none,none
1b,4,100174,2,42,106,21,F,NA,constant,heterogeneous,3,absent,0.795557022094727,1,horizontal,horizontal,1,0.811765251159668,red,2,NaN,973.909581815937,413.504806087112,NaN,NaN,874.554784704298,843.857712770574,973.909581815937,413.504806087112,551.535633479765,542.637481142314,0,0,0,0,0,0,0,4,5,NaN,NaN,NaN,vertical,horizontal,vertical,none,none,none
1b,4,100174,2,43,107,21,F,NA,constant,heterogeneous,6,present,1.48948407173157,1,horizontal,horizontal,1,1.08235418319702,red,4,2,870.287525733335,354.878267535729,977.137884467044,783.431649086356,729.712474266665,845.121732464271,977.137884467044,783.431649086356,1047.42541020038,538.309916622085,870.287525733335,354.878267535729,622.862115532956,416.568350913644,552.574589799621,661.690083377915,5,6,3,4,6,3,vertical,horizontal,vertical,horizontal,horizontal,vertical
1b,4,100174,2,44,108,21,F,NA,constant,heterogeneous,4,absent,0.649994134902954,1,vertical,vertical,1,0.929412612915039,red,3,NaN,857.362518857686,351.535633479765,NaN,NaN,742.637481142314,848.464366520235,1048.46436652023,657.362518857686,857.362518857686,351.535633479765,551.535633479765,542.637481142314,0,0,0,0,3,6,4,5,NaN,NaN,horizontal,vertical,vertical,horizontal,none,none
1b,4,100174,2,45,109,21,F,NA,constant,heterogeneous,4,present,0.853224992752075,0,horizontal,vertical,1,0.705882625579834,red,1,2,680.284751489598,825.151636179026,1025.15163617903,719.715248510402,680.284751489598,825.151636179026,1025.15163617903,719.715248510402,919.715248510402,374.848363820974,574.848363820974,480.284751489598,0,0,0,0,4,5,3,3,NaN,NaN,horizontal,horizontal,vertical,horizontal,none,none
1b,4,100174,2,46,110,21,F,NA,constant,heterogeneous,6,present,1.73461508750916,1,horizontal,horizontal,1,0.611764736175537,red,6,5,596.34794493794,753.462830903772,565.271262369628,500.363562235235,831.076682568313,853.099268668537,1034.72873763037,699.636437764765,1003.65205506206,446.537169096228,768.923317431687,346.900731331463,565.271262369628,500.363562235235,596.34794493794,753.462830903772,3,6,0,6,0,4,horizontal,vertical,vertical,vertical,vertical,horizontal
1b,4,100174,2,47,111,21,F,NA,constant,heterogeneous,3,absent,0.694761991500854,1,vertical,vertical,1,0.658823680877686,red,2,NaN,1008.88377129369,453.738008730483,NaN,NaN,822.224714400653,854.029648013395,1008.88377129369,453.738008730483,568.891514305654,492.232343256122,0,0,0,0,0,0,5,4,3,NaN,NaN,NaN,horizontal,vertical,horizontal,none,none,none
1b,4,100174,2,48,112,21,F,NA,constant,heterogeneous,5,absent,1.11442995071411,1,horizontal,horizontal,1,1.08235418319702,red,2,NaN,1047.42541020038,661.690083377915,NaN,NaN,817.787900804752,854.378832816255,1047.42541020038,661.690083377915,935.129412379467,383.747735480111,636.089159529932,404.658667004661,563.568117085469,695.524681321058,0,0,0,4,6,3,5,NaN,vertical,horizontal,vertical,vertical,horizontal,none
1b,4,100174,2,49,113,21,F,NA,constant,heterogeneous,4,absent,0.895069122314453,1,horizontal,horizontal,1,0.717647361755371,red,2,NaN,1006.29933356561,450.114760665419,NaN,NaN,949.885239334581,806.299333565612,1006.29933356561,450.114760665419,650.114760665419,393.700666434388,593.700666434388,749.885239334581,0,0,0,0,5,4,5,3,NaN,NaN,vertical,horizontal,horizontal,vertical,none,none
1b,4,100174,2,50,114,21,F,NA,constant,heterogeneous,6,present,0.883880138397217,1,horizontal,horizontal,1,0.929412612915039,red,3,5,1051.12597701811,555.719714694933,636.089159529932,404.658667004661,712.784863451954,839.621618300407,963.910840470068,795.341332995339,1051.12597701811,555.719714694933,887.215136548046,360.378381699593,636.089159529932,404.658667004661,548.874022981887,644.280285305067,6,5,4,3,0,6,horizontal,vertical,horizontal,vertical,vertical,horizontal
1b,4,100174,2,51,115,21,F,NA,constant,heterogeneous,6,present,1.15450501441956,1,vertical,vertical,1,0.835294723510742,red,1,6,760.109211414741,851.86052685176,561.936991243214,691.383827134052,760.109211414741,851.86052685176,998.172220171528,760.476699717708,1038.06300875679,508.616172865948,839.890788585259,348.13947314824,601.827779828472,439.523300282291,561.936991243214,691.383827134052,4,5,5,3,6,3,vertical,vertical,horizontal,vertical,horizontal,horizontal
1b,4,100174,2,52,116,21,F,NA,constant,heterogeneous,4,present,0.783535003662109,1,vertical,vertical,1,0.694117889404297,red,2,3,1036.43188291453,504.475318678942,704.475318678942,363.568117085469,895.524681321058,836.431882914531,1036.43188291453,504.475318678942,704.475318678942,363.568117085469,563.568117085469,695.524681321058,0,0,0,0,5,4,6,0,NaN,NaN,vertical,vertical,horizontal,vertical,none,none
1b,4,100174,2,53,117,21,F,NA,constant,heterogeneous,3,present,0.696180820465088,1,vertical,vertical,1,0.835294723510742,red,2,3,857.362518857686,351.535633479765,556.142287229426,674.554784704298,986.495193912888,773.909581815937,857.362518857686,351.535633479765,556.142287229426,674.554784704298,0,0,0,0,0,0,3,4,0,NaN,NaN,NaN,horizontal,vertical,vertical,none,none,none
1b,4,100174,2,54,118,21,F,NA,constant,heterogeneous,4,absent,1.09150981903076,1,horizontal,horizontal,1,0.658823680877686,red,4,NaN,588.595418998464,742.594190385041,NaN,NaN,942.594190385041,811.404581001536,1011.40458100154,457.40580961496,657.405809614959,388.595418998464,588.595418998464,742.594190385041,0,0,0,0,3,6,6,4,NaN,NaN,horizontal,horizontal,horizontal,horizontal,none,none
1b,4,100174,2,55,119,21,F,NA,constant,heterogeneous,5,present,1.3912889957428,0,vertical,horizontal,1,0.894118404388428,red,5,4,574.848363820974,719.715248510402,616.568350913644,422.862115532956,844.280285305067,851.125977018113,1052.5183575291,635.489140744817,911.784642431215,370.807518193712,616.568350913644,422.862115532956,574.848363820974,719.715248510402,0,0,5,3,5,0,4,NaN,horizontal,vertical,horizontal,vertical,vertical,none
1b,4,100174,2,56,120,21,F,NA,constant,heterogeneous,4,present,0.940576076507568,1,horizontal,horizontal,1,0.858824195861816,red,3,1,835.489140744817,347.4816424709,764.510859255183,852.518357529101,764.510859255183,852.518357529101,1052.5183575291,635.489140744817,835.489140744817,347.4816424709,547.481642470899,564.510859255183,0,0,0,0,0,5,4,0,NaN,NaN,vertical,horizontal,horizontal,vertical,none,none
1b,4,100174,2,57,121,21,F,NA,constant,heterogeneous,6,absent,1.30378007888794,1,vertical,vertical,1,0.811765251159668,red,5,NaN,557.480588344736,521.200666434388,NaN,NaN,853.017481158529,849.42763818712,1042.51941165526,678.799333565612,989.501930496736,429.371695378491,746.982518841471,350.57236181288,557.480588344736,521.200666434388,610.498069503264,770.628304621509,6,0,5,3,4,0,horizontal,vertical,horizontal,vertical,vertical,vertical
1b,4,100174,2,58,122,21,F,NA,constant,heterogeneous,3,absent,0.838903903961182,1,horizontal,horizontal,1,1.04705997467041,red,2,NaN,1025.15163617903,719.715248510402,NaN,NaN,583.747735480111,735.129412379467,1025.15163617903,719.715248510402,791.100628340862,345.155339110131,0,0,0,0,0,0,0,4,3,NaN,NaN,NaN,horizontal,horizontal,horizontal,none,none,none
1b,4,100174,2,59,123,21,F,NA,constant,heterogeneous,3,present,0.614604949951172,1,vertical,vertical,1,0.929412612915039,red,3,2,746.982518841471,350.57236181288,1042.51941165526,678.799333565612,610.498069503264,770.628304621509,1042.51941165526,678.799333565612,746.982518841471,350.57236181288,0,0,0,0,0,0,0,5,4,NaN,NaN,NaN,vertical,horizontal,vertical,none,none,none
1b,4,100174,2,60,124,21,F,NA,constant,heterogeneous,4,present,0.51648211479187,1,vertical,vertical,1,0.882353668212891,red,3,4,831.076682568313,346.900731331463,546.900731331463,568.923317431687,768.923317431687,853.099268668537,1053.09926866854,631.076682568313,831.076682568313,346.900731331463,546.900731331463,568.923317431687,0,0,0,0,0,5,4,3,NaN,NaN,vertical,vertical,vertical,horizontal,none,none
1b,4,100174,2,61,125,21,F,NA,constant,heterogeneous,5,present,0.996613025665283,1,horizontal,horizontal,1,0.670588417053223,red,3,1,808.899371659138,345.155339110131,942.594190385041,811.404581001536,942.594190385041,811.404581001536,1045.12173246427,529.712474266665,808.899371659138,345.155339110131,560.378381699593,512.784863451954,643.006323791957,800.942742169714,0,0,3,0,4,6,6,NaN,vertical,horizontal,horizontal,vertical,vertical,none
1b,4,100174,2,62,126,21,F,NA,constant,heterogeneous,5,absent,1.6365659236908,1,horizontal,horizontal,1,1.00000102996826,red,5,NaN,581.422338320961,731.334709102064,NaN,NaN,857.362518857686,848.464366520235,1054.0296480134,622.224714400653,899.636437764765,365.271262369628,607.549057043193,432.704947607421,581.422338320961,731.334709102064,0,0,3,3,5,6,4,NaN,horizontal,vertical,horizontal,vertical,horizontal,none
1b,4,100174,2,63,127,21,F,NA,constant,heterogeneous,6,absent,1.77404808998108,1,horizontal,horizontal,1,0.823529987335205,red,2,NaN,931.334709102064,818.577661679039,NaN,NaN,676.373546837184,823.028025320546,931.334709102064,818.577661679039,1054.96116226488,595.549636358493,923.626453162816,376.971974679454,668.665290897936,381.422338320961,545.03883773512,604.450363641507,0,4,0,3,5,6,vertical,horizontal,horizontal,horizontal,vertical,vertical
1b,4,100174,2,64,128,21,F,NA,constant,heterogeneous,4,present,1.64370584487915,1,vertical,vertical,1,0.705882625579834,red,3,1,734.001143498857,353.688914296288,865.998856501143,846.311085703712,865.998856501143,846.311085703712,1046.31108570371,534.001143498857,734.001143498857,353.688914296288,553.688914296288,665.998856501143,0,0,0,0,5,5,4,0,NaN,NaN,vertical,horizontal,vertical,vertical,none,none
1b,4,100174,3,1,129,21,F,NA,constant,heterogeneous,3,absent,0.973809003829956,1,vertical,vertical,1,0.741176834106445,red,3,NaN,593.700666434388,450.114760665419,NaN,NaN,773.345241866748,853.60308331891,1032.95409169886,496.282156015671,593.700666434388,450.114760665419,0,0,0,0,0,0,0,3,4,NaN,NaN,NaN,horizontal,vertical,vertical,none,none,none
1b,4,100174,3,2,130,21,F,NA,constant,heterogeneous,4,present,0.841451168060303,1,vertical,vertical,1,0.611764736175537,red,4,3,574.848363820974,719.715248510402,680.284751489598,374.848363820974,919.715248510402,825.151636179026,1025.15163617903,480.284751489598,680.284751489598,374.848363820974,574.848363820974,719.715248510402,0,0,0,0,6,5,0,4,NaN,NaN,vertical,vertical,horizontal,vertical,none,none
1b,4,100174,3,3,131,21,F,NA,constant,heterogeneous,6,present,1.86889719963074,1,vertical,vertical,1,0.717647361755371,red,2,6,1054.65053136242,613.345668841951,661.117046071168,813.860994826083,915.767577433584,827.206663668034,1054.65053136242,613.345668841951,938.882953928832,386.139005173917,684.232422566416,372.793336331966,545.349468637584,586.654331158049,661.117046071168,813.860994826083,6,4,3,6,0,0,vertical,vertical,horizontal,vertical,horizontal,vertical
1b,4,100174,3,4,132,21,F,NA,constant,heterogeneous,6,absent,1.92304992675781,1,horizontal,horizontal,1,1.03529523849487,red,1,NaN,764.510859255183,852.518357529101,NaN,NaN,764.510859255183,852.518357529101,1000.94274216971,756.993676208043,1036.43188291453,504.475318678942,835.489140744817,347.4816424709,599.057257830286,443.006323791957,563.568117085469,695.524681321058,4,6,0,5,3,5,horizontal,vertical,horizontal,horizontal,horizontal,horizontal
1b,4,100174,3,5,133,21,F,NA,constant,heterogeneous,3,present,0.833188056945801,1,horizontal,horizontal,1,0.776471042633057,red,1,3,588.595418998464,742.594190385041,782.212099195248,345.621167183745,588.595418998464,742.594190385041,1029.19248180629,711.784642431215,782.212099195248,345.621167183745,0,0,0,0,0,0,4,0,5,NaN,NaN,NaN,horizontal,vertical,horizontal,none,none,none
1b,4,100174,3,6,134,21,F,NA,constant,heterogeneous,6,present,1.6693971157074,1,horizontal,horizontal,1,0.776471042633057,red,6,2,568.891514305654,707.767656743878,1008.88377129369,746.261991269517,777.775285599347,854.029648013395,1008.88377129369,746.261991269517,1031.10848569435,492.232343256122,822.224714400653,345.970351986605,591.116228706307,453.738008730483,568.891514305654,707.767656743878,6,3,6,3,5,4,horizontal,horizontal,horizontal,horizontal,vertical,horizontal
1b,4,100174,3,7,135,21,F,NA,constant,heterogeneous,4,present,NaN,0,vertical,none,0,0.6,red,2,1,1047.42541020038,661.690083377915,738.309916622085,847.425410200379,738.309916622085,847.425410200379,1047.42541020038,661.690083377915,861.690083377915,352.574589799621,552.574589799621,538.309916622085,0,0,0,0,5,4,0,5,NaN,NaN,vertical,vertical,vertical,horizontal,none,none
1b,4,100174,3,8,136,21,F,NA,constant,heterogeneous,5,absent,NaN,0,horizontal,none,0,0.905883140563965,red,2,NaN,1054.84466088987,591.100628340862,NaN,NaN,887.215136548046,839.621618300407,1054.84466088987,591.100628340862,870.287525733335,354.878267535729,588.595418998464,457.40580961496,599.057257830286,756.993676208043,0,0,6,4,0,0,5,NaN,horizontal,horizontal,vertical,horizontal,vertical,none
1b,4,100174,3,9,137,21,F,NA,constant,heterogeneous,5,present,1.3442530632019,1,vertical,vertical,1,0.729412097930908,red,1,5,738.309916622085,847.425410200379,545.621167183745,617.787900804752,738.309916622085,847.425410200379,1016.25226451989,735.129412379467,995.341332995339,436.089159529932,704.475318678942,363.568117085469,545.621167183745,617.787900804752,0,0,4,5,0,3,6,NaN,vertical,vertical,vertical,vertical,horizontal,none
1b,4,100174,3,10,138,21,F,NA,constant,heterogeneous,6,absent,0.951517820358276,1,vertical,vertical,1,0.800000514984131,red,2,NaN,1018.57766167904,731.334709102064,NaN,NaN,795.549636358493,854.96116226488,1018.57766167904,731.334709102064,1023.02802532055,476.373546837184,804.450363641507,345.03883773512,581.422338320961,468.665290897936,576.971974679454,723.626453162816,5,4,6,6,5,3,horizontal,vertical,horizontal,horizontal,horizontal,vertical
1b,4,100174,3,11,139,21,F,NA,constant,heterogeneous,5,present,0.971662998199463,1,horizontal,horizontal,1,0.647058944702148,red,5,1,552.574589799621,661.690083377915,782.212099195248,854.378832816255,782.212099195248,854.378832816255,1036.43188291453,695.524681321058,963.910840470068,404.658667004661,664.870587620533,383.747735480111,552.574589799621,661.690083377915,0,0,6,5,0,5,4,NaN,vertical,horizontal,horizontal,horizontal,horizontal,none
1b,4,100174,3,12,140,21,F,NA,constant,heterogeneous,3,absent,1.12180685997009,1,horizontal,horizontal,1,0.729412097930908,red,2,NaN,907.767656743878,368.891514305654,NaN,NaN,946.261991269517,808.883771293693,907.767656743878,368.891514305654,545.970351986605,622.224714400653,0,0,0,0,0,0,6,4,5,NaN,NaN,NaN,horizontal,horizontal,vertical,none,none,none
1b,4,100174,3,13,141,21,F,NA,constant,heterogeneous,5,absent,0.921041965484619,1,horizontal,horizontal,1,0.623529472351074,red,3,NaN,844.280285305067,348.874022981887,NaN,NaN,911.784642431215,829.192481806288,1052.5183575291,564.510859255183,844.280285305067,348.874022981887,574.848363820974,480.284751489598,616.568350913644,777.137884467044,0,0,5,3,4,3,0,NaN,vertical,horizontal,horizontal,vertical,horizontal,none
1b,4,100174,3,14,142,21,F,NA,constant,heterogeneous,5,present,1.24452495574951,1,horizontal,horizontal,1,1.03529523849487,red,1,2,684.232422566416,827.206663668034,980.31222920257,780.31222920257,684.232422566416,827.206663668034,980.31222920257,780.31222920257,1027.20666366803,484.232422566416,760.109211414741,348.13947314824,548.13947314824,560.109211414741,0,0,4,5,3,0,5,NaN,horizontal,vertical,horizontal,vertical,vertical,none
1b,4,100174,3,15,143,21,F,NA,constant,heterogeneous,5,absent,1.37990117073059,1,horizontal,horizontal,1,0.729412097930908,red,5,NaN,551.535633479765,657.362518857686,NaN,NaN,777.775285599347,854.029648013395,1034.72873763037,699.636437764765,967.295052392579,407.549057043193,668.665290897936,381.422338320961,551.535633479765,657.362518857686,0,0,0,5,5,3,4,NaN,horizontal,vertical,vertical,vertical,horizontal,none
1b,4,100174,3,16,144,21,F,NA,constant,heterogeneous,3,present,0.692888975143433,1,horizontal,horizontal,1,0.658823680877686,red,3,1,676.373546837184,376.971974679454,668.665290897936,818.577661679039,668.665290897936,818.577661679039,1054.96116226488,604.450363641507,676.373546837184,376.971974679454,0,0,0,0,0,0,3,3,4,NaN,NaN,NaN,horizontal,horizontal,horizontal,none,none,none
1b,4,100174,3,17,145,21,F,NA,constant,heterogeneous,5,present,1.21954298019409,1,vertical,vertical,1,0.623529472351074,red,5,4,632.704947607421,792.450942956807,565.271262369628,500.363562235235,931.334709102064,818.577661679039,1048.46436652023,542.637481142314,822.224714400653,345.970351986605,565.271262369628,500.363562235235,632.704947607421,792.450942956807,0,0,5,6,3,0,4,NaN,horizontal,vertical,vertical,vertical,vertical,none
1b,4,100174,3,18,146,21,F,NA,constant,heterogeneous,4,absent,0.951165914535522,1,vertical,vertical,1,0.96470682144165,red,2,NaN,1039.62161830041,687.215136548046,NaN,NaN,712.784863451954,839.621618300407,1039.62161830041,687.215136548046,887.215136548046,360.378381699593,560.378381699593,512.784863451954,0,0,0,0,0,4,5,6,NaN,NaN,horizontal,vertical,vertical,vertical,none,none
1b,4,100174,3,19,147,21,F,NA,constant,heterogeneous,4,absent,1.171462059021,1,horizontal,horizontal,1,0.858824195861816,red,4,NaN,558.892763222174,683.019879386575,NaN,NaN,883.019879386575,841.107236777826,1041.10723677783,516.980120613425,716.980120613425,358.892763222174,558.892763222174,683.019879386575,0,0,0,0,3,0,5,4,NaN,NaN,horizontal,horizontal,horizontal,horizontal,none,none
1b,4,100174,3,20,148,21,F,NA,constant,heterogeneous,4,absent,1.16969704627991,1,vertical,vertical,1,0.729412097930908,red,2,NaN,983.431649086356,777.137884467044,NaN,NaN,622.862115532956,783.431649086356,983.431649086356,777.137884467044,977.137884467044,416.568350913644,616.568350913644,422.862115532956,0,0,0,0,5,4,3,0,NaN,NaN,vertical,vertical,vertical,horizontal,none,none
1b,4,100174,3,21,149,21,F,NA,constant,heterogeneous,5,present,1.46154308319092,1,horizontal,horizontal,1,0.611764736175537,red,4,1,616.568350913644,422.862115532956,844.280285305067,851.125977018113,844.280285305067,851.125977018113,1052.5183575291,635.489140744817,911.784642431215,370.807518193712,616.568350913644,422.862115532956,574.848363820974,719.715248510402,0,0,5,3,0,4,5,NaN,horizontal,vertical,vertical,horizontal,vertical,none
1b,4,100174,3,22,150,21,F,NA,constant,heterogeneous,6,present,1.41553807258606,1,vertical,vertical,1,0.623529472351074,red,6,4,548.874022981887,644.280285305067,887.215136548046,360.378381699593,712.784863451954,839.621618300407,963.910840470068,795.341332995339,1051.12597701811,555.719714694933,887.215136548046,360.378381699593,636.089159529932,404.658667004661,548.874022981887,644.280285305067,6,0,0,6,5,4,vertical,vertical,horizontal,horizontal,vertical,vertical
1b,4,100174,3,23,151,21,F,NA,constant,heterogeneous,3,absent,1.29023694992065,1,vertical,vertical,1,0.717647361755371,red,1,NaN,650.114760665419,806.299333565612,NaN,NaN,650.114760665419,806.299333565612,1053.60308331891,626.654758133252,696.282156015671,367.045908301137,0,0,0,0,0,0,4,0,6,NaN,NaN,NaN,vertical,vertical,vertical,none,none,none
1b,4,100174,3,24,152,21,F,NA,constant,heterogeneous,3,present,0.757278919219971,1,vertical,vertical,1,1.04705997467041,red,1,3,992.450942956807,767.295052392579,558.892763222174,683.019879386575,992.450942956807,767.295052392579,848.656293821019,349.685068220846,558.892763222174,683.019879386575,0,0,0,0,0,0,4,6,5,NaN,NaN,NaN,vertical,vertical,horizontal,none,none,none
1b,4,100174,3,25,153,21,F,NA,constant,heterogeneous,4,present,1.4023699760437,1,horizontal,horizontal,1,0.894118404388428,red,2,4,1016.25226451989,464.870587620533,583.747735480111,735.129412379467,935.129412379467,816.252264519889,1016.25226451989,464.870587620533,664.870587620533,383.747735480111,583.747735480111,735.129412379467,0,0,0,0,3,4,6,0,NaN,NaN,vertical,horizontal,horizontal,vertical,none,none
1b,4,100174,3,26,154,21,F,NA,constant,heterogeneous,3,present,0.660748958587646,1,horizontal,horizontal,1,0.705882625579834,red,3,2,773.345241866748,346.39691668109,1032.95409169886,703.717843984329,593.700666434388,749.885239334581,1032.95409169886,703.717843984329,773.345241866748,346.39691668109,0,0,0,0,0,0,5,0,4,NaN,NaN,NaN,vertical,vertical,horizontal,none,none,none
1b,4,100174,3,27,155,21,F,NA,constant,heterogeneous,6,absent,1.32292413711548,1,vertical,vertical,1,1.03529523849487,red,6,NaN,572.793336331966,715.767577433584,NaN,NaN,786.654331158049,854.650531362416,1013.86099482608,738.882953928832,1027.20666366803,484.232422566416,813.345668841951,345.349468637584,586.139005173917,461.117046071168,572.793336331966,715.767577433584,0,6,5,3,5,4,horizontal,vertical,horizontal,vertical,vertical,vertical
1b,4,100174,3,28,156,21,F,NA,constant,heterogeneous,5,absent,0.793011903762817,1,vertical,vertical,1,0.976471557617187,red,4,NaN,716.980120613425,358.892763222174,NaN,NaN,725.445215295702,843.857712770574,1008.88377129369,746.261991269517,1003.65205506206,446.537169096228,716.980120613425,358.892763222174,545.03883773512,604.450363641507,0,0,5,5,3,4,6,NaN,vertical,vertical,vertical,vertical,vertical,none
1b,4,100174,3,29,157,21,F,NA,constant,heterogeneous,6,absent,NaN,0,vertical,none,0,0.929412612915039,red,2,NaN,1003.65205506206,753.462830903772,NaN,NaN,768.923317431687,853.099268668537,1003.65205506206,753.462830903772,1034.72873763037,500.363562235235,831.076682568313,346.900731331463,596.34794493794,446.537169096228,565.271262369628,699.636437764765,6,4,5,3,5,6,horizontal,vertical,horizontal,vertical,horizontal,horizontal
1b,4,100174,3,30,158,21,F,NA,constant,heterogeneous,3,present,1.00344610214233,1,vertical,vertical,1,0.976471557617187,red,1,2,861.690083377915,847.425410200379,983.431649086356,422.862115532956,861.690083377915,847.425410200379,983.431649086356,422.862115532956,554.878267535729,529.712474266665,0,0,0,0,0,0,4,6,0,NaN,NaN,NaN,vertical,horizontal,horizontal,none,none,none
1b,4,100174,3,31,159,21,F,NA,constant,heterogeneous,6,absent,1.07598781585693,1,vertical,vertical,1,1.0117657661438,red,5,NaN,622.862115532956,416.568350913644,NaN,NaN,729.712474266665,845.121732464271,977.137884467044,783.431649086356,1047.42541020038,538.309916622085,870.287525733335,354.878267535729,622.862115532956,416.568350913644,552.574589799621,661.690083377915,0,6,3,5,4,0,horizontal,vertical,horizontal,horizontal,vertical,vertical
1b,4,100174,3,32,160,21,F,NA,constant,heterogeneous,6,absent,1.60695004463196,1,horizontal,horizontal,1,0.658823680877686,red,1,NaN,738.309916622085,847.425410200379,NaN,NaN,738.309916622085,847.425410200379,983.431649086356,777.137884467044,1045.12173246427,529.712474266665,861.690083377915,352.574589799621,616.568350913644,422.862115532956,554.878267535729,670.287525733335,4,5,6,3,6,3,horizontal,horizontal,horizontal,vertical,vertical,horizontal
1b,4,100174,3,33,161,21,F,NA,constant,heterogeneous,3,absent,0.730671882629395,1,vertical,vertical,1,0.976471557617187,red,3,NaN,547.481642470899,564.510859255183,NaN,NaN,895.524681321058,836.431882914531,956.993676208043,399.057257830286,547.481642470899,564.510859255183,0,0,0,0,0,0,6,0,4,NaN,NaN,NaN,horizontal,horizontal,vertical,none,none,none
1b,4,100174,3,34,162,21,F,NA,constant,heterogeneous,3,absent,1.16681385040283,1,horizontal,horizontal,1,0.870588932037353,red,1,NaN,813.345668841951,854.650531362416,NaN,NaN,813.345668841951,854.650531362416,1013.86099482608,461.117046071168,572.793336331966,484.232422566416,0,0,0,0,0,0,4,3,6,NaN,NaN,NaN,horizontal,horizontal,vertical,none,none,none
1b,4,100174,3,35,163,21,F,NA,constant,heterogeneous,5,present,1.0267059803009,1,vertical,vertical,1,0.611764736175537,red,2,3,1038.06300875679,691.383827134052,960.476699717708,401.827779828472,786.654331158049,854.650531362416,1038.06300875679,691.383827134052,960.476699717708,401.827779828472,661.117046071168,386.139005173917,553.688914296288,665.998856501143,0,0,3,4,0,5,5,NaN,horizontal,vertical,vertical,vertical,horizontal,none
1b,4,100174,3,36,164,21,F,NA,constant,heterogeneous,4,present,1.08188009262085,1,horizontal,horizontal,1,0.717647361755371,red,1,3,712.784863451954,839.621618300407,887.215136548046,360.378381699593,712.784863451954,839.621618300407,1039.62161830041,687.215136548046,887.215136548046,360.378381699593,560.378381699593,512.784863451954,0,0,0,0,4,6,3,5,NaN,NaN,horizontal,horizontal,vertical,vertical,none,none
1b,4,100174,3,37,165,21,F,NA,constant,heterogeneous,4,absent,1.44513702392578,1,vertical,vertical,1,1.07058944702148,red,3,NaN,953.462830903772,396.34794493794,NaN,NaN,646.537169096228,803.65205506206,1003.65205506206,753.462830903772,953.462830903772,396.34794493794,596.34794493794,446.537169096228,0,0,0,0,3,5,4,6,NaN,NaN,horizontal,vertical,vertical,vertical,none,none
1b,4,100174,3,38,166,21,F,NA,constant,heterogeneous,4,present,0.701611042022705,1,vertical,vertical,1,0.976471557617187,red,2,4,1006.29933356561,450.114760665419,593.700666434388,749.885239334581,949.885239334581,806.299333565612,1006.29933356561,450.114760665419,650.114760665419,393.700666434388,593.700666434388,749.885239334581,0,0,0,0,3,4,5,5,NaN,NaN,vertical,vertical,horizontal,vertical,none,none
1b,4,100174,3,39,167,21,F,NA,constant,heterogeneous,6,absent,0.876260042190552,1,horizontal,horizontal,1,0.623529472351074,red,4,NaN,700.363562235235,365.271262369628,NaN,NaN,899.636437764765,834.728737630372,1053.09926866854,631.076682568313,953.462830903772,396.34794493794,700.363562235235,365.271262369628,546.900731331463,568.923317431687,646.537169096228,803.65205506206,0,6,0,4,5,3,horizontal,horizontal,vertical,horizontal,horizontal,vertical
1b,4,100174,3,40,168,21,F,NA,constant,heterogeneous,5,present,1.07601809501648,0,vertical,horizontal,1,1.09411891937256,red,5,4,583.747735480111,735.129412379467,604.658667004661,436.089159529932,861.690083377915,847.425410200379,1054.37883281626,617.787900804752,895.524681321058,363.568117085469,604.658667004661,436.089159529932,583.747735480111,735.129412379467,0,0,6,3,3,5,4,NaN,horizontal,horizontal,horizontal,horizontal,vertical,none
1b,4,100174,3,41,169,21,F,NA,constant,heterogeneous,4,present,1.17980194091797,0,horizontal,vertical,1,0.717647361755371,red,1,4,915.767577433584,827.206663668034,572.793336331966,715.767577433584,915.767577433584,827.206663668034,1027.20666366803,484.232422566416,684.232422566416,372.793336331966,572.793336331966,715.767577433584,0,0,0,0,4,5,0,5,NaN,NaN,horizontal,horizontal,vertical,horizontal,none,none
1b,4,100174,3,42,170,21,F,NA,constant,heterogeneous,5,absent,1.1453709602356,1,horizontal,horizontal,1,0.894118404388428,red,1,NaN,742.637481142314,848.464366520235,NaN,NaN,742.637481142314,848.464366520235,1018.57766167904,731.334709102064,992.450942956807,432.704947607421,700.363562235235,365.271262369628,545.970351986605,622.224714400653,0,0,4,0,5,6,6,NaN,horizontal,vertical,vertical,vertical,horizontal,none
1b,4,100174,3,43,171,21,F,NA,constant,heterogeneous,6,present,1.3694589138031,1,horizontal,horizontal,1,0.847059459686279,red,1,4,874.554784704298,843.857712770574,725.445215295702,356.142287229426,874.554784704298,843.857712770574,1048.46436652023,657.362518857686,973.909581815937,413.504806087112,725.445215295702,356.142287229426,551.535633479765,542.637481142314,626.090418184063,786.495193912888,4,6,5,5,0,6,horizontal,vertical,vertical,horizontal,vertical,vertical
1b,4,100174,3,44,172,21,F,NA,constant,heterogeneous,4,absent,0.625616073608398,1,horizontal,horizontal,1,0.823529987335205,red,3,NaN,786.654331158049,345.349468637584,NaN,NaN,813.345668841951,854.650531362416,1054.65053136242,586.654331158049,786.654331158049,345.349468637584,545.349468637584,613.345668841951,0,0,0,0,0,3,4,6,NaN,NaN,vertical,vertical,horizontal,horizontal,none,none
1b,4,100174,3,45,173,21,F,NA,constant,heterogeneous,4,absent,0.814785003662109,1,horizontal,horizontal,1,0.823529987335205,red,1,NaN,973.909581815937,786.495193912888,NaN,NaN,973.909581815937,786.495193912888,986.495193912888,426.090418184063,626.090418184063,413.504806087112,613.504806087112,773.909581815937,0,0,0,0,4,3,5,6,NaN,NaN,horizontal,horizontal,vertical,horizontal,none,none
1b,4,100174,3,46,174,21,F,NA,constant,heterogeneous,3,absent,0.761130094528198,1,horizontal,horizontal,1,0.894118404388428,red,1,NaN,878.799333565612,842.519411655264,NaN,NaN,878.799333565612,842.519411655264,970.628304621509,410.498069503264,550.57236181288,546.982518841471,0,0,0,0,0,0,4,5,0,NaN,NaN,NaN,horizontal,vertical,horizontal,none,none,none
1b,4,100174,3,47,175,21,F,NA,constant,heterogeneous,5,absent,0.886906862258911,1,vertical,vertical,1,0.917647876739502,red,3,NaN,804.450363641507,345.03883773512,NaN,NaN,946.261991269517,808.883771293693,1043.85771277057,525.445215295702,804.450363641507,345.03883773512,558.892763222174,516.980120613425,646.537169096228,803.65205506206,0,0,5,6,4,3,5,NaN,vertical,horizontal,vertical,horizontal,horizontal,none
1b,4,100174,3,48,176,21,F,NA,constant,heterogeneous,3,present,0.812465190887451,1,vertical,vertical,1,0.988236293792724,red,2,1,942.594190385041,388.595418998464,911.784642431215,829.192481806288,911.784642431215,829.192481806288,942.594190385041,388.595418998464,545.621167183745,582.212099195248,0,0,0,0,0,0,0,4,6,NaN,NaN,NaN,horizontal,vertical,vertical,none,none,none
1b,4,100174,3,49,177,21,F,NA,constant,heterogeneous,5,absent,1.54888105392456,1,vertical,vertical,1,0.6,red,2,NaN,963.910840470068,795.341332995339,NaN,NaN,664.870587620533,816.252264519889,963.910840470068,795.341332995339,1036.43188291453,504.475318678942,782.212099195248,345.621167183745,552.574589799621,538.309916622085,0,0,5,4,5,6,3,NaN,vertical,vertical,horizontal,horizontal,vertical,none
1b,4,100174,3,50,178,21,F,NA,constant,heterogeneous,4,absent,1.09593391418457,1,horizontal,horizontal,1,1.0117657661438,red,1,NaN,676.373546837184,823.028025320546,NaN,NaN,676.373546837184,823.028025320546,1023.02802532055,723.626453162816,923.626453162816,376.971974679454,576.971974679454,476.373546837184,0,0,0,0,4,0,5,0,NaN,NaN,horizontal,horizontal,vertical,horizontal,none,none
1b,4,100174,3,51,179,21,F,NA,constant,heterogeneous,6,present,1.19315385818481,1,vertical,vertical,1,0.941177349090576,red,1,6,883.019879386575,841.107236777826,632.704947607421,792.450942956807,883.019879386575,841.107236777826,1050.31493177915,648.656293821019,967.295052392579,407.549057043193,716.980120613425,358.892763222174,549.685068220846,551.343706178981,632.704947607421,792.450942956807,4,6,5,3,5,3,vertical,vertical,horizontal,horizontal,vertical,horizontal
1b,4,100174,3,52,180,21,F,NA,constant,heterogeneous,6,absent,1.9139289855957,1,horizontal,horizontal,1,1.02353050231934,red,2,NaN,1025.15163617903,719.715248510402,NaN,NaN,808.899371659138,854.844660889869,1025.15163617903,719.715248510402,1016.25226451989,464.870587620533,791.100628340862,345.155339110131,574.848363820974,480.284751489598,583.747735480111,735.129412379467,5,4,6,3,5,0,vertical,horizontal,horizontal,horizontal,horizontal,vertical
1b,4,100174,3,53,181,21,F,NA,constant,heterogeneous,3,present,0.763219118118286,1,horizontal,horizontal,1,0.752941570281982,red,3,2,760.109211414741,348.13947314824,1038.06300875679,691.383827134052,601.827779828472,760.476699717708,1038.06300875679,691.383827134052,760.109211414741,348.13947314824,0,0,0,0,0,0,3,5,4,NaN,NaN,NaN,vertical,vertical,horizontal,none,none,none
1b,4,100174,3,54,182,21,F,NA,constant,heterogeneous,6,present,1.15988302230835,1,horizontal,horizontal,1,0.870588932037353,red,1,5,848.656293821019,850.314931779154,558.892763222174,516.980120613425,848.656293821019,850.314931779154,1041.10723677783,683.019879386575,992.450942956807,432.704947607421,751.343706178981,349.685068220846,558.892763222174,516.980120613425,607.549057043193,767.295052392579,4,5,6,6,3,0,horizontal,vertical,vertical,vertical,horizontal,vertical
1b,4,100174,3,55,183,21,F,NA,constant,heterogeneous,3,present,0.6457679271698,1,vertical,vertical,1,0.917647876739502,red,3,2,576.971974679454,723.626453162816,804.450363641507,345.03883773512,1018.57766167904,731.334709102064,804.450363641507,345.03883773512,576.971974679454,723.626453162816,0,0,0,0,0,0,0,6,4,NaN,NaN,NaN,vertical,vertical,vertical,none,none,none
1b,4,100174,3,56,184,21,F,NA,constant,heterogeneous,4,present,1.03806900978088,1,horizontal,horizontal,1,0.96470682144165,red,3,1,700.363562235235,365.271262369628,899.636437764765,834.728737630372,899.636437764765,834.728737630372,1034.72873763037,500.363562235235,700.363562235235,365.271262369628,565.271262369628,699.636437764765,0,0,0,0,5,5,4,3,NaN,NaN,horizontal,vertical,horizontal,vertical,none,none
1b,4,100174,3,57,185,21,F,NA,constant,heterogeneous,6,present,1.18660998344421,1,vertical,vertical,1,0.96470682144165,red,1,6,903.717843984329,832.954091698863,650.114760665419,806.299333565612,903.717843984329,832.954091698863,1053.60308331891,626.654758133252,949.885239334581,393.700666434388,696.282156015671,367.045908301137,546.39691668109,573.345241866748,650.114760665419,806.299333565612,4,5,6,5,6,3,vertical,vertical,vertical,horizontal,horizontal,horizontal
1b,4,100174,3,58,186,21,F,NA,constant,heterogeneous,4,present,0.659456014633179,1,vertical,vertical,1,0.858824195861816,red,2,3,989.501930496736,770.628304621509,970.628304621509,410.498069503264,629.371695378491,789.501930496736,989.501930496736,770.628304621509,970.628304621509,410.498069503264,610.498069503264,429.371695378491,0,0,0,0,6,4,0,3,NaN,NaN,vertical,vertical,horizontal,vertical,none,none
1b,4,100174,3,59,187,21,F,NA,constant,heterogeneous,5,present,0.829360008239746,1,horizontal,horizontal,1,0.823529987335205,red,2,1,1029.19248180629,711.784642431215,764.510859255183,852.518357529101,764.510859255183,852.518357529101,1029.19248180629,711.784642431215,977.137884467044,416.568350913644,680.284751489598,374.848363820974,548.874022981887,644.280285305067,0,0,6,4,6,0,3,NaN,vertical,horizontal,vertical,horizontal,horizontal,none
1b,4,100174,3,60,188,21,F,NA,constant,heterogeneous,6,present,1.35073304176331,1,horizontal,horizontal,1,0.835294723510742,red,4,2,680.284751489598,374.848363820974,1054.84466088987,608.899371659138,919.715248510402,825.151636179026,1054.84466088987,608.899371659138,935.129412379467,383.747735480111,680.284751489598,374.848363820974,545.155339110131,591.100628340862,664.870587620533,816.252264519889,0,5,3,4,3,0,horizontal,horizontal,horizontal,horizontal,horizontal,horizontal
1b,4,100174,3,61,189,21,F,NA,constant,heterogeneous,4,absent,0.760221004486084,1,vertical,vertical,1,0.917647876739502,red,2,NaN,1006.29933356561,749.885239334581,NaN,NaN,650.114760665419,806.299333565612,1006.29933356561,749.885239334581,949.885239334581,393.700666434388,593.700666434388,450.114760665419,0,0,0,0,0,4,6,6,NaN,NaN,horizontal,vertical,horizontal,horizontal,none,none
1b,4,100174,3,62,190,21,F,NA,constant,heterogeneous,3,absent,0.724547863006592,0,horizontal,vertical,1,0.647058944702148,red,1,NaN,804.450363641507,854.96116226488,NaN,NaN,804.450363641507,854.96116226488,1018.57766167904,468.665290897936,576.971974679454,476.373546837184,0,0,0,0,0,0,4,6,6,NaN,NaN,NaN,horizontal,vertical,horizontal,none,none,none
1b,4,100174,3,63,191,21,F,NA,constant,heterogeneous,3,absent,0.825201034545898,1,vertical,vertical,1,0.705882625579834,red,1,NaN,1008.88377129369,746.261991269517,NaN,NaN,1008.88377129369,746.261991269517,822.224714400653,345.970351986605,568.891514305654,707.767656743878,0,0,0,0,0,0,4,6,5,NaN,NaN,NaN,vertical,vertical,vertical,none,none,none
1b,4,100174,3,64,192,21,F,NA,constant,heterogeneous,5,absent,0.928298950195312,1,vertical,vertical,1,0.917647876739502,red,1,NaN,870.287525733335,845.121732464271,NaN,NaN,870.287525733335,845.121732464271,1054.84466088987,608.899371659138,887.215136548046,360.378381699593,599.057257830286,443.006323791957,588.595418998464,742.594190385041,0,0,4,0,6,0,5,NaN,vertical,vertical,horizontal,vertical,horizontal,none
1b,4,100174,4,1,193,21,F,NA,constant,heterogeneous,3,present,0.686395883560181,1,vertical,vertical,1,1.08235418319702,red,1,2,629.371695378491,789.501930496736,1049.42763818712,653.017481158529,629.371695378491,789.501930496736,1049.42763818712,653.017481158529,721.200666434388,357.480588344736,0,0,0,0,0,0,4,0,6,NaN,NaN,NaN,vertical,horizontal,horizontal,none,none,none
1b,4,100174,4,2,194,21,F,NA,constant,heterogeneous,5,present,1.92458200454712,1,horizontal,horizontal,1,0.611764736175537,red,4,1,632.704947607421,407.549057043193,822.224714400653,854.029648013395,822.224714400653,854.029648013395,1048.46436652023,657.362518857686,931.334709102064,381.422338320961,632.704947607421,407.549057043193,565.271262369628,699.636437764765,0,0,6,6,0,4,3,NaN,horizontal,vertical,horizontal,horizontal,horizontal,none
1b,4,100174,4,3,195,21,F,NA,constant,heterogeneous,5,present,1.24601888656616,1,vertical,vertical,1,0.941177349090576,red,2,5,970.628304621509,789.501930496736,550.57236181288,546.982518841471,672.5,820.836477965032,970.628304621509,789.501930496736,1032.95409169886,496.282156015671,773.345241866748,346.39691668109,550.57236181288,546.982518841471,0,0,3,4,0,3,0,NaN,vertical,vertical,horizontal,horizontal,horizontal,none
1b,4,100174,4,4,196,21,F,NA,constant,heterogeneous,5,absent,NaN,0,horizontal,none,0,1.0117657661438,red,3,NaN,1036.43188291453,504.475318678942,NaN,NaN,664.870587620533,816.252264519889,963.910840470068,795.341332995339,1036.43188291453,504.475318678942,782.212099195248,345.621167183745,552.574589799621,538.309916622085,0,0,3,6,4,5,3,NaN,vertical,vertical,horizontal,vertical,vertical,none
1b,4,100174,4,5,197,21,F,NA,constant,heterogeneous,6,absent,1.18773603439331,1,horizontal,horizontal,1,0.800000514984131,red,1,NaN,742.637481142314,848.464366520235,NaN,NaN,742.637481142314,848.464366520235,986.495193912888,773.909581815937,1043.85771277057,525.445215295702,857.362518857686,351.535633479765,613.504806087112,426.090418184063,556.142287229426,674.554784704298,4,6,6,5,0,3,horizontal,vertical,vertical,vertical,vertical,vertical
1b,4,100174,4,6,198,21,F,NA,constant,heterogeneous,4,absent,0.777501821517944,1,horizontal,horizontal,1,1.08235418319702,red,2,NaN,1039.62161830041,687.215136548046,NaN,NaN,712.784863451954,839.621618300407,1039.62161830041,687.215136548046,887.215136548046,360.378381699593,560.378381699593,512.784863451954,0,0,0,0,3,4,0,5,NaN,NaN,horizontal,horizontal,horizontal,horizontal,none,none
1b,4,100174,4,7,199,21,F,NA,constant,heterogeneous,6,present,0.835340976715088,1,vertical,vertical,1,0.705882625579834,red,3,5,935.129412379467,383.747735480111,545.155339110131,591.100628340862,919.715248510402,825.151636179026,1054.84466088987,608.899371659138,935.129412379467,383.747735480111,680.284751489598,374.848363820974,545.155339110131,591.100628340862,664.870587620533,816.252264519889,3,3,4,5,6,5,horizontal,horizontal,vertical,horizontal,horizontal,horizontal
1b,4,100174,4,8,200,21,F,NA,constant,heterogeneous,3,present,0.589303016662598,1,vertical,vertical,1,1.04705997467041,red,2,3,949.885239334581,393.700666434388,546.39691668109,573.345241866748,903.717843984329,832.954091698863,949.885239334581,393.700666434388,546.39691668109,573.345241866748,0,0,0,0,0,0,3,4,6,NaN,NaN,NaN,vertical,vertical,vertical,none,none,none
1b,4,100174,4,9,201,21,F,NA,constant,heterogeneous,3,absent,1.52303695678711,1,horizontal,horizontal,1,0.882353668212891,red,1,NaN,586.139005173917,738.882953928832,NaN,NaN,586.139005173917,738.882953928832,1027.20666366803,715.767577433584,786.654331158049,345.349468637584,0,0,0,0,0,0,4,3,5,NaN,NaN,NaN,horizontal,horizontal,horizontal,none,none,none
1b,4,100174,4,10,202,21,F,NA,constant,heterogeneous,4,present,0.991744041442871,1,horizontal,horizontal,1,0.905883140563965,red,2,1,1025.15163617903,719.715248510402,680.284751489598,825.151636179026,680.284751489598,825.151636179026,1025.15163617903,719.715248510402,919.715248510402,374.848363820974,574.848363820974,480.284751489598,0,0,0,0,3,4,5,5,NaN,NaN,horizontal,horizontal,horizontal,horizontal,none,none
1b,4,100174,4,11,203,21,F,NA,constant,heterogeneous,4,present,1.00913596153259,1,horizontal,horizontal,1,0.870588932037353,red,1,2,721.200666434388,842.519411655264,1042.51941165526,678.799333565612,721.200666434388,842.519411655264,1042.51941165526,678.799333565612,878.799333565612,357.480588344736,557.480588344736,521.200666434388,0,0,0,0,4,5,5,6,NaN,NaN,horizontal,horizontal,horizontal,vertical,none,none
1b,4,100174,4,12,204,21,F,NA,constant,heterogeneous,4,present,0.717440128326416,1,vertical,vertical,1,0.800000514984131,red,4,1,593.700666434388,450.114760665419,650.114760665419,806.299333565612,650.114760665419,806.299333565612,1006.29933356561,749.885239334581,949.885239334581,393.700666434388,593.700666434388,450.114760665419,0,0,0,0,5,5,6,4,NaN,NaN,horizontal,horizontal,vertical,vertical,none,none
1b,4,100174,4,13,205,21,F,NA,constant,heterogeneous,4,present,0.624002933502197,1,horizontal,horizontal,1,0.788235778808594,red,2,1,1003.65205506206,753.462830903772,646.537169096228,803.65205506206,646.537169096228,803.65205506206,1003.65205506206,753.462830903772,953.462830903772,396.34794493794,596.34794493794,446.537169096228,0,0,0,0,0,4,0,5,NaN,NaN,vertical,horizontal,horizontal,vertical,none,none
1b,4,100174,4,14,206,21,F,NA,constant,heterogeneous,3,present,0.601216077804565,1,vertical,vertical,1,1.03529523849487,red,1,2,963.910840470068,795.341332995339,887.215136548046,360.378381699593,963.910840470068,795.341332995339,887.215136548046,360.378381699593,548.874022981887,644.280285305067,0,0,0,0,0,0,4,3,5,NaN,NaN,NaN,vertical,vertical,vertical,none,none,none
1b,4,100174,4,15,207,21,F,NA,constant,heterogeneous,5,absent,0.822446823120117,1,vertical,vertical,1,0.847059459686279,red,2,NaN,1054.0296480134,622.224714400653,NaN,NaN,857.362518857686,848.464366520235,1054.0296480134,622.224714400653,899.636437764765,365.271262369628,607.549057043193,432.704947607421,581.422338320961,731.334709102064,0,0,3,4,6,5,3,NaN,vertical,vertical,horizontal,vertical,vertical,none
1b,4,100174,4,16,208,21,F,NA,constant,heterogeneous,3,present,0.739836931228638,1,horizontal,horizontal,1,0.623529472351074,red,3,1,574.848363820974,480.284751489598,808.899371659138,854.844660889869,808.899371659138,854.844660889869,1016.25226451989,464.870587620533,574.848363820974,480.284751489598,0,0,0,0,0,0,5,5,4,NaN,NaN,NaN,horizontal,vertical,horizontal,none,none,none
1b,4,100174,4,17,209,21,F,NA,constant,heterogeneous,4,absent,0.67511510848999,0,vertical,horizontal,1,1.02353050231934,red,4,NaN,546.900731331463,568.923317431687,NaN,NaN,768.923317431687,853.099268668537,1053.09926866854,631.076682568313,831.076682568313,346.900731331463,546.900731331463,568.923317431687,0,0,0,0,0,6,5,4,NaN,NaN,vertical,horizontal,horizontal,vertical,none,none
1b,4,100174,4,18,210,21,F,NA,constant,heterogeneous,3,absent,0.652185201644897,1,horizontal,horizontal,1,0.764706306457519,red,2,NaN,844.280285305067,348.874022981887,NaN,NaN,995.341332995339,763.910840470068,844.280285305067,348.874022981887,560.378381699593,687.215136548046,0,0,0,0,0,0,0,4,6,NaN,NaN,NaN,vertical,horizontal,vertical,none,none,none
1b,4,100174,4,19,211,21,F,NA,constant,heterogeneous,4,absent,1.02925801277161,1,vertical,vertical,1,0.788235778808594,red,1,NaN,680.284751489598,825.151636179026,NaN,NaN,680.284751489598,825.151636179026,1025.15163617903,719.715248510402,919.715248510402,374.848363820974,574.848363820974,480.284751489598,0,0,0,0,4,6,0,5,NaN,NaN,vertical,vertical,vertical,horizontal,none,none
1b,4,100174,4,20,212,21,F,NA,constant,heterogeneous,6,present,1.38035297393799,1,horizontal,horizontal,1,0.917647876739502,red,5,4,546.39691668109,573.345241866748,696.282156015671,367.045908301137,903.717843984329,832.954091698863,1053.60308331891,626.654758133252,949.885239334581,393.700666434388,696.282156015671,367.045908301137,546.39691668109,573.345241866748,650.114760665419,806.299333565612,5,5,3,0,4,0,horizontal,horizontal,horizontal,horizontal,horizontal,vertical
1b,4,100174,4,21,213,21,F,NA,constant,heterogeneous,6,absent,1.05709409713745,1,horizontal,horizontal,1,1.04705997467041,red,1,NaN,716.980120613425,841.107236777826,NaN,NaN,716.980120613425,841.107236777826,967.295052392579,792.450942956807,1050.31493177915,551.343706178981,883.019879386575,358.892763222174,632.704947607421,407.549057043193,549.685068220846,648.656293821019,4,0,0,3,3,5,horizontal,horizontal,horizontal,horizontal,horizontal,horizontal
1b,4,100174,4,22,214,21,F,NA,constant,heterogeneous,4,absent,0.933082103729248,1,vertical,vertical,1,0.952942085266113,red,1,NaN,953.462830903772,803.65205506206,NaN,NaN,953.462830903772,803.65205506206,1003.65205506206,446.537169096228,646.537169096228,396.34794493794,596.34794493794,753.462830903772,0,0,0,0,4,5,6,6,NaN,NaN,vertical,vertical,vertical,horizontal,none,none
1b,4,100174,4,23,215,21,F,NA,constant,heterogeneous,6,absent,1.57326602935791,0,vertical,horizontal,1,1.05882471084595,red,2,NaN,1023.02802532055,723.626453162816,NaN,NaN,804.450363641507,854.96116226488,1023.02802532055,723.626453162816,1018.57766167904,468.665290897936,795.549636358493,345.03883773512,576.971974679454,476.373546837184,581.422338320961,731.334709102064,3,4,5,5,0,0,horizontal,vertical,horizontal,vertical,horizontal,vertical
1b,4,100174,4,24,216,21,F,NA,constant,heterogeneous,6,absent,1.74507999420166,1,horizontal,horizontal,1,0.811765251159668,red,5,NaN,636.089159529932,404.658667004661,NaN,NaN,712.784863451954,839.621618300407,963.910840470068,795.341332995339,1051.12597701811,555.719714694933,887.215136548046,360.378381699593,636.089159529932,404.658667004661,548.874022981887,644.280285305067,6,0,5,3,4,0,vertical,vertical,vertical,vertical,horizontal,horizontal
1b,4,100174,4,25,217,21,F,NA,constant,heterogeneous,5,present,0.787121057510376,0,horizontal,vertical,1,0.741176834106445,red,3,4,813.345668841951,345.349468637584,561.936991243214,508.616172865948,938.882953928832,813.860994826083,1046.31108570371,534.001143498857,813.345668841951,345.349468637584,561.936991243214,508.616172865948,639.523300282292,798.172220171528,0,0,3,5,4,3,0,NaN,horizontal,horizontal,horizontal,vertical,vertical,none
1b,4,100174,4,26,218,21,F,NA,constant,heterogeneous,3,absent,1.54143095016479,1,vertical,vertical,1,0.717647361755371,red,1,NaN,751.343706178981,850.314931779154,NaN,NaN,751.343706178981,850.314931779154,1041.10723677783,516.980120613425,607.549057043193,432.704947607421,0,0,0,0,0,0,4,5,5,NaN,NaN,NaN,vertical,vertical,horizontal,none,none,none
1b,4,100174,4,27,219,21,F,NA,constant,heterogeneous,3,absent,1.4749059677124,1,horizontal,horizontal,1,0.929412612915039,red,2,NaN,1036.43188291453,695.524681321058,NaN,NaN,599.057257830286,756.993676208043,1036.43188291453,695.524681321058,764.510859255183,347.4816424709,0,0,0,0,0,0,3,4,5,NaN,NaN,NaN,vertical,horizontal,horizontal,none,none,none
1b,4,100174,4,28,220,21,F,NA,constant,heterogeneous,5,present,1.24029517173767,1,vertical,vertical,1,0.976471557617187,red,4,3,567.045908301137,496.282156015671,826.654758133252,346.39691668109,927.5,820.836477965032,1049.42763818712,546.982518841471,826.654758133252,346.39691668109,567.045908301137,496.282156015671,629.371695378491,789.501930496736,0,0,5,0,3,4,6,NaN,horizontal,vertical,horizontal,vertical,horizontal,none
1b,4,100174,4,29,221,21,F,NA,constant,heterogeneous,4,present,0.923590898513794,0,horizontal,vertical,1,0.717647361755371,red,4,1,579.163522034968,472.5,672.5,820.836477965032,672.5,820.836477965032,1020.83647796503,727.5,927.5,379.163522034968,579.163522034968,472.5,0,0,0,0,0,6,0,4,NaN,NaN,horizontal,vertical,vertical,horizontal,none,none
1b,4,100174,4,30,222,21,F,NA,constant,heterogeneous,4,absent,1.02149510383606,1,vertical,vertical,1,0.764706306457519,red,2,NaN,1029.19248180629,711.784642431215,NaN,NaN,688.215357568785,829.192481806288,1029.19248180629,711.784642431215,911.784642431215,370.807518193712,570.807518193712,488.215357568785,0,0,0,0,0,4,3,5,NaN,NaN,vertical,vertical,vertical,horizontal,none,none
1b,4,100174,4,31,223,21,F,NA,constant,heterogeneous,6,absent,1.18173408508301,1,vertical,vertical,1,0.976471557617187,red,1,NaN,791.100628340862,854.844660889869,NaN,NaN,791.100628340862,854.844660889869,1016.25226451989,735.129412379467,1025.15163617903,480.284751489598,808.899371659138,345.155339110131,583.747735480111,464.870587620533,574.848363820974,719.715248510402,4,6,5,3,0,5,vertical,vertical,horizontal,vertical,horizontal,horizontal
1b,4,100174,4,32,224,21,F,NA,constant,heterogeneous,3,present,0.65828800201416,1,horizontal,horizontal,1,1.04705997467041,red,3,2,599.057257830286,443.006323791957,1036.43188291453,504.475318678942,764.510859255183,852.518357529101,1036.43188291453,504.475318678942,599.057257830286,443.006323791957,0,0,0,0,0,0,3,0,4,NaN,NaN,NaN,vertical,vertical,horizontal,none,none,none
1b,4,100174,4,33,225,21,F,NA,constant,heterogeneous,5,present,1.65230989456177,1,vertical,vertical,1,0.623529472351074,red,3,5,1036.43188291453,504.475318678942,552.574589799621,538.309916622085,664.870587620533,816.252264519889,963.910840470068,795.341332995339,1036.43188291453,504.475318678942,782.212099195248,345.621167183745,552.574589799621,538.309916622085,0,0,0,6,4,3,5,NaN,horizontal,vertical,vertical,horizontal,vertical,none
1b,4,100174,4,34,226,21,F,NA,constant,heterogeneous,5,absent,0.754395961761475,1,vertical,vertical,1,1.04705997467041,red,4,NaN,668.665290897936,381.422338320961,NaN,NaN,777.775285599347,854.029648013395,1034.72873763037,699.636437764765,967.295052392579,407.549057043193,668.665290897936,381.422338320961,551.535633479765,657.362518857686,0,0,6,0,3,4,6,NaN,horizontal,vertical,vertical,vertical,horizontal,none
1b,4,100174,4,35,227,21,F,NA,constant,heterogeneous,3,absent,0.88994312286377,1,vertical,vertical,1,0.811765251159668,red,1,NaN,738.309916622085,847.425410200379,NaN,NaN,738.309916622085,847.425410200379,1045.12173246427,529.712474266665,616.568350913644,422.862115532956,0,0,0,0,0,0,4,3,6,NaN,NaN,NaN,vertical,vertical,vertical,none,none,none
1b,4,100174,4,36,228,21,F,NA,constant,heterogeneous,3,present,1.0369029045105,1,vertical,vertical,1,0.847059459686279,red,1,2,721.200666434388,842.519411655264,1049.42763818712,546.982518841471,721.200666434388,842.519411655264,1049.42763818712,546.982518841471,629.371695378491,410.498069503264,0,0,0,0,0,0,4,6,5,NaN,NaN,NaN,vertical,vertical,vertical,none,none,none
1b,4,100174,4,37,229,21,F,NA,constant,heterogeneous,4,absent,0.918750047683716,0,horizontal,vertical,1,0.847059459686279,red,3,NaN,764.510859255183,347.4816424709,NaN,NaN,835.489140744817,852.518357529101,1052.5183575291,564.510859255183,764.510859255183,347.4816424709,547.481642470899,635.489140744817,0,0,0,0,6,0,4,5,NaN,NaN,horizontal,horizontal,horizontal,vertical,none,none
1b,4,100174,4,38,230,21,F,NA,constant,heterogeneous,3,absent,0.970848083496094,1,horizontal,horizontal,1,1.08235418319702,red,1,NaN,800,855,NaN,NaN,800,855,1020.83647796503,472.5,579.163522034968,472.5,0,0,0,0,0,0,4,5,0,NaN,NaN,NaN,horizontal,horizontal,vertical,none,none,none
1b,4,100174,4,39,231,21,F,NA,constant,heterogeneous,3,present,0.776671886444092,1,horizontal,horizontal,1,0.705882625579834,red,2,1,1046.31108570371,665.998856501143,619.68777079743,780.31222920257,619.68777079743,780.31222920257,1046.31108570371,665.998856501143,734.001143498857,353.688914296288,0,0,0,0,0,0,5,4,6,NaN,NaN,NaN,vertical,horizontal,horizontal,none,none,none
1b,4,100174,4,40,232,21,F,NA,constant,heterogeneous,6,absent,1.6143810749054,1,vertical,vertical,1,0.694117889404297,red,5,NaN,588.595418998464,457.40580961496,NaN,NaN,782.212099195248,854.378832816255,1011.40458100154,742.594190385041,1029.19248180629,488.215357568785,817.787900804752,345.621167183745,588.595418998464,457.40580961496,570.807518193712,711.784642431215,6,6,0,0,4,3,vertical,vertical,horizontal,horizontal,vertical,horizontal
1b,4,100174,4,41,233,21,F,NA,constant,heterogeneous,3,absent,1.23935198783875,1,vertical,vertical,1,1.02353050231934,red,1,NaN,942.594190385041,811.404581001536,NaN,NaN,942.594190385041,811.404581001536,911.784642431215,370.807518193712,545.621167183745,617.787900804752,0,0,0,0,0,0,4,3,5,NaN,NaN,NaN,vertical,vertical,vertical,none,none,none
1b,4,100174,4,42,234,21,F,NA,constant,heterogeneous,6,present,NaN,0,vertical,none,0,0.894118404388428,red,3,4,1034.72873763037,500.363562235235,831.076682568313,346.900731331463,768.923317431687,853.099268668537,1003.65205506206,753.462830903772,1034.72873763037,500.363562235235,831.076682568313,346.900731331463,596.34794493794,446.537169096228,565.271262369628,699.636437764765,0,3,4,6,6,5,horizontal,horizontal,vertical,horizontal,vertical,vertical
1b,4,100174,4,43,235,21,F,NA,constant,heterogeneous,5,present,1.62248516082764,1,vertical,vertical,1,0.6,red,5,3,622.862115532956,783.431649086356,835.489140744817,347.4816424709,919.715248510402,825.151636179026,1051.12597701811,555.719714694933,835.489140744817,347.4816424709,570.807518193712,488.215357568785,622.862115532956,783.431649086356,0,0,6,5,0,5,4,NaN,horizontal,vertical,vertical,horizontal,vertical,none
1b,4,100174,4,44,236,21,F,NA,constant,heterogeneous,6,present,1.12620711326599,1,vertical,vertical,1,0.941177349090576,red,1,3,751.343706178981,850.314931779154,1041.10723677783,516.980120613425,751.343706178981,850.314931779154,992.450942956807,767.295052392579,1041.10723677783,516.980120613425,848.656293821019,349.685068220846,607.549057043193,432.704947607421,558.892763222174,683.019879386575,4,5,5,0,6,0,vertical,vertical,horizontal,horizontal,horizontal,horizontal
1b,4,100174,4,45,237,21,F,NA,constant,heterogeneous,5,present,1.68861818313599,1,horizontal,horizontal,1,1.0117657661438,red,3,2,826.654758133252,346.39691668109,1049.42763818712,546.982518841471,927.5,820.836477965032,1049.42763818712,546.982518841471,826.654758133252,346.39691668109,567.045908301137,496.282156015671,629.371695378491,789.501930496736,0,0,0,6,4,3,3,NaN,horizontal,vertical,horizontal,horizontal,vertical,none
1b,4,100174,4,46,238,21,F,NA,constant,heterogeneous,4,present,0.759384870529175,1,vertical,vertical,1,0.835294723510742,red,3,2,664.870587620533,383.747735480111,1016.25226451989,464.870587620533,935.129412379467,816.252264519889,1016.25226451989,464.870587620533,664.870587620533,383.747735480111,583.747735480111,735.129412379467,0,0,0,0,0,6,4,6,NaN,NaN,vertical,vertical,vertical,vertical,none,none
1b,4,100174,4,47,239,21,F,NA,constant,heterogeneous,6,present,1.50295495986938,1,horizontal,horizontal,1,0.811765251159668,red,5,4,643.006323791957,399.057257830286,895.524681321058,363.568117085469,704.475318678942,836.431882914531,956.993676208043,800.942742169714,1052.5183575291,564.510859255183,895.524681321058,363.568117085469,643.006323791957,399.057257830286,547.481642470899,635.489140744817,0,3,0,5,4,6,vertical,horizontal,vertical,horizontal,horizontal,horizontal
1b,4,100174,4,48,240,21,F,NA,constant,heterogeneous,5,absent,1.01418495178223,1,vertical,vertical,1,1.04705997467041,red,4,NaN,572.793336331966,484.232422566416,NaN,NaN,915.767577433584,827.206663668034,1051.86052685176,560.109211414741,839.890788585259,348.13947314824,572.793336331966,484.232422566416,619.68777079743,780.31222920257,0,0,0,6,3,4,3,NaN,vertical,vertical,vertical,vertical,vertical,none
1b,4,100174,4,49,241,21,F,NA,constant,heterogeneous,3,absent,1.09171295166016,1,vertical,vertical,1,1.05882471084595,red,1,NaN,760.109211414741,851.86052685176,NaN,NaN,760.109211414741,851.86052685176,1038.06300875679,508.616172865948,601.827779828472,439.523300282291,0,0,0,0,0,0,4,0,3,NaN,NaN,NaN,vertical,horizontal,vertical,none,none,none
1b,4,100174,4,50,242,21,F,NA,constant,heterogeneous,5,absent,1.19483089447021,1,horizontal,horizontal,1,0.658823680877686,red,4,NaN,570.807518193712,488.215357568785,NaN,NaN,919.715248510402,825.151636179026,1051.12597701811,555.719714694933,835.489140744817,347.4816424709,570.807518193712,488.215357568785,622.862115532956,783.431649086356,0,0,3,0,0,4,5,NaN,horizontal,horizontal,horizontal,horizontal,horizontal,none
1b,4,100174,4,51,243,21,F,NA,constant,heterogeneous,5,present,0.922446012496948,1,horizontal,horizontal,1,0.976471557617187,red,3,2,977.137884467044,416.568350913644,1029.19248180629,711.784642431215,764.510859255183,852.518357529101,1029.19248180629,711.784642431215,977.137884467044,416.568350913644,680.284751489598,374.848363820974,548.874022981887,644.280285305067,0,0,0,5,4,6,5,NaN,horizontal,horizontal,horizontal,vertical,horizontal,none
1b,4,100174,4,52,244,21,F,NA,constant,heterogeneous,4,present,0.819453954696655,1,vertical,vertical,1,0.917647876739502,red,2,3,1013.86099482608,461.117046071168,661.117046071168,386.139005173917,938.882953928832,813.860994826083,1013.86099482608,461.117046071168,661.117046071168,386.139005173917,586.139005173917,738.882953928832,0,0,0,0,6,4,3,6,NaN,NaN,vertical,vertical,horizontal,vertical,none,none
1b,4,100174,4,53,245,21,F,NA,constant,heterogeneous,4,present,1.04547309875488,1,vertical,vertical,1,0.870588932037353,red,2,3,1016.25226451989,735.129412379467,935.129412379467,383.747735480111,664.870587620533,816.252264519889,1016.25226451989,735.129412379467,935.129412379467,383.747735480111,583.747735480111,464.870587620533,0,0,0,0,5,4,5,3,NaN,NaN,vertical,vertical,vertical,vertical,none,none
