experiment,subject,uniqueID,block,trial,trial_cumulative,age,gender,color_cond_blocking,color_history,shape_type,set_size,distractor,rt,acc,target_orient,response_key,response_made,iti,target_color,target_item,distractor_item,target_X,target_Y,distractor_X,distractor_Y,item1_X,item1_Y,item2_X,item2_Y,item3_X,item3_Y,item4_X,item4_Y,item5_X,item5_Y,item6_X,item6_Y,item1_shape,item2_shape,item3_shape,item4_shape,item5_shape,item6_shape,item1_line,item2_line,item3_line,item4_line,item5_line,item6_line
1b,5,100176,1,1,1,21,F,NA,constant,heterogeneous,6,absent,1.59347605705261,1,horizontal,horizontal,1,0.623528127670288,green,5,NaN,650.114760665419,393.700666434388,NaN,NaN,696.282156015671,832.954091698863,949.885239334581,806.299333565612,1053.60308331891,573.345241866748,903.717843984329,367.045908301137,650.114760665419,393.700666434388,546.39691668109,626.654758133252,5,6,5,3,4,0,horizontal,horizontal,vertical,horizontal,horizontal,horizontal
1b,5,100176,1,2,2,21,F,NA,constant,heterogeneous,3,absent,1.74951410293579,1,vertical,vertical,1,0.611764063835144,green,3,NaN,742.637481142314,351.535633479765,NaN,NaN,613.504806087112,773.909581815937,1043.85771277057,674.554784704298,742.637481142314,351.535633479765,0,0,0,0,0,0,3,6,4,NaN,NaN,NaN,horizontal,horizontal,vertical,none,none,none
1b,5,100176,1,3,3,21,F,NA,constant,heterogeneous,5,present,1.97660493850708,1,horizontal,horizontal,1,0.788225021362305,green,3,2,931.334709102064,381.422338320961,1048.46436652023,657.362518857686,822.224714400653,854.029648013395,1048.46436652023,657.362518857686,931.334709102064,381.422338320961,632.704947607421,407.549057043193,565.271262369628,699.636437764765,0,0,3,3,4,6,0,NaN,vertical,horizontal,horizontal,horizontal,horizontal,none
1b,5,100176,1,4,4,21,F,NA,constant,heterogeneous,5,present,1.03984498977661,1,vertical,vertical,1,0.788225021362305,green,3,2,963.910840470068,404.658667004661,1036.43188291453,695.524681321058,782.212099195248,854.378832816255,1036.43188291453,695.524681321058,963.910840470068,404.658667004661,664.870587620533,383.747735480111,552.574589799621,661.690083377915,0,0,6,0,4,5,3,NaN,horizontal,vertical,vertical,horizontal,vertical,none
1b,5,100176,1,5,5,21,F,NA,constant,heterogeneous,4,absent,0.993808031082153,1,vertical,vertical,1,0.647056255340576,green,4,NaN,601.827779828472,439.523300282291,NaN,NaN,639.523300282292,798.172220171528,998.172220171528,760.476699717708,960.476699717708,401.827779828472,601.827779828472,439.523300282291,0,0,0,0,0,5,6,4,NaN,NaN,vertical,horizontal,vertical,vertical,none,none
1b,5,100176,1,6,6,21,F,NA,constant,heterogeneous,6,absent,1.28516292572021,1,horizontal,horizontal,1,0.964685978889465,green,3,NaN,970.628304621509,410.498069503264,NaN,NaN,878.799333565612,842.519411655264,1049.42763818712,653.017481158529,970.628304621509,410.498069503264,721.200666434388,357.480588344736,550.57236181288,546.982518841471,629.371695378491,789.501930496736,0,5,4,5,6,6,vertical,horizontal,horizontal,horizontal,vertical,horizontal
1b,5,100176,1,7,7,21,F,NA,constant,heterogeneous,3,present,0.751910209655762,1,horizontal,horizontal,1,1.04703442573547,green,3,1,546.900731331463,631.076682568313,953.462830903772,803.65205506206,953.462830903772,803.65205506206,899.636437764765,365.271262369628,546.900731331463,631.076682568313,0,0,0,0,0,0,0,5,4,NaN,NaN,NaN,vertical,vertical,horizontal,none,none,none
1b,5,100176,1,8,8,21,F,NA,constant,heterogeneous,3,absent,1.49088597297668,1,horizontal,horizontal,1,0.976450042724609,green,2,NaN,891.383827134052,361.936991243214,NaN,NaN,960.476699717708,798.172220171528,891.383827134052,361.936991243214,548.13947314824,639.890788585259,0,0,0,0,0,0,3,4,5,NaN,NaN,NaN,vertical,horizontal,horizontal,none,none,none
1b,5,100176,1,9,9,21,F,NA,constant,heterogeneous,3,present,0.651511907577515,1,vertical,vertical,1,0.929393787384033,green,2,3,903.717843984329,367.045908301137,546.39691668109,626.654758133252,949.885239334581,806.299333565612,903.717843984329,367.045908301137,546.39691668109,626.654758133252,0,0,0,0,0,0,0,4,5,NaN,NaN,NaN,vertical,vertical,horizontal,none,none,none
1b,5,100176,1,10,10,21,F,NA,constant,heterogeneous,6,absent,1.39843201637268,1,vertical,vertical,1,0.882337532043457,green,6,NaN,550.57236181288,653.017481158529,NaN,NaN,721.200666434388,842.519411655264,970.628304621509,789.501930496736,1049.42763818712,546.982518841471,878.799333565612,357.480588344736,629.371695378491,410.498069503264,550.57236181288,653.017481158529,3,6,5,5,0,4,vertical,horizontal,horizontal,vertical,horizontal,vertical
1b,5,100176,1,11,11,21,F,NA,constant,heterogeneous,5,present,1.33099889755249,1,horizontal,horizontal,1,1.03527036190033,green,1,5,668.665290897936,818.577661679039,551.535633479765,542.637481142314,668.665290897936,818.577661679039,967.295052392579,792.450942956807,1034.72873763037,500.363562235235,777.775285599347,345.970351986605,551.535633479765,542.637481142314,0,0,4,5,3,6,6,NaN,horizontal,horizontal,horizontal,vertical,horizontal,none
1b,5,100176,1,12,12,21,F,NA,constant,heterogeneous,6,absent,1.50102519989014,1,horizontal,horizontal,1,0.952921915054321,green,4,NaN,826.654758133252,346.39691668109,NaN,NaN,773.345241866748,853.60308331891,1006.29933356561,749.885239334581,1032.95409169886,496.282156015671,826.654758133252,346.39691668109,593.700666434388,450.114760665419,567.045908301137,703.717843984329,0,5,5,4,0,6,vertical,horizontal,horizontal,horizontal,vertical,horizontal
1b,5,100176,1,13,13,21,F,NA,constant,heterogeneous,3,absent,0.696716070175171,1,horizontal,horizontal,1,0.882337532043457,green,3,NaN,639.523300282292,401.827779828472,NaN,NaN,708.616172865948,838.063008756786,1051.86052685176,560.109211414741,639.523300282292,401.827779828472,0,0,0,0,0,0,0,6,4,NaN,NaN,NaN,vertical,horizontal,horizontal,none,none,none
1b,5,100176,1,14,14,21,F,NA,constant,heterogeneous,3,absent,1.03564095497131,1,horizontal,horizontal,1,0.635292191505432,green,3,NaN,567.045908301137,496.282156015671,NaN,NaN,826.654758133252,853.60308331891,1006.29933356561,450.114760665419,567.045908301137,496.282156015671,0,0,0,0,0,0,5,5,4,NaN,NaN,NaN,vertical,horizontal,horizontal,none,none,none
1b,5,100176,1,15,15,21,F,NA,constant,heterogeneous,5,present,0.988620042800903,1,vertical,vertical,1,0.999978170394897,green,3,4,874.554784704298,356.142287229426,591.116228706307,453.738008730483,883.019879386575,841.107236777826,1054.96116226488,595.549636358493,874.554784704298,356.142287229426,591.116228706307,453.738008730483,596.34794493794,753.462830903772,0,0,5,3,4,0,6,NaN,horizontal,vertical,vertical,horizontal,horizontal,none
1b,5,100176,1,16,16,21,F,NA,constant,heterogeneous,5,absent,1.19801187515259,1,horizontal,horizontal,1,0.870573468208313,green,4,NaN,563.568117085469,504.475318678942,NaN,NaN,935.129412379467,816.252264519889,1047.42541020038,538.309916622085,817.787900804752,345.621167183745,563.568117085469,504.475318678942,636.089159529932,795.341332995339,0,0,6,5,0,4,3,NaN,vertical,vertical,horizontal,horizontal,horizontal,none
1b,5,100176,1,17,17,21,F,NA,constant,heterogeneous,5,present,1.45908093452454,1,horizontal,horizontal,1,0.858809404373169,green,5,2,593.700666434388,749.885239334581,1055,600,878.799333565612,842.519411655264,1055,600,878.799333565612,357.480588344736,593.700666434388,450.114760665419,593.700666434388,749.885239334581,0,0,0,3,6,3,4,NaN,horizontal,horizontal,horizontal,horizontal,horizontal,none
1b,5,100176,1,18,18,21,F,NA,constant,heterogeneous,3,present,0.769799947738647,1,vertical,vertical,1,0.65882031917572,green,3,2,610.498069503264,429.371695378491,1042.51941165526,521.200666434388,746.982518841471,849.42763818712,1042.51941165526,521.200666434388,610.498069503264,429.371695378491,0,0,0,0,0,0,5,6,4,NaN,NaN,NaN,vertical,horizontal,vertical,none,none,none
1b,5,100176,1,19,19,21,F,NA,constant,heterogeneous,5,absent,1.88289093971252,1,vertical,vertical,1,0.670584383010864,green,3,NaN,1042.51941165526,521.200666434388,NaN,NaN,650.114760665419,806.299333565612,949.885239334581,806.299333565612,1042.51941165526,521.200666434388,800,345,557.480588344736,521.200666434388,0,0,3,0,4,0,6,NaN,horizontal,horizontal,vertical,horizontal,horizontal,none
1b,5,100176,1,20,20,21,F,NA,constant,heterogeneous,3,absent,0.998993873596191,1,horizontal,horizontal,1,0.71764063835144,green,1,NaN,680.284751489598,825.151636179026,NaN,NaN,680.284751489598,825.151636179026,1054.84466088987,591.100628340862,664.870587620533,383.747735480111,0,0,0,0,0,0,4,3,5,NaN,NaN,NaN,horizontal,vertical,vertical,none,none,none
1b,5,100176,1,21,21,21,F,NA,constant,heterogeneous,3,present,0.94970703125,1,vertical,vertical,1,0.71764063835144,green,1,2,1011.40458100154,742.594190385041,817.787900804752,345.621167183745,1011.40458100154,742.594190385041,817.787900804752,345.621167183745,570.807518193712,711.784642431215,0,0,0,0,0,0,4,0,5,NaN,NaN,NaN,vertical,horizontal,horizontal,none,none,none
1b,5,100176,1,22,22,21,F,NA,constant,heterogeneous,6,present,1.00078701972961,1,vertical,vertical,1,1.01174223423004,green,4,5,899.636437764765,365.271262369628,646.537169096228,396.34794493794,700.363562235235,834.728737630372,953.462830903772,803.65205506206,1053.09926866854,568.923317431687,899.636437764765,365.271262369628,646.537169096228,396.34794493794,546.900731331463,631.076682568313,0,6,3,4,5,0,horizontal,vertical,vertical,vertical,horizontal,vertical
1b,5,100176,1,23,23,21,F,NA,constant,heterogeneous,5,present,1.13088917732239,1,horizontal,horizontal,1,0.682348446846008,green,1,5,870.287525733335,845.121732464271,588.595418998464,742.594190385041,870.287525733335,845.121732464271,1054.84466088987,608.899371659138,887.215136548046,360.378381699593,599.057257830286,443.006323791957,588.595418998464,742.594190385041,0,0,4,3,6,0,0,NaN,horizontal,horizontal,vertical,vertical,horizontal,none
1b,5,100176,1,24,24,21,F,NA,constant,heterogeneous,3,present,0.870247840881348,1,horizontal,horizontal,1,0.623528127670288,green,2,3,1048.46436652023,657.362518857686,725.445215295702,356.142287229426,626.090418184063,786.495193912888,1048.46436652023,657.362518857686,725.445215295702,356.142287229426,0,0,0,0,0,0,6,4,0,NaN,NaN,NaN,horizontal,horizontal,horizontal,none,none,none
1b,5,100176,1,25,25,21,F,NA,constant,heterogeneous,6,present,NaN,0,vertical,none,0,0.811753149032593,green,2,5,995.341332995339,763.910840470068,604.658667004661,436.089159529932,755.719714694933,851.125977018113,995.341332995339,763.910840470068,1039.62161830041,512.784863451954,844.280285305067,348.874022981887,604.658667004661,436.089159529932,560.378381699593,687.215136548046,5,4,0,3,6,6,horizontal,vertical,horizontal,horizontal,vertical,horizontal
1b,5,100176,1,26,26,21,F,NA,constant,heterogeneous,4,absent,1.72491502761841,1,horizontal,horizontal,1,0.623528127670288,green,3,NaN,891.383827134052,361.936991243214,NaN,NaN,708.616172865948,838.063008756786,1038.06300875679,691.383827134052,891.383827134052,361.936991243214,561.936991243214,508.616172865948,0,0,0,0,5,5,4,3,NaN,NaN,horizontal,vertical,horizontal,horizontal,none,none
1b,5,100176,1,27,27,21,F,NA,constant,heterogeneous,4,present,0.852533102035522,1,horizontal,horizontal,1,0.647056255340576,green,3,4,704.475318678942,363.568117085469,563.568117085469,695.524681321058,895.524681321058,836.431882914531,1036.43188291453,504.475318678942,704.475318678942,363.568117085469,563.568117085469,695.524681321058,0,0,0,0,6,3,4,0,NaN,NaN,vertical,vertical,horizontal,vertical,none,none
1b,5,100176,1,28,28,21,F,NA,constant,heterogeneous,3,present,0.715569972991943,1,horizontal,horizontal,1,0.894101595878601,green,3,2,548.874022981887,555.719714694933,963.910840470068,404.658667004661,887.215136548046,839.621618300407,963.910840470068,404.658667004661,548.874022981887,555.719714694933,0,0,0,0,0,0,5,5,4,NaN,NaN,NaN,vertical,vertical,horizontal,none,none,none
1b,5,100176,1,29,29,21,F,NA,constant,heterogeneous,4,absent,1.12183284759521,1,vertical,vertical,1,0.988214106559753,green,4,NaN,616.568350913644,422.862115532956,NaN,NaN,622.862115532956,783.431649086356,983.431649086356,777.137884467044,977.137884467044,416.568350913644,616.568350913644,422.862115532956,0,0,0,0,3,6,6,4,NaN,NaN,horizontal,horizontal,horizontal,vertical,none,none
1b,5,100176,1,30,30,21,F,NA,constant,heterogeneous,5,present,1.99000597000122,1,vertical,vertical,1,0.882337532043457,green,3,1,992.450942956807,432.704947607421,742.637481142314,848.464366520235,742.637481142314,848.464366520235,1018.57766167904,731.334709102064,992.450942956807,432.704947607421,700.363562235235,365.271262369628,545.970351986605,622.224714400653,0,0,0,6,4,6,3,NaN,vertical,vertical,vertical,horizontal,vertical,none
1b,5,100176,1,31,31,21,F,NA,constant,heterogeneous,5,absent,1.9034411907196,1,horizontal,horizontal,1,0.870573468208313,green,1,NaN,870.287525733335,845.121732464271,NaN,NaN,870.287525733335,845.121732464271,1054.84466088987,608.899371659138,887.215136548046,360.378381699593,599.057257830286,443.006323791957,588.595418998464,742.594190385041,0,0,4,3,0,5,3,NaN,horizontal,vertical,horizontal,vertical,horizontal,none
1b,5,100176,1,32,32,21,F,NA,constant,heterogeneous,3,absent,0.803812980651855,1,vertical,vertical,1,0.905865659713745,green,2,NaN,822.224714400653,345.970351986605,NaN,NaN,1008.88377129369,746.261991269517,822.224714400653,345.970351986605,568.891514305654,707.767656743878,0,0,0,0,0,0,5,4,5,NaN,NaN,NaN,vertical,vertical,vertical,none,none,none
1b,5,100176,1,33,33,21,F,NA,constant,heterogeneous,3,present,0.720502853393555,1,vertical,vertical,1,0.823517212867737,green,3,1,545.621167183745,582.212099195248,911.784642431215,829.192481806288,911.784642431215,829.192481806288,942.594190385041,388.595418998464,545.621167183745,582.212099195248,0,0,0,0,0,0,5,6,4,NaN,NaN,NaN,horizontal,vertical,vertical,none,none,none
1b,5,100176,1,34,34,21,F,NA,constant,heterogeneous,6,absent,1.78595209121704,1,horizontal,horizontal,1,0.941157851219177,green,2,NaN,1048.46436652023,657.362518857686,NaN,NaN,874.554784704298,843.857712770574,1048.46436652023,657.362518857686,973.909581815937,413.504806087112,725.445215295702,356.142287229426,551.535633479765,542.637481142314,626.090418184063,786.495193912888,6,4,5,5,3,3,horizontal,horizontal,horizontal,horizontal,vertical,horizontal
1b,5,100176,1,35,35,21,F,NA,constant,heterogeneous,4,absent,1.03166317939758,1,horizontal,horizontal,1,1.09409068107605,green,2,NaN,1053.60308331891,626.654758133252,NaN,NaN,773.345241866748,853.60308331891,1053.60308331891,626.654758133252,826.654758133252,346.39691668109,546.39691668109,573.345241866748,0,0,0,0,6,4,5,0,NaN,NaN,horizontal,horizontal,vertical,horizontal,none,none
1b,5,100176,1,36,36,21,F,NA,constant,heterogeneous,4,present,1.23266792297363,1,horizontal,horizontal,1,0.811753149032593,green,3,1,865.998856501143,353.688914296288,734.001143498857,846.311085703712,734.001143498857,846.311085703712,1046.31108570371,665.998856501143,865.998856501143,353.688914296288,553.688914296288,534.001143498857,0,0,0,0,3,6,4,0,NaN,NaN,vertical,horizontal,horizontal,horizontal,none,none
1b,5,100176,1,37,37,21,F,NA,constant,heterogeneous,6,present,1.06642913818359,1,horizontal,horizontal,1,1.05879848957062,green,6,1,567.045908301137,703.717843984329,773.345241866748,853.60308331891,773.345241866748,853.60308331891,1006.29933356561,749.885239334581,1032.95409169886,496.282156015671,826.654758133252,346.39691668109,593.700666434388,450.114760665419,567.045908301137,703.717843984329,3,5,0,0,5,4,vertical,vertical,vertical,horizontal,vertical,horizontal
1b,5,100176,1,38,38,21,F,NA,constant,heterogeneous,4,absent,1.11266112327576,1,vertical,vertical,1,0.835281276702881,green,3,NaN,911.784642431215,370.807518193712,NaN,NaN,688.215357568785,829.192481806288,1029.19248180629,711.784642431215,911.784642431215,370.807518193712,570.807518193712,488.215357568785,0,0,0,0,0,6,4,6,NaN,NaN,vertical,horizontal,vertical,horizontal,none,none
1b,5,100176,1,39,39,21,F,NA,constant,heterogeneous,5,absent,1.33260083198547,1,horizontal,horizontal,1,0.870573468208313,green,1,NaN,861.690083377915,847.425410200379,NaN,NaN,861.690083377915,847.425410200379,1054.37883281626,617.787900804752,895.524681321058,363.568117085469,604.658667004661,436.089159529932,583.747735480111,735.129412379467,0,0,4,5,3,6,0,NaN,horizontal,vertical,horizontal,vertical,vertical,none
1b,5,100176,1,40,40,21,F,NA,constant,heterogeneous,6,present,1.16721701622009,1,vertical,vertical,1,0.999978170394897,green,3,2,1055,600,927.5,820.836477965032,672.5,820.836477965032,927.5,820.836477965032,1055,600,927.5,379.163522034968,672.5,379.163522034968,545,600,0,3,4,6,3,5,horizontal,vertical,vertical,horizontal,vertical,horizontal
1b,5,100176,1,41,41,21,F,NA,constant,heterogeneous,4,present,0.744421005249023,1,vertical,vertical,1,1.07056255340576,green,1,4,911.784642431215,829.192481806288,570.807518193712,711.784642431215,911.784642431215,829.192481806288,1029.19248180629,488.215357568785,688.215357568785,370.807518193712,570.807518193712,711.784642431215,0,0,0,0,4,6,5,3,NaN,NaN,vertical,horizontal,horizontal,horizontal,none,none
1b,5,100176,1,42,42,21,F,NA,constant,heterogeneous,3,present,0.631403923034668,1,horizontal,horizontal,1,0.799989085197449,green,1,2,938.882953928832,813.860994826083,915.767577433584,372.793336331966,938.882953928832,813.860994826083,915.767577433584,372.793336331966,545.349468637584,613.345668841951,0,0,0,0,0,0,4,6,5,NaN,NaN,NaN,horizontal,vertical,horizontal,none,none,none
1b,5,100176,1,43,43,21,F,NA,constant,heterogeneous,4,present,0.900094985961914,1,vertical,vertical,1,0.999978170394897,green,2,4,983.431649086356,777.137884467044,616.568350913644,422.862115532956,622.862115532956,783.431649086356,983.431649086356,777.137884467044,977.137884467044,416.568350913644,616.568350913644,422.862115532956,0,0,0,0,3,4,0,6,NaN,NaN,vertical,vertical,horizontal,vertical,none,none
1b,5,100176,1,44,44,21,F,NA,constant,heterogeneous,5,present,0.963342189788818,1,vertical,vertical,1,1.04703442573547,green,5,2,568.891514305654,707.767656743878,1050.31493177915,648.656293821019,831.076682568313,853.099268668537,1050.31493177915,648.656293821019,923.626453162816,376.971974679454,626.090418184063,413.504806087112,568.891514305654,707.767656743878,0,0,3,6,5,0,4,NaN,vertical,vertical,vertical,vertical,vertical,none
1b,5,100176,1,45,45,21,F,NA,constant,heterogeneous,4,absent,1.33826398849487,1,horizontal,horizontal,1,0.776460957527161,green,3,NaN,861.690083377915,352.574589799621,NaN,NaN,738.309916622085,847.425410200379,1047.42541020038,661.690083377915,861.690083377915,352.574589799621,552.574589799621,538.309916622085,0,0,0,0,6,5,4,3,NaN,NaN,vertical,vertical,horizontal,horizontal,none,none
1b,5,100176,1,46,46,21,F,NA,constant,heterogeneous,5,absent,1.54499411582947,1,vertical,vertical,1,0.788225021362305,green,3,NaN,1031.10848569435,492.232343256122,NaN,NaN,676.373546837184,823.028025320546,973.909581815937,786.495193912888,1031.10848569435,492.232343256122,768.923317431687,346.900731331463,549.685068220846,551.343706178981,0,0,6,3,4,6,0,NaN,horizontal,vertical,vertical,horizontal,vertical,none
1b,5,100176,1,47,47,21,F,NA,constant,heterogeneous,4,present,0.816015005111694,1,vertical,vertical,1,0.999978170394897,green,2,3,1034.72873763037,500.363562235235,700.363562235235,365.271262369628,899.636437764765,834.728737630372,1034.72873763037,500.363562235235,700.363562235235,365.271262369628,565.271262369628,699.636437764765,0,0,0,0,6,4,0,0,NaN,NaN,vertical,vertical,horizontal,horizontal,none,none
1b,5,100176,1,48,48,21,F,NA,constant,heterogeneous,6,present,1.2208149433136,1,vertical,vertical,1,0.611764063835144,green,5,6,632.704947607421,407.549057043193,549.685068220846,648.656293821019,716.980120613425,841.107236777826,967.295052392579,792.450942956807,1050.31493177915,551.343706178981,883.019879386575,358.892763222174,632.704947607421,407.549057043193,549.685068220846,648.656293821019,5,0,3,5,4,3,vertical,vertical,horizontal,vertical,vertical,vertical
1b,5,100176,1,49,49,21,F,NA,constant,heterogeneous,6,absent,0.669709920883179,1,vertical,vertical,1,0.623528127670288,green,5,NaN,653.738008730483,391.116228706307,NaN,NaN,692.232343256122,831.108485694346,946.261991269517,808.883771293693,1054.0296480134,577.775285599347,907.767656743878,368.891514305654,653.738008730483,391.116228706307,545.970351986605,622.224714400653,6,5,3,6,4,0,horizontal,horizontal,horizontal,horizontal,vertical,horizontal
1b,5,100176,1,50,50,21,F,NA,constant,heterogeneous,4,absent,1.09262108802795,1,vertical,vertical,1,0.670584383010864,green,4,NaN,545.970351986605,577.775285599347,NaN,NaN,777.775285599347,854.029648013395,1054.0296480134,622.224714400653,822.224714400653,345.970351986605,545.970351986605,577.775285599347,0,0,0,0,6,3,5,4,NaN,NaN,horizontal,horizontal,vertical,vertical,none,none
1b,5,100176,1,51,51,21,F,NA,constant,heterogeneous,5,absent,0.580389022827148,1,vertical,vertical,1,1.07056255340576,green,3,NaN,927.5,379.163522034968,NaN,NaN,826.654758133252,853.60308331891,1049.42763818712,653.017481158529,927.5,379.163522034968,629.371695378491,410.498069503264,567.045908301137,703.717843984329,0,0,3,5,4,6,0,NaN,vertical,horizontal,vertical,horizontal,vertical,none
1b,5,100176,1,52,52,21,F,NA,constant,heterogeneous,4,present,1.00857496261597,1,horizontal,horizontal,1,0.823517212867737,green,3,2,626.090418184063,413.504806087112,986.495193912888,426.090418184063,973.909581815937,786.495193912888,986.495193912888,426.090418184063,626.090418184063,413.504806087112,613.504806087112,773.909581815937,0,0,0,0,3,5,4,6,NaN,NaN,vertical,horizontal,horizontal,vertical,none,none
1b,5,100176,1,53,53,21,F,NA,constant,heterogeneous,6,present,0.837754964828491,1,horizontal,horizontal,1,0.647056255340576,green,4,1,831.076682568313,346.900731331463,768.923317431687,853.099268668537,768.923317431687,853.099268668537,1003.65205506206,753.462830903772,1034.72873763037,500.363562235235,831.076682568313,346.900731331463,596.34794493794,446.537169096228,565.271262369628,699.636437764765,3,5,6,4,5,6,vertical,vertical,vertical,horizontal,horizontal,vertical
1b,5,100176,1,54,54,21,F,NA,constant,heterogeneous,6,absent,1.4770519733429,1,vertical,vertical,1,0.705876574516296,green,3,NaN,1027.20666366803,484.232422566416,NaN,NaN,786.654331158049,854.650531362416,1013.86099482608,738.882953928832,1027.20666366803,484.232422566416,813.345668841951,345.349468637584,586.139005173917,461.117046071168,572.793336331966,715.767577433584,0,5,4,6,6,3,vertical,horizontal,vertical,vertical,horizontal,vertical
1b,5,100176,1,55,55,21,F,NA,constant,heterogeneous,6,present,0.937035799026489,1,horizontal,horizontal,1,0.929393787384033,green,5,3,581.422338320961,468.665290897936,1023.02802532055,476.373546837184,795.549636358493,854.96116226488,1018.57766167904,731.334709102064,1023.02802532055,476.373546837184,804.450363641507,345.03883773512,581.422338320961,468.665290897936,576.971974679454,723.626453162816,0,3,5,3,4,6,horizontal,vertical,horizontal,vertical,horizontal,vertical
1b,5,100176,1,56,56,21,F,NA,constant,heterogeneous,6,present,1.71606683731079,1,horizontal,horizontal,1,0.999978170394897,green,1,4,688.215357568785,829.192481806288,911.784642431215,370.807518193712,688.215357568785,829.192481806288,942.594190385041,811.404581001536,1054.37883281626,582.212099195248,911.784642431215,370.807518193712,657.405809614959,388.595418998464,545.621167183745,617.787900804752,4,0,5,0,6,3,horizontal,vertical,horizontal,horizontal,vertical,horizontal
1b,5,100176,1,57,57,21,F,NA,constant,heterogeneous,6,absent,1.0861611366272,1,vertical,vertical,1,0.976450042724609,green,4,NaN,865.998856501143,353.688914296288,NaN,NaN,734.001143498857,846.311085703712,980.31222920257,780.31222920257,1046.31108570371,534.001143498857,865.998856501143,353.688914296288,619.68777079743,419.68777079743,553.688914296288,665.998856501143,0,5,0,4,3,6,vertical,vertical,horizontal,vertical,vertical,vertical
1b,5,100176,1,58,58,21,F,NA,constant,heterogeneous,4,present,0.844717979431152,1,vertical,vertical,1,1.03527036190033,green,3,4,721.200666434388,357.480588344736,557.480588344736,678.799333565612,878.799333565612,842.519411655264,1042.51941165526,521.200666434388,721.200666434388,357.480588344736,557.480588344736,678.799333565612,0,0,0,0,6,5,4,5,NaN,NaN,horizontal,vertical,vertical,vertical,none,none
1b,5,100176,1,59,59,21,F,NA,constant,heterogeneous,3,absent,0.786755084991455,1,vertical,vertical,1,0.858809404373169,green,1,NaN,588.595418998464,742.594190385041,NaN,NaN,588.595418998464,742.594190385041,1029.19248180629,711.784642431215,782.212099195248,345.621167183745,0,0,0,0,0,0,4,5,0,NaN,NaN,NaN,vertical,horizontal,horizontal,none,none,none
1b,5,100176,1,60,60,21,F,NA,constant,heterogeneous,3,absent,0.999499082565308,1,vertical,vertical,1,1.03527036190033,green,1,NaN,680.284751489598,825.151636179026,NaN,NaN,680.284751489598,825.151636179026,1054.84466088987,591.100628340862,664.870587620533,383.747735480111,0,0,0,0,0,0,4,6,3,NaN,NaN,NaN,vertical,horizontal,vertical,none,none,none
1b,5,100176,1,61,61,21,F,NA,constant,heterogeneous,5,absent,0.966247081756592,1,horizontal,horizontal,1,0.71764063835144,green,1,NaN,729.712474266665,845.121732464271,NaN,NaN,729.712474266665,845.121732464271,1011.40458100154,742.594190385041,1000.94274216971,443.006323791957,712.784863451954,360.378381699593,545.155339110131,608.899371659138,0,0,4,3,6,3,5,NaN,horizontal,vertical,vertical,horizontal,horizontal,none
1b,5,100176,1,62,62,21,F,NA,constant,heterogeneous,4,present,0.934149980545044,1,horizontal,horizontal,1,1.02350629806519,green,1,2,704.475318678942,836.431882914531,1036.43188291453,695.524681321058,704.475318678942,836.431882914531,1036.43188291453,695.524681321058,895.524681321058,363.568117085469,563.568117085469,504.475318678942,0,0,0,0,4,6,3,5,NaN,NaN,horizontal,horizontal,horizontal,vertical,none,none
1b,5,100176,1,63,63,21,F,NA,constant,heterogeneous,5,absent,0.680542945861816,1,vertical,vertical,1,0.976450042724609,green,4,NaN,563.568117085469,504.475318678942,NaN,NaN,935.129412379467,816.252264519889,1047.42541020038,538.309916622085,817.787900804752,345.621167183745,563.568117085469,504.475318678942,636.089159529932,795.341332995339,0,0,0,3,5,4,6,NaN,vertical,horizontal,horizontal,vertical,vertical,none
1b,5,100176,1,64,64,21,F,NA,constant,heterogeneous,4,absent,0.954946041107178,1,horizontal,horizontal,1,0.835281276702881,green,4,NaN,557.480588344736,521.200666434388,NaN,NaN,721.200666434388,842.519411655264,1042.51941165526,678.799333565612,878.799333565612,357.480588344736,557.480588344736,521.200666434388,0,0,0,0,5,6,3,4,NaN,NaN,horizontal,horizontal,horizontal,horizontal,none,none
1b,5,100176,2,1,65,21,F,NA,constant,heterogeneous,4,present,1.64707088470459,1,horizontal,horizontal,1,0.65882031917572,green,3,1,915.767577433584,372.793336331966,684.232422566416,827.206663668034,684.232422566416,827.206663668034,1027.20666366803,715.767577433584,915.767577433584,372.793336331966,572.793336331966,484.232422566416,0,0,0,0,3,0,4,6,NaN,NaN,vertical,horizontal,horizontal,vertical,none,none
1b,5,100176,2,2,66,21,F,NA,constant,heterogeneous,4,absent,0.792737007141113,1,vertical,vertical,1,0.811753149032593,green,1,NaN,804.450363641507,854.96116226488,NaN,NaN,804.450363641507,854.96116226488,1054.96116226488,595.549636358493,795.549636358493,345.03883773512,545.03883773512,604.450363641507,0,0,0,0,4,5,3,3,NaN,NaN,vertical,vertical,horizontal,horizontal,none,none
1b,5,100176,2,3,67,21,F,NA,constant,heterogeneous,4,absent,1.19032096862793,1,horizontal,horizontal,1,0.882337532043457,green,3,NaN,857.362518857686,351.535633479765,NaN,NaN,742.637481142314,848.464366520235,1048.46436652023,657.362518857686,857.362518857686,351.535633479765,551.535633479765,542.637481142314,0,0,0,0,0,5,4,3,NaN,NaN,vertical,vertical,horizontal,horizontal,none,none
1b,5,100176,2,4,68,21,F,NA,constant,heterogeneous,4,absent,1.0159170627594,1,horizontal,horizontal,1,1.07056255340576,green,4,NaN,570.807518193712,488.215357568785,NaN,NaN,688.215357568785,829.192481806288,1029.19248180629,711.784642431215,911.784642431215,370.807518193712,570.807518193712,488.215357568785,0,0,0,0,3,6,5,4,NaN,NaN,vertical,vertical,horizontal,horizontal,none,none
1b,5,100176,2,5,69,21,F,NA,constant,heterogeneous,6,present,0.854320049285889,1,vertical,vertical,1,0.705876574516296,green,2,3,973.909581815937,786.495193912888,1048.46436652023,542.637481142314,725.445215295702,843.857712770574,973.909581815937,786.495193912888,1048.46436652023,542.637481142314,874.554784704298,356.142287229426,626.090418184063,413.504806087112,551.535633479765,657.362518857686,3,4,5,6,0,3,horizontal,vertical,vertical,horizontal,vertical,vertical
1b,5,100176,2,6,70,21,F,NA,constant,heterogeneous,6,absent,1.19057703018188,1,vertical,vertical,1,0.741168766021729,green,6,NaN,629.371695378491,789.501930496736,NaN,NaN,878.799333565612,842.519411655264,1049.42763818712,653.017481158529,970.628304621509,410.498069503264,721.200666434388,357.480588344736,550.57236181288,546.982518841471,629.371695378491,789.501930496736,3,0,3,5,6,4,vertical,horizontal,horizontal,horizontal,vertical,vertical
1b,5,100176,2,7,71,21,F,NA,constant,heterogeneous,3,present,0.714615106582642,1,vertical,vertical,1,0.811753149032593,green,1,3,963.910840470068,795.341332995339,548.874022981887,644.280285305067,963.910840470068,795.341332995339,887.215136548046,360.378381699593,548.874022981887,644.280285305067,0,0,0,0,0,0,4,3,6,NaN,NaN,NaN,vertical,horizontal,horizontal,none,none,none
1b,5,100176,2,8,72,21,F,NA,constant,heterogeneous,3,absent,0.79975700378418,1,horizontal,horizontal,1,0.941157851219177,green,3,NaN,558.892763222174,683.019879386575,NaN,NaN,992.450942956807,767.295052392579,848.656293821019,349.685068220846,558.892763222174,683.019879386575,0,0,0,0,0,0,3,0,4,NaN,NaN,NaN,vertical,vertical,horizontal,none,none,none
1b,5,100176,2,9,73,21,F,NA,constant,heterogeneous,3,present,0.583173990249634,1,vertical,vertical,1,0.941157851219177,green,3,1,548.13947314824,639.890788585259,960.476699717708,798.172220171528,960.476699717708,798.172220171528,891.383827134052,361.936991243214,548.13947314824,639.890788585259,0,0,0,0,0,0,6,5,4,NaN,NaN,NaN,vertical,horizontal,vertical,none,none,none
1b,5,100176,2,10,74,21,F,NA,constant,heterogeneous,5,absent,1.46162819862366,1,horizontal,horizontal,1,0.741168766021729,green,5,NaN,616.568350913644,777.137884467044,NaN,NaN,911.784642431215,829.192481806288,1052.5183575291,564.510859255183,844.280285305067,348.874022981887,574.848363820974,480.284751489598,616.568350913644,777.137884467044,0,0,0,6,3,6,4,NaN,vertical,vertical,vertical,vertical,horizontal,none
1b,5,100176,2,11,75,21,F,NA,constant,heterogeneous,5,present,1.10476994514465,1,vertical,vertical,1,0.694112510681152,green,2,1,1048.46436652023,657.362518857686,822.224714400653,854.029648013395,822.224714400653,854.029648013395,1048.46436652023,657.362518857686,931.334709102064,381.422338320961,632.704947607421,407.549057043193,565.271262369628,699.636437764765,0,0,5,4,5,3,6,NaN,horizontal,vertical,horizontal,horizontal,horizontal,none
1b,5,100176,2,12,76,21,F,NA,constant,heterogeneous,6,absent,1.37619686126709,0,vertical,horizontal,1,1.05879848957062,green,5,NaN,650.114760665419,393.700666434388,NaN,NaN,696.282156015671,832.954091698863,949.885239334581,806.299333565612,1053.60308331891,573.345241866748,903.717843984329,367.045908301137,650.114760665419,393.700666434388,546.39691668109,626.654758133252,6,5,0,0,4,3,vertical,vertical,vertical,horizontal,vertical,horizontal
1b,5,100176,2,13,77,21,F,NA,constant,heterogeneous,5,absent,1.04200005531311,1,horizontal,horizontal,1,0.882337532043457,green,1,NaN,817.787900804752,854.378832816255,NaN,NaN,817.787900804752,854.378832816255,1047.42541020038,661.690083377915,935.129412379467,383.747735480111,636.089159529932,404.658667004661,563.568117085469,695.524681321058,0,0,4,6,3,3,5,NaN,horizontal,vertical,vertical,horizontal,vertical,none
1b,5,100176,2,14,78,21,F,NA,constant,heterogeneous,5,present,1.12343502044678,1,vertical,vertical,1,0.823517212867737,green,2,5,1054.0296480134,622.224714400653,581.422338320961,731.334709102064,857.362518857686,848.464366520235,1054.0296480134,622.224714400653,899.636437764765,365.271262369628,607.549057043193,432.704947607421,581.422338320961,731.334709102064,0,0,5,4,5,3,6,NaN,horizontal,vertical,horizontal,vertical,vertical,none
1b,5,100176,2,15,79,21,F,NA,constant,heterogeneous,6,present,1.32989311218262,1,horizontal,horizontal,1,0.999978170394897,green,1,2,676.373546837184,823.028025320546,931.334709102064,818.577661679039,676.373546837184,823.028025320546,931.334709102064,818.577661679039,1054.96116226488,595.549636358493,923.626453162816,376.971974679454,668.665290897936,381.422338320961,545.03883773512,604.450363641507,4,5,6,0,3,0,horizontal,vertical,vertical,horizontal,vertical,horizontal
1b,5,100176,2,16,80,21,F,NA,constant,heterogeneous,5,present,1.59689998626709,1,horizontal,horizontal,1,0.999978170394897,green,2,3,1049.42763818712,546.982518841471,826.654758133252,346.39691668109,927.5,820.836477965032,1049.42763818712,546.982518841471,826.654758133252,346.39691668109,567.045908301137,496.282156015671,629.371695378491,789.501930496736,0,0,3,4,6,5,5,NaN,vertical,horizontal,vertical,horizontal,vertical,none
1b,5,100176,2,17,81,21,F,NA,constant,heterogeneous,6,present,1.52893996238708,1,vertical,vertical,1,1.01174223423004,green,2,4,998.172220171528,760.476699717708,839.890788585259,348.13947314824,760.109211414741,851.86052685176,998.172220171528,760.476699717708,1038.06300875679,508.616172865948,839.890788585259,348.13947314824,601.827779828472,439.523300282291,561.936991243214,691.383827134052,5,4,3,0,5,6,vertical,vertical,horizontal,horizontal,vertical,vertical
1b,5,100176,2,18,82,21,F,NA,constant,heterogeneous,3,absent,1.11803913116455,1,vertical,vertical,1,0.694112510681152,green,2,NaN,983.431649086356,422.862115532956,NaN,NaN,861.690083377915,847.425410200379,983.431649086356,422.862115532956,554.878267535729,529.712474266665,0,0,0,0,0,0,6,4,3,NaN,NaN,NaN,horizontal,vertical,vertical,none,none,none
1b,5,100176,2,19,83,21,F,NA,constant,heterogeneous,3,present,0.665268898010254,1,horizontal,horizontal,1,1.03527036190033,green,2,1,826.654758133252,346.39691668109,1006.29933356561,749.885239334581,1006.29933356561,749.885239334581,826.654758133252,346.39691668109,567.045908301137,703.717843984329,0,0,0,0,0,0,3,4,5,NaN,NaN,NaN,vertical,horizontal,horizontal,none,none,none
1b,5,100176,2,20,84,21,F,NA,constant,heterogeneous,5,present,1.29109907150269,1,vertical,vertical,1,1.02350629806519,green,5,3,552.574589799621,661.690083377915,963.910840470068,404.658667004661,782.212099195248,854.378832816255,1036.43188291453,695.524681321058,963.910840470068,404.658667004661,664.870587620533,383.747735480111,552.574589799621,661.690083377915,0,0,0,3,6,6,4,NaN,horizontal,vertical,horizontal,vertical,vertical,none
1b,5,100176,2,21,85,21,F,NA,constant,heterogeneous,4,absent,0.798468828201294,1,vertical,vertical,1,0.670584383010864,green,3,NaN,831.076682568313,346.900731331463,NaN,NaN,768.923317431687,853.099268668537,1053.09926866854,631.076682568313,831.076682568313,346.900731331463,546.900731331463,568.923317431687,0,0,0,0,0,0,4,5,NaN,NaN,horizontal,vertical,vertical,horizontal,none,none
1b,5,100176,2,22,86,21,F,NA,constant,heterogeneous,3,present,0.639856815338135,1,horizontal,horizontal,1,1.05879848957062,green,2,3,1029.19248180629,488.215357568785,588.595418998464,457.40580961496,782.212099195248,854.378832816255,1029.19248180629,488.215357568785,588.595418998464,457.40580961496,0,0,0,0,0,0,3,4,6,NaN,NaN,NaN,vertical,horizontal,vertical,none,none,none
1b,5,100176,2,23,87,21,F,NA,constant,heterogeneous,4,absent,1.02681016921997,0,vertical,horizontal,1,1.09409068107605,green,3,NaN,646.537169096228,396.34794493794,NaN,NaN,953.462830903772,803.65205506206,1003.65205506206,446.537169096228,646.537169096228,396.34794493794,596.34794493794,753.462830903772,0,0,0,0,0,3,4,6,NaN,NaN,horizontal,horizontal,vertical,vertical,none,none
1b,5,100176,2,24,88,21,F,NA,constant,heterogeneous,3,absent,0.837306022644043,1,vertical,vertical,1,0.882337532043457,green,3,NaN,657.405809614959,388.595418998464,NaN,NaN,688.215357568785,829.192481806288,1054.37883281626,582.212099195248,657.405809614959,388.595418998464,0,0,0,0,0,0,5,3,4,NaN,NaN,NaN,vertical,horizontal,vertical,none,none,none
1b,5,100176,2,25,89,21,F,NA,constant,heterogeneous,5,absent,0.691396951675415,1,vertical,vertical,1,0.65882031917572,green,4,NaN,632.704947607421,407.549057043193,NaN,NaN,822.224714400653,854.029648013395,1048.46436652023,657.362518857686,931.334709102064,381.422338320961,632.704947607421,407.549057043193,565.271262369628,699.636437764765,0,0,3,6,0,4,5,NaN,horizontal,horizontal,vertical,vertical,horizontal,none
1b,5,100176,2,26,90,21,F,NA,constant,heterogeneous,5,absent,0.889462947845459,1,horizontal,horizontal,1,0.611764063835144,green,4,NaN,646.537169096228,396.34794493794,NaN,NaN,804.450363641507,854.96116226488,1043.85771277057,674.554784704298,946.261991269517,391.116228706307,646.537169096228,396.34794493794,558.892763222174,683.019879386575,0,0,3,0,5,4,5,NaN,vertical,vertical,vertical,horizontal,vertical,none
1b,5,100176,2,27,91,21,F,NA,constant,heterogeneous,5,present,0.96950101852417,1,horizontal,horizontal,1,0.705876574516296,green,3,4,938.882953928832,386.139005173917,639.523300282292,401.827779828472,813.345668841951,854.650531362416,1046.31108570371,665.998856501143,938.882953928832,386.139005173917,639.523300282292,401.827779828472,561.936991243214,691.383827134052,0,0,0,6,4,3,3,NaN,horizontal,vertical,horizontal,horizontal,horizontal,none
1b,5,100176,2,28,92,21,F,NA,constant,heterogeneous,6,present,0.673931121826172,1,vertical,vertical,1,1.04703442573547,green,4,5,870.287525733335,354.878267535729,622.862115532956,416.568350913644,729.712474266665,845.121732464271,977.137884467044,783.431649086356,1047.42541020038,538.309916622085,870.287525733335,354.878267535729,622.862115532956,416.568350913644,552.574589799621,661.690083377915,6,0,0,4,5,3,vertical,horizontal,horizontal,vertical,vertical,horizontal
1b,5,100176,2,29,93,21,F,NA,constant,heterogeneous,4,present,0.815735101699829,1,vertical,vertical,1,0.999978170394897,green,4,1,553.688914296288,534.001143498857,734.001143498857,846.311085703712,734.001143498857,846.311085703712,1046.31108570371,665.998856501143,865.998856501143,353.688914296288,553.688914296288,534.001143498857,0,0,0,0,6,0,3,4,NaN,NaN,horizontal,horizontal,vertical,vertical,none,none
1b,5,100176,2,30,94,21,F,NA,constant,heterogeneous,4,absent,1.25053787231445,1,horizontal,horizontal,1,0.917629723548889,green,1,NaN,804.450363641507,854.96116226488,NaN,NaN,804.450363641507,854.96116226488,1054.96116226488,595.549636358493,795.549636358493,345.03883773512,545.03883773512,604.450363641507,0,0,0,0,4,3,3,5,NaN,NaN,horizontal,horizontal,vertical,vertical,none,none
1b,5,100176,2,31,95,21,F,NA,constant,heterogeneous,4,present,0.86808705329895,1,horizontal,horizontal,1,0.611764063835144,green,4,2,581.422338320961,468.665290897936,1018.57766167904,731.334709102064,668.665290897936,818.577661679039,1018.57766167904,731.334709102064,931.334709102064,381.422338320961,581.422338320961,468.665290897936,0,0,0,0,6,6,0,4,NaN,NaN,horizontal,vertical,horizontal,horizontal,none,none
1b,5,100176,2,32,96,21,F,NA,constant,heterogeneous,4,present,0.663904905319214,1,horizontal,horizontal,1,0.917629723548889,green,3,2,786.654331158049,345.349468637584,1054.65053136242,586.654331158049,813.345668841951,854.650531362416,1054.65053136242,586.654331158049,786.654331158049,345.349468637584,545.349468637584,613.345668841951,0,0,0,0,6,5,4,3,NaN,NaN,horizontal,vertical,horizontal,horizontal,none,none
1b,5,100176,2,33,97,21,F,NA,constant,heterogeneous,5,present,1.56529498100281,1,horizontal,horizontal,1,0.811753149032593,green,1,5,751.343706178981,850.314931779154,546.900731331463,631.076682568313,751.343706178981,850.314931779154,1023.02802532055,723.626453162816,986.495193912888,426.090418184063,692.232343256122,368.891514305654,546.900731331463,631.076682568313,0,0,4,5,5,3,3,NaN,horizontal,horizontal,horizontal,vertical,horizontal,none
1b,5,100176,2,34,98,21,F,NA,constant,heterogeneous,5,present,1.0345938205719,1,vertical,vertical,1,1.08232661724091,green,1,4,883.019879386575,841.107236777826,591.116228706307,453.738008730483,883.019879386575,841.107236777826,1054.96116226488,595.549636358493,874.554784704298,356.142287229426,591.116228706307,453.738008730483,596.34794493794,753.462830903772,0,0,4,3,5,0,6,NaN,vertical,horizontal,vertical,vertical,vertical,none
1b,5,100176,2,35,99,21,F,NA,constant,heterogeneous,3,absent,1.32669997215271,1,horizontal,horizontal,1,0.964685978889465,green,3,NaN,545.970351986605,622.224714400653,NaN,NaN,946.261991269517,808.883771293693,907.767656743878,368.891514305654,545.970351986605,622.224714400653,0,0,0,0,0,0,6,6,4,NaN,NaN,NaN,vertical,vertical,horizontal,none,none,none
1b,5,100176,2,36,100,21,F,NA,constant,heterogeneous,3,absent,1.61307001113892,1,horizontal,horizontal,1,0.976450042724609,green,3,NaN,632.704947607421,407.549057043193,NaN,NaN,716.980120613425,841.107236777826,1050.31493177915,551.343706178981,632.704947607421,407.549057043193,0,0,0,0,0,0,3,5,4,NaN,NaN,NaN,vertical,horizontal,horizontal,none,none,none
1b,5,100176,2,37,101,21,F,NA,constant,heterogeneous,4,present,0.884196996688843,1,vertical,vertical,1,0.929393787384033,green,4,2,567.045908301137,703.717843984329,1032.95409169886,496.282156015671,903.717843984329,832.954091698863,1032.95409169886,496.282156015671,696.282156015671,367.045908301137,567.045908301137,703.717843984329,0,0,0,0,0,6,5,4,NaN,NaN,vertical,horizontal,horizontal,vertical,none,none
1b,5,100176,2,38,102,21,F,NA,constant,heterogeneous,3,absent,1.19860100746155,1,horizontal,horizontal,1,0.823517212867737,green,1,NaN,708.616172865948,838.063008756786,NaN,NaN,708.616172865948,838.063008756786,1051.86052685176,560.109211414741,639.523300282292,401.827779828472,0,0,0,0,0,0,4,5,3,NaN,NaN,NaN,horizontal,vertical,horizontal,none,none,none
1b,5,100176,2,39,103,21,F,NA,constant,heterogeneous,6,absent,1.01408886909485,1,vertical,vertical,1,0.764696893692017,green,1,NaN,704.475318678942,836.431882914531,NaN,NaN,704.475318678942,836.431882914531,956.993676208043,800.942742169714,1052.5183575291,564.510859255183,895.524681321058,363.568117085469,643.006323791957,399.057257830286,547.481642470899,635.489140744817,4,3,5,6,0,3,vertical,horizontal,horizontal,horizontal,horizontal,horizontal
1b,5,100176,2,40,104,21,F,NA,constant,heterogeneous,6,present,1.93922209739685,1,horizontal,horizontal,1,0.835281276702881,green,4,2,712.784863451954,360.378381699593,1051.12597701811,644.280285305067,887.215136548046,839.621618300407,1051.12597701811,644.280285305067,963.910840470068,404.658667004661,712.784863451954,360.378381699593,548.874022981887,555.719714694933,636.089159529932,795.341332995339,3,5,5,4,0,6,vertical,horizontal,vertical,horizontal,horizontal,horizontal
1b,5,100176,2,41,105,21,F,NA,constant,heterogeneous,4,absent,0.920507192611694,1,horizontal,horizontal,1,0.917629723548889,green,4,NaN,550.57236181288,546.982518841471,NaN,NaN,746.982518841471,849.42763818712,1049.42763818712,653.017481158529,853.017481158529,350.57236181288,550.57236181288,546.982518841471,0,0,0,0,3,5,3,4,NaN,NaN,horizontal,horizontal,horizontal,horizontal,none,none
1b,5,100176,2,42,106,21,F,NA,constant,heterogeneous,6,present,1.30211782455444,1,horizontal,horizontal,1,0.752932829856872,green,2,4,1052.5183575291,635.489140744817,704.475318678942,363.568117085469,895.524681321058,836.431882914531,1052.5183575291,635.489140744817,956.993676208043,399.057257830286,704.475318678942,363.568117085469,547.481642470899,564.510859255183,643.006323791957,800.942742169714,6,4,5,6,3,0,horizontal,horizontal,horizontal,horizontal,horizontal,horizontal
1b,5,100176,2,43,107,21,F,NA,constant,heterogeneous,4,present,0.670737981796265,1,vertical,vertical,1,0.71764063835144,green,1,2,751.343706178981,850.314931779154,1050.31493177915,648.656293821019,751.343706178981,850.314931779154,1050.31493177915,648.656293821019,848.656293821019,349.685068220846,549.685068220846,551.343706178981,0,0,0,0,4,3,0,5,NaN,NaN,vertical,horizontal,horizontal,horizontal,none,none
1b,5,100176,2,44,108,21,F,NA,constant,heterogeneous,6,absent,1.0543258190155,1,vertical,vertical,1,0.694112510681152,green,1,NaN,721.200666434388,842.519411655264,NaN,NaN,721.200666434388,842.519411655264,970.628304621509,789.501930496736,1049.42763818712,546.982518841471,878.799333565612,357.480588344736,629.371695378491,410.498069503264,550.57236181288,653.017481158529,4,3,5,0,0,3,vertical,horizontal,horizontal,horizontal,vertical,horizontal
1b,5,100176,2,45,109,21,F,NA,constant,heterogeneous,3,absent,0.635426998138428,1,vertical,vertical,1,0.799989085197449,green,3,NaN,646.537169096228,396.34794493794,NaN,NaN,700.363562235235,834.728737630372,1053.09926866854,568.923317431687,646.537169096228,396.34794493794,0,0,0,0,0,0,6,5,4,NaN,NaN,NaN,horizontal,horizontal,vertical,none,none,none
1b,5,100176,2,46,110,21,F,NA,constant,heterogeneous,6,absent,NaN,0,horizontal,none,0,0.6,green,4,NaN,692.232343256122,368.891514305654,NaN,NaN,907.767656743878,831.108485694346,1054.0296480134,622.224714400653,946.261991269517,391.116228706307,692.232343256122,368.891514305654,545.970351986605,577.775285599347,653.738008730483,808.883771293693,0,6,3,4,5,6,vertical,horizontal,horizontal,horizontal,vertical,horizontal
1b,5,100176,2,47,111,21,F,NA,constant,heterogeneous,6,absent,1.65626692771912,1,horizontal,horizontal,1,0.776460957527161,green,1,NaN,800,855,NaN,NaN,800,855,1020.83647796503,727.5,1020.83647796503,472.5,800,345,579.163522034968,472.5,579.163522034968,727.5,4,0,5,5,6,3,horizontal,vertical,vertical,vertical,vertical,vertical
1b,5,100176,2,48,112,21,F,NA,constant,heterogeneous,5,absent,0.648825883865356,1,vertical,vertical,1,0.964685978889465,green,1,NaN,742.637481142314,848.464366520235,NaN,NaN,742.637481142314,848.464366520235,1018.57766167904,731.334709102064,992.450942956807,432.704947607421,700.363562235235,365.271262369628,545.970351986605,622.224714400653,0,0,4,0,3,6,6,NaN,vertical,horizontal,vertical,vertical,horizontal,none
1b,5,100176,2,49,113,21,F,NA,constant,heterogeneous,6,present,1.41723990440369,1,vertical,vertical,1,0.764696893692017,green,2,3,983.431649086356,777.137884467044,1045.12173246427,529.712474266665,738.309916622085,847.425410200379,983.431649086356,777.137884467044,1045.12173246427,529.712474266665,861.690083377915,352.574589799621,616.568350913644,422.862115532956,554.878267535729,670.287525733335,0,4,0,6,3,3,vertical,vertical,horizontal,horizontal,horizontal,vertical
1b,5,100176,2,50,114,21,F,NA,constant,heterogeneous,6,present,0.850696086883545,1,horizontal,horizontal,1,1.04703442573547,green,1,2,764.510859255183,852.518357529101,1000.94274216971,756.993676208043,764.510859255183,852.518357529101,1000.94274216971,756.993676208043,1036.43188291453,504.475318678942,835.489140744817,347.4816424709,599.057257830286,443.006323791957,563.568117085469,695.524681321058,4,3,5,3,5,6,horizontal,vertical,vertical,horizontal,vertical,vertical
1b,5,100176,2,51,115,21,F,NA,constant,heterogeneous,5,absent,0.884207963943481,1,vertical,vertical,1,1.01174223423004,green,2,NaN,1003.65205506206,753.462830903772,NaN,NaN,716.980120613425,841.107236777826,1003.65205506206,753.462830903772,1008.88377129369,453.738008730483,725.445215295702,356.142287229426,545.03883773512,595.549636358493,0,0,6,4,6,3,0,NaN,horizontal,vertical,vertical,horizontal,horizontal,none
1b,5,100176,2,52,116,21,F,NA,constant,heterogeneous,4,present,0.792428970336914,1,vertical,vertical,1,0.71764063835144,green,3,4,639.523300282292,401.827779828472,601.827779828472,760.476699717708,960.476699717708,798.172220171528,998.172220171528,439.523300282291,639.523300282292,401.827779828472,601.827779828472,760.476699717708,0,0,0,0,0,5,4,3,NaN,NaN,vertical,vertical,vertical,vertical,none,none
1b,5,100176,2,53,117,21,F,NA,constant,heterogeneous,5,present,0.853542804718018,1,horizontal,horizontal,1,0.65882031917572,green,1,5,738.309916622085,847.425410200379,545.621167183745,617.787900804752,738.309916622085,847.425410200379,1016.25226451989,735.129412379467,995.341332995339,436.089159529932,704.475318678942,363.568117085469,545.621167183745,617.787900804752,0,0,4,0,6,3,3,NaN,horizontal,vertical,horizontal,horizontal,vertical,none
1b,5,100176,2,54,118,21,F,NA,constant,heterogeneous,6,absent,1.59533500671387,1,horizontal,horizontal,1,1.02350629806519,green,3,NaN,992.450942956807,432.704947607421,NaN,NaN,848.656293821019,850.314931779154,1041.10723677783,683.019879386575,992.450942956807,432.704947607421,751.343706178981,349.685068220846,558.892763222174,516.980120613425,607.549057043193,767.295052392579,3,0,4,0,6,3,horizontal,vertical,horizontal,horizontal,horizontal,vertical
1b,5,100176,2,55,119,21,F,NA,constant,heterogeneous,4,present,1.00262212753296,1,horizontal,horizontal,1,0.752932829856872,green,4,1,552.574589799621,661.690083377915,861.690083377915,847.425410200379,861.690083377915,847.425410200379,1047.42541020038,538.309916622085,738.309916622085,352.574589799621,552.574589799621,661.690083377915,0,0,0,0,5,3,0,4,NaN,NaN,horizontal,vertical,vertical,horizontal,none,none
1b,5,100176,2,56,120,21,F,NA,constant,heterogeneous,5,absent,1.44515013694763,1,horizontal,horizontal,1,0.929393787384033,green,3,NaN,989.501930496736,429.371695378491,NaN,NaN,746.982518841471,849.42763818712,1020.83647796503,727.5,989.501930496736,429.371695378491,696.282156015671,367.045908301137,546.39691668109,626.654758133252,0,0,6,0,4,3,5,NaN,vertical,vertical,horizontal,vertical,vertical,none
1b,5,100176,2,57,121,21,F,NA,constant,heterogeneous,3,present,0.518213987350464,1,vertical,vertical,1,0.999978170394897,green,1,2,804.450363641507,854.96116226488,1018.57766167904,468.665290897936,804.450363641507,854.96116226488,1018.57766167904,468.665290897936,576.971974679454,476.373546837184,0,0,0,0,0,0,4,6,6,NaN,NaN,NaN,vertical,horizontal,horizontal,none,none,none
1b,5,100176,2,58,122,21,F,NA,constant,heterogeneous,4,absent,0.892822027206421,1,vertical,vertical,1,0.999978170394897,green,4,NaN,583.747735480111,464.870587620533,NaN,NaN,664.870587620533,816.252264519889,1016.25226451989,735.129412379467,935.129412379467,383.747735480111,583.747735480111,464.870587620533,0,0,0,0,3,5,0,4,NaN,NaN,horizontal,vertical,horizontal,vertical,none,none
1b,5,100176,2,59,123,21,F,NA,constant,heterogeneous,5,absent,0.724277973175049,1,vertical,vertical,1,1.07056255340576,green,1,NaN,923.626453162816,823.028025320546,NaN,NaN,923.626453162816,823.028025320546,1050.31493177915,551.343706178981,831.076682568313,346.900731331463,568.891514305654,492.232343256122,626.090418184063,786.495193912888,0,0,4,6,6,5,0,NaN,vertical,vertical,vertical,vertical,vertical,none
1b,5,100176,2,60,124,21,F,NA,constant,heterogeneous,3,present,0.730271100997925,1,horizontal,horizontal,1,0.976450042724609,green,3,1,616.568350913644,422.862115532956,738.309916622085,847.425410200379,738.309916622085,847.425410200379,1045.12173246427,529.712474266665,616.568350913644,422.862115532956,0,0,0,0,0,0,0,5,4,NaN,NaN,NaN,vertical,vertical,horizontal,none,none,none
1b,5,100176,2,61,125,21,F,NA,constant,heterogeneous,3,present,0.607244968414307,1,horizontal,horizontal,1,0.694112510681152,green,3,1,576.971974679454,476.373546837184,804.450363641507,854.96116226488,804.450363641507,854.96116226488,1018.57766167904,468.665290897936,576.971974679454,476.373546837184,0,0,0,0,0,0,0,3,4,NaN,NaN,NaN,vertical,vertical,horizontal,none,none,none
1b,5,100176,2,62,126,21,F,NA,constant,heterogeneous,6,absent,0.844007015228271,1,horizontal,horizontal,1,0.623528127670288,green,1,NaN,878.799333565612,842.519411655264,NaN,NaN,878.799333565612,842.519411655264,1049.42763818712,653.017481158529,970.628304621509,410.498069503264,721.200666434388,357.480588344736,550.57236181288,546.982518841471,629.371695378491,789.501930496736,4,0,3,0,6,6,horizontal,vertical,vertical,vertical,vertical,horizontal
1b,5,100176,2,63,127,21,F,NA,constant,heterogeneous,3,present,0.541922092437744,1,vertical,vertical,1,0.847045340538025,green,3,2,773.345241866748,346.39691668109,1032.95409169886,703.717843984329,593.700666434388,749.885239334581,1032.95409169886,703.717843984329,773.345241866748,346.39691668109,0,0,0,0,0,0,3,6,4,NaN,NaN,NaN,horizontal,horizontal,vertical,none,none,none
1b,5,100176,2,64,128,21,F,NA,constant,heterogeneous,3,absent,0.739723920822144,1,vertical,vertical,1,0.929393787384033,green,1,NaN,903.717843984329,832.954091698863,NaN,NaN,903.717843984329,832.954091698863,949.885239334581,393.700666434388,546.39691668109,573.345241866748,0,0,0,0,0,0,4,0,3,NaN,NaN,NaN,vertical,horizontal,horizontal,none,none,none
1b,5,100176,3,1,129,21,F,NA,constant,heterogeneous,4,absent,0.515126943588257,1,vertical,vertical,1,1.09409068107605,green,4,NaN,574.848363820974,719.715248510402,NaN,NaN,919.715248510402,825.151636179026,1025.15163617903,480.284751489598,680.284751489598,374.848363820974,574.848363820974,719.715248510402,0,0,0,0,0,5,6,4,NaN,NaN,vertical,horizontal,vertical,vertical,none,none
1b,5,100176,3,2,130,21,F,NA,constant,heterogeneous,3,present,0.49545693397522,1,horizontal,horizontal,1,0.894101595878601,green,1,3,786.654331158049,854.650531362416,586.139005173917,461.117046071168,786.654331158049,854.650531362416,1027.20666366803,484.232422566416,586.139005173917,461.117046071168,0,0,0,0,0,0,4,0,6,NaN,NaN,NaN,horizontal,horizontal,horizontal,none,none,none
1b,5,100176,3,3,131,21,F,NA,constant,heterogeneous,3,absent,0.650583982467651,1,horizontal,horizontal,1,0.858809404373169,green,3,NaN,725.445215295702,356.142287229426,NaN,NaN,626.090418184063,786.495193912888,1048.46436652023,657.362518857686,725.445215295702,356.142287229426,0,0,0,0,0,0,6,0,4,NaN,NaN,NaN,vertical,horizontal,horizontal,none,none,none
1b,5,100176,3,4,132,21,F,NA,constant,heterogeneous,3,present,0.545642852783203,1,vertical,vertical,1,0.694112510681152,green,1,3,629.371695378491,789.501930496736,721.200666434388,357.480588344736,629.371695378491,789.501930496736,1049.42763818712,653.017481158529,721.200666434388,357.480588344736,0,0,0,0,0,0,4,0,3,NaN,NaN,NaN,vertical,horizontal,vertical,none,none,none
1b,5,100176,3,5,133,21,F,NA,constant,heterogeneous,6,present,NaN,0,horizontal,none,0,0.929393787384033,green,3,5,1053.60308331891,573.345241866748,650.114760665419,393.700666434388,696.282156015671,832.954091698863,949.885239334581,806.299333565612,1053.60308331891,573.345241866748,903.717843984329,367.045908301137,650.114760665419,393.700666434388,546.39691668109,626.654758133252,3,5,4,5,0,3,vertical,horizontal,horizontal,horizontal,vertical,vertical
1b,5,100176,3,6,134,21,F,NA,constant,heterogeneous,5,present,0.692027807235718,1,vertical,vertical,1,0.6,green,3,5,887.215136548046,360.378381699593,588.595418998464,742.594190385041,870.287525733335,845.121732464271,1054.84466088987,608.899371659138,887.215136548046,360.378381699593,599.057257830286,443.006323791957,588.595418998464,742.594190385041,0,0,6,6,4,0,3,NaN,vertical,horizontal,vertical,vertical,vertical,none
1b,5,100176,3,7,135,21,F,NA,constant,heterogeneous,5,absent,0.773342847824097,1,horizontal,horizontal,1,0.776460957527161,green,2,NaN,956.993676208043,800.942742169714,NaN,NaN,657.405809614959,811.404581001536,956.993676208043,800.942742169714,1039.62161830041,512.784863451954,791.100628340862,345.155339110131,554.878267535729,529.712474266665,0,0,3,4,6,0,6,NaN,horizontal,horizontal,horizontal,vertical,vertical,none
1b,5,100176,3,8,136,21,F,NA,constant,heterogeneous,3,absent,0.555356979370117,1,vertical,vertical,1,0.929393787384033,green,3,NaN,664.870587620533,383.747735480111,NaN,NaN,680.284751489598,825.151636179026,1054.84466088987,591.100628340862,664.870587620533,383.747735480111,0,0,0,0,0,0,5,0,4,NaN,NaN,NaN,vertical,horizontal,vertical,none,none,none
1b,5,100176,3,9,137,21,F,NA,constant,heterogeneous,4,present,1.20063304901123,1,vertical,vertical,1,1.09409068107605,green,2,1,1051.12597701811,555.719714694933,844.280285305067,851.125977018113,844.280285305067,851.125977018113,1051.12597701811,555.719714694933,755.719714694933,348.874022981887,548.874022981887,644.280285305067,0,0,0,0,5,4,3,0,NaN,NaN,horizontal,vertical,horizontal,vertical,none,none
1b,5,100176,3,10,138,21,F,NA,constant,heterogeneous,4,present,1.07493090629578,1,vertical,vertical,1,0.705876574516296,green,3,4,942.594190385041,388.595418998464,588.595418998464,457.40580961496,657.405809614959,811.404581001536,1011.40458100154,742.594190385041,942.594190385041,388.595418998464,588.595418998464,457.40580961496,0,0,0,0,0,6,4,5,NaN,NaN,vertical,horizontal,vertical,horizontal,none,none
1b,5,100176,3,11,139,21,F,NA,constant,heterogeneous,6,absent,0.997483968734741,1,horizontal,horizontal,1,0.835281276702881,green,3,NaN,1051.12597701811,555.719714694933,NaN,NaN,712.784863451954,839.621618300407,963.910840470068,795.341332995339,1051.12597701811,555.719714694933,887.215136548046,360.378381699593,636.089159529932,404.658667004661,548.874022981887,644.280285305067,6,0,4,0,5,6,vertical,horizontal,horizontal,vertical,vertical,horizontal
1b,5,100176,3,12,140,21,F,NA,constant,heterogeneous,3,present,0.816776990890503,1,horizontal,horizontal,1,0.764696893692017,green,3,2,795.549636358493,345.03883773512,1023.02802532055,723.626453162816,581.422338320961,731.334709102064,1023.02802532055,723.626453162816,795.549636358493,345.03883773512,0,0,0,0,0,0,5,3,4,NaN,NaN,NaN,vertical,vertical,horizontal,none,none,none
1b,5,100176,3,13,141,21,F,NA,constant,heterogeneous,4,absent,1.20299601554871,1,horizontal,horizontal,1,0.694112510681152,green,2,NaN,983.431649086356,422.862115532956,NaN,NaN,977.137884467044,783.431649086356,983.431649086356,422.862115532956,622.862115532956,416.568350913644,616.568350913644,777.137884467044,0,0,0,0,5,4,3,6,NaN,NaN,vertical,horizontal,vertical,vertical,none,none
1b,5,100176,3,14,142,21,F,NA,constant,heterogeneous,6,absent,0.916691064834595,1,horizontal,horizontal,1,0.65882031917572,green,5,NaN,548.13947314824,560.109211414741,NaN,NaN,891.383827134052,838.063008756786,1051.86052685176,639.890788585259,960.476699717708,401.827779828472,708.616172865948,361.936991243214,548.13947314824,560.109211414741,639.523300282292,798.172220171528,5,3,6,3,4,0,horizontal,horizontal,vertical,vertical,horizontal,horizontal
1b,5,100176,3,15,143,21,F,NA,constant,heterogeneous,5,absent,0.568789958953857,1,horizontal,horizontal,1,1.08232661724091,green,4,NaN,557.480588344736,521.200666434388,NaN,NaN,949.885239334581,806.299333565612,1042.51941165526,521.200666434388,800,345,557.480588344736,521.200666434388,650.114760665419,806.299333565612,0,0,5,5,6,4,6,NaN,vertical,horizontal,vertical,horizontal,horizontal,none
1b,5,100176,3,16,144,21,F,NA,constant,heterogeneous,5,present,0.789372205734253,1,vertical,vertical,1,0.65882031917572,green,1,5,661.117046071168,813.860994826083,553.688914296288,534.001143498857,661.117046071168,813.860994826083,960.476699717708,798.172220171528,1038.06300875679,508.616172865948,786.654331158049,345.349468637584,553.688914296288,534.001143498857,0,0,4,3,5,0,3,NaN,vertical,vertical,horizontal,horizontal,vertical,none
1b,5,100176,3,17,145,21,F,NA,constant,heterogeneous,4,absent,1.7749400138855,0,horizontal,vertical,1,0.870573468208313,green,2,NaN,1006.29933356561,450.114760665419,NaN,NaN,949.885239334581,806.299333565612,1006.29933356561,450.114760665419,650.114760665419,393.700666434388,593.700666434388,749.885239334581,0,0,0,0,0,4,5,5,NaN,NaN,horizontal,horizontal,horizontal,horizontal,none,none
1b,5,100176,3,18,146,21,F,NA,constant,heterogeneous,5,absent,0.830528974533081,1,vertical,vertical,1,1.01174223423004,green,5,NaN,553.688914296288,534.001143498857,NaN,NaN,661.117046071168,813.860994826083,960.476699717708,798.172220171528,1038.06300875679,508.616172865948,786.654331158049,345.349468637584,553.688914296288,534.001143498857,0,0,3,0,0,3,4,NaN,vertical,vertical,vertical,horizontal,vertical,none
1b,5,100176,3,19,147,21,F,NA,constant,heterogeneous,5,present,0.748965978622437,1,horizontal,horizontal,1,1.07056255340576,green,3,1,813.345668841951,345.349468637584,938.882953928832,813.860994826083,938.882953928832,813.860994826083,1046.31108570371,534.001143498857,813.345668841951,345.349468637584,561.936991243214,508.616172865948,639.523300282292,798.172220171528,0,0,6,5,4,5,0,NaN,vertical,vertical,horizontal,horizontal,vertical,none
1b,5,100176,3,20,148,21,F,NA,constant,heterogeneous,5,present,0.771324872970581,1,vertical,vertical,1,0.952921915054321,green,4,5,742.637481142314,351.535633479765,545.970351986605,577.775285599347,700.363562235235,834.728737630372,992.450942956807,767.295052392579,1018.57766167904,468.665290897936,742.637481142314,351.535633479765,545.970351986605,577.775285599347,0,0,3,6,0,4,6,NaN,horizontal,horizontal,horizontal,vertical,vertical,none
1b,5,100176,3,21,149,21,F,NA,constant,heterogeneous,3,present,1.11161303520203,1,vertical,vertical,1,0.835281276702881,green,3,1,668.665290897936,381.422338320961,676.373546837184,823.028025320546,676.373546837184,823.028025320546,1054.96116226488,595.549636358493,668.665290897936,381.422338320961,0,0,0,0,0,0,6,6,4,NaN,NaN,NaN,horizontal,horizontal,vertical,none,none,none
1b,5,100176,3,22,150,21,F,NA,constant,heterogeneous,6,absent,0.72013783454895,1,horizontal,horizontal,1,0.905865659713745,green,2,NaN,995.341332995339,763.910840470068,NaN,NaN,755.719714694933,851.125977018113,995.341332995339,763.910840470068,1039.62161830041,512.784863451954,844.280285305067,348.874022981887,604.658667004661,436.089159529932,560.378381699593,687.215136548046,3,4,0,0,3,6,vertical,horizontal,horizontal,vertical,horizontal,vertical
1b,5,100176,3,23,151,21,F,NA,constant,heterogeneous,6,absent,1.298259973526,1,vertical,vertical,1,0.788225021362305,green,5,NaN,591.116228706307,453.738008730483,NaN,NaN,777.775285599347,854.029648013395,1008.88377129369,746.261991269517,1031.10848569435,492.232343256122,822.224714400653,345.970351986605,591.116228706307,453.738008730483,568.891514305654,707.767656743878,3,6,6,0,4,5,vertical,vertical,horizontal,horizontal,vertical,horizontal
1b,5,100176,3,24,152,21,F,NA,constant,heterogeneous,3,present,0.651894807815552,1,horizontal,horizontal,1,0.764696893692017,green,2,3,853.017481158529,350.57236181288,557.480588344736,678.799333565612,989.501930496736,770.628304621509,853.017481158529,350.57236181288,557.480588344736,678.799333565612,0,0,0,0,0,0,0,4,0,NaN,NaN,NaN,vertical,horizontal,horizontal,none,none,none
1b,5,100176,3,25,153,21,F,NA,constant,heterogeneous,4,present,1.10258507728577,1,horizontal,horizontal,1,0.682348446846008,green,2,3,1025.15163617903,719.715248510402,919.715248510402,374.848363820974,680.284751489598,825.151636179026,1025.15163617903,719.715248510402,919.715248510402,374.848363820974,574.848363820974,480.284751489598,0,0,0,0,5,4,0,5,NaN,NaN,vertical,horizontal,horizontal,horizontal,none,none
1b,5,100176,3,26,154,21,F,NA,constant,heterogeneous,5,absent,0.773339033126831,1,horizontal,horizontal,1,0.823517212867737,green,3,NaN,1020.83647796503,472.5,NaN,NaN,696.282156015671,832.954091698863,989.501930496736,770.628304621509,1020.83647796503,472.5,746.982518841471,350.57236181288,546.39691668109,573.345241866748,0,0,6,3,4,0,0,NaN,vertical,vertical,horizontal,vertical,horizontal,none
1b,5,100176,3,27,155,21,F,NA,constant,heterogeneous,6,present,0.659938097000122,1,vertical,vertical,1,0.952921915054321,green,5,1,570.807518193712,488.215357568785,817.787900804752,854.378832816255,817.787900804752,854.378832816255,1029.19248180629,711.784642431215,1011.40458100154,457.40580961496,782.212099195248,345.621167183745,570.807518193712,488.215357568785,588.595418998464,742.594190385041,5,3,5,3,4,6,horizontal,horizontal,vertical,vertical,vertical,horizontal
1b,5,100176,3,28,156,21,F,NA,constant,heterogeneous,5,absent,1.12243914604187,1,horizontal,horizontal,1,1.05879848957062,green,4,NaN,639.523300282292,401.827779828472,NaN,NaN,813.345668841951,854.650531362416,1046.31108570371,665.998856501143,938.882953928832,386.139005173917,639.523300282292,401.827779828472,561.936991243214,691.383827134052,0,0,6,5,3,4,0,NaN,vertical,vertical,horizontal,horizontal,vertical,none
1b,5,100176,3,29,157,21,F,NA,constant,heterogeneous,6,absent,0.693749189376831,1,horizontal,horizontal,1,0.835281276702881,green,5,NaN,568.891514305654,492.232343256122,NaN,NaN,822.224714400653,854.029648013395,1031.10848569435,707.767656743878,1008.88377129369,453.738008730483,777.775285599347,345.970351986605,568.891514305654,492.232343256122,591.116228706307,746.261991269517,3,6,0,3,4,5,horizontal,vertical,vertical,horizontal,horizontal,horizontal
1b,5,100176,3,30,158,21,F,NA,constant,heterogeneous,5,present,1.01388716697693,1,horizontal,horizontal,1,0.894101595878601,green,2,5,1054.65053136242,586.654331158049,601.827779828472,760.476699717708,891.383827134052,838.063008756786,1054.65053136242,586.654331158049,865.998856501143,353.688914296288,586.139005173917,461.117046071168,601.827779828472,760.476699717708,0,0,3,4,6,3,6,NaN,horizontal,horizontal,horizontal,vertical,vertical,none
1b,5,100176,3,31,159,21,F,NA,constant,heterogeneous,4,present,0.594161033630371,1,horizontal,horizontal,1,0.788225021362305,green,4,3,560.378381699593,512.784863451954,887.215136548046,360.378381699593,712.784863451954,839.621618300407,1039.62161830041,687.215136548046,887.215136548046,360.378381699593,560.378381699593,512.784863451954,0,0,0,0,3,6,3,4,NaN,NaN,horizontal,vertical,horizontal,horizontal,none,none
1b,5,100176,3,32,160,21,F,NA,constant,heterogeneous,4,absent,0.542850017547607,1,vertical,vertical,1,1.03527036190033,green,4,NaN,546.900731331463,568.923317431687,NaN,NaN,768.923317431687,853.099268668537,1053.09926866854,631.076682568313,831.076682568313,346.900731331463,546.900731331463,568.923317431687,0,0,0,0,5,6,6,4,NaN,NaN,horizontal,vertical,vertical,vertical,none,none
1b,5,100176,3,33,161,21,F,NA,constant,heterogeneous,5,absent,0.579635143280029,1,vertical,vertical,1,0.882337532043457,green,4,NaN,574.848363820974,480.284751489598,NaN,NaN,911.784642431215,829.192481806288,1052.5183575291,564.510859255183,844.280285305067,348.874022981887,574.848363820974,480.284751489598,616.568350913644,777.137884467044,0,0,3,6,0,4,0,NaN,horizontal,horizontal,horizontal,vertical,horizontal,none
1b,5,100176,3,34,162,21,F,NA,constant,heterogeneous,6,present,1.02096390724182,1,vertical,vertical,1,1.08232661724091,green,2,3,1047.42541020038,661.690083377915,977.137884467044,416.568350913644,870.287525733335,845.121732464271,1047.42541020038,661.690083377915,977.137884467044,416.568350913644,729.712474266665,354.878267535729,552.574589799621,538.309916622085,622.862115532956,783.431649086356,3,4,0,5,3,5,horizontal,vertical,horizontal,horizontal,vertical,horizontal
1b,5,100176,3,35,163,21,F,NA,constant,heterogeneous,4,absent,0.74767017364502,1,horizontal,horizontal,1,0.705876574516296,green,3,NaN,919.715248510402,374.848363820974,NaN,NaN,680.284751489598,825.151636179026,1025.15163617903,719.715248510402,919.715248510402,374.848363820974,574.848363820974,480.284751489598,0,0,0,0,0,0,4,3,NaN,NaN,vertical,horizontal,horizontal,vertical,none,none
1b,5,100176,3,36,164,21,F,NA,constant,heterogeneous,6,present,0.565491914749146,1,horizontal,horizontal,1,0.741168766021729,green,5,1,601.827779828472,439.523300282291,760.109211414741,851.86052685176,760.109211414741,851.86052685176,998.172220171528,760.476699717708,1038.06300875679,508.616172865948,839.890788585259,348.13947314824,601.827779828472,439.523300282291,561.936991243214,691.383827134052,0,6,6,0,4,5,horizontal,vertical,horizontal,horizontal,horizontal,vertical
1b,5,100176,3,37,165,21,F,NA,constant,heterogeneous,3,absent,0.990086078643799,1,horizontal,horizontal,1,0.647056255340576,green,2,NaN,1013.86099482608,461.117046071168,NaN,NaN,813.345668841951,854.650531362416,1013.86099482608,461.117046071168,572.793336331966,484.232422566416,0,0,0,0,0,0,3,4,0,NaN,NaN,NaN,horizontal,horizontal,vertical,none,none,none
1b,5,100176,3,38,166,21,F,NA,constant,heterogeneous,3,absent,0.529769897460938,1,vertical,vertical,1,0.788225021362305,green,2,NaN,831.076682568313,346.900731331463,NaN,NaN,1003.65205506206,753.462830903772,831.076682568313,346.900731331463,565.271262369628,699.636437764765,0,0,0,0,0,0,5,4,0,NaN,NaN,NaN,vertical,vertical,horizontal,none,none,none
1b,5,100176,3,39,167,21,F,NA,constant,heterogeneous,4,absent,1.05071306228638,1,vertical,vertical,1,0.905865659713745,green,1,NaN,817.787900804752,854.378832816255,NaN,NaN,817.787900804752,854.378832816255,1054.37883281626,582.212099195248,782.212099195248,345.621167183745,545.621167183745,617.787900804752,0,0,0,0,4,5,3,0,NaN,NaN,vertical,horizontal,horizontal,vertical,none,none
1b,5,100176,3,40,168,21,F,NA,constant,heterogeneous,6,present,0.619817972183228,1,vertical,vertical,1,0.988214106559753,green,5,3,563.568117085469,504.475318678942,1000.94274216971,443.006323791957,835.489140744817,852.518357529101,1036.43188291453,695.524681321058,1000.94274216971,443.006323791957,764.510859255183,347.4816424709,563.568117085469,504.475318678942,599.057257830286,756.993676208043,0,5,6,5,4,3,horizontal,horizontal,horizontal,horizontal,vertical,horizontal
1b,5,100176,3,41,169,21,F,NA,constant,heterogeneous,5,absent,0.805299043655396,1,vertical,vertical,1,0.647056255340576,green,1,NaN,931.334709102064,818.577661679039,NaN,NaN,931.334709102064,818.577661679039,1048.46436652023,542.637481142314,822.224714400653,345.970351986605,565.271262369628,500.363562235235,632.704947607421,792.450942956807,0,0,4,0,6,0,5,NaN,vertical,vertical,horizontal,horizontal,horizontal,none
1b,5,100176,3,42,170,21,F,NA,constant,heterogeneous,5,present,0.787227153778076,1,horizontal,horizontal,1,0.694112510681152,green,5,2,545.970351986605,577.775285599347,992.450942956807,767.295052392579,700.363562235235,834.728737630372,992.450942956807,767.295052392579,1018.57766167904,468.665290897936,742.637481142314,351.535633479765,545.970351986605,577.775285599347,0,0,6,5,0,3,4,NaN,horizontal,horizontal,horizontal,vertical,horizontal,none
1b,5,100176,3,43,171,21,F,NA,constant,heterogeneous,4,absent,1.04573607444763,1,horizontal,horizontal,1,0.71764063835144,green,1,NaN,967.295052392579,792.450942956807,NaN,NaN,967.295052392579,792.450942956807,992.450942956807,432.704947607421,632.704947607421,407.549057043193,607.549057043193,767.295052392579,0,0,0,0,4,3,5,0,NaN,NaN,horizontal,horizontal,horizontal,vertical,none,none
1b,5,100176,3,44,172,21,F,NA,constant,heterogeneous,6,present,1.15450191497803,1,horizontal,horizontal,1,0.976450042724609,green,2,4,1054.84466088987,608.899371659138,680.284751489598,374.848363820974,919.715248510402,825.151636179026,1054.84466088987,608.899371659138,935.129412379467,383.747735480111,680.284751489598,374.848363820974,545.155339110131,591.100628340862,664.870587620533,816.252264519889,6,4,5,0,5,3,vertical,horizontal,vertical,horizontal,vertical,vertical
1b,5,100176,3,45,173,21,F,NA,constant,heterogeneous,6,present,0.858071088790894,1,horizontal,horizontal,1,0.811753149032593,green,3,6,956.993676208043,399.057257830286,643.006323791957,800.942742169714,895.524681321058,836.431882914531,1052.5183575291,635.489140744817,956.993676208043,399.057257830286,704.475318678942,363.568117085469,547.481642470899,564.510859255183,643.006323791957,800.942742169714,3,3,4,6,6,5,vertical,horizontal,horizontal,horizontal,horizontal,horizontal
1b,5,100176,3,46,174,21,F,NA,constant,heterogeneous,3,present,1.00537514686584,1,horizontal,horizontal,1,0.694112510681152,green,1,3,721.200666434388,842.519411655264,629.371695378491,410.498069503264,721.200666434388,842.519411655264,1049.42763818712,546.982518841471,629.371695378491,410.498069503264,0,0,0,0,0,0,4,3,5,NaN,NaN,NaN,horizontal,vertical,vertical,none,none,none
1b,5,100176,3,47,175,21,F,NA,constant,heterogeneous,4,present,0.60624098777771,1,horizontal,horizontal,1,1.03527036190033,green,3,1,887.215136548046,360.378381699593,712.784863451954,839.621618300407,712.784863451954,839.621618300407,1039.62161830041,687.215136548046,887.215136548046,360.378381699593,560.378381699593,512.784863451954,0,0,0,0,6,6,4,3,NaN,NaN,vertical,vertical,horizontal,horizontal,none,none
1b,5,100176,3,48,176,21,F,NA,constant,heterogeneous,4,present,0.709076881408691,1,vertical,vertical,1,0.917629723548889,green,3,4,708.616172865948,361.936991243214,561.936991243214,691.383827134052,891.383827134052,838.063008756786,1038.06300875679,508.616172865948,708.616172865948,361.936991243214,561.936991243214,691.383827134052,0,0,0,0,6,3,4,5,NaN,NaN,vertical,vertical,vertical,horizontal,none,none
1b,5,100176,3,49,177,21,F,NA,constant,heterogeneous,3,present,0.569222927093506,1,vertical,vertical,1,0.894101595878601,green,2,3,1054.96116226488,604.450363641507,676.373546837184,376.971974679454,668.665290897936,818.577661679039,1054.96116226488,604.450363641507,676.373546837184,376.971974679454,0,0,0,0,0,0,0,4,6,NaN,NaN,NaN,vertical,vertical,horizontal,none,none,none
1b,5,100176,3,50,178,21,F,NA,constant,heterogeneous,5,present,0.671419858932495,1,vertical,vertical,1,0.729404702186584,green,5,4,568.891514305654,707.767656743878,626.090418184063,413.504806087112,831.076682568313,853.099268668537,1050.31493177915,648.656293821019,923.626453162816,376.971974679454,626.090418184063,413.504806087112,568.891514305654,707.767656743878,0,0,0,5,6,3,4,NaN,vertical,vertical,vertical,vertical,vertical,none
1b,5,100176,3,51,179,21,F,NA,constant,heterogeneous,3,absent,0.689122915267944,1,horizontal,horizontal,1,1.01174223423004,green,1,NaN,672.5,820.836477965032,NaN,NaN,672.5,820.836477965032,1055,600,672.5,379.163522034968,0,0,0,0,0,0,4,5,6,NaN,NaN,NaN,horizontal,vertical,horizontal,none,none,none
1b,5,100176,3,52,180,21,F,NA,constant,heterogeneous,6,absent,1.16466879844666,1,vertical,vertical,1,1.07056255340576,green,1,NaN,804.450363641507,854.96116226488,NaN,NaN,804.450363641507,854.96116226488,1023.02802532055,723.626453162816,1018.57766167904,468.665290897936,795.549636358493,345.03883773512,576.971974679454,476.373546837184,581.422338320961,731.334709102064,4,5,3,3,0,5,vertical,vertical,vertical,vertical,vertical,vertical
1b,5,100176,3,53,181,21,F,NA,constant,heterogeneous,3,absent,1.20151805877686,1,horizontal,horizontal,1,0.65882031917572,green,2,NaN,1054.96116226488,604.450363641507,NaN,NaN,668.665290897936,818.577661679039,1054.96116226488,604.450363641507,676.373546837184,376.971974679454,0,0,0,0,0,0,0,4,5,NaN,NaN,NaN,horizontal,horizontal,vertical,none,none,none
1b,5,100176,3,54,182,21,F,NA,constant,heterogeneous,6,present,0.691277980804443,1,vertical,vertical,1,0.882337532043457,green,6,4,547.481642470899,635.489140744817,895.524681321058,363.568117085469,704.475318678942,836.431882914531,956.993676208043,800.942742169714,1052.5183575291,564.510859255183,895.524681321058,363.568117085469,643.006323791957,399.057257830286,547.481642470899,635.489140744817,5,6,0,3,0,4,vertical,vertical,vertical,vertical,horizontal,vertical
1b,5,100176,3,55,183,21,F,NA,constant,heterogeneous,3,absent,1.00524187088013,1,vertical,vertical,1,0.799989085197449,green,3,NaN,576.971974679454,723.626453162816,NaN,NaN,1018.57766167904,731.334709102064,804.450363641507,345.03883773512,576.971974679454,723.626453162816,0,0,0,0,0,0,5,3,4,NaN,NaN,NaN,horizontal,horizontal,vertical,none,none,none
1b,5,100176,3,56,184,21,F,NA,constant,heterogeneous,3,absent,0.526598930358887,1,vertical,vertical,1,0.858809404373169,green,1,NaN,791.100628340862,854.844660889869,NaN,NaN,791.100628340862,854.844660889869,1025.15163617903,480.284751489598,583.747735480111,464.870587620533,0,0,0,0,0,0,4,0,6,NaN,NaN,NaN,vertical,horizontal,horizontal,none,none,none
1b,5,100176,3,57,185,21,F,NA,constant,heterogeneous,4,present,0.564790010452271,1,vertical,vertical,1,0.776460957527161,green,4,1,545.970351986605,577.775285599347,777.775285599347,854.029648013395,777.775285599347,854.029648013395,1054.0296480134,622.224714400653,822.224714400653,345.970351986605,545.970351986605,577.775285599347,0,0,0,0,0,3,0,4,NaN,NaN,horizontal,horizontal,horizontal,vertical,none,none
1b,5,100176,3,58,186,21,F,NA,constant,heterogeneous,4,present,0.653232097625732,1,horizontal,horizontal,1,0.647056255340576,green,4,1,552.574589799621,661.690083377915,861.690083377915,847.425410200379,861.690083377915,847.425410200379,1047.42541020038,538.309916622085,738.309916622085,352.574589799621,552.574589799621,661.690083377915,0,0,0,0,0,6,5,4,NaN,NaN,vertical,horizontal,vertical,horizontal,none,none
1b,5,100176,3,59,187,21,F,NA,constant,heterogeneous,6,absent,0.802593946456909,1,vertical,vertical,1,0.6,green,1,NaN,777.775285599347,854.029648013395,NaN,NaN,777.775285599347,854.029648013395,1008.88377129369,746.261991269517,1031.10848569435,492.232343256122,822.224714400653,345.970351986605,591.116228706307,453.738008730483,568.891514305654,707.767656743878,4,5,0,6,3,3,vertical,horizontal,horizontal,horizontal,vertical,vertical
1b,5,100176,3,60,188,21,F,NA,constant,heterogeneous,4,absent,0.543678045272827,1,vertical,vertical,1,0.647056255340576,green,1,NaN,907.767656743878,831.108485694346,NaN,NaN,907.767656743878,831.108485694346,1031.10848569435,492.232343256122,692.232343256122,368.891514305654,568.891514305654,707.767656743878,0,0,0,0,4,3,6,5,NaN,NaN,vertical,horizontal,horizontal,horizontal,none,none
1b,5,100176,3,61,189,21,F,NA,constant,heterogeneous,3,present,0.992735862731934,1,vertical,vertical,1,1.09409068107605,green,2,1,1038.06300875679,508.616172865948,760.109211414741,851.86052685176,760.109211414741,851.86052685176,1038.06300875679,508.616172865948,601.827779828472,439.523300282291,0,0,0,0,0,0,6,4,0,NaN,NaN,NaN,horizontal,vertical,horizontal,none,none,none
1b,5,100176,3,62,190,21,F,NA,constant,heterogeneous,5,present,1.07930183410645,1,horizontal,horizontal,1,0.929393787384033,green,5,2,622.862115532956,783.431649086356,1051.12597701811,555.719714694933,919.715248510402,825.151636179026,1051.12597701811,555.719714694933,835.489140744817,347.4816424709,570.807518193712,488.215357568785,622.862115532956,783.431649086356,0,0,5,0,3,3,4,NaN,vertical,vertical,horizontal,vertical,horizontal,none
1b,5,100176,3,63,191,21,F,NA,constant,heterogeneous,6,absent,1.46987795829773,1,vertical,vertical,1,0.847045340538025,green,4,NaN,729.712474266665,354.878267535729,NaN,NaN,870.287525733335,845.121732464271,1047.42541020038,661.690083377915,977.137884467044,416.568350913644,729.712474266665,354.878267535729,552.574589799621,538.309916622085,622.862115532956,783.431649086356,6,6,5,4,0,0,vertical,vertical,horizontal,vertical,horizontal,vertical
1b,5,100176,3,64,192,21,F,NA,constant,heterogeneous,5,absent,0.95742392539978,1,vertical,vertical,1,1.09409068107605,green,1,NaN,688.215357568785,829.192481806288,NaN,NaN,688.215357568785,829.192481806288,983.431649086356,777.137884467044,1025.15163617903,480.284751489598,755.719714694933,348.874022981887,547.481642470899,564.510859255183,0,0,4,0,0,3,6,NaN,vertical,vertical,vertical,horizontal,horizontal,none
1b,5,100176,4,1,193,21,F,NA,constant,heterogeneous,4,present,0.913763999938965,1,horizontal,horizontal,1,0.729404702186584,green,3,4,817.787900804752,345.621167183745,545.621167183745,582.212099195248,782.212099195248,854.378832816255,1054.37883281626,617.787900804752,817.787900804752,345.621167183745,545.621167183745,582.212099195248,0,0,0,0,6,5,4,6,NaN,NaN,vertical,vertical,horizontal,vertical,none,none
1b,5,100176,4,2,194,21,F,NA,constant,heterogeneous,3,present,0.54473614692688,1,horizontal,horizontal,1,1.03527036190033,green,2,1,861.690083377915,352.574589799621,983.431649086356,777.137884467044,983.431649086356,777.137884467044,861.690083377915,352.574589799621,554.878267535729,670.287525733335,0,0,0,0,0,0,0,4,0,NaN,NaN,NaN,horizontal,horizontal,horizontal,none,none,none
1b,5,100176,4,3,195,21,F,NA,constant,heterogeneous,3,present,0.499881982803345,1,horizontal,horizontal,1,1.01174223423004,green,3,2,760.109211414741,348.13947314824,1038.06300875679,691.383827134052,601.827779828472,760.476699717708,1038.06300875679,691.383827134052,760.109211414741,348.13947314824,0,0,0,0,0,0,6,3,4,NaN,NaN,NaN,horizontal,horizontal,horizontal,none,none,none
1b,5,100176,4,4,196,21,F,NA,constant,heterogeneous,3,present,0.588047981262207,1,horizontal,horizontal,1,0.894101595878601,green,1,3,1003.65205506206,753.462830903772,565.271262369628,699.636437764765,1003.65205506206,753.462830903772,831.076682568313,346.900731331463,565.271262369628,699.636437764765,0,0,0,0,0,0,4,0,3,NaN,NaN,NaN,horizontal,horizontal,vertical,none,none,none
1b,5,100176,4,5,197,21,F,NA,constant,heterogeneous,5,absent,0.736953973770142,1,horizontal,horizontal,1,0.835281276702881,green,5,NaN,549.685068220846,551.343706178981,NaN,NaN,676.373546837184,823.028025320546,973.909581815937,786.495193912888,1031.10848569435,492.232343256122,768.923317431687,346.900731331463,549.685068220846,551.343706178981,0,0,5,0,3,6,4,NaN,vertical,horizontal,horizontal,vertical,horizontal,none
1b,5,100176,4,6,198,21,F,NA,constant,heterogeneous,6,absent,NaN,0,horizontal,none,0,1.02350629806519,green,3,NaN,1008.88377129369,453.738008730483,NaN,NaN,822.224714400653,854.029648013395,1031.10848569435,707.767656743878,1008.88377129369,453.738008730483,777.775285599347,345.970351986605,568.891514305654,492.232343256122,591.116228706307,746.261991269517,3,0,4,5,3,6,horizontal,horizontal,horizontal,vertical,horizontal,vertical
1b,5,100176,4,7,199,21,F,NA,constant,heterogeneous,3,absent,1.22190999984741,1,vertical,vertical,1,0.682348446846008,green,2,NaN,1049.42763818712,546.982518841471,NaN,NaN,721.200666434388,842.519411655264,1049.42763818712,546.982518841471,629.371695378491,410.498069503264,0,0,0,0,0,0,5,4,3,NaN,NaN,NaN,horizontal,vertical,horizontal,none,none,none
1b,5,100176,4,8,200,21,F,NA,constant,heterogeneous,5,absent,1.03910207748413,1,horizontal,horizontal,1,0.611764063835144,green,1,NaN,661.117046071168,813.860994826083,NaN,NaN,661.117046071168,813.860994826083,960.476699717708,798.172220171528,1038.06300875679,508.616172865948,786.654331158049,345.349468637584,553.688914296288,534.001143498857,0,0,4,3,0,6,3,NaN,horizontal,vertical,horizontal,vertical,horizontal,none
1b,5,100176,4,9,201,21,F,NA,constant,heterogeneous,4,absent,0.817487001419067,1,vertical,vertical,1,0.870573468208313,green,2,NaN,1008.88377129369,453.738008730483,NaN,NaN,946.261991269517,808.883771293693,1008.88377129369,453.738008730483,653.738008730483,391.116228706307,591.116228706307,746.261991269517,0,0,0,0,6,4,6,0,NaN,NaN,horizontal,vertical,horizontal,vertical,none,none
1b,5,100176,4,10,202,21,F,NA,constant,heterogeneous,5,present,0.785971164703369,1,vertical,vertical,1,0.6,green,3,4,857.362518857686,351.535633479765,581.422338320961,468.665290897936,899.636437764765,834.728737630372,1054.0296480134,577.775285599347,857.362518857686,351.535633479765,581.422338320961,468.665290897936,607.549057043193,767.295052392579,0,0,0,3,4,6,0,NaN,horizontal,vertical,vertical,horizontal,horizontal,none
1b,5,100176,4,11,203,21,F,NA,constant,heterogeneous,5,present,0.740863084793091,1,vertical,vertical,1,0.952921915054321,green,3,4,973.909581815937,413.504806087112,676.373546837184,376.971974679454,768.923317431687,853.099268668537,1031.10848569435,707.767656743878,973.909581815937,413.504806087112,676.373546837184,376.971974679454,549.685068220846,648.656293821019,0,0,5,5,4,6,3,NaN,vertical,horizontal,vertical,horizontal,horizontal,none
1b,5,100176,4,12,204,21,F,NA,constant,heterogeneous,4,present,0.55769681930542,1,vertical,vertical,1,1.09409068107605,green,2,3,995.341332995339,763.910840470068,963.910840470068,404.658667004661,636.089159529932,795.341332995339,995.341332995339,763.910840470068,963.910840470068,404.658667004661,604.658667004661,436.089159529932,0,0,0,0,3,4,6,5,NaN,NaN,horizontal,vertical,horizontal,vertical,none,none
1b,5,100176,4,13,205,21,F,NA,constant,heterogeneous,6,present,0.58781099319458,1,vertical,vertical,1,0.941157851219177,green,1,6,808.899371659138,854.844660889869,583.747735480111,735.129412379467,808.899371659138,854.844660889869,1025.15163617903,719.715248510402,1016.25226451989,464.870587620533,791.100628340862,345.155339110131,574.848363820974,480.284751489598,583.747735480111,735.129412379467,4,6,5,0,3,3,vertical,horizontal,horizontal,vertical,vertical,horizontal
1b,5,100176,4,14,206,21,F,NA,constant,heterogeneous,5,absent,0.570573091506958,1,vertical,vertical,1,0.729404702186584,green,5,NaN,619.68777079743,780.31222920257,NaN,NaN,915.767577433584,827.206663668034,1051.86052685176,560.109211414741,839.890788585259,348.13947314824,572.793336331966,484.232422566416,619.68777079743,780.31222920257,0,0,0,6,0,6,4,NaN,horizontal,vertical,vertical,horizontal,vertical,none
1b,5,100176,4,15,207,21,F,NA,constant,heterogeneous,3,present,0.512648105621338,1,vertical,vertical,1,0.729404702186584,green,2,1,1042.51941165526,678.799333565612,610.498069503264,770.628304621509,610.498069503264,770.628304621509,1042.51941165526,678.799333565612,746.982518841471,350.57236181288,0,0,0,0,0,0,5,4,0,NaN,NaN,NaN,horizontal,vertical,horizontal,none,none,none
1b,5,100176,4,16,208,21,F,NA,constant,heterogeneous,3,present,0.703305959701538,1,vertical,vertical,1,0.811753149032593,green,2,1,804.450363641507,345.03883773512,1018.57766167904,731.334709102064,1018.57766167904,731.334709102064,804.450363641507,345.03883773512,576.971974679454,723.626453162816,0,0,0,0,0,0,5,4,5,NaN,NaN,NaN,vertical,vertical,horizontal,none,none,none
1b,5,100176,4,17,209,21,F,NA,constant,heterogeneous,6,absent,0.891477108001709,1,vertical,vertical,1,0.705876574516296,green,3,NaN,1053.09926866854,568.923317431687,NaN,NaN,700.363562235235,834.728737630372,953.462830903772,803.65205506206,1053.09926866854,568.923317431687,899.636437764765,365.271262369628,646.537169096228,396.34794493794,546.900731331463,631.076682568313,5,6,4,0,3,0,horizontal,horizontal,vertical,horizontal,horizontal,vertical
1b,5,100176,4,18,210,21,F,NA,constant,heterogeneous,4,present,0.62935209274292,1,vertical,vertical,1,0.6,green,3,4,831.076682568313,346.900731331463,546.900731331463,568.923317431687,768.923317431687,853.099268668537,1053.09926866854,631.076682568313,831.076682568313,346.900731331463,546.900731331463,568.923317431687,0,0,0,0,0,3,4,6,NaN,NaN,horizontal,vertical,vertical,horizontal,none,none
1b,5,100176,4,19,211,21,F,NA,constant,heterogeneous,6,present,0.638962984085083,1,vertical,vertical,1,1.03527036190033,green,1,5,857.362518857686,848.464366520235,556.142287229426,525.445215295702,857.362518857686,848.464366520235,1043.85771277057,674.554784704298,986.495193912888,426.090418184063,742.637481142314,351.535633479765,556.142287229426,525.445215295702,613.504806087112,773.909581815937,4,0,0,3,6,6,vertical,vertical,horizontal,horizontal,vertical,vertical
1b,5,100176,4,20,212,21,F,NA,constant,heterogeneous,6,absent,0.792339086532593,1,horizontal,horizontal,1,1.02350629806519,green,6,NaN,572.793336331966,715.767577433584,NaN,NaN,786.654331158049,854.650531362416,1013.86099482608,738.882953928832,1027.20666366803,484.232422566416,813.345668841951,345.349468637584,586.139005173917,461.117046071168,572.793336331966,715.767577433584,3,0,6,5,6,4,vertical,vertical,vertical,horizontal,horizontal,horizontal
1b,5,100176,4,21,213,21,F,NA,constant,heterogeneous,3,absent,0.599740028381348,1,vertical,vertical,1,0.976450042724609,green,1,NaN,995.341332995339,763.910840470068,NaN,NaN,995.341332995339,763.910840470068,844.280285305067,348.874022981887,560.378381699593,687.215136548046,0,0,0,0,0,0,4,6,5,NaN,NaN,NaN,vertical,horizontal,horizontal,none,none,none
1b,5,100176,4,22,214,21,F,NA,constant,heterogeneous,4,absent,0.530758857727051,1,vertical,vertical,1,0.929393787384033,green,4,NaN,552.574589799621,538.309916622085,NaN,NaN,738.309916622085,847.425410200379,1047.42541020038,661.690083377915,861.690083377915,352.574589799621,552.574589799621,538.309916622085,0,0,0,0,6,3,6,4,NaN,NaN,horizontal,vertical,vertical,vertical,none,none
1b,5,100176,4,23,215,21,F,NA,constant,heterogeneous,4,absent,0.783488988876343,1,horizontal,horizontal,1,0.694112510681152,green,1,NaN,935.129412379467,816.252264519889,NaN,NaN,935.129412379467,816.252264519889,1016.25226451989,464.870587620533,664.870587620533,383.747735480111,583.747735480111,735.129412379467,0,0,0,0,4,3,0,0,NaN,NaN,horizontal,horizontal,horizontal,horizontal,none,none
1b,5,100176,4,24,216,21,F,NA,constant,heterogeneous,5,present,0.720943927764893,1,vertical,vertical,1,0.682348446846008,green,2,5,1054.37883281626,582.212099195248,604.658667004661,763.910840470068,895.524681321058,836.431882914531,1054.37883281626,582.212099195248,861.690083377915,352.574589799621,583.747735480111,464.870587620533,604.658667004661,763.910840470068,0,0,0,4,5,5,0,NaN,vertical,vertical,horizontal,horizontal,vertical,none
1b,5,100176,4,25,217,21,F,NA,constant,heterogeneous,3,present,0.642375946044922,1,horizontal,horizontal,1,0.741168766021729,green,3,1,567.045908301137,496.282156015671,826.654758133252,853.60308331891,826.654758133252,853.60308331891,1006.29933356561,450.114760665419,567.045908301137,496.282156015671,0,0,0,0,0,0,3,5,4,NaN,NaN,NaN,vertical,horizontal,horizontal,none,none,none
1b,5,100176,4,26,218,21,F,NA,constant,heterogeneous,3,absent,0.717714071273804,1,horizontal,horizontal,1,0.71764063835144,green,1,NaN,636.089159529932,795.341332995339,NaN,NaN,636.089159529932,795.341332995339,1051.12597701811,644.280285305067,712.784863451954,360.378381699593,0,0,0,0,0,0,4,3,0,NaN,NaN,NaN,horizontal,vertical,horizontal,none,none,none
1b,5,100176,4,27,219,21,F,NA,constant,heterogeneous,5,present,0.663618087768555,1,horizontal,horizontal,1,0.764696893692017,green,3,2,956.993676208043,399.057257830286,1039.62161830041,687.215136548046,791.100628340862,854.844660889869,1039.62161830041,687.215136548046,956.993676208043,399.057257830286,657.405809614959,388.595418998464,554.878267535729,670.287525733335,0,0,0,6,4,0,3,NaN,horizontal,horizontal,horizontal,vertical,horizontal,none
1b,5,100176,4,28,220,21,F,NA,constant,heterogeneous,5,absent,1.05644798278809,1,vertical,vertical,1,0.776460957527161,green,2,NaN,956.993676208043,800.942742169714,NaN,NaN,657.405809614959,811.404581001536,956.993676208043,800.942742169714,1039.62161830041,512.784863451954,791.100628340862,345.155339110131,554.878267535729,529.712474266665,0,0,5,4,3,0,5,NaN,vertical,vertical,horizontal,vertical,vertical,none
1b,5,100176,4,29,221,21,F,NA,constant,heterogeneous,6,absent,1.35988903045654,1,vertical,vertical,1,0.71764063835144,green,1,NaN,725.445215295702,843.857712770574,NaN,NaN,725.445215295702,843.857712770574,973.909581815937,786.495193912888,1048.46436652023,542.637481142314,874.554784704298,356.142287229426,626.090418184063,413.504806087112,551.535633479765,657.362518857686,4,0,5,6,6,3,vertical,vertical,vertical,vertical,vertical,horizontal
1b,5,100176,4,30,222,21,F,NA,constant,heterogeneous,3,absent,0.486253023147583,1,vertical,vertical,1,0.741168766021729,green,2,NaN,949.885239334581,393.700666434388,NaN,NaN,903.717843984329,832.954091698863,949.885239334581,393.700666434388,546.39691668109,573.345241866748,0,0,0,0,0,0,0,4,0,NaN,NaN,NaN,vertical,vertical,horizontal,none,none,none
1b,5,100176,4,31,223,21,F,NA,constant,heterogeneous,5,absent,0.735630035400391,1,horizontal,horizontal,1,0.776460957527161,green,5,NaN,545.155339110131,608.899371659138,NaN,NaN,729.712474266665,845.121732464271,1011.40458100154,742.594190385041,1000.94274216971,443.006323791957,712.784863451954,360.378381699593,545.155339110131,608.899371659138,0,0,3,5,5,0,4,NaN,horizontal,vertical,vertical,vertical,horizontal,none
1b,5,100176,4,32,224,21,F,NA,constant,heterogeneous,6,present,0.560619831085205,1,vertical,vertical,1,0.905865659713745,green,3,4,942.594190385041,388.595418998464,688.215357568785,370.807518193712,911.784642431215,829.192481806288,1054.37883281626,617.787900804752,942.594190385041,388.595418998464,688.215357568785,370.807518193712,545.621167183745,582.212099195248,657.405809614959,811.404581001536,5,5,4,6,3,6,horizontal,horizontal,vertical,horizontal,vertical,horizontal
1b,5,100176,4,33,225,21,F,NA,constant,heterogeneous,5,absent,0.78134298324585,1,horizontal,horizontal,1,0.670584383010864,green,3,NaN,800,345,NaN,NaN,949.885239334581,806.299333565612,1042.51941165526,521.200666434388,800,345,557.480588344736,521.200666434388,650.114760665419,806.299333565612,0,0,3,6,4,3,5,NaN,vertical,horizontal,horizontal,vertical,vertical,none
1b,5,100176,4,34,226,21,F,NA,constant,heterogeneous,3,absent,0.599848031997681,1,horizontal,horizontal,1,0.929393787384033,green,2,NaN,1029.19248180629,711.784642431215,NaN,NaN,588.595418998464,742.594190385041,1029.19248180629,711.784642431215,782.212099195248,345.621167183745,0,0,0,0,0,0,6,4,5,NaN,NaN,NaN,horizontal,horizontal,horizontal,none,none,none
1b,5,100176,4,35,227,21,F,NA,constant,heterogeneous,4,present,0.428508996963501,1,horizontal,horizontal,1,0.823517212867737,green,3,1,808.899371659138,345.155339110131,791.100628340862,854.844660889869,791.100628340862,854.844660889869,1054.84466088987,608.899371659138,808.899371659138,345.155339110131,545.155339110131,591.100628340862,0,0,0,0,5,3,4,6,NaN,NaN,horizontal,vertical,horizontal,horizontal,none,none
1b,5,100176,4,36,228,21,F,NA,constant,heterogeneous,5,present,0.909438848495483,0,horizontal,vertical,1,0.811753149032593,green,2,5,1016.25226451989,735.129412379467,545.621167183745,617.787900804752,738.309916622085,847.425410200379,1016.25226451989,735.129412379467,995.341332995339,436.089159529932,704.475318678942,363.568117085469,545.621167183745,617.787900804752,0,0,5,4,6,0,3,NaN,vertical,horizontal,horizontal,horizontal,horizontal,none
1b,5,100176,4,37,229,21,F,NA,constant,heterogeneous,4,present,0.693433046340942,1,vertical,vertical,1,0.882337532043457,green,4,1,567.045908301137,496.282156015671,696.282156015671,832.954091698863,696.282156015671,832.954091698863,1032.95409169886,703.717843984329,903.717843984329,367.045908301137,567.045908301137,496.282156015671,0,0,0,0,5,6,3,4,NaN,NaN,horizontal,horizontal,horizontal,vertical,none,none
1b,5,100176,4,38,230,21,F,NA,constant,heterogeneous,4,absent,0.743387937545776,1,horizontal,horizontal,1,0.988214106559753,green,2,NaN,1054.96116226488,604.450363641507,NaN,NaN,795.549636358493,854.96116226488,1054.96116226488,604.450363641507,804.450363641507,345.03883773512,545.03883773512,595.549636358493,0,0,0,0,0,4,3,6,NaN,NaN,horizontal,horizontal,horizontal,vertical,none,none
1b,5,100176,4,39,231,21,F,NA,constant,heterogeneous,4,present,1.04785895347595,1,horizontal,horizontal,1,1.07056255340576,green,2,1,998.172220171528,760.476699717708,639.523300282292,798.172220171528,639.523300282292,798.172220171528,998.172220171528,760.476699717708,960.476699717708,401.827779828472,601.827779828472,439.523300282291,0,0,0,0,0,4,3,5,NaN,NaN,vertical,horizontal,horizontal,horizontal,none,none
1b,5,100176,4,40,232,21,F,NA,constant,heterogeneous,6,absent,0.773592948913574,1,horizontal,horizontal,1,0.623528127670288,green,3,NaN,992.450942956807,432.704947607421,NaN,NaN,848.656293821019,850.314931779154,1041.10723677783,683.019879386575,992.450942956807,432.704947607421,751.343706178981,349.685068220846,558.892763222174,516.980120613425,607.549057043193,767.295052392579,5,0,4,6,3,6,horizontal,horizontal,horizontal,horizontal,vertical,horizontal
1b,5,100176,4,41,233,21,F,NA,constant,heterogeneous,3,absent,1.00001215934753,1,vertical,vertical,1,0.741168766021729,green,1,NaN,639.523300282292,798.172220171528,NaN,NaN,639.523300282292,798.172220171528,1051.86052685176,639.890788585259,708.616172865948,361.936991243214,0,0,0,0,0,0,4,0,3,NaN,NaN,NaN,vertical,vertical,vertical,none,none,none
1b,5,100176,4,42,234,21,F,NA,constant,heterogeneous,4,present,0.553938150405884,1,vertical,vertical,1,1.08232661724091,green,3,2,919.715248510402,374.848363820974,1025.15163617903,719.715248510402,680.284751489598,825.151636179026,1025.15163617903,719.715248510402,919.715248510402,374.848363820974,574.848363820974,480.284751489598,0,0,0,0,6,5,4,0,NaN,NaN,vertical,vertical,vertical,vertical,none,none
1b,5,100176,4,43,235,21,F,NA,constant,heterogeneous,5,absent,0.578413963317871,1,vertical,vertical,1,1.05879848957062,green,3,NaN,1042.51941165526,521.200666434388,NaN,NaN,650.114760665419,806.299333565612,949.885239334581,806.299333565612,1042.51941165526,521.200666434388,800,345,557.480588344736,521.200666434388,0,0,5,6,4,5,0,NaN,vertical,horizontal,vertical,vertical,vertical,none
1b,5,100176,4,44,236,21,F,NA,constant,heterogeneous,4,absent,1.01231479644775,1,vertical,vertical,1,0.705876574516296,green,4,NaN,607.549057043193,767.295052392579,NaN,NaN,967.295052392579,792.450942956807,992.450942956807,432.704947607421,632.704947607421,407.549057043193,607.549057043193,767.295052392579,0,0,0,0,5,3,0,4,NaN,NaN,horizontal,vertical,horizontal,vertical,none,none
1b,5,100176,4,45,237,21,F,NA,constant,heterogeneous,5,present,0.728276014328003,1,vertical,vertical,1,0.764696893692017,green,4,2,764.510859255183,347.4816424709,977.137884467044,783.431649086356,680.284751489598,825.151636179026,977.137884467044,783.431649086356,1029.19248180629,488.215357568785,764.510859255183,347.4816424709,548.874022981887,555.719714694933,0,0,3,5,0,4,0,NaN,horizontal,horizontal,vertical,vertical,vertical,none
1b,5,100176,4,46,238,21,F,NA,constant,heterogeneous,4,absent,0.672985076904297,1,vertical,vertical,1,0.705876574516296,green,1,NaN,844.280285305067,851.125977018113,NaN,NaN,844.280285305067,851.125977018113,1051.12597701811,555.719714694933,755.719714694933,348.874022981887,548.874022981887,644.280285305067,0,0,0,0,4,0,0,3,NaN,NaN,vertical,horizontal,vertical,horizontal,none,none
1b,5,100176,4,47,239,21,F,NA,constant,heterogeneous,5,absent,1.33424806594849,0,vertical,horizontal,1,0.976450042724609,green,4,NaN,672.5,379.163522034968,NaN,NaN,773.345241866748,853.60308331891,1032.95409169886,703.717843984329,970.628304621509,410.498069503264,672.5,379.163522034968,550.57236181288,653.017481158529,0,0,0,0,6,4,3,NaN,vertical,vertical,horizontal,vertical,vertical,none
1b,5,100176,4,48,240,21,F,NA,constant,heterogeneous,4,present,0.937916040420532,1,horizontal,horizontal,1,0.847045340538025,green,2,1,989.501930496736,770.628304621509,629.371695378491,789.501930496736,629.371695378491,789.501930496736,989.501930496736,770.628304621509,970.628304621509,410.498069503264,610.498069503264,429.371695378491,0,0,0,0,5,4,0,0,NaN,NaN,horizontal,horizontal,vertical,horizontal,none,none
1b,5,100176,4,49,241,21,F,NA,constant,heterogeneous,6,present,1.07367897033691,1,horizontal,horizontal,1,0.635292191505432,green,5,2,549.685068220846,551.343706178981,1050.31493177915,648.656293821019,883.019879386575,841.107236777826,1050.31493177915,648.656293821019,967.295052392579,407.549057043193,716.980120613425,358.892763222174,549.685068220846,551.343706178981,632.704947607421,792.450942956807,5,0,6,5,4,6,vertical,horizontal,vertical,vertical,horizontal,vertical
1b,5,100176,4,50,242,21,F,NA,constant,heterogeneous,4,absent,1.25279188156128,1,horizontal,horizontal,1,0.882337532043457,green,4,NaN,546.39691668109,573.345241866748,NaN,NaN,773.345241866748,853.60308331891,1053.60308331891,626.654758133252,826.654758133252,346.39691668109,546.39691668109,573.345241866748,0,0,0,0,5,3,0,4,NaN,NaN,vertical,horizontal,vertical,horizontal,none,none
1b,5,100176,4,51,243,21,F,NA,constant,heterogeneous,3,present,0.702749967575073,1,vertical,vertical,1,1.03527036190033,green,3,1,653.738008730483,391.116228706307,692.232343256122,831.108485694346,692.232343256122,831.108485694346,1054.0296480134,577.775285599347,653.738008730483,391.116228706307,0,0,0,0,0,0,6,6,4,NaN,NaN,NaN,horizontal,vertical,vertical,none,none,none
