experiment,subject,uniqueID,block,trial,trial_cumulative,age,gender,color_cond_blocking,color_history,shape_type,set_size,distractor,rt,acc,target_orient,response_key,response_made,iti,target_color,target_item,distractor_item,target_X,target_Y,distractor_X,distractor_Y,item1_X,item1_Y,item2_X,item2_Y,item3_X,item3_Y,item4_X,item4_Y,item5_X,item5_Y,item6_X,item6_Y,item1_shape,item2_shape,item3_shape,item4_shape,item5_shape,item6_shape,item1_line,item2_line,item3_line,item4_line,item5_line,item6_line
1b,6,100188,1,1,1,20,F,NA,constant,heterogeneous,3,absent,0.859552145004272,1,horizontal,horizontal,1,0.799997110366821,green,3,NaN,557.480588344736,521.200666434388,NaN,NaN,853.017481158529,849.42763818712,989.501930496736,429.371695378491,557.480588344736,521.200666434388,0,0,0,0,0,0,5,3,4,NaN,NaN,NaN,horizontal,horizontal,horizontal,none,none,none
1b,6,100188,1,2,2,20,F,NA,constant,heterogeneous,3,present,1.48736906051636,1,vertical,vertical,1,0.741174430847168,green,2,1,1045.12173246427,529.712474266665,738.309916622085,847.425410200379,738.309916622085,847.425410200379,1045.12173246427,529.712474266665,616.568350913644,422.862115532956,0,0,0,0,0,0,5,4,3,NaN,NaN,NaN,horizontal,vertical,horizontal,none,none,none
1b,6,100188,1,3,3,20,F,NA,constant,heterogeneous,6,present,1.42767190933228,1,horizontal,horizontal,1,0.917642469406128,green,6,1,657.405809614959,811.404581001536,911.784642431215,829.192481806288,911.784642431215,829.192481806288,1054.37883281626,617.787900804752,942.594190385041,388.595418998464,688.215357568785,370.807518193712,545.621167183745,582.212099195248,657.405809614959,811.404581001536,3,6,6,5,0,4,vertical,horizontal,horizontal,vertical,vertical,horizontal
1b,6,100188,1,4,4,20,F,NA,constant,heterogeneous,4,absent,1.06523609161377,1,horizontal,horizontal,1,0.847055253982544,green,1,NaN,822.224714400653,854.029648013395,NaN,NaN,822.224714400653,854.029648013395,1054.0296480134,577.775285599347,777.775285599347,345.970351986605,545.970351986605,622.224714400653,0,0,0,0,4,3,6,5,NaN,NaN,horizontal,horizontal,vertical,horizontal,none,none
1b,6,100188,1,5,5,20,F,NA,constant,heterogeneous,6,present,1.34273505210876,1,vertical,vertical,1,0.811761646270752,green,5,2,554.878267535729,529.712474266665,1045.12173246427,670.287525733335,861.690083377915,847.425410200379,1045.12173246427,670.287525733335,983.431649086356,422.862115532956,738.309916622085,352.574589799621,554.878267535729,529.712474266665,616.568350913644,777.137884467044,3,0,5,6,4,0,horizontal,horizontal,horizontal,vertical,vertical,vertical
1b,6,100188,1,6,6,20,F,NA,constant,heterogeneous,4,absent,1.08683300018311,1,vertical,vertical,1,0.647058143615723,green,3,NaN,721.200666434388,357.480588344736,NaN,NaN,878.799333565612,842.519411655264,1042.51941165526,521.200666434388,721.200666434388,357.480588344736,557.480588344736,678.799333565612,0,0,0,0,3,0,4,0,NaN,NaN,horizontal,vertical,vertical,horizontal,none,none
1b,6,100188,1,7,7,20,F,NA,constant,heterogeneous,5,absent,NaN,0,horizontal,none,0,1.01175875663757,green,3,NaN,992.450942956807,432.704947607421,NaN,NaN,742.637481142314,848.464366520235,1018.57766167904,731.334709102064,992.450942956807,432.704947607421,700.363562235235,365.271262369628,545.970351986605,622.224714400653,0,0,0,5,4,3,3,NaN,horizontal,vertical,horizontal,horizontal,horizontal,none
1b,6,100188,1,8,8,20,F,NA,constant,heterogeneous,4,absent,1.29303693771362,0,vertical,horizontal,1,0.988229684829712,green,2,NaN,998.172220171528,760.476699717708,NaN,NaN,639.523300282292,798.172220171528,998.172220171528,760.476699717708,960.476699717708,401.827779828472,601.827779828472,439.523300282291,0,0,0,0,3,4,0,6,NaN,NaN,horizontal,vertical,horizontal,vertical,none,none
1b,6,100188,1,9,9,20,F,NA,constant,heterogeneous,3,absent,1.48751592636108,1,vertical,vertical,1,0.611764535903931,green,3,NaN,565.271262369628,699.636437764765,NaN,NaN,1003.65205506206,753.462830903772,831.076682568313,346.900731331463,565.271262369628,699.636437764765,0,0,0,0,0,0,6,3,4,NaN,NaN,NaN,horizontal,horizontal,vertical,none,none,none
1b,6,100188,1,10,10,20,F,NA,constant,heterogeneous,6,absent,1.51622295379639,1,horizontal,horizontal,1,0.941171541213989,green,6,NaN,596.34794493794,753.462830903772,NaN,NaN,831.076682568313,853.099268668537,1034.72873763037,699.636437764765,1003.65205506206,446.537169096228,768.923317431687,346.900731331463,565.271262369628,500.363562235235,596.34794493794,753.462830903772,5,5,3,0,6,4,horizontal,vertical,vertical,horizontal,horizontal,horizontal
1b,6,100188,1,11,11,20,F,NA,constant,heterogeneous,5,present,0.998520851135254,1,horizontal,horizontal,1,0.988229684829712,green,3,4,1008.88377129369,453.738008730483,725.445215295702,356.142287229426,716.980120613425,841.107236777826,1003.65205506206,753.462830903772,1008.88377129369,453.738008730483,725.445215295702,356.142287229426,545.03883773512,595.549636358493,0,0,6,5,4,0,6,NaN,vertical,horizontal,horizontal,horizontal,horizontal,none
1b,6,100188,1,12,12,20,F,NA,constant,heterogeneous,6,present,1.1310510635376,1,horizontal,horizontal,1,0.6,green,1,3,915.767577433584,827.206663668034,938.882953928832,386.139005173917,915.767577433584,827.206663668034,1054.65053136242,613.345668841951,938.882953928832,386.139005173917,684.232422566416,372.793336331966,545.349468637584,586.654331158049,661.117046071168,813.860994826083,4,0,3,0,3,6,horizontal,horizontal,vertical,vertical,vertical,horizontal
1b,6,100188,1,13,13,20,F,NA,constant,heterogeneous,4,present,1.71960997581482,0,horizontal,vertical,1,0.894113397598267,green,4,1,588.595418998464,457.40580961496,657.405809614959,811.404581001536,657.405809614959,811.404581001536,1011.40458100154,742.594190385041,942.594190385041,388.595418998464,588.595418998464,457.40580961496,0,0,0,0,3,3,0,4,NaN,NaN,horizontal,vertical,vertical,horizontal,none,none
1b,6,100188,1,14,14,20,F,NA,constant,heterogeneous,3,absent,1.19493293762207,1,horizontal,horizontal,1,0.635293607711792,green,3,NaN,708.616172865948,361.936991243214,NaN,NaN,639.523300282292,798.172220171528,1051.86052685176,639.890788585259,708.616172865948,361.936991243214,0,0,0,0,0,0,0,6,4,NaN,NaN,NaN,horizontal,horizontal,horizontal,none,none,none
1b,6,100188,1,15,15,20,F,NA,constant,heterogeneous,5,absent,1.21709012985229,0,vertical,horizontal,1,0.905877933502197,green,3,NaN,874.554784704298,356.142287229426,NaN,NaN,883.019879386575,841.107236777826,1054.96116226488,595.549636358493,874.554784704298,356.142287229426,591.116228706307,453.738008730483,596.34794493794,753.462830903772,0,0,3,3,4,6,6,NaN,vertical,vertical,vertical,horizontal,vertical,none
1b,6,100188,1,16,16,20,F,NA,constant,heterogeneous,6,present,1.25193190574646,1,vertical,vertical,1,0.917642469406128,green,2,6,1043.85771277057,674.554784704298,613.504806087112,773.909581815937,857.362518857686,848.464366520235,1043.85771277057,674.554784704298,986.495193912888,426.090418184063,742.637481142314,351.535633479765,556.142287229426,525.445215295702,613.504806087112,773.909581815937,0,4,6,5,6,3,horizontal,vertical,horizontal,horizontal,horizontal,horizontal
1b,6,100188,1,17,17,20,F,NA,constant,heterogeneous,3,present,1.0533618927002,1,horizontal,horizontal,1,0.811761646270752,green,1,2,684.232422566416,827.206663668034,1054.65053136242,586.654331158049,684.232422566416,827.206663668034,1054.65053136242,586.654331158049,661.117046071168,386.139005173917,0,0,0,0,0,0,4,6,5,NaN,NaN,NaN,horizontal,vertical,vertical,none,none,none
1b,6,100188,1,18,18,20,F,NA,constant,heterogeneous,6,absent,0.956963062286377,1,vertical,vertical,1,0.717645359039307,green,4,NaN,804.450363641507,345.03883773512,NaN,NaN,795.549636358493,854.96116226488,1018.57766167904,731.334709102064,1023.02802532055,476.373546837184,804.450363641507,345.03883773512,581.422338320961,468.665290897936,576.971974679454,723.626453162816,0,3,0,4,5,3,horizontal,horizontal,vertical,vertical,horizontal,vertical
1b,6,100188,1,19,19,20,F,NA,constant,heterogeneous,4,absent,1.68875002861023,0,horizontal,vertical,1,0.623529071807861,green,1,NaN,915.767577433584,827.206663668034,NaN,NaN,915.767577433584,827.206663668034,1027.20666366803,484.232422566416,684.232422566416,372.793336331966,572.793336331966,715.767577433584,0,0,0,0,4,6,0,5,NaN,NaN,horizontal,vertical,horizontal,vertical,none,none
1b,6,100188,1,20,20,20,F,NA,constant,heterogeneous,5,present,1.0214729309082,1,vertical,vertical,1,0.941171541213989,green,3,2,874.554784704298,356.142287229426,1054.96116226488,595.549636358493,883.019879386575,841.107236777826,1054.96116226488,595.549636358493,874.554784704298,356.142287229426,591.116228706307,453.738008730483,596.34794493794,753.462830903772,0,0,6,5,4,0,3,NaN,vertical,vertical,vertical,horizontal,vertical,none
1b,6,100188,1,21,21,20,F,NA,constant,heterogeneous,5,absent,1.17404389381409,1,vertical,vertical,1,0.999994220733643,green,5,NaN,616.568350913644,777.137884467044,NaN,NaN,911.784642431215,829.192481806288,1052.5183575291,564.510859255183,844.280285305067,348.874022981887,574.848363820974,480.284751489598,616.568350913644,777.137884467044,0,0,0,5,5,6,4,NaN,horizontal,horizontal,horizontal,vertical,vertical,none
1b,6,100188,1,22,22,20,F,NA,constant,heterogeneous,3,absent,1.30156397819519,1,vertical,vertical,1,0.6,green,2,NaN,1020.83647796503,727.5,NaN,NaN,579.163522034968,727.5,1020.83647796503,727.5,800,345,0,0,0,0,0,0,0,4,6,NaN,NaN,NaN,vertical,vertical,horizontal,none,none,none
1b,6,100188,1,23,23,20,F,NA,constant,heterogeneous,5,present,1.39284491539001,1,horizontal,horizontal,1,0.858819789886475,green,2,3,1053.60308331891,626.654758133252,903.717843984329,367.045908301137,853.017481158529,849.42763818712,1053.60308331891,626.654758133252,903.717843984329,367.045908301137,610.498069503264,429.371695378491,579.163522034968,727.5,0,0,6,4,3,0,5,NaN,horizontal,horizontal,horizontal,vertical,vertical,none
1b,6,100188,1,24,24,20,F,NA,constant,heterogeneous,3,present,1.07382392883301,1,vertical,vertical,1,0.647058143615723,green,2,1,1003.65205506206,446.537169096228,831.076682568313,853.099268668537,831.076682568313,853.099268668537,1003.65205506206,446.537169096228,565.271262369628,500.363562235235,0,0,0,0,0,0,3,4,3,NaN,NaN,NaN,vertical,vertical,horizontal,none,none,none
1b,6,100188,1,25,25,20,F,NA,constant,heterogeneous,6,absent,1.48046612739563,1,vertical,vertical,1,0.847055253982544,green,1,NaN,688.215357568785,829.192481806288,NaN,NaN,688.215357568785,829.192481806288,942.594190385041,811.404581001536,1054.37883281626,582.212099195248,911.784642431215,370.807518193712,657.405809614959,388.595418998464,545.621167183745,617.787900804752,4,6,6,0,0,5,vertical,horizontal,vertical,vertical,horizontal,vertical
1b,6,100188,1,26,26,20,F,NA,constant,heterogeneous,6,absent,1.71906590461731,1,vertical,vertical,1,1.04705236434937,green,1,NaN,813.345668841951,854.650531362416,NaN,NaN,813.345668841951,854.650531362416,1027.20666366803,715.767577433584,1013.86099482608,461.117046071168,786.654331158049,345.349468637584,572.793336331966,484.232422566416,586.139005173917,738.882953928832,4,6,5,6,3,0,vertical,horizontal,vertical,vertical,vertical,horizontal
1b,6,100188,1,27,27,20,F,NA,constant,heterogeneous,5,present,0.764811038970947,1,vertical,vertical,1,0.95293607711792,green,5,1,629.371695378491,789.501930496736,927.5,820.836477965032,927.5,820.836477965032,1049.42763818712,546.982518841471,826.654758133252,346.39691668109,567.045908301137,496.282156015671,629.371695378491,789.501930496736,0,0,6,3,6,0,4,NaN,horizontal,vertical,vertical,horizontal,vertical,none
1b,6,100188,1,28,28,20,F,NA,constant,heterogeneous,5,absent,0.847098827362061,1,vertical,vertical,1,0.741174430847168,green,1,NaN,808.899371659138,854.844660889869,NaN,NaN,808.899371659138,854.844660889869,1045.12173246427,670.287525733335,942.594190385041,388.595418998464,643.006323791957,399.057257830286,560.378381699593,687.215136548046,0,0,4,0,3,5,6,NaN,vertical,horizontal,vertical,vertical,vertical,none
1b,6,100188,1,29,29,20,F,NA,constant,heterogeneous,3,present,0.694731950759888,1,vertical,vertical,1,0.717645359039307,green,2,3,1039.62161830041,512.784863451954,604.658667004661,436.089159529932,755.719714694933,851.125977018113,1039.62161830041,512.784863451954,604.658667004661,436.089159529932,0,0,0,0,0,0,6,4,0,NaN,NaN,NaN,horizontal,vertical,vertical,none,none,none
1b,6,100188,1,30,30,20,F,NA,constant,heterogeneous,5,present,0.88775110244751,1,horizontal,horizontal,1,0.941171541213989,green,1,2,808.899371659138,854.844660889869,1045.12173246427,670.287525733335,808.899371659138,854.844660889869,1045.12173246427,670.287525733335,942.594190385041,388.595418998464,643.006323791957,399.057257830286,560.378381699593,687.215136548046,0,0,4,0,6,0,5,NaN,horizontal,vertical,vertical,vertical,horizontal,none
1b,6,100188,1,31,31,20,F,NA,constant,heterogeneous,4,present,1.68718600273132,1,vertical,vertical,1,0.882348861694336,green,4,3,613.504806087112,426.090418184063,973.909581815937,413.504806087112,626.090418184063,786.495193912888,986.495193912888,773.909581815937,973.909581815937,413.504806087112,613.504806087112,426.090418184063,0,0,0,0,3,3,0,4,NaN,NaN,horizontal,vertical,vertical,vertical,none,none
1b,6,100188,1,32,32,20,F,NA,constant,heterogeneous,6,present,1.15267491340637,1,horizontal,horizontal,1,0.77646803855896,green,4,2,729.712474266665,354.878267535729,1047.42541020038,661.690083377915,870.287525733335,845.121732464271,1047.42541020038,661.690083377915,977.137884467044,416.568350913644,729.712474266665,354.878267535729,552.574589799621,538.309916622085,622.862115532956,783.431649086356,3,3,6,4,0,6,horizontal,horizontal,horizontal,horizontal,vertical,vertical
1b,6,100188,1,33,33,20,F,NA,constant,heterogeneous,5,absent,0.890088081359863,1,horizontal,horizontal,1,0.905877933502197,green,4,NaN,643.006323791957,399.057257830286,NaN,NaN,808.899371659138,854.844660889869,1045.12173246427,670.287525733335,942.594190385041,388.595418998464,643.006323791957,399.057257830286,560.378381699593,687.215136548046,0,0,5,3,0,4,0,NaN,vertical,horizontal,horizontal,horizontal,horizontal,none
1b,6,100188,1,34,34,20,F,NA,constant,heterogeneous,4,present,0.745743036270142,1,horizontal,horizontal,1,0.882348861694336,green,1,4,786.654331158049,854.650531362416,545.349468637584,586.654331158049,786.654331158049,854.650531362416,1054.65053136242,613.345668841951,813.345668841951,345.349468637584,545.349468637584,586.654331158049,0,0,0,0,4,0,3,5,NaN,NaN,horizontal,vertical,horizontal,vertical,none,none
1b,6,100188,1,35,35,20,F,NA,constant,heterogeneous,3,absent,0.980517864227295,1,vertical,vertical,1,0.788232574462891,green,3,NaN,613.504806087112,426.090418184063,NaN,NaN,742.637481142314,848.464366520235,1043.85771277057,525.445215295702,613.504806087112,426.090418184063,0,0,0,0,0,0,5,0,4,NaN,NaN,NaN,horizontal,vertical,vertical,none,none,none
1b,6,100188,1,36,36,20,F,NA,constant,heterogeneous,3,present,0.898157835006714,1,horizontal,horizontal,1,1.09411050796509,green,1,2,657.405809614959,811.404581001536,1054.37883281626,617.787900804752,657.405809614959,811.404581001536,1054.37883281626,617.787900804752,688.215357568785,370.807518193712,0,0,0,0,0,0,4,3,0,NaN,NaN,NaN,horizontal,vertical,vertical,none,none,none
1b,6,100188,1,37,37,20,F,NA,constant,heterogeneous,4,absent,0.738298177719116,1,vertical,vertical,1,0.694116287231445,green,3,NaN,782.212099195248,345.621167183745,NaN,NaN,817.787900804752,854.378832816255,1054.37883281626,582.212099195248,782.212099195248,345.621167183745,545.621167183745,617.787900804752,0,0,0,0,0,5,4,6,NaN,NaN,vertical,vertical,vertical,vertical,none,none
1b,6,100188,1,38,38,20,F,NA,constant,heterogeneous,4,absent,1.01461601257324,1,vertical,vertical,1,0.870584325790405,green,1,NaN,848.656293821019,850.314931779154,NaN,NaN,848.656293821019,850.314931779154,1050.31493177915,551.343706178981,751.343706178981,349.685068220846,549.685068220846,648.656293821019,0,0,0,0,4,3,5,6,NaN,NaN,vertical,horizontal,horizontal,horizontal,none,none
1b,6,100188,1,39,39,20,F,NA,constant,heterogeneous,3,present,1.16006088256836,1,horizontal,horizontal,1,0.847055253982544,green,1,2,636.089159529932,795.341332995339,1051.12597701811,644.280285305067,636.089159529932,795.341332995339,1051.12597701811,644.280285305067,712.784863451954,360.378381699593,0,0,0,0,0,0,4,0,5,NaN,NaN,NaN,horizontal,horizontal,horizontal,none,none,none
1b,6,100188,1,40,40,20,F,NA,constant,heterogeneous,6,present,1.32370805740356,1,vertical,vertical,1,0.623529071807861,green,1,5,676.373546837184,823.028025320546,668.665290897936,381.422338320961,676.373546837184,823.028025320546,931.334709102064,818.577661679039,1054.96116226488,595.549636358493,923.626453162816,376.971974679454,668.665290897936,381.422338320961,545.03883773512,604.450363641507,4,6,3,5,0,6,vertical,vertical,vertical,vertical,vertical,vertical
1b,6,100188,1,41,41,20,F,NA,constant,heterogeneous,6,absent,1.33126187324524,1,vertical,vertical,1,1.04705236434937,green,1,NaN,688.215357568785,829.192481806288,NaN,NaN,688.215357568785,829.192481806288,942.594190385041,811.404581001536,1054.37883281626,582.212099195248,911.784642431215,370.807518193712,657.405809614959,388.595418998464,545.621167183745,617.787900804752,4,6,3,5,5,0,vertical,vertical,horizontal,horizontal,horizontal,vertical
1b,6,100188,1,42,42,20,F,NA,constant,heterogeneous,4,present,0.784129858016968,1,vertical,vertical,1,0.694116287231445,green,4,1,545.970351986605,577.775285599347,777.775285599347,854.029648013395,777.775285599347,854.029648013395,1054.0296480134,622.224714400653,822.224714400653,345.970351986605,545.970351986605,577.775285599347,0,0,0,0,6,0,3,4,NaN,NaN,vertical,horizontal,horizontal,vertical,none,none
1b,6,100188,1,43,43,20,F,NA,constant,heterogeneous,5,present,1.28148102760315,1,horizontal,horizontal,1,0.682351751327515,green,3,2,857.362518857686,351.535633479765,1054.0296480134,577.775285599347,899.636437764765,834.728737630372,1054.0296480134,577.775285599347,857.362518857686,351.535633479765,581.422338320961,468.665290897936,607.549057043193,767.295052392579,0,0,3,0,4,0,6,NaN,vertical,horizontal,horizontal,horizontal,vertical,none
1b,6,100188,1,44,44,20,F,NA,constant,heterogeneous,3,absent,0.892874956130981,1,horizontal,horizontal,1,0.870584325790405,green,3,NaN,601.827779828472,439.523300282291,NaN,NaN,760.109211414741,851.86052685176,1038.06300875679,508.616172865948,601.827779828472,439.523300282291,0,0,0,0,0,0,3,6,4,NaN,NaN,NaN,vertical,horizontal,horizontal,none,none,none
1b,6,100188,1,45,45,20,F,NA,constant,heterogeneous,4,present,0.70224404335022,1,vertical,vertical,1,0.964700613021851,green,3,1,704.475318678942,363.568117085469,895.524681321058,836.431882914531,895.524681321058,836.431882914531,1036.43188291453,504.475318678942,704.475318678942,363.568117085469,563.568117085469,695.524681321058,0,0,0,0,6,5,4,5,NaN,NaN,vertical,vertical,vertical,vertical,none,none
1b,6,100188,1,46,46,20,F,NA,constant,heterogeneous,6,present,1.43318319320679,1,vertical,vertical,1,0.835290718078613,green,2,3,949.885239334581,806.299333565612,1053.60308331891,573.345241866748,696.282156015671,832.954091698863,949.885239334581,806.299333565612,1053.60308331891,573.345241866748,903.717843984329,367.045908301137,650.114760665419,393.700666434388,546.39691668109,626.654758133252,6,4,0,5,3,3,vertical,vertical,horizontal,vertical,vertical,vertical
1b,6,100188,1,47,47,20,F,NA,constant,heterogeneous,6,absent,NaN,0,horizontal,none,0,0.976465148925781,green,1,NaN,773.345241866748,853.60308331891,NaN,NaN,773.345241866748,853.60308331891,1006.29933356561,749.885239334581,1032.95409169886,496.282156015671,826.654758133252,346.39691668109,593.700666434388,450.114760665419,567.045908301137,703.717843984329,4,5,6,3,5,0,horizontal,vertical,horizontal,horizontal,vertical,horizontal
1b,6,100188,1,48,48,20,F,NA,constant,heterogeneous,5,absent,1.01950287818909,0,horizontal,vertical,1,1.09411050796509,green,1,NaN,708.616172865948,838.063008756786,NaN,NaN,708.616172865948,838.063008756786,998.172220171528,760.476699717708,1013.86099482608,461.117046071168,734.001143498857,353.688914296288,545.349468637584,586.654331158049,0,0,4,0,5,6,6,NaN,horizontal,vertical,vertical,vertical,vertical,none
1b,6,100188,1,49,49,20,F,NA,constant,heterogeneous,4,absent,0.900977849960327,1,horizontal,horizontal,1,1.04705236434937,green,4,NaN,558.892763222174,683.019879386575,NaN,NaN,883.019879386575,841.107236777826,1041.10723677783,516.980120613425,716.980120613425,358.892763222174,558.892763222174,683.019879386575,0,0,0,0,6,0,3,4,NaN,NaN,vertical,horizontal,vertical,horizontal,none,none
1b,6,100188,1,50,50,20,F,NA,constant,heterogeneous,3,present,0.748528003692627,1,vertical,vertical,1,0.670587215423584,green,2,1,1049.42763818712,546.982518841471,721.200666434388,842.519411655264,721.200666434388,842.519411655264,1049.42763818712,546.982518841471,629.371695378491,410.498069503264,0,0,0,0,0,0,0,4,6,NaN,NaN,NaN,horizontal,vertical,vertical,none,none,none
1b,6,100188,1,51,51,20,F,NA,constant,heterogeneous,4,present,0.820576906204224,1,horizontal,horizontal,1,1.04705236434937,green,3,4,738.309916622085,352.574589799621,552.574589799621,661.690083377915,861.690083377915,847.425410200379,1047.42541020038,538.309916622085,738.309916622085,352.574589799621,552.574589799621,661.690083377915,0,0,0,0,5,6,4,5,NaN,NaN,horizontal,horizontal,horizontal,horizontal,none,none
1b,6,100188,1,52,52,20,F,NA,constant,heterogeneous,3,absent,0.699688911437988,1,vertical,vertical,1,0.929407005310059,green,3,NaN,545.03883773512,604.450363641507,NaN,NaN,931.334709102064,818.577661679039,923.626453162816,376.971974679454,545.03883773512,604.450363641507,0,0,0,0,0,0,6,5,4,NaN,NaN,NaN,vertical,vertical,vertical,none,none,none
1b,6,100188,1,53,53,20,F,NA,constant,heterogeneous,3,present,0.830811023712158,1,horizontal,horizontal,1,0.858819789886475,green,1,2,684.232422566416,827.206663668034,1054.65053136242,586.654331158049,684.232422566416,827.206663668034,1054.65053136242,586.654331158049,661.117046071168,386.139005173917,0,0,0,0,0,0,4,6,6,NaN,NaN,NaN,horizontal,vertical,vertical,none,none,none
1b,6,100188,1,54,54,20,F,NA,constant,heterogeneous,5,present,0.851747989654541,1,vertical,vertical,1,0.999994220733643,green,2,3,1055,600,878.799333565612,357.480588344736,878.799333565612,842.519411655264,1055,600,878.799333565612,357.480588344736,593.700666434388,450.114760665419,593.700666434388,749.885239334581,0,0,3,4,0,3,5,NaN,horizontal,vertical,horizontal,horizontal,vertical,none
1b,6,100188,1,55,55,20,F,NA,constant,heterogeneous,5,present,0.599582195281982,1,vertical,vertical,1,0.929407005310059,green,2,3,1051.86052685176,639.890788585259,915.767577433584,372.793336331966,839.890788585259,851.86052685176,1051.86052685176,639.890788585259,915.767577433584,372.793336331966,619.68777079743,419.68777079743,572.793336331966,715.767577433584,0,0,3,4,5,0,6,NaN,vertical,vertical,vertical,vertical,horizontal,none
1b,6,100188,1,56,56,20,F,NA,constant,heterogeneous,6,present,0.879547119140625,1,horizontal,horizontal,1,0.788232574462891,green,5,2,546.900731331463,568.923317431687,1053.09926866854,631.076682568313,899.636437764765,834.728737630372,1053.09926866854,631.076682568313,953.462830903772,396.34794493794,700.363562235235,365.271262369628,546.900731331463,568.923317431687,646.537169096228,803.65205506206,6,5,3,3,4,5,vertical,horizontal,vertical,horizontal,horizontal,vertical
1b,6,100188,1,57,57,20,F,NA,constant,heterogeneous,3,absent,0.72995400428772,1,horizontal,horizontal,1,0.835290718078613,green,2,NaN,808.899371659138,345.155339110131,NaN,NaN,1016.25226451989,735.129412379467,808.899371659138,345.155339110131,574.848363820974,719.715248510402,0,0,0,0,0,0,0,4,6,NaN,NaN,NaN,vertical,horizontal,vertical,none,none,none
1b,6,100188,1,58,58,20,F,NA,constant,heterogeneous,6,absent,0.732226848602295,1,horizontal,horizontal,1,0.77646803855896,green,3,NaN,963.910840470068,404.658667004661,NaN,NaN,887.215136548046,839.621618300407,1051.12597701811,644.280285305067,963.910840470068,404.658667004661,712.784863451954,360.378381699593,548.874022981887,555.719714694933,636.089159529932,795.341332995339,0,5,4,0,6,3,horizontal,horizontal,horizontal,vertical,vertical,horizontal
1b,6,100188,1,59,59,20,F,NA,constant,heterogeneous,6,absent,1.00338697433472,0,horizontal,vertical,1,0.811761646270752,green,1,NaN,907.767656743878,831.108485694346,NaN,NaN,907.767656743878,831.108485694346,1054.0296480134,622.224714400653,946.261991269517,391.116228706307,692.232343256122,368.891514305654,545.970351986605,577.775285599347,653.738008730483,808.883771293693,4,3,6,5,0,3,horizontal,vertical,vertical,vertical,vertical,vertical
1b,6,100188,1,60,60,20,F,NA,constant,heterogeneous,5,absent,1.18558096885681,1,horizontal,horizontal,1,1.09411050796509,green,1,NaN,853.017481158529,849.42763818712,NaN,NaN,853.017481158529,849.42763818712,1053.60308331891,626.654758133252,903.717843984329,367.045908301137,610.498069503264,429.371695378491,579.163522034968,727.5,0,0,4,6,3,3,0,NaN,horizontal,horizontal,horizontal,horizontal,vertical,none
1b,6,100188,1,61,61,20,F,NA,constant,heterogeneous,4,absent,1.18266606330872,1,horizontal,horizontal,1,0.670587215423584,green,3,NaN,970.628304621509,410.498069503264,NaN,NaN,629.371695378491,789.501930496736,989.501930496736,770.628304621509,970.628304621509,410.498069503264,610.498069503264,429.371695378491,0,0,0,0,5,6,4,6,NaN,NaN,horizontal,vertical,horizontal,vertical,none,none
1b,6,100188,1,62,62,20,F,NA,constant,heterogeneous,5,absent,1.20913696289062,1,vertical,vertical,1,0.929407005310059,green,4,NaN,657.405809614959,388.595418998464,NaN,NaN,791.100628340862,854.844660889869,1039.62161830041,687.215136548046,956.993676208043,399.057257830286,657.405809614959,388.595418998464,554.878267535729,670.287525733335,0,0,5,0,6,4,6,NaN,horizontal,horizontal,vertical,vertical,vertical,none
1b,6,100188,1,63,63,20,F,NA,constant,heterogeneous,4,present,1.04161810874939,1,vertical,vertical,1,0.811761646270752,green,1,4,661.117046071168,813.860994826083,586.139005173917,461.117046071168,661.117046071168,813.860994826083,1013.86099482608,738.882953928832,938.882953928832,386.139005173917,586.139005173917,461.117046071168,0,0,0,0,4,6,0,3,NaN,NaN,vertical,horizontal,vertical,vertical,none,none
1b,6,100188,1,64,64,20,F,NA,constant,heterogeneous,4,present,0.697146892547607,1,horizontal,horizontal,1,0.929407005310059,green,2,3,989.501930496736,429.371695378491,629.371695378491,410.498069503264,970.628304621509,789.501930496736,989.501930496736,429.371695378491,629.371695378491,410.498069503264,610.498069503264,770.628304621509,0,0,0,0,6,4,5,0,NaN,NaN,horizontal,horizontal,vertical,horizontal,none,none
1b,6,100188,2,1,65,20,F,NA,constant,heterogeneous,3,absent,0.956585884094238,1,vertical,vertical,1,0.988229684829712,green,3,NaN,545.970351986605,622.224714400653,NaN,NaN,946.261991269517,808.883771293693,907.767656743878,368.891514305654,545.970351986605,622.224714400653,0,0,0,0,0,0,5,0,4,NaN,NaN,NaN,vertical,vertical,vertical,none,none,none
1b,6,100188,2,2,66,20,F,NA,constant,heterogeneous,6,absent,1.59095501899719,1,horizontal,horizontal,1,0.752938966751099,green,1,NaN,923.626453162816,823.028025320546,NaN,NaN,923.626453162816,823.028025320546,1054.96116226488,604.450363641507,931.334709102064,381.422338320961,676.373546837184,376.971974679454,545.03883773512,595.549636358493,668.665290897936,818.577661679039,4,5,6,3,3,0,horizontal,vertical,vertical,horizontal,horizontal,vertical
1b,6,100188,2,3,67,20,F,NA,constant,heterogeneous,6,present,0.998217105865479,1,vertical,vertical,1,0.752938966751099,green,6,5,646.537169096228,803.65205506206,546.900731331463,568.923317431687,899.636437764765,834.728737630372,1053.09926866854,631.076682568313,953.462830903772,396.34794493794,700.363562235235,365.271262369628,546.900731331463,568.923317431687,646.537169096228,803.65205506206,6,5,3,3,0,4,horizontal,horizontal,vertical,vertical,horizontal,vertical
1b,6,100188,2,4,68,20,F,NA,constant,heterogeneous,5,absent,1.05226492881775,1,vertical,vertical,1,0.705880823135376,green,3,NaN,853.017481158529,350.57236181288,NaN,NaN,903.717843984329,832.954091698863,1053.60308331891,573.345241866748,853.017481158529,350.57236181288,579.163522034968,472.5,610.498069503264,770.628304621509,0,0,5,3,4,6,5,NaN,horizontal,horizontal,vertical,vertical,vertical,none
1b,6,100188,2,5,69,20,F,NA,constant,heterogeneous,4,absent,0.693583011627197,1,horizontal,horizontal,1,0.611764535903931,green,3,NaN,857.362518857686,351.535633479765,NaN,NaN,742.637481142314,848.464366520235,1048.46436652023,657.362518857686,857.362518857686,351.535633479765,551.535633479765,542.637481142314,0,0,0,0,0,6,4,3,NaN,NaN,vertical,horizontal,horizontal,vertical,none,none
1b,6,100188,2,6,70,20,F,NA,constant,heterogeneous,4,absent,0.805299043655396,1,horizontal,horizontal,1,0.670587215423584,green,2,NaN,989.501930496736,770.628304621509,NaN,NaN,629.371695378491,789.501930496736,989.501930496736,770.628304621509,970.628304621509,410.498069503264,610.498069503264,429.371695378491,0,0,0,0,6,4,5,6,NaN,NaN,vertical,horizontal,horizontal,horizontal,none,none
1b,6,100188,2,7,71,20,F,NA,constant,heterogeneous,3,absent,0.680659055709839,1,horizontal,horizontal,1,0.752938966751099,green,3,NaN,545.155339110131,608.899371659138,NaN,NaN,935.129412379467,816.252264519889,919.715248510402,374.848363820974,545.155339110131,608.899371659138,0,0,0,0,0,0,3,0,4,NaN,NaN,NaN,horizontal,vertical,horizontal,none,none,none
1b,6,100188,2,8,72,20,F,NA,constant,heterogeneous,5,absent,1.36066317558289,1,horizontal,horizontal,1,0.717645359039307,green,1,NaN,773.345241866748,853.60308331891,NaN,NaN,773.345241866748,853.60308331891,1032.95409169886,703.717843984329,970.628304621509,410.498069503264,672.5,379.163522034968,550.57236181288,653.017481158529,0,0,4,5,5,6,3,NaN,horizontal,vertical,vertical,horizontal,horizontal,none
1b,6,100188,2,9,73,20,F,NA,constant,heterogeneous,5,absent,1.25835299491882,1,vertical,vertical,1,0.929407005310059,green,2,NaN,1029.19248180629,711.784642431215,NaN,NaN,764.510859255183,852.518357529101,1029.19248180629,711.784642431215,977.137884467044,416.568350913644,680.284751489598,374.848363820974,548.874022981887,644.280285305067,0,0,0,4,3,3,0,NaN,vertical,vertical,vertical,vertical,vertical,none
1b,6,100188,2,10,74,20,F,NA,constant,heterogeneous,4,present,0.706812143325806,1,vertical,vertical,1,0.752938966751099,green,1,2,622.862115532956,783.431649086356,983.431649086356,777.137884467044,622.862115532956,783.431649086356,983.431649086356,777.137884467044,977.137884467044,416.568350913644,616.568350913644,422.862115532956,0,0,0,0,4,6,0,0,NaN,NaN,vertical,vertical,vertical,vertical,none,none
1b,6,100188,2,11,75,20,F,NA,constant,heterogeneous,3,absent,1.06557703018188,1,horizontal,horizontal,1,0.811761646270752,green,1,NaN,688.215357568785,829.192481806288,NaN,NaN,688.215357568785,829.192481806288,1054.37883281626,582.212099195248,657.405809614959,388.595418998464,0,0,0,0,0,0,4,6,5,NaN,NaN,NaN,horizontal,horizontal,vertical,none,none,none
1b,6,100188,2,12,76,20,F,NA,constant,heterogeneous,5,present,1.97443604469299,1,horizontal,horizontal,1,0.964700613021851,green,3,5,973.909581815937,413.504806087112,549.685068220846,648.656293821019,768.923317431687,853.099268668537,1031.10848569435,707.767656743878,973.909581815937,413.504806087112,676.373546837184,376.971974679454,549.685068220846,648.656293821019,0,0,0,6,4,3,5,NaN,horizontal,vertical,horizontal,vertical,horizontal,none
1b,6,100188,2,13,77,20,F,NA,constant,heterogeneous,5,present,0.854919195175171,1,vertical,vertical,1,1.04705236434937,green,3,2,1011.40458100154,457.40580961496,1000.94274216971,756.993676208043,712.784863451954,839.621618300407,1000.94274216971,756.993676208043,1011.40458100154,457.40580961496,729.712474266665,354.878267535729,545.155339110131,591.100628340862,0,0,0,3,4,0,6,NaN,vertical,horizontal,vertical,horizontal,horizontal,none
1b,6,100188,2,14,78,20,F,NA,constant,heterogeneous,3,absent,0.67522120475769,1,vertical,vertical,1,0.95293607711792,green,1,NaN,639.523300282292,798.172220171528,NaN,NaN,639.523300282292,798.172220171528,1051.86052685176,639.890788585259,708.616172865948,361.936991243214,0,0,0,0,0,0,4,0,6,NaN,NaN,NaN,vertical,vertical,vertical,none,none,none
1b,6,100188,2,15,79,20,F,NA,constant,heterogeneous,4,absent,0.561182975769043,1,vertical,vertical,1,0.823526182174683,green,2,NaN,1046.31108570371,534.001143498857,NaN,NaN,865.998856501143,846.311085703712,1046.31108570371,534.001143498857,734.001143498857,353.688914296288,553.688914296288,665.998856501143,0,0,0,0,5,4,0,0,NaN,NaN,horizontal,vertical,horizontal,vertical,none,none
1b,6,100188,2,16,80,20,F,NA,constant,heterogeneous,4,absent,0.91707706451416,1,horizontal,horizontal,1,0.823526182174683,green,2,NaN,1036.43188291453,695.524681321058,NaN,NaN,704.475318678942,836.431882914531,1036.43188291453,695.524681321058,895.524681321058,363.568117085469,563.568117085469,504.475318678942,0,0,0,0,3,4,6,5,NaN,NaN,vertical,horizontal,horizontal,horizontal,none,none
1b,6,100188,2,17,81,20,F,NA,constant,heterogeneous,3,present,0.697396039962769,1,vertical,vertical,1,1.08234597206116,green,1,2,791.100628340862,854.844660889869,1025.15163617903,480.284751489598,791.100628340862,854.844660889869,1025.15163617903,480.284751489598,583.747735480111,464.870587620533,0,0,0,0,0,0,4,3,3,NaN,NaN,NaN,vertical,vertical,vertical,none,none,none
1b,6,100188,2,18,82,20,F,NA,constant,heterogeneous,3,present,1.13948798179626,1,horizontal,horizontal,1,1.01175875663757,green,1,2,639.523300282292,798.172220171528,1051.86052685176,639.890788585259,639.523300282292,798.172220171528,1051.86052685176,639.890788585259,708.616172865948,361.936991243214,0,0,0,0,0,0,4,5,5,NaN,NaN,NaN,horizontal,vertical,vertical,none,none,none
1b,6,100188,2,19,83,20,F,NA,constant,heterogeneous,4,present,0.815847158432007,1,horizontal,horizontal,1,1.0588169002533,green,2,1,1016.25226451989,735.129412379467,664.870587620533,816.252264519889,664.870587620533,816.252264519889,1016.25226451989,735.129412379467,935.129412379467,383.747735480111,583.747735480111,464.870587620533,0,0,0,0,3,4,6,5,NaN,NaN,vertical,horizontal,vertical,vertical,none,none
1b,6,100188,2,20,84,20,F,NA,constant,heterogeneous,4,present,0.809487104415894,1,horizontal,horizontal,1,0.847055253982544,green,4,2,619.68777079743,780.31222920257,980.31222920257,419.68777079743,980.31222920257,780.31222920257,980.31222920257,419.68777079743,619.68777079743,419.68777079743,619.68777079743,780.31222920257,0,0,0,0,3,5,0,4,NaN,NaN,vertical,vertical,vertical,horizontal,none,none
1b,6,100188,2,21,85,20,F,NA,constant,heterogeneous,6,present,0.802430152893066,1,horizontal,horizontal,1,1.03528782844543,green,5,1,548.13947314824,560.109211414741,891.383827134052,838.063008756786,891.383827134052,838.063008756786,1051.86052685176,639.890788585259,960.476699717708,401.827779828472,708.616172865948,361.936991243214,548.13947314824,560.109211414741,639.523300282292,798.172220171528,5,0,0,5,4,3,vertical,vertical,horizontal,horizontal,horizontal,horizontal
1b,6,100188,2,22,86,20,F,NA,constant,heterogeneous,5,absent,1.2947850227356,1,horizontal,horizontal,1,0.999994220733643,green,1,NaN,907.767656743878,831.108485694346,NaN,NaN,907.767656743878,831.108485694346,1053.09926866854,568.923317431687,848.656293821019,349.685068220846,576.971974679454,476.373546837184,613.504806087112,773.909581815937,0,0,4,6,3,0,6,NaN,horizontal,vertical,vertical,vertical,vertical,none
1b,6,100188,2,23,87,20,F,NA,constant,heterogeneous,6,absent,1.42823505401611,1,vertical,vertical,1,0.976465148925781,green,3,NaN,931.334709102064,381.422338320961,NaN,NaN,923.626453162816,823.028025320546,1054.96116226488,604.450363641507,931.334709102064,381.422338320961,676.373546837184,376.971974679454,545.03883773512,595.549636358493,668.665290897936,818.577661679039,6,6,4,3,0,0,vertical,vertical,vertical,horizontal,horizontal,vertical
1b,6,100188,2,24,88,20,F,NA,constant,heterogeneous,4,present,0.826490163803101,1,vertical,vertical,1,1.07058143615723,green,4,1,581.422338320961,468.665290897936,668.665290897936,818.577661679039,668.665290897936,818.577661679039,1018.57766167904,731.334709102064,931.334709102064,381.422338320961,581.422338320961,468.665290897936,0,0,0,0,6,6,3,4,NaN,NaN,horizontal,horizontal,vertical,vertical,none,none
1b,6,100188,2,25,89,20,F,NA,constant,heterogeneous,4,present,0.775782108306885,1,horizontal,horizontal,1,1.0235232925415,green,3,1,777.775285599347,345.970351986605,822.224714400653,854.029648013395,822.224714400653,854.029648013395,1054.0296480134,577.775285599347,777.775285599347,345.970351986605,545.970351986605,622.224714400653,0,0,0,0,6,0,4,3,NaN,NaN,vertical,vertical,horizontal,horizontal,none,none
1b,6,100188,2,26,90,20,F,NA,constant,heterogeneous,6,absent,1.04769897460938,1,horizontal,horizontal,1,0.811761646270752,green,3,NaN,1029.19248180629,488.215357568785,NaN,NaN,782.212099195248,854.378832816255,1011.40458100154,742.594190385041,1029.19248180629,488.215357568785,817.787900804752,345.621167183745,588.595418998464,457.40580961496,570.807518193712,711.784642431215,0,6,4,3,3,0,horizontal,vertical,horizontal,horizontal,horizontal,vertical
1b,6,100188,2,27,91,20,F,NA,constant,heterogeneous,4,absent,0.775730133056641,1,vertical,vertical,1,0.941171541213989,green,2,NaN,1020.83647796503,472.5,NaN,NaN,927.5,820.836477965032,1020.83647796503,472.5,672.5,379.163522034968,579.163522034968,727.5,0,0,0,0,0,4,5,3,NaN,NaN,horizontal,vertical,vertical,horizontal,none,none
1b,6,100188,2,28,92,20,F,NA,constant,heterogeneous,6,absent,0.806317090988159,1,vertical,vertical,1,0.941171541213989,green,2,NaN,1051.86052685176,639.890788585259,NaN,NaN,891.383827134052,838.063008756786,1051.86052685176,639.890788585259,960.476699717708,401.827779828472,708.616172865948,361.936991243214,548.13947314824,560.109211414741,639.523300282292,798.172220171528,6,4,0,5,5,3,horizontal,vertical,vertical,vertical,vertical,horizontal
1b,6,100188,2,29,93,20,F,NA,constant,heterogeneous,3,present,0.707624912261963,1,horizontal,horizontal,1,0.647058143615723,green,1,2,782.212099195248,854.378832816255,1029.19248180629,488.215357568785,782.212099195248,854.378832816255,1029.19248180629,488.215357568785,588.595418998464,457.40580961496,0,0,0,0,0,0,4,3,5,NaN,NaN,NaN,horizontal,horizontal,horizontal,none,none,none
1b,6,100188,2,30,94,20,F,NA,constant,heterogeneous,4,absent,1.2639000415802,1,vertical,vertical,1,0.694116287231445,green,1,NaN,942.594190385041,811.404581001536,NaN,NaN,942.594190385041,811.404581001536,1011.40458100154,457.40580961496,657.405809614959,388.595418998464,588.595418998464,742.594190385041,0,0,0,0,4,5,3,6,NaN,NaN,vertical,horizontal,horizontal,vertical,none,none
1b,6,100188,2,31,95,20,F,NA,constant,heterogeneous,4,present,0.965206861495972,1,vertical,vertical,1,1.01175875663757,green,2,1,1025.15163617903,719.715248510402,680.284751489598,825.151636179026,680.284751489598,825.151636179026,1025.15163617903,719.715248510402,919.715248510402,374.848363820974,574.848363820974,480.284751489598,0,0,0,0,0,4,5,6,NaN,NaN,vertical,vertical,vertical,horizontal,none,none
1b,6,100188,2,32,96,20,F,NA,constant,heterogeneous,5,present,1.23760199546814,1,horizontal,horizontal,1,1.0235232925415,green,1,5,826.654758133252,853.60308331891,567.045908301137,703.717843984329,826.654758133252,853.60308331891,1049.42763818712,653.017481158529,927.5,379.163522034968,629.371695378491,410.498069503264,567.045908301137,703.717843984329,0,0,4,6,6,0,3,NaN,horizontal,horizontal,vertical,vertical,horizontal,none
1b,6,100188,2,33,97,20,F,NA,constant,heterogeneous,3,absent,1.18031907081604,1,vertical,vertical,1,1.08234597206116,green,3,NaN,622.862115532956,416.568350913644,NaN,NaN,729.712474266665,845.121732464271,1047.42541020038,538.309916622085,622.862115532956,416.568350913644,0,0,0,0,0,0,5,3,4,NaN,NaN,NaN,vertical,vertical,vertical,none,none,none
1b,6,100188,2,34,98,20,F,NA,constant,heterogeneous,6,absent,1.5845320224762,1,horizontal,horizontal,1,0.823526182174683,green,1,NaN,777.775285599347,854.029648013395,NaN,NaN,777.775285599347,854.029648013395,1008.88377129369,746.261991269517,1031.10848569435,492.232343256122,822.224714400653,345.970351986605,591.116228706307,453.738008730483,568.891514305654,707.767656743878,4,3,6,3,6,0,horizontal,vertical,vertical,horizontal,horizontal,vertical
1b,6,100188,2,35,99,20,F,NA,constant,heterogeneous,6,present,1.16403818130493,1,horizontal,horizontal,1,0.976465148925781,green,4,3,883.019879386575,358.892763222174,1050.31493177915,551.343706178981,716.980120613425,841.107236777826,967.295052392579,792.450942956807,1050.31493177915,551.343706178981,883.019879386575,358.892763222174,632.704947607421,407.549057043193,549.685068220846,648.656293821019,5,3,5,4,0,0,horizontal,horizontal,vertical,horizontal,vertical,vertical
1b,6,100188,2,36,100,20,F,NA,constant,heterogeneous,6,present,1.27211689949036,1,vertical,vertical,1,1.03528782844543,green,2,6,1042.51941165526,678.799333565612,610.498069503264,770.628304621509,853.017481158529,849.42763818712,1042.51941165526,678.799333565612,989.501930496736,429.371695378491,746.982518841471,350.57236181288,557.480588344736,521.200666434388,610.498069503264,770.628304621509,6,4,6,3,0,0,vertical,vertical,horizontal,horizontal,vertical,horizontal
1b,6,100188,2,37,101,20,F,NA,constant,heterogeneous,5,absent,1.80339598655701,1,horizontal,horizontal,1,1.08234597206116,green,4,NaN,738.309916622085,352.574589799621,NaN,NaN,704.475318678942,836.431882914531,995.341332995339,763.910840470068,1016.25226451989,464.870587620533,738.309916622085,352.574589799621,545.621167183745,582.212099195248,0,0,5,6,6,4,0,NaN,horizontal,horizontal,vertical,horizontal,horizontal,none
1b,6,100188,2,38,102,20,F,NA,constant,heterogeneous,6,absent,1.23565220832825,1,vertical,vertical,1,1.01175875663757,green,3,NaN,1038.06300875679,508.616172865948,NaN,NaN,760.109211414741,851.86052685176,998.172220171528,760.476699717708,1038.06300875679,508.616172865948,839.890788585259,348.13947314824,601.827779828472,439.523300282291,561.936991243214,691.383827134052,3,3,4,5,6,0,horizontal,vertical,vertical,vertical,horizontal,vertical
1b,6,100188,2,39,103,20,F,NA,constant,heterogeneous,4,absent,0.996402978897095,1,vertical,vertical,1,0.976465148925781,green,1,NaN,817.787900804752,854.378832816255,NaN,NaN,817.787900804752,854.378832816255,1054.37883281626,582.212099195248,782.212099195248,345.621167183745,545.621167183745,617.787900804752,0,0,0,0,4,0,6,5,NaN,NaN,vertical,horizontal,vertical,vertical,none,none
1b,6,100188,2,40,104,20,F,NA,constant,heterogeneous,6,present,1.84534096717834,1,horizontal,horizontal,1,0.647058143615723,green,6,5,599.057257830286,756.993676208043,563.568117085469,504.475318678942,835.489140744817,852.518357529101,1036.43188291453,695.524681321058,1000.94274216971,443.006323791957,764.510859255183,347.4816424709,563.568117085469,504.475318678942,599.057257830286,756.993676208043,3,3,6,0,5,4,vertical,vertical,horizontal,vertical,horizontal,horizontal
1b,6,100188,2,41,105,20,F,NA,constant,heterogeneous,3,present,0.993778228759766,1,vertical,vertical,1,0.764703502655029,green,3,2,601.827779828472,439.523300282291,1038.06300875679,508.616172865948,760.109211414741,851.86052685176,1038.06300875679,508.616172865948,601.827779828472,439.523300282291,0,0,0,0,0,0,5,3,4,NaN,NaN,NaN,horizontal,vertical,vertical,none,none,none
1b,6,100188,2,42,106,20,F,NA,constant,heterogeneous,3,present,0.800346851348877,1,horizontal,horizontal,1,0.729409894943237,green,1,3,629.371695378491,789.501930496736,721.200666434388,357.480588344736,629.371695378491,789.501930496736,1049.42763818712,653.017481158529,721.200666434388,357.480588344736,0,0,0,0,0,0,4,3,3,NaN,NaN,NaN,horizontal,horizontal,vertical,none,none,none
1b,6,100188,2,43,107,20,F,NA,constant,heterogeneous,4,present,1.13581109046936,1,horizontal,horizontal,1,0.964700613021851,green,4,2,607.549057043193,767.295052392579,992.450942956807,432.704947607421,967.295052392579,792.450942956807,992.450942956807,432.704947607421,632.704947607421,407.549057043193,607.549057043193,767.295052392579,0,0,0,0,6,0,0,4,NaN,NaN,vertical,vertical,horizontal,horizontal,none,none
1b,6,100188,2,44,108,20,F,NA,constant,heterogeneous,5,present,0.706148862838745,1,horizontal,horizontal,1,0.77646803855896,green,3,2,1036.43188291453,504.475318678942,963.910840470068,795.341332995339,664.870587620533,816.252264519889,963.910840470068,795.341332995339,1036.43188291453,504.475318678942,782.212099195248,345.621167183745,552.574589799621,538.309916622085,0,0,5,0,4,0,3,NaN,vertical,vertical,horizontal,horizontal,horizontal,none
1b,6,100188,2,45,109,20,F,NA,constant,heterogeneous,6,absent,1.59851908683777,1,horizontal,horizontal,1,1.09411050796509,green,2,NaN,942.594190385041,811.404581001536,NaN,NaN,688.215357568785,829.192481806288,942.594190385041,811.404581001536,1054.37883281626,582.212099195248,911.784642431215,370.807518193712,657.405809614959,388.595418998464,545.621167183745,617.787900804752,6,4,5,6,0,3,vertical,horizontal,horizontal,horizontal,horizontal,vertical
1b,6,100188,2,46,110,20,F,NA,constant,heterogeneous,6,present,0.716224193572998,1,vertical,vertical,1,0.870584325790405,green,2,3,995.341332995339,763.910840470068,1039.62161830041,512.784863451954,755.719714694933,851.125977018113,995.341332995339,763.910840470068,1039.62161830041,512.784863451954,844.280285305067,348.874022981887,604.658667004661,436.089159529932,560.378381699593,687.215136548046,5,4,3,0,3,5,horizontal,vertical,vertical,vertical,vertical,horizontal
1b,6,100188,2,47,111,20,F,NA,constant,heterogeneous,5,present,0.949588060379028,1,vertical,vertical,1,0.941171541213989,green,4,2,599.057257830286,443.006323791957,1054.84466088987,608.899371659138,870.287525733335,845.121732464271,1054.84466088987,608.899371659138,887.215136548046,360.378381699593,599.057257830286,443.006323791957,588.595418998464,742.594190385041,0,0,0,6,5,4,3,NaN,horizontal,horizontal,vertical,vertical,vertical,none
1b,6,100188,2,48,112,20,F,NA,constant,heterogeneous,3,absent,0.937902212142944,1,horizontal,horizontal,1,1.0588169002533,green,1,NaN,716.980120613425,841.107236777826,NaN,NaN,716.980120613425,841.107236777826,1050.31493177915,551.343706178981,632.704947607421,407.549057043193,0,0,0,0,0,0,4,3,5,NaN,NaN,NaN,horizontal,vertical,horizontal,none,none,none
1b,6,100188,2,49,113,20,F,NA,constant,heterogeneous,4,present,0.826441049575806,1,vertical,vertical,1,0.882348861694336,green,3,4,708.616172865948,361.936991243214,561.936991243214,691.383827134052,891.383827134052,838.063008756786,1038.06300875679,508.616172865948,708.616172865948,361.936991243214,561.936991243214,691.383827134052,0,0,0,0,3,6,4,5,NaN,NaN,horizontal,horizontal,vertical,horizontal,none,none
1b,6,100188,2,50,114,20,F,NA,constant,heterogeneous,3,present,0.710277080535889,1,vertical,vertical,1,0.752938966751099,green,2,1,923.626453162816,376.971974679454,931.334709102064,818.577661679039,931.334709102064,818.577661679039,923.626453162816,376.971974679454,545.03883773512,604.450363641507,0,0,0,0,0,0,6,4,5,NaN,NaN,NaN,vertical,vertical,vertical,none,none,none
1b,6,100188,2,51,115,20,F,NA,constant,heterogeneous,5,present,1.20725297927856,1,vertical,vertical,1,0.929407005310059,green,1,2,672.5,820.836477965032,970.628304621509,789.501930496736,672.5,820.836477965032,970.628304621509,789.501930496736,1032.95409169886,496.282156015671,773.345241866748,346.39691668109,550.57236181288,546.982518841471,0,0,4,3,5,0,3,NaN,vertical,vertical,vertical,vertical,vertical,none
1b,6,100188,2,52,116,20,F,NA,constant,heterogeneous,4,absent,0.736123085021973,1,horizontal,horizontal,1,1.03528782844543,green,2,NaN,1042.51941165526,678.799333565612,NaN,NaN,721.200666434388,842.519411655264,1042.51941165526,678.799333565612,878.799333565612,357.480588344736,557.480588344736,521.200666434388,0,0,0,0,3,4,6,0,NaN,NaN,horizontal,horizontal,horizontal,vertical,none,none
1b,6,100188,2,53,117,20,F,NA,constant,heterogeneous,5,present,0.838228225708008,1,horizontal,horizontal,1,0.964700613021851,green,5,2,593.700666434388,749.885239334581,1055,600,878.799333565612,842.519411655264,1055,600,878.799333565612,357.480588344736,593.700666434388,450.114760665419,593.700666434388,749.885239334581,0,0,0,6,0,3,4,NaN,horizontal,vertical,horizontal,horizontal,horizontal,none
1b,6,100188,2,54,118,20,F,NA,constant,heterogeneous,3,present,0.641658067703247,1,horizontal,horizontal,1,0.917642469406128,green,3,1,546.39691668109,626.654758133252,949.885239334581,806.299333565612,949.885239334581,806.299333565612,903.717843984329,367.045908301137,546.39691668109,626.654758133252,0,0,0,0,0,0,3,0,4,NaN,NaN,NaN,horizontal,horizontal,horizontal,none,none,none
1b,6,100188,2,55,119,20,F,NA,constant,heterogeneous,5,absent,1.13863205909729,1,vertical,vertical,1,0.6,green,5,NaN,545.155339110131,608.899371659138,NaN,NaN,729.712474266665,845.121732464271,1011.40458100154,742.594190385041,1000.94274216971,443.006323791957,712.784863451954,360.378381699593,545.155339110131,608.899371659138,0,0,0,6,0,3,4,NaN,horizontal,vertical,horizontal,vertical,vertical,none
1b,6,100188,2,56,120,20,F,NA,constant,heterogeneous,5,absent,0.81392502784729,1,vertical,vertical,1,1.0235232925415,green,5,NaN,552.574589799621,538.309916622085,NaN,NaN,664.870587620533,816.252264519889,963.910840470068,795.341332995339,1036.43188291453,504.475318678942,782.212099195248,345.621167183745,552.574589799621,538.309916622085,0,0,0,6,5,6,4,NaN,horizontal,vertical,vertical,vertical,vertical,none
1b,6,100188,2,57,121,20,F,NA,constant,heterogeneous,3,absent,0.634974002838135,1,vertical,vertical,1,0.635293607711792,green,2,NaN,1054.96116226488,604.450363641507,NaN,NaN,668.665290897936,818.577661679039,1054.96116226488,604.450363641507,676.373546837184,376.971974679454,0,0,0,0,0,0,5,4,6,NaN,NaN,NaN,vertical,vertical,vertical,none,none,none
1b,6,100188,2,58,122,20,F,NA,constant,heterogeneous,6,absent,1.50861001014709,1,vertical,vertical,1,0.623529071807861,green,6,NaN,591.116228706307,746.261991269517,NaN,NaN,822.224714400653,854.029648013395,1031.10848569435,707.767656743878,1008.88377129369,453.738008730483,777.775285599347,345.970351986605,568.891514305654,492.232343256122,591.116228706307,746.261991269517,3,0,6,5,5,4,vertical,horizontal,horizontal,vertical,vertical,vertical
1b,6,100188,2,59,123,20,F,NA,constant,heterogeneous,3,absent,0.696184873580933,1,horizontal,horizontal,1,0.670587215423584,green,2,NaN,1032.95409169886,703.717843984329,NaN,NaN,593.700666434388,749.885239334581,1032.95409169886,703.717843984329,773.345241866748,346.39691668109,0,0,0,0,0,0,3,4,5,NaN,NaN,NaN,horizontal,horizontal,vertical,none,none,none
1b,6,100188,2,60,124,20,F,NA,constant,heterogeneous,5,absent,0.750064849853516,1,horizontal,horizontal,1,0.77646803855896,green,3,NaN,998.172220171528,439.523300282291,NaN,NaN,734.001143498857,846.311085703712,1013.86099482608,738.882953928832,998.172220171528,439.523300282291,708.616172865948,361.936991243214,545.349468637584,613.345668841951,0,0,0,3,4,3,6,NaN,horizontal,vertical,horizontal,vertical,vertical,none
1b,6,100188,2,61,125,20,F,NA,constant,heterogeneous,3,present,0.910068988800049,1,vertical,vertical,1,0.847055253982544,green,1,2,692.232343256122,831.108485694346,1054.0296480134,577.775285599347,692.232343256122,831.108485694346,1054.0296480134,577.775285599347,653.738008730483,391.116228706307,0,0,0,0,0,0,4,3,3,NaN,NaN,NaN,vertical,horizontal,vertical,none,none,none
1b,6,100188,2,62,126,20,F,NA,constant,heterogeneous,6,present,1.46585488319397,1,horizontal,horizontal,1,1.07058143615723,green,2,5,1042.51941165526,678.799333565612,557.480588344736,521.200666434388,853.017481158529,849.42763818712,1042.51941165526,678.799333565612,989.501930496736,429.371695378491,746.982518841471,350.57236181288,557.480588344736,521.200666434388,610.498069503264,770.628304621509,3,4,3,6,0,6,horizontal,horizontal,horizontal,vertical,horizontal,horizontal
1b,6,100188,2,63,127,20,F,NA,constant,heterogeneous,6,present,0.832405090332031,1,vertical,vertical,1,0.858819789886475,green,4,2,831.076682568313,346.900731331463,1003.65205506206,753.462830903772,768.923317431687,853.099268668537,1003.65205506206,753.462830903772,1034.72873763037,500.363562235235,831.076682568313,346.900731331463,596.34794493794,446.537169096228,565.271262369628,699.636437764765,6,3,0,4,6,0,vertical,vertical,vertical,vertical,vertical,vertical
1b,6,100188,2,64,128,20,F,NA,constant,heterogeneous,5,present,1.19802188873291,1,vertical,vertical,1,0.847055253982544,green,1,3,672.5,820.836477965032,1032.95409169886,496.282156015671,672.5,820.836477965032,970.628304621509,789.501930496736,1032.95409169886,496.282156015671,773.345241866748,346.39691668109,550.57236181288,546.982518841471,0,0,4,5,3,3,0,NaN,vertical,horizontal,vertical,horizontal,vertical,none
1b,6,100188,3,1,129,20,F,NA,constant,heterogeneous,3,present,0.623595952987671,1,vertical,vertical,1,0.6,green,3,1,738.309916622085,352.574589799621,616.568350913644,777.137884467044,616.568350913644,777.137884467044,1045.12173246427,670.287525733335,738.309916622085,352.574589799621,0,0,0,0,0,0,0,0,4,NaN,NaN,NaN,vertical,vertical,vertical,none,none,none
1b,6,100188,3,2,130,20,F,NA,constant,heterogeneous,4,present,0.684768915176392,1,vertical,vertical,1,0.823526182174683,green,4,2,553.688914296288,534.001143498857,1046.31108570371,665.998856501143,734.001143498857,846.311085703712,1046.31108570371,665.998856501143,865.998856501143,353.688914296288,553.688914296288,534.001143498857,0,0,0,0,0,6,5,4,NaN,NaN,horizontal,vertical,vertical,vertical,none,none
1b,6,100188,3,3,131,20,F,NA,constant,heterogeneous,6,absent,1.16484594345093,1,horizontal,horizontal,1,0.905877933502197,green,6,NaN,556.142287229426,674.554784704298,NaN,NaN,742.637481142314,848.464366520235,986.495193912888,773.909581815937,1043.85771277057,525.445215295702,857.362518857686,351.535633479765,613.504806087112,426.090418184063,556.142287229426,674.554784704298,6,0,3,6,0,4,horizontal,vertical,horizontal,vertical,vertical,horizontal
1b,6,100188,3,4,132,20,F,NA,constant,heterogeneous,3,present,0.517248868942261,1,vertical,vertical,1,0.847055253982544,green,2,3,874.554784704298,356.142287229426,551.535633479765,657.362518857686,973.909581815937,786.495193912888,874.554784704298,356.142287229426,551.535633479765,657.362518857686,0,0,0,0,0,0,6,4,5,NaN,NaN,NaN,horizontal,vertical,vertical,none,none,none
1b,6,100188,3,5,133,20,F,NA,constant,heterogeneous,6,present,0.628363847732544,1,vertical,vertical,1,0.623529071807861,green,4,6,883.019879386575,358.892763222174,549.685068220846,648.656293821019,716.980120613425,841.107236777826,967.295052392579,792.450942956807,1050.31493177915,551.343706178981,883.019879386575,358.892763222174,632.704947607421,407.549057043193,549.685068220846,648.656293821019,5,6,3,4,6,5,horizontal,vertical,horizontal,vertical,vertical,vertical
1b,6,100188,3,6,134,20,F,NA,constant,heterogeneous,5,present,1.51311993598938,1,vertical,vertical,1,0.799997110366821,green,1,2,764.510859255183,852.518357529101,1029.19248180629,711.784642431215,764.510859255183,852.518357529101,1029.19248180629,711.784642431215,977.137884467044,416.568350913644,680.284751489598,374.848363820974,548.874022981887,644.280285305067,0,0,4,5,6,3,3,NaN,vertical,vertical,vertical,vertical,vertical,none
1b,6,100188,3,7,135,20,F,NA,constant,heterogeneous,4,absent,1.3178699016571,1,vertical,vertical,1,0.917642469406128,green,1,NaN,646.537169096228,803.65205506206,NaN,NaN,646.537169096228,803.65205506206,1003.65205506206,753.462830903772,953.462830903772,396.34794493794,596.34794493794,446.537169096228,0,0,0,0,4,6,3,5,NaN,NaN,vertical,horizontal,horizontal,vertical,none,none
1b,6,100188,3,8,136,20,F,NA,constant,heterogeneous,4,present,0.66102409362793,1,horizontal,horizontal,1,1.0235232925415,green,1,2,729.712474266665,845.121732464271,1045.12173246427,670.287525733335,729.712474266665,845.121732464271,1045.12173246427,670.287525733335,870.287525733335,354.878267535729,554.878267535729,529.712474266665,0,0,0,0,4,3,5,0,NaN,NaN,horizontal,horizontal,horizontal,vertical,none,none
1b,6,100188,3,9,137,20,F,NA,constant,heterogeneous,5,present,1.32739901542664,1,horizontal,horizontal,1,1.04705236434937,green,5,3,554.878267535729,670.287525733335,956.993676208043,399.057257830286,791.100628340862,854.844660889869,1039.62161830041,687.215136548046,956.993676208043,399.057257830286,657.405809614959,388.595418998464,554.878267535729,670.287525733335,0,0,0,5,0,5,4,NaN,vertical,vertical,horizontal,horizontal,horizontal,none
1b,6,100188,3,10,138,20,F,NA,constant,heterogeneous,5,absent,0.607975959777832,1,vertical,vertical,1,0.894113397598267,green,3,NaN,865.998856501143,353.688914296288,NaN,NaN,891.383827134052,838.063008756786,1054.65053136242,586.654331158049,865.998856501143,353.688914296288,586.139005173917,461.117046071168,601.827779828472,760.476699717708,0,0,3,5,4,6,3,NaN,horizontal,horizontal,vertical,vertical,vertical,none
1b,6,100188,3,11,139,20,F,NA,constant,heterogeneous,5,present,0.701521158218384,1,vertical,vertical,1,1.07058143615723,green,1,4,734.001143498857,846.311085703712,708.616172865948,361.936991243214,734.001143498857,846.311085703712,1013.86099482608,738.882953928832,998.172220171528,439.523300282291,708.616172865948,361.936991243214,545.349468637584,613.345668841951,0,0,4,6,3,6,5,NaN,vertical,horizontal,horizontal,vertical,vertical,none
1b,6,100188,3,12,140,20,F,NA,constant,heterogeneous,4,present,0.843780994415283,1,horizontal,horizontal,1,0.799997110366821,green,3,2,619.68777079743,419.68777079743,980.31222920257,419.68777079743,980.31222920257,780.31222920257,980.31222920257,419.68777079743,619.68777079743,419.68777079743,619.68777079743,780.31222920257,0,0,0,0,5,0,4,5,NaN,NaN,horizontal,horizontal,horizontal,horizontal,none,none
1b,6,100188,3,13,141,20,F,NA,constant,heterogeneous,4,absent,0.957116842269897,1,horizontal,horizontal,1,0.623529071807861,green,4,NaN,546.39691668109,626.654758133252,NaN,NaN,826.654758133252,853.60308331891,1053.60308331891,573.345241866748,773.345241866748,346.39691668109,546.39691668109,626.654758133252,0,0,0,0,5,0,6,4,NaN,NaN,vertical,vertical,vertical,horizontal,none,none
1b,6,100188,3,14,142,20,F,NA,constant,heterogeneous,3,absent,0.595773935317993,1,horizontal,horizontal,1,0.964700613021851,green,1,NaN,704.475318678942,836.431882914531,NaN,NaN,704.475318678942,836.431882914531,1052.5183575291,564.510859255183,643.006323791957,399.057257830286,0,0,0,0,0,0,4,0,0,NaN,NaN,NaN,horizontal,vertical,vertical,none,none,none
1b,6,100188,3,15,143,20,F,NA,constant,heterogeneous,6,absent,0.783538103103638,1,vertical,vertical,1,0.988229684829712,green,6,NaN,546.39691668109,626.654758133252,NaN,NaN,696.282156015671,832.954091698863,949.885239334581,806.299333565612,1053.60308331891,573.345241866748,903.717843984329,367.045908301137,650.114760665419,393.700666434388,546.39691668109,626.654758133252,3,5,3,0,0,4,vertical,horizontal,vertical,vertical,horizontal,vertical
1b,6,100188,3,16,144,20,F,NA,constant,heterogeneous,4,present,0.579814910888672,1,vertical,vertical,1,0.823526182174683,green,2,3,1051.86052685176,639.890788585259,839.890788585259,348.13947314824,760.109211414741,851.86052685176,1051.86052685176,639.890788585259,839.890788585259,348.13947314824,548.13947314824,560.109211414741,0,0,0,0,5,4,6,0,NaN,NaN,horizontal,vertical,horizontal,vertical,none,none
1b,6,100188,3,17,145,20,F,NA,constant,heterogeneous,4,absent,0.928061008453369,1,vertical,vertical,1,0.823526182174683,green,3,NaN,887.215136548046,360.378381699593,NaN,NaN,712.784863451954,839.621618300407,1039.62161830041,687.215136548046,887.215136548046,360.378381699593,560.378381699593,512.784863451954,0,0,0,0,3,3,4,6,NaN,NaN,vertical,horizontal,vertical,vertical,none,none
1b,6,100188,3,18,146,20,F,NA,constant,heterogeneous,5,present,0.87150502204895,1,vertical,vertical,1,1.03528782844543,green,1,4,661.117046071168,813.860994826083,786.654331158049,345.349468637584,661.117046071168,813.860994826083,960.476699717708,798.172220171528,1038.06300875679,508.616172865948,786.654331158049,345.349468637584,553.688914296288,534.001143498857,0,0,4,3,0,6,6,NaN,vertical,horizontal,horizontal,vertical,horizontal,none
1b,6,100188,3,19,147,20,F,NA,constant,heterogeneous,6,present,1.29520177841187,1,horizontal,horizontal,1,1.09411050796509,green,1,4,696.282156015671,832.954091698863,903.717843984329,367.045908301137,696.282156015671,832.954091698863,949.885239334581,806.299333565612,1053.60308331891,573.345241866748,903.717843984329,367.045908301137,650.114760665419,393.700666434388,546.39691668109,626.654758133252,4,5,3,6,3,0,horizontal,vertical,vertical,horizontal,vertical,vertical
1b,6,100188,3,20,148,20,F,NA,constant,heterogeneous,4,present,0.898046970367432,1,horizontal,horizontal,1,0.835290718078613,green,1,4,782.212099195248,854.378832816255,545.621167183745,582.212099195248,782.212099195248,854.378832816255,1054.37883281626,617.787900804752,817.787900804752,345.621167183745,545.621167183745,582.212099195248,0,0,0,0,4,5,0,3,NaN,NaN,horizontal,vertical,horizontal,vertical,none,none
1b,6,100188,3,21,149,20,F,NA,constant,heterogeneous,4,absent,0.818421125411987,1,horizontal,horizontal,1,0.917642469406128,green,2,NaN,1054.0296480134,622.224714400653,NaN,NaN,777.775285599347,854.029648013395,1054.0296480134,622.224714400653,822.224714400653,345.970351986605,545.970351986605,577.775285599347,0,0,0,0,5,4,0,6,NaN,NaN,horizontal,horizontal,horizontal,horizontal,none,none
1b,6,100188,3,22,150,20,F,NA,constant,heterogeneous,3,absent,1.25008583068848,1,vertical,vertical,1,0.95293607711792,green,2,NaN,1052.5183575291,564.510859255183,NaN,NaN,704.475318678942,836.431882914531,1052.5183575291,564.510859255183,643.006323791957,399.057257830286,0,0,0,0,0,0,5,4,3,NaN,NaN,NaN,horizontal,vertical,vertical,none,none,none
1b,6,100188,3,23,151,20,F,NA,constant,heterogeneous,6,absent,1.93482804298401,1,vertical,vertical,1,0.77646803855896,green,1,NaN,712.784863451954,839.621618300407,NaN,NaN,712.784863451954,839.621618300407,963.910840470068,795.341332995339,1051.12597701811,555.719714694933,887.215136548046,360.378381699593,636.089159529932,404.658667004661,548.874022981887,644.280285305067,4,0,5,6,3,3,vertical,vertical,horizontal,horizontal,horizontal,vertical
1b,6,100188,3,24,152,20,F,NA,constant,heterogeneous,5,present,0.643630027770996,1,vertical,vertical,1,0.694116287231445,green,1,2,919.715248510402,825.151636179026,1051.12597701811,555.719714694933,919.715248510402,825.151636179026,1051.12597701811,555.719714694933,835.489140744817,347.4816424709,570.807518193712,488.215357568785,622.862115532956,783.431649086356,0,0,4,5,0,5,6,NaN,vertical,horizontal,horizontal,horizontal,horizontal,none
1b,6,100188,3,25,153,20,F,NA,constant,heterogeneous,4,absent,0.659181833267212,1,vertical,vertical,1,0.729409894943237,green,2,NaN,1054.37883281626,617.787900804752,NaN,NaN,782.212099195248,854.378832816255,1054.37883281626,617.787900804752,817.787900804752,345.621167183745,545.621167183745,582.212099195248,0,0,0,0,6,4,0,5,NaN,NaN,vertical,vertical,horizontal,horizontal,none,none
1b,6,100188,3,26,154,20,F,NA,constant,heterogeneous,3,present,0.540410041809082,1,vertical,vertical,1,0.999994220733643,green,3,2,738.309916622085,352.574589799621,1045.12173246427,670.287525733335,616.568350913644,777.137884467044,1045.12173246427,670.287525733335,738.309916622085,352.574589799621,0,0,0,0,0,0,3,5,4,NaN,NaN,NaN,horizontal,vertical,vertical,none,none,none
1b,6,100188,3,27,155,20,F,NA,constant,heterogeneous,4,present,0.490891933441162,1,vertical,vertical,1,0.77646803855896,green,1,4,822.224714400653,854.029648013395,545.970351986605,622.224714400653,822.224714400653,854.029648013395,1054.0296480134,577.775285599347,777.775285599347,345.970351986605,545.970351986605,622.224714400653,0,0,0,0,4,0,0,3,NaN,NaN,vertical,horizontal,vertical,vertical,none,none
1b,6,100188,3,28,156,20,F,NA,constant,heterogeneous,5,absent,0.888830900192261,1,horizontal,horizontal,1,0.788232574462891,green,4,NaN,661.117046071168,386.139005173917,NaN,NaN,786.654331158049,854.650531362416,1038.06300875679,691.383827134052,960.476699717708,401.827779828472,661.117046071168,386.139005173917,553.688914296288,665.998856501143,0,0,0,6,3,4,6,NaN,horizontal,horizontal,horizontal,horizontal,horizontal,none
1b,6,100188,3,29,157,20,F,NA,constant,heterogeneous,5,absent,0.819703102111816,1,vertical,vertical,1,1.04705236434937,green,1,NaN,848.656293821019,850.314931779154,NaN,NaN,848.656293821019,850.314931779154,1053.09926866854,631.076682568313,907.767656743878,368.891514305654,613.504806087112,426.090418184063,576.971974679454,723.626453162816,0,0,4,0,5,6,6,NaN,vertical,horizontal,horizontal,vertical,horizontal,none
1b,6,100188,3,30,158,20,F,NA,constant,heterogeneous,5,present,NaN,0,horizontal,none,0,0.635293607711792,green,1,4,883.019879386575,841.107236777826,591.116228706307,453.738008730483,883.019879386575,841.107236777826,1054.96116226488,595.549636358493,874.554784704298,356.142287229426,591.116228706307,453.738008730483,596.34794493794,753.462830903772,0,0,4,0,5,5,3,NaN,horizontal,horizontal,vertical,vertical,horizontal,none
1b,6,100188,3,31,159,20,F,NA,constant,heterogeneous,3,present,1.31341600418091,1,horizontal,horizontal,1,0.611764535903931,green,2,1,817.787900804752,345.621167183745,1011.40458100154,742.594190385041,1011.40458100154,742.594190385041,817.787900804752,345.621167183745,570.807518193712,711.784642431215,0,0,0,0,0,0,3,4,5,NaN,NaN,NaN,vertical,horizontal,horizontal,none,none,none
1b,6,100188,3,32,160,20,F,NA,constant,heterogeneous,6,present,0.758085012435913,1,horizontal,horizontal,1,0.917642469406128,green,5,6,552.574589799621,538.309916622085,622.862115532956,783.431649086356,870.287525733335,845.121732464271,1047.42541020038,661.690083377915,977.137884467044,416.568350913644,729.712474266665,354.878267535729,552.574589799621,538.309916622085,622.862115532956,783.431649086356,3,5,5,0,4,0,horizontal,horizontal,horizontal,vertical,horizontal,horizontal
1b,6,100188,3,33,161,20,F,NA,constant,heterogeneous,6,absent,1.37396693229675,1,vertical,vertical,1,1.03528782844543,green,2,NaN,986.495193912888,773.909581815937,NaN,NaN,742.637481142314,848.464366520235,986.495193912888,773.909581815937,1043.85771277057,525.445215295702,857.362518857686,351.535633479765,613.504806087112,426.090418184063,556.142287229426,674.554784704298,3,4,3,6,6,0,horizontal,vertical,vertical,horizontal,vertical,vertical
1b,6,100188,3,34,162,20,F,NA,constant,heterogeneous,3,absent,0.920575141906738,0,horizontal,vertical,1,0.741174430847168,green,1,NaN,643.006323791957,800.942742169714,NaN,NaN,643.006323791957,800.942742169714,1052.5183575291,635.489140744817,704.475318678942,363.568117085469,0,0,0,0,0,0,4,5,3,NaN,NaN,NaN,horizontal,horizontal,horizontal,none,none,none
1b,6,100188,3,35,163,20,F,NA,constant,heterogeneous,5,present,1.67591691017151,1,horizontal,horizontal,1,0.635293607711792,green,1,3,676.373546837184,823.028025320546,1031.10848569435,492.232343256122,676.373546837184,823.028025320546,973.909581815937,786.495193912888,1031.10848569435,492.232343256122,768.923317431687,346.900731331463,549.685068220846,551.343706178981,0,0,4,6,5,0,5,NaN,horizontal,vertical,horizontal,horizontal,horizontal,none
1b,6,100188,3,36,164,20,F,NA,constant,heterogeneous,5,absent,1.21053099632263,1,horizontal,horizontal,1,0.847055253982544,green,1,NaN,808.899371659138,854.844660889869,NaN,NaN,808.899371659138,854.844660889869,1045.12173246427,670.287525733335,942.594190385041,388.595418998464,643.006323791957,399.057257830286,560.378381699593,687.215136548046,0,0,4,0,5,5,6,NaN,horizontal,horizontal,horizontal,horizontal,horizontal,none
1b,6,100188,3,37,165,20,F,NA,constant,heterogeneous,6,present,0.718753814697266,1,vertical,vertical,1,0.788232574462891,green,1,2,742.637481142314,848.464366520235,986.495193912888,773.909581815937,742.637481142314,848.464366520235,986.495193912888,773.909581815937,1043.85771277057,525.445215295702,857.362518857686,351.535633479765,613.504806087112,426.090418184063,556.142287229426,674.554784704298,4,5,6,3,6,0,vertical,vertical,horizontal,horizontal,horizontal,horizontal
1b,6,100188,3,38,166,20,F,NA,constant,heterogeneous,3,absent,0.612457036972046,1,vertical,vertical,1,0.752938966751099,green,1,NaN,751.343706178981,850.314931779154,NaN,NaN,751.343706178981,850.314931779154,1041.10723677783,516.980120613425,607.549057043193,432.704947607421,0,0,0,0,0,0,4,0,6,NaN,NaN,NaN,vertical,horizontal,vertical,none,none,none
1b,6,100188,3,39,167,20,F,NA,constant,heterogeneous,5,present,1.63350820541382,1,horizontal,horizontal,1,0.835290718078613,green,5,3,646.537169096228,803.65205506206,804.450363641507,345.03883773512,946.261991269517,808.883771293693,1043.85771277057,525.445215295702,804.450363641507,345.03883773512,558.892763222174,516.980120613425,646.537169096228,803.65205506206,0,0,5,5,6,6,4,NaN,horizontal,vertical,horizontal,horizontal,horizontal,none
1b,6,100188,3,40,168,20,F,NA,constant,heterogeneous,3,present,0.79145884513855,1,vertical,vertical,1,0.647058143615723,green,1,3,607.549057043193,767.295052392579,751.343706178981,349.685068220846,607.549057043193,767.295052392579,1041.10723677783,683.019879386575,751.343706178981,349.685068220846,0,0,0,0,0,0,4,0,5,NaN,NaN,NaN,vertical,vertical,vertical,none,none,none
1b,6,100188,3,41,169,20,F,NA,constant,heterogeneous,4,absent,1.10625505447388,1,horizontal,horizontal,1,0.741174430847168,green,4,NaN,561.936991243214,691.383827134052,NaN,NaN,891.383827134052,838.063008756786,1038.06300875679,508.616172865948,708.616172865948,361.936991243214,561.936991243214,691.383827134052,0,0,0,0,3,5,3,4,NaN,NaN,vertical,vertical,horizontal,horizontal,none,none
1b,6,100188,3,42,170,20,F,NA,constant,heterogeneous,6,present,1.29765701293945,1,vertical,vertical,1,1.0588169002533,green,4,2,704.475318678942,363.568117085469,1052.5183575291,635.489140744817,895.524681321058,836.431882914531,1052.5183575291,635.489140744817,956.993676208043,399.057257830286,704.475318678942,363.568117085469,547.481642470899,564.510859255183,643.006323791957,800.942742169714,5,3,0,4,6,3,horizontal,horizontal,horizontal,vertical,vertical,vertical
1b,6,100188,3,43,171,20,F,NA,constant,heterogeneous,6,absent,1.46965289115906,1,horizontal,horizontal,1,0.682351751327515,green,5,NaN,563.568117085469,504.475318678942,NaN,NaN,835.489140744817,852.518357529101,1036.43188291453,695.524681321058,1000.94274216971,443.006323791957,764.510859255183,347.4816424709,563.568117085469,504.475318678942,599.057257830286,756.993676208043,0,3,6,5,4,5,horizontal,vertical,vertical,vertical,horizontal,horizontal
1b,6,100188,3,44,172,20,F,NA,constant,heterogeneous,6,present,0.827166080474854,1,horizontal,horizontal,1,0.999994220733643,green,2,3,953.462830903772,803.65205506206,1053.09926866854,568.923317431687,700.363562235235,834.728737630372,953.462830903772,803.65205506206,1053.09926866854,568.923317431687,899.636437764765,365.271262369628,646.537169096228,396.34794493794,546.900731331463,631.076682568313,3,4,0,6,5,0,horizontal,horizontal,vertical,vertical,horizontal,horizontal
1b,6,100188,3,45,173,20,F,NA,constant,heterogeneous,6,absent,1.67841410636902,1,horizontal,horizontal,1,0.729409894943237,green,1,NaN,721.200666434388,842.519411655264,NaN,NaN,721.200666434388,842.519411655264,970.628304621509,789.501930496736,1049.42763818712,546.982518841471,878.799333565612,357.480588344736,629.371695378491,410.498069503264,550.57236181288,653.017481158529,4,0,5,6,3,6,horizontal,vertical,vertical,vertical,vertical,horizontal
1b,6,100188,3,46,174,20,F,NA,constant,heterogeneous,3,absent,0.529941082000732,1,vertical,vertical,1,1.08234597206116,green,2,NaN,1053.60308331891,573.345241866748,NaN,NaN,696.282156015671,832.954091698863,1053.60308331891,573.345241866748,650.114760665419,393.700666434388,0,0,0,0,0,0,3,4,0,NaN,NaN,NaN,horizontal,vertical,vertical,none,none,none
1b,6,100188,3,47,175,20,F,NA,constant,heterogeneous,5,absent,0.992958068847656,1,vertical,vertical,1,0.611764535903931,green,5,NaN,545.155339110131,608.899371659138,NaN,NaN,729.712474266665,845.121732464271,1011.40458100154,742.594190385041,1000.94274216971,443.006323791957,712.784863451954,360.378381699593,545.155339110131,608.899371659138,0,0,3,0,5,5,4,NaN,vertical,horizontal,vertical,horizontal,vertical,none
1b,6,100188,3,48,176,20,F,NA,constant,heterogeneous,5,absent,1.4747200012207,1,horizontal,horizontal,1,0.694116287231445,green,5,NaN,551.535633479765,657.362518857686,NaN,NaN,777.775285599347,854.029648013395,1034.72873763037,699.636437764765,967.295052392579,407.549057043193,668.665290897936,381.422338320961,551.535633479765,657.362518857686,0,0,3,6,5,6,4,NaN,vertical,horizontal,vertical,horizontal,horizontal,none
1b,6,100188,3,49,177,20,F,NA,constant,heterogeneous,6,absent,NaN,0,horizontal,none,0,0.764703502655029,green,4,NaN,791.100628340862,345.155339110131,NaN,NaN,808.899371659138,854.844660889869,1025.15163617903,719.715248510402,1016.25226451989,464.870587620533,791.100628340862,345.155339110131,574.848363820974,480.284751489598,583.747735480111,735.129412379467,3,6,5,4,0,5,vertical,vertical,horizontal,horizontal,horizontal,vertical
1b,6,100188,3,50,178,20,F,NA,constant,heterogeneous,5,absent,1.32962393760681,1,horizontal,horizontal,1,1.07058143615723,green,5,NaN,646.537169096228,803.65205506206,NaN,NaN,946.261991269517,808.883771293693,1043.85771277057,525.445215295702,804.450363641507,345.03883773512,558.892763222174,516.980120613425,646.537169096228,803.65205506206,0,0,0,0,6,3,4,NaN,horizontal,vertical,vertical,horizontal,horizontal,none
1b,6,100188,3,51,179,20,F,NA,constant,heterogeneous,3,absent,1.04862999916077,1,horizontal,horizontal,1,0.811761646270752,green,2,NaN,1032.95409169886,703.717843984329,NaN,NaN,593.700666434388,749.885239334581,1032.95409169886,703.717843984329,773.345241866748,346.39691668109,0,0,0,0,0,0,3,4,6,NaN,NaN,NaN,horizontal,horizontal,horizontal,none,none,none
1b,6,100188,3,52,180,20,F,NA,constant,heterogeneous,4,absent,1.3640718460083,1,horizontal,horizontal,1,0.705880823135376,green,4,NaN,545,600,NaN,NaN,800,855,1055,600,800,345,545,600,0,0,0,0,6,3,5,4,NaN,NaN,vertical,vertical,horizontal,horizontal,none,none
1b,6,100188,3,53,181,20,F,NA,constant,heterogeneous,6,present,0.856243848800659,1,vertical,vertical,1,1.03528782844543,green,3,6,1054.0296480134,577.775285599347,545.970351986605,622.224714400653,692.232343256122,831.108485694346,946.261991269517,808.883771293693,1054.0296480134,577.775285599347,907.767656743878,368.891514305654,653.738008730483,391.116228706307,545.970351986605,622.224714400653,6,3,4,6,0,5,vertical,horizontal,vertical,vertical,horizontal,vertical
1b,6,100188,3,54,182,20,F,NA,constant,heterogeneous,3,absent,0.558418989181519,1,vertical,vertical,1,0.847055253982544,green,2,NaN,1049.42763818712,653.017481158529,NaN,NaN,629.371695378491,789.501930496736,1049.42763818712,653.017481158529,721.200666434388,357.480588344736,0,0,0,0,0,0,5,4,6,NaN,NaN,NaN,vertical,vertical,horizontal,none,none,none
1b,6,100188,3,55,183,20,F,NA,constant,heterogeneous,6,present,1.33898901939392,1,horizontal,horizontal,1,0.670587215423584,green,1,6,883.019879386575,841.107236777826,632.704947607421,792.450942956807,883.019879386575,841.107236777826,1050.31493177915,648.656293821019,967.295052392579,407.549057043193,716.980120613425,358.892763222174,549.685068220846,551.343706178981,632.704947607421,792.450942956807,4,5,5,3,6,0,horizontal,horizontal,horizontal,horizontal,vertical,vertical
1b,6,100188,3,56,184,20,F,NA,constant,heterogeneous,6,absent,1.13931202888489,1,vertical,vertical,1,0.858819789886475,green,3,NaN,1053.09926866854,568.923317431687,NaN,NaN,700.363562235235,834.728737630372,953.462830903772,803.65205506206,1053.09926866854,568.923317431687,899.636437764765,365.271262369628,646.537169096228,396.34794493794,546.900731331463,631.076682568313,5,5,4,3,6,6,vertical,vertical,vertical,vertical,horizontal,horizontal
1b,6,100188,3,57,185,20,F,NA,constant,heterogeneous,3,present,0.941591024398804,1,horizontal,horizontal,1,0.976465148925781,green,1,2,721.200666434388,842.519411655264,1049.42763818712,546.982518841471,721.200666434388,842.519411655264,1049.42763818712,546.982518841471,629.371695378491,410.498069503264,0,0,0,0,0,0,4,6,6,NaN,NaN,NaN,horizontal,horizontal,horizontal,none,none,none
1b,6,100188,3,58,186,20,F,NA,constant,heterogeneous,4,absent,1.16088914871216,0,vertical,horizontal,1,0.811761646270752,green,3,NaN,817.787900804752,345.621167183745,NaN,NaN,782.212099195248,854.378832816255,1054.37883281626,617.787900804752,817.787900804752,345.621167183745,545.621167183745,582.212099195248,0,0,0,0,5,3,4,5,NaN,NaN,horizontal,horizontal,vertical,horizontal,none,none
1b,6,100188,3,59,187,20,F,NA,constant,heterogeneous,5,absent,1.98494100570679,1,vertical,vertical,1,1.03528782844543,green,2,NaN,1054.65053136242,613.345668841951,NaN,NaN,865.998856501143,846.311085703712,1054.65053136242,613.345668841951,891.383827134052,361.936991243214,601.827779828472,439.523300282291,586.139005173917,738.882953928832,0,0,6,4,3,0,6,NaN,horizontal,vertical,horizontal,horizontal,horizontal,none
1b,6,100188,3,60,188,20,F,NA,constant,heterogeneous,4,present,0.916625022888184,1,vertical,vertical,1,0.6,green,3,1,942.594190385041,388.595418998464,657.405809614959,811.404581001536,657.405809614959,811.404581001536,1011.40458100154,742.594190385041,942.594190385041,388.595418998464,588.595418998464,457.40580961496,0,0,0,0,6,0,4,3,NaN,NaN,horizontal,vertical,vertical,vertical,none,none
1b,6,100188,3,61,189,20,F,NA,constant,heterogeneous,3,present,0.761966943740845,1,horizontal,horizontal,1,0.729409894943237,green,3,2,581.422338320961,468.665290897936,1023.02802532055,476.373546837184,795.549636358493,854.96116226488,1023.02802532055,476.373546837184,581.422338320961,468.665290897936,0,0,0,0,0,0,3,0,4,NaN,NaN,NaN,horizontal,horizontal,horizontal,none,none,none
1b,6,100188,3,62,190,20,F,NA,constant,heterogeneous,3,present,0.86683988571167,0,horizontal,vertical,1,1.08234597206116,green,2,3,891.383827134052,361.936991243214,548.13947314824,639.890788585259,960.476699717708,798.172220171528,891.383827134052,361.936991243214,548.13947314824,639.890788585259,0,0,0,0,0,0,0,4,3,NaN,NaN,NaN,horizontal,horizontal,vertical,none,none,none
1b,6,100188,3,63,191,20,F,NA,constant,heterogeneous,4,present,1.25416111946106,1,horizontal,horizontal,1,1.09411050796509,green,3,1,923.626453162816,376.971974679454,676.373546837184,823.028025320546,676.373546837184,823.028025320546,1023.02802532055,723.626453162816,923.626453162816,376.971974679454,576.971974679454,476.373546837184,0,0,0,0,5,0,4,3,NaN,NaN,vertical,horizontal,horizontal,horizontal,none,none
1b,6,100188,3,64,192,20,F,NA,constant,heterogeneous,3,absent,0.986494064331055,1,horizontal,horizontal,1,0.752938966751099,green,3,NaN,738.309916622085,352.574589799621,NaN,NaN,616.568350913644,777.137884467044,1045.12173246427,670.287525733335,738.309916622085,352.574589799621,0,0,0,0,0,0,6,6,4,NaN,NaN,NaN,vertical,vertical,horizontal,none,none,none
1b,6,100188,4,1,193,20,F,NA,constant,heterogeneous,6,present,1.50122308731079,1,vertical,vertical,1,0.729409894943237,green,1,5,870.287525733335,845.121732464271,552.574589799621,538.309916622085,870.287525733335,845.121732464271,1047.42541020038,661.690083377915,977.137884467044,416.568350913644,729.712474266665,354.878267535729,552.574589799621,538.309916622085,622.862115532956,783.431649086356,4,3,3,0,5,5,vertical,horizontal,vertical,horizontal,horizontal,horizontal
1b,6,100188,4,2,194,20,F,NA,constant,heterogeneous,5,present,0.836724996566772,1,horizontal,horizontal,1,0.870584325790405,green,1,5,676.373546837184,823.028025320546,549.685068220846,551.343706178981,676.373546837184,823.028025320546,973.909581815937,786.495193912888,1031.10848569435,492.232343256122,768.923317431687,346.900731331463,549.685068220846,551.343706178981,0,0,4,5,0,5,0,NaN,horizontal,horizontal,vertical,horizontal,vertical,none
1b,6,100188,4,3,195,20,F,NA,constant,heterogeneous,6,present,0.643698930740356,1,horizontal,horizontal,1,0.705880823135376,green,6,5,550.57236181288,653.017481158529,629.371695378491,410.498069503264,721.200666434388,842.519411655264,970.628304621509,789.501930496736,1049.42763818712,546.982518841471,878.799333565612,357.480588344736,629.371695378491,410.498069503264,550.57236181288,653.017481158529,0,5,3,6,5,4,horizontal,horizontal,vertical,horizontal,horizontal,horizontal
1b,6,100188,4,4,196,20,F,NA,constant,heterogeneous,3,absent,0.604286909103394,1,vertical,vertical,1,0.976465148925781,green,2,NaN,1047.42541020038,538.309916622085,NaN,NaN,729.712474266665,845.121732464271,1047.42541020038,538.309916622085,622.862115532956,416.568350913644,0,0,0,0,0,0,5,4,0,NaN,NaN,NaN,horizontal,vertical,vertical,none,none,none
1b,6,100188,4,5,197,20,F,NA,constant,heterogeneous,6,absent,1.06360507011414,1,vertical,vertical,1,0.752938966751099,green,6,NaN,646.537169096228,803.65205506206,NaN,NaN,899.636437764765,834.728737630372,1053.09926866854,631.076682568313,953.462830903772,396.34794493794,700.363562235235,365.271262369628,546.900731331463,568.923317431687,646.537169096228,803.65205506206,0,6,6,0,3,4,vertical,vertical,vertical,vertical,vertical,vertical
1b,6,100188,4,6,198,20,F,NA,constant,heterogeneous,4,absent,0.92809009552002,1,horizontal,horizontal,1,0.95293607711792,green,4,NaN,610.498069503264,770.628304621509,NaN,NaN,970.628304621509,789.501930496736,989.501930496736,429.371695378491,629.371695378491,410.498069503264,610.498069503264,770.628304621509,0,0,0,0,6,0,3,4,NaN,NaN,horizontal,vertical,horizontal,horizontal,none,none
1b,6,100188,4,7,199,20,F,NA,constant,heterogeneous,6,absent,1.49619889259338,1,horizontal,horizontal,1,0.858819789886475,green,3,NaN,956.993676208043,399.057257830286,NaN,NaN,895.524681321058,836.431882914531,1052.5183575291,635.489140744817,956.993676208043,399.057257830286,704.475318678942,363.568117085469,547.481642470899,564.510859255183,643.006323791957,800.942742169714,5,6,4,5,3,6,vertical,horizontal,horizontal,horizontal,vertical,vertical
1b,6,100188,4,8,200,20,F,NA,constant,heterogeneous,5,present,0.652346849441528,1,horizontal,horizontal,1,0.905877933502197,green,2,3,1038.06300875679,691.383827134052,960.476699717708,401.827779828472,786.654331158049,854.650531362416,1038.06300875679,691.383827134052,960.476699717708,401.827779828472,661.117046071168,386.139005173917,553.688914296288,665.998856501143,0,0,6,4,6,0,0,NaN,horizontal,horizontal,vertical,horizontal,horizontal,none
1b,6,100188,4,9,201,20,F,NA,constant,heterogeneous,6,present,1.549889087677,1,horizontal,horizontal,1,0.811761646270752,green,6,5,583.747735480111,735.129412379467,574.848363820974,480.284751489598,808.899371659138,854.844660889869,1025.15163617903,719.715248510402,1016.25226451989,464.870587620533,791.100628340862,345.155339110131,574.848363820974,480.284751489598,583.747735480111,735.129412379467,0,6,3,5,6,4,vertical,vertical,horizontal,vertical,horizontal,horizontal
1b,6,100188,4,10,202,20,F,NA,constant,heterogeneous,5,absent,0.899099111557007,0,vertical,horizontal,1,0.905877933502197,green,4,NaN,696.282156015671,367.045908301137,NaN,NaN,746.982518841471,849.42763818712,1020.83647796503,727.5,989.501930496736,429.371695378491,696.282156015671,367.045908301137,546.39691668109,626.654758133252,0,0,5,0,3,4,5,NaN,horizontal,horizontal,horizontal,vertical,vertical,none
1b,6,100188,4,11,203,20,F,NA,constant,heterogeneous,3,present,0.70789909362793,1,horizontal,horizontal,1,0.741174430847168,green,2,1,1054.65053136242,613.345668841951,661.117046071168,813.860994826083,661.117046071168,813.860994826083,1054.65053136242,613.345668841951,684.232422566416,372.793336331966,0,0,0,0,0,0,5,4,0,NaN,NaN,NaN,horizontal,horizontal,vertical,none,none,none
1b,6,100188,4,12,204,20,F,NA,constant,heterogeneous,3,absent,0.977270126342773,1,horizontal,horizontal,1,0.741174430847168,green,1,NaN,613.504806087112,773.909581815937,NaN,NaN,613.504806087112,773.909581815937,1043.85771277057,674.554784704298,742.637481142314,351.535633479765,0,0,0,0,0,0,4,6,3,NaN,NaN,NaN,horizontal,horizontal,horizontal,none,none,none
1b,6,100188,4,13,205,20,F,NA,constant,heterogeneous,5,absent,1.32647705078125,0,horizontal,vertical,1,0.870584325790405,green,1,NaN,668.665290897936,818.577661679039,NaN,NaN,668.665290897936,818.577661679039,967.295052392579,792.450942956807,1034.72873763037,500.363562235235,777.775285599347,345.970351986605,551.535633479765,542.637481142314,0,0,4,5,3,5,3,NaN,horizontal,horizontal,horizontal,vertical,vertical,none
1b,6,100188,4,14,206,20,F,NA,constant,heterogeneous,4,absent,NaN,0,horizontal,none,0,0.964700613021851,green,1,NaN,970.628304621509,789.501930496736,NaN,NaN,970.628304621509,789.501930496736,989.501930496736,429.371695378491,629.371695378491,410.498069503264,610.498069503264,770.628304621509,0,0,0,0,4,3,5,0,NaN,NaN,horizontal,vertical,vertical,horizontal,none,none
1b,6,100188,4,15,207,20,F,NA,constant,heterogeneous,4,present,0.689799070358276,1,horizontal,horizontal,1,0.858819789886475,green,2,3,1048.46436652023,542.637481142314,742.637481142314,351.535633479765,857.362518857686,848.464366520235,1048.46436652023,542.637481142314,742.637481142314,351.535633479765,551.535633479765,657.362518857686,0,0,0,0,3,4,0,5,NaN,NaN,horizontal,horizontal,horizontal,vertical,none,none
1b,6,100188,4,16,208,20,F,NA,constant,heterogeneous,3,present,0.731767892837524,1,vertical,vertical,1,0.799997110366821,green,1,3,676.373546837184,823.028025320546,668.665290897936,381.422338320961,676.373546837184,823.028025320546,1054.96116226488,595.549636358493,668.665290897936,381.422338320961,0,0,0,0,0,0,4,5,5,NaN,NaN,NaN,vertical,horizontal,vertical,none,none,none
1b,6,100188,4,17,209,20,F,NA,constant,heterogeneous,5,present,0.807171106338501,1,horizontal,horizontal,1,1.0235232925415,green,4,5,558.892763222174,516.980120613425,646.537169096228,803.65205506206,946.261991269517,808.883771293693,1043.85771277057,525.445215295702,804.450363641507,345.03883773512,558.892763222174,516.980120613425,646.537169096228,803.65205506206,0,0,0,0,3,4,6,NaN,horizontal,horizontal,horizontal,horizontal,horizontal,none
1b,6,100188,4,18,210,20,F,NA,constant,heterogeneous,3,present,0.779662847518921,1,horizontal,horizontal,1,0.623529071807861,green,2,3,995.341332995339,436.089159529932,560.378381699593,512.784863451954,844.280285305067,851.125977018113,995.341332995339,436.089159529932,560.378381699593,512.784863451954,0,0,0,0,0,0,3,4,3,NaN,NaN,NaN,horizontal,horizontal,vertical,none,none,none
1b,6,100188,4,19,211,20,F,NA,constant,heterogeneous,6,absent,1.15492987632751,1,vertical,vertical,1,0.964700613021851,green,2,NaN,1043.85771277057,674.554784704298,NaN,NaN,857.362518857686,848.464366520235,1043.85771277057,674.554784704298,986.495193912888,426.090418184063,742.637481142314,351.535633479765,556.142287229426,525.445215295702,613.504806087112,773.909581815937,0,4,5,3,0,6,vertical,vertical,horizontal,horizontal,vertical,horizontal
1b,6,100188,4,20,212,20,F,NA,constant,heterogeneous,6,present,0.81472110748291,1,vertical,vertical,1,0.823526182174683,green,1,6,891.383827134052,838.063008756786,639.523300282292,798.172220171528,891.383827134052,838.063008756786,1051.86052685176,639.890788585259,960.476699717708,401.827779828472,708.616172865948,361.936991243214,548.13947314824,560.109211414741,639.523300282292,798.172220171528,4,5,3,6,0,6,vertical,horizontal,horizontal,vertical,vertical,horizontal
1b,6,100188,4,21,213,20,F,NA,constant,heterogeneous,4,present,1.18835592269897,1,horizontal,horizontal,1,1.0588169002533,green,1,2,643.006323791957,800.942742169714,1000.94274216971,756.993676208043,643.006323791957,800.942742169714,1000.94274216971,756.993676208043,956.993676208043,399.057257830286,599.057257830286,443.006323791957,0,0,0,0,4,3,0,3,NaN,NaN,horizontal,horizontal,vertical,horizontal,none,none
1b,6,100188,4,22,214,20,F,NA,constant,heterogeneous,4,present,0.729645013809204,1,horizontal,horizontal,1,0.858819789886475,green,1,2,899.636437764765,834.728737630372,1034.72873763037,500.363562235235,899.636437764765,834.728737630372,1034.72873763037,500.363562235235,700.363562235235,365.271262369628,565.271262369628,699.636437764765,0,0,0,0,4,0,6,3,NaN,NaN,horizontal,vertical,vertical,horizontal,none,none
1b,6,100188,4,23,215,20,F,NA,constant,heterogeneous,5,absent,1.87685012817383,1,vertical,vertical,1,0.623529071807861,green,5,NaN,616.568350913644,777.137884467044,NaN,NaN,911.784642431215,829.192481806288,1052.5183575291,564.510859255183,844.280285305067,348.874022981887,574.848363820974,480.284751489598,616.568350913644,777.137884467044,0,0,6,6,0,5,4,NaN,horizontal,vertical,vertical,vertical,vertical,none
1b,6,100188,4,24,216,20,F,NA,constant,heterogeneous,3,present,0.92807412147522,1,horizontal,horizontal,1,1.08234597206116,green,2,1,800,345,1020.83647796503,727.5,1020.83647796503,727.5,800,345,579.163522034968,727.5,0,0,0,0,0,0,0,4,3,NaN,NaN,NaN,horizontal,horizontal,horizontal,none,none,none
1b,6,100188,4,25,217,20,F,NA,constant,heterogeneous,5,present,0.78853702545166,1,vertical,vertical,1,0.670587215423584,green,1,5,949.885239334581,806.299333565612,650.114760665419,806.299333565612,949.885239334581,806.299333565612,1042.51941165526,521.200666434388,800,345,557.480588344736,521.200666434388,650.114760665419,806.299333565612,0,0,4,6,0,0,5,NaN,vertical,horizontal,vertical,horizontal,horizontal,none
1b,6,100188,4,26,218,20,F,NA,constant,heterogeneous,4,absent,0.728203058242798,1,vertical,vertical,1,0.988229684829712,green,1,NaN,773.345241866748,853.60308331891,NaN,NaN,773.345241866748,853.60308331891,1053.60308331891,626.654758133252,826.654758133252,346.39691668109,546.39691668109,573.345241866748,0,0,0,0,4,3,5,5,NaN,NaN,vertical,horizontal,horizontal,vertical,none,none
1b,6,100188,4,27,219,20,F,NA,constant,heterogeneous,3,present,1.29430913925171,1,vertical,vertical,1,0.741174430847168,green,3,2,545,600,927.5,379.163522034968,927.5,820.836477965032,927.5,379.163522034968,545,600,0,0,0,0,0,0,3,0,4,NaN,NaN,NaN,horizontal,horizontal,vertical,none,none,none
1b,6,100188,4,28,220,20,F,NA,constant,heterogeneous,4,present,0.661579132080078,1,horizontal,horizontal,1,1.07058143615723,green,2,3,1031.10848569435,707.767656743878,907.767656743878,368.891514305654,692.232343256122,831.108485694346,1031.10848569435,707.767656743878,907.767656743878,368.891514305654,568.891514305654,492.232343256122,0,0,0,0,5,4,5,6,NaN,NaN,horizontal,horizontal,vertical,horizontal,none,none
1b,6,100188,4,29,221,20,F,NA,constant,heterogeneous,6,present,0.92447304725647,0,vertical,horizontal,1,0.682351751327515,green,1,5,822.224714400653,854.029648013395,568.891514305654,492.232343256122,822.224714400653,854.029648013395,1031.10848569435,707.767656743878,1008.88377129369,453.738008730483,777.775285599347,345.970351986605,568.891514305654,492.232343256122,591.116228706307,746.261991269517,4,5,6,6,5,0,vertical,horizontal,vertical,horizontal,vertical,vertical
1b,6,100188,4,30,222,20,F,NA,constant,heterogeneous,4,present,0.880933046340942,1,vertical,vertical,1,0.682351751327515,green,4,3,601.827779828472,760.476699717708,639.523300282292,401.827779828472,960.476699717708,798.172220171528,998.172220171528,439.523300282291,639.523300282292,401.827779828472,601.827779828472,760.476699717708,0,0,0,0,6,3,6,4,NaN,NaN,horizontal,vertical,vertical,vertical,none,none
1b,6,100188,4,31,223,20,F,NA,constant,heterogeneous,3,absent,0.880970001220703,1,horizontal,horizontal,1,0.705880823135376,green,3,NaN,568.891514305654,492.232343256122,NaN,NaN,822.224714400653,854.029648013395,1008.88377129369,453.738008730483,568.891514305654,492.232343256122,0,0,0,0,0,0,0,6,4,NaN,NaN,NaN,horizontal,vertical,horizontal,none,none,none
1b,6,100188,4,32,224,20,F,NA,constant,heterogeneous,4,absent,0.676286220550537,1,horizontal,horizontal,1,1.07058143615723,green,1,NaN,942.594190385041,811.404581001536,NaN,NaN,942.594190385041,811.404581001536,1011.40458100154,457.40580961496,657.405809614959,388.595418998464,588.595418998464,742.594190385041,0,0,0,0,4,6,5,5,NaN,NaN,horizontal,vertical,horizontal,vertical,none,none
1b,6,100188,4,33,225,20,F,NA,constant,heterogeneous,5,absent,1.60431790351868,1,horizontal,horizontal,1,0.917642469406128,green,4,NaN,768.923317431687,346.900731331463,NaN,NaN,676.373546837184,823.028025320546,973.909581815937,786.495193912888,1031.10848569435,492.232343256122,768.923317431687,346.900731331463,549.685068220846,551.343706178981,0,0,6,5,3,4,6,NaN,horizontal,vertical,horizontal,horizontal,horizontal,none
1b,6,100188,4,34,226,20,F,NA,constant,heterogeneous,6,present,NaN,0,horizontal,none,0,0.788232574462891,green,5,6,629.371695378491,410.498069503264,550.57236181288,653.017481158529,721.200666434388,842.519411655264,970.628304621509,789.501930496736,1049.42763818712,546.982518841471,878.799333565612,357.480588344736,629.371695378491,410.498069503264,550.57236181288,653.017481158529,5,6,3,0,4,5,horizontal,horizontal,horizontal,horizontal,horizontal,horizontal
1b,6,100188,4,35,227,20,F,NA,constant,heterogeneous,4,present,1.36629700660706,1,vertical,vertical,1,0.882348861694336,green,1,2,746.982518841471,849.42763818712,1049.42763818712,653.017481158529,746.982518841471,849.42763818712,1049.42763818712,653.017481158529,853.017481158529,350.57236181288,550.57236181288,546.982518841471,0,0,0,0,4,0,6,5,NaN,NaN,vertical,horizontal,horizontal,vertical,none,none
1b,6,100188,4,36,228,20,F,NA,constant,heterogeneous,6,present,1.19977998733521,1,horizontal,horizontal,1,1.09411050796509,green,1,6,696.282156015671,832.954091698863,546.39691668109,626.654758133252,696.282156015671,832.954091698863,949.885239334581,806.299333565612,1053.60308331891,573.345241866748,903.717843984329,367.045908301137,650.114760665419,393.700666434388,546.39691668109,626.654758133252,4,6,0,6,5,5,horizontal,horizontal,vertical,vertical,horizontal,horizontal
1b,6,100188,4,37,229,20,F,NA,constant,heterogeneous,6,absent,1.44209098815918,0,horizontal,vertical,1,0.705880823135376,green,3,NaN,1027.20666366803,484.232422566416,NaN,NaN,786.654331158049,854.650531362416,1013.86099482608,738.882953928832,1027.20666366803,484.232422566416,813.345668841951,345.349468637584,586.139005173917,461.117046071168,572.793336331966,715.767577433584,3,5,4,6,0,6,vertical,horizontal,horizontal,vertical,horizontal,horizontal
1b,6,100188,4,38,230,20,F,NA,constant,heterogeneous,3,present,1.53140306472778,1,horizontal,horizontal,1,1.0235232925415,green,3,1,680.284751489598,374.848363820974,664.870587620533,816.252264519889,664.870587620533,816.252264519889,1054.84466088987,608.899371659138,680.284751489598,374.848363820974,0,0,0,0,0,0,0,6,4,NaN,NaN,NaN,horizontal,horizontal,horizontal,none,none,none
1b,6,100188,4,39,231,20,F,NA,constant,heterogeneous,5,present,0.791370153427124,1,vertical,vertical,1,0.847055253982544,green,3,5,942.594190385041,388.595418998464,560.378381699593,687.215136548046,808.899371659138,854.844660889869,1045.12173246427,670.287525733335,942.594190385041,388.595418998464,643.006323791957,399.057257830286,560.378381699593,687.215136548046,0,0,0,3,4,0,6,NaN,vertical,vertical,vertical,horizontal,vertical,none
1b,6,100188,4,40,232,20,F,NA,constant,heterogeneous,3,absent,0.668473958969116,1,vertical,vertical,1,0.858819789886475,green,1,NaN,878.799333565612,842.519411655264,NaN,NaN,878.799333565612,842.519411655264,970.628304621509,410.498069503264,550.57236181288,546.982518841471,0,0,0,0,0,0,4,0,5,NaN,NaN,NaN,vertical,vertical,vertical,none,none,none
1b,6,100188,4,41,233,20,F,NA,constant,heterogeneous,3,present,0.571020126342773,1,vertical,vertical,1,0.658822679519653,green,2,1,1054.65053136242,613.345668841951,661.117046071168,813.860994826083,661.117046071168,813.860994826083,1054.65053136242,613.345668841951,684.232422566416,372.793336331966,0,0,0,0,0,0,5,4,6,NaN,NaN,NaN,vertical,vertical,horizontal,none,none,none
1b,6,100188,4,42,234,20,F,NA,constant,heterogeneous,4,present,0.548464059829712,1,vertical,vertical,1,1.09411050796509,green,4,2,581.422338320961,468.665290897936,1018.57766167904,731.334709102064,668.665290897936,818.577661679039,1018.57766167904,731.334709102064,931.334709102064,381.422338320961,581.422338320961,468.665290897936,0,0,0,0,5,6,0,4,NaN,NaN,vertical,vertical,horizontal,vertical,none,none
1b,6,100188,4,43,235,20,F,NA,constant,heterogeneous,5,present,0.639036893844604,1,vertical,vertical,1,0.764703502655029,green,2,5,1032.95409169886,703.717843984329,550.57236181288,653.017481158529,773.345241866748,853.60308331891,1032.95409169886,703.717843984329,970.628304621509,410.498069503264,672.5,379.163522034968,550.57236181288,653.017481158529,0,0,3,4,0,0,6,NaN,vertical,vertical,vertical,vertical,vertical,none
1b,6,100188,4,44,236,20,F,NA,constant,heterogeneous,3,present,0.455032110214233,1,vertical,vertical,1,0.752938966751099,green,2,3,1053.09926866854,631.076682568313,700.363562235235,365.271262369628,646.537169096228,803.65205506206,1053.09926866854,631.076682568313,700.363562235235,365.271262369628,0,0,0,0,0,0,6,4,5,NaN,NaN,NaN,vertical,vertical,vertical,none,none,none
1b,6,100188,4,45,237,20,F,NA,constant,heterogeneous,5,present,1.23382711410522,1,vertical,vertical,1,0.682351751327515,green,4,1,708.616172865948,361.936991243214,734.001143498857,846.311085703712,734.001143498857,846.311085703712,1013.86099482608,738.882953928832,998.172220171528,439.523300282291,708.616172865948,361.936991243214,545.349468637584,613.345668841951,0,0,6,0,6,4,3,NaN,horizontal,vertical,horizontal,vertical,vertical,none
1b,6,100188,4,46,238,20,F,NA,constant,heterogeneous,5,absent,1.04477381706238,1,vertical,vertical,1,0.894113397598267,green,5,NaN,639.523300282292,798.172220171528,NaN,NaN,938.882953928832,813.860994826083,1046.31108570371,534.001143498857,813.345668841951,345.349468637584,561.936991243214,508.616172865948,639.523300282292,798.172220171528,0,0,5,3,5,6,4,NaN,vertical,vertical,horizontal,horizontal,vertical,none
1b,6,100188,4,47,239,20,F,NA,constant,heterogeneous,6,absent,0.640501022338867,1,vertical,vertical,1,0.941171541213989,green,4,NaN,883.019879386575,358.892763222174,NaN,NaN,716.980120613425,841.107236777826,967.295052392579,792.450942956807,1050.31493177915,551.343706178981,883.019879386575,358.892763222174,632.704947607421,407.549057043193,549.685068220846,648.656293821019,5,0,3,4,0,5,horizontal,horizontal,vertical,vertical,horizontal,horizontal
1b,6,100188,4,48,240,20,F,NA,constant,heterogeneous,5,absent,1.35618782043457,1,horizontal,horizontal,1,0.941171541213989,green,1,NaN,899.636437764765,834.728737630372,NaN,NaN,899.636437764765,834.728737630372,1054.0296480134,577.775285599347,857.362518857686,351.535633479765,581.422338320961,468.665290897936,607.549057043193,767.295052392579,0,0,4,0,5,6,3,NaN,horizontal,horizontal,horizontal,vertical,horizontal,none
1b,6,100188,4,49,241,20,F,NA,constant,heterogeneous,4,present,0.718686819076538,1,vertical,vertical,1,0.95293607711792,green,3,4,931.334709102064,381.422338320961,581.422338320961,468.665290897936,668.665290897936,818.577661679039,1018.57766167904,731.334709102064,931.334709102064,381.422338320961,581.422338320961,468.665290897936,0,0,0,0,3,5,4,6,NaN,NaN,vertical,vertical,vertical,vertical,none,none
1b,6,100188,4,50,242,20,F,NA,constant,heterogeneous,4,absent,1.20263814926147,1,vertical,vertical,1,0.658822679519653,green,4,NaN,574.848363820974,480.284751489598,NaN,NaN,680.284751489598,825.151636179026,1025.15163617903,719.715248510402,919.715248510402,374.848363820974,574.848363820974,480.284751489598,0,0,0,0,0,6,3,4,NaN,NaN,horizontal,vertical,horizontal,vertical,none,none
1b,6,100188,4,51,243,20,F,NA,constant,heterogeneous,5,absent,0.672627925872803,1,vertical,vertical,1,1.09411050796509,green,3,NaN,907.767656743878,368.891514305654,NaN,NaN,848.656293821019,850.314931779154,1053.09926866854,631.076682568313,907.767656743878,368.891514305654,613.504806087112,426.090418184063,576.971974679454,723.626453162816,0,0,0,6,4,0,3,NaN,horizontal,vertical,vertical,vertical,horizontal,none
