experiment,subject,uniqueID,block,trial,trial_cumulative,age,gender,color_cond_blocking,color_history,shape_type,set_size,distractor,rt,acc,target_orient,response_key,response_made,iti,target_color,target_item,distractor_item,target_X,target_Y,distractor_X,distractor_Y,item1_X,item1_Y,item2_X,item2_Y,item3_X,item3_Y,item4_X,item4_Y,item5_X,item5_Y,item6_X,item6_Y,item1_shape,item2_shape,item3_shape,item4_shape,item5_shape,item6_shape,item1_line,item2_line,item3_line,item4_line,item5_line,item6_line
1b,7,100190,1,1,1,18,F,NA,constant,heterogeneous,3,present,0.806829929351807,0,vertical,horizontal,1,0.611764535903931,red,1,3,865.998856501143,846.311085703712,553.688914296288,534.001143498857,865.998856501143,846.311085703712,980.31222920257,419.68777079743,553.688914296288,534.001143498857,0,0,0,0,0,0,4,5,3,NaN,NaN,NaN,vertical,vertical,vertical,none,none,none
1b,7,100190,1,2,2,18,F,NA,constant,heterogeneous,5,absent,NaN,0,horizontal,none,0,0.6,red,4,NaN,601.827779828472,439.523300282291,NaN,NaN,865.998856501143,846.311085703712,1054.65053136242,613.345668841951,891.383827134052,361.936991243214,601.827779828472,439.523300282291,586.139005173917,738.882953928832,0,0,5,6,3,4,0,NaN,vertical,vertical,horizontal,horizontal,vertical,none
1b,7,100190,1,3,3,18,F,NA,constant,heterogeneous,4,absent,1.44905996322632,1,horizontal,horizontal,1,0.694116287231445,red,2,NaN,1023.02802532055,723.626453162816,NaN,NaN,676.373546837184,823.028025320546,1023.02802532055,723.626453162816,923.626453162816,376.971974679454,576.971974679454,476.373546837184,0,0,0,0,3,4,6,0,NaN,NaN,vertical,horizontal,horizontal,horizontal,none,none
1b,7,100190,1,4,4,18,F,NA,constant,heterogeneous,6,present,1.04127287864685,1,vertical,vertical,1,0.741174430847168,red,2,6,1054.0296480134,622.224714400653,653.738008730483,808.883771293693,907.767656743878,831.108485694346,1054.0296480134,622.224714400653,946.261991269517,391.116228706307,692.232343256122,368.891514305654,545.970351986605,577.775285599347,653.738008730483,808.883771293693,5,4,0,6,3,0,vertical,vertical,horizontal,vertical,vertical,vertical
1b,7,100190,1,5,5,18,F,NA,constant,heterogeneous,4,absent,0.993434906005859,1,horizontal,horizontal,1,0.77646803855896,red,4,NaN,546.900731331463,631.076682568313,NaN,NaN,831.076682568313,853.099268668537,1053.09926866854,568.923317431687,768.923317431687,346.900731331463,546.900731331463,631.076682568313,0,0,0,0,5,3,0,4,NaN,NaN,horizontal,horizontal,vertical,horizontal,none,none
1b,7,100190,1,6,6,18,F,NA,constant,heterogeneous,3,present,0.819813966751099,1,horizontal,horizontal,1,0.917642469406128,red,1,3,777.775285599347,854.029648013395,591.116228706307,453.738008730483,777.775285599347,854.029648013395,1031.10848569435,492.232343256122,591.116228706307,453.738008730483,0,0,0,0,0,0,4,5,0,NaN,NaN,NaN,horizontal,horizontal,vertical,none,none,none
1b,7,100190,1,7,7,18,F,NA,constant,heterogeneous,3,present,0.882998943328857,1,vertical,vertical,1,0.729409894943237,red,1,3,616.568350913644,777.137884467044,738.309916622085,352.574589799621,616.568350913644,777.137884467044,1045.12173246427,670.287525733335,738.309916622085,352.574589799621,0,0,0,0,0,0,4,5,5,NaN,NaN,NaN,vertical,vertical,horizontal,none,none,none
1b,7,100190,1,8,8,18,F,NA,constant,heterogeneous,5,absent,0.843389987945557,1,horizontal,horizontal,1,0.729409894943237,red,3,NaN,953.462830903772,396.34794493794,NaN,NaN,795.549636358493,854.96116226488,1041.10723677783,683.019879386575,953.462830903772,396.34794493794,653.738008730483,391.116228706307,556.142287229426,674.554784704298,0,0,3,6,4,6,0,NaN,horizontal,vertical,horizontal,horizontal,horizontal,none
1b,7,100190,1,9,9,18,F,NA,constant,heterogeneous,4,absent,0.809256792068481,1,vertical,vertical,1,0.858819789886475,red,4,NaN,565.271262369628,699.636437764765,NaN,NaN,899.636437764765,834.728737630372,1034.72873763037,500.363562235235,700.363562235235,365.271262369628,565.271262369628,699.636437764765,0,0,0,0,3,0,0,4,NaN,NaN,vertical,vertical,vertical,vertical,none,none
1b,7,100190,1,10,10,18,F,NA,constant,heterogeneous,3,present,0.790171146392822,1,vertical,vertical,1,0.623529071807861,red,2,1,949.885239334581,393.700666434388,903.717843984329,832.954091698863,903.717843984329,832.954091698863,949.885239334581,393.700666434388,546.39691668109,573.345241866748,0,0,0,0,0,0,5,4,6,NaN,NaN,NaN,horizontal,vertical,vertical,none,none,none
1b,7,100190,1,11,11,18,F,NA,constant,heterogeneous,6,absent,1.05477404594421,1,vertical,vertical,1,1.0235232925415,red,3,NaN,1025.15163617903,480.284751489598,NaN,NaN,791.100628340862,854.844660889869,1016.25226451989,735.129412379467,1025.15163617903,480.284751489598,808.899371659138,345.155339110131,583.747735480111,464.870587620533,574.848363820974,719.715248510402,5,6,4,6,3,5,vertical,vertical,vertical,vertical,vertical,vertical
1b,7,100190,1,12,12,18,F,NA,constant,heterogeneous,3,absent,0.706122875213623,1,vertical,vertical,1,0.905877933502197,red,3,NaN,639.523300282292,401.827779828472,NaN,NaN,708.616172865948,838.063008756786,1051.86052685176,560.109211414741,639.523300282292,401.827779828472,0,0,0,0,0,0,6,5,4,NaN,NaN,NaN,vertical,vertical,vertical,none,none,none
1b,7,100190,1,13,13,18,F,NA,constant,heterogeneous,4,present,0.809218168258667,1,horizontal,horizontal,1,0.835290718078613,red,2,1,1053.60308331891,573.345241866748,826.654758133252,853.60308331891,826.654758133252,853.60308331891,1053.60308331891,573.345241866748,773.345241866748,346.39691668109,546.39691668109,626.654758133252,0,0,0,0,3,4,5,6,NaN,NaN,horizontal,horizontal,vertical,vertical,none,none
1b,7,100190,1,14,14,18,F,NA,constant,heterogeneous,6,absent,0.910358905792236,1,vertical,vertical,1,1.04705236434937,red,4,NaN,742.637481142314,351.535633479765,NaN,NaN,857.362518857686,848.464366520235,1043.85771277057,674.554784704298,986.495193912888,426.090418184063,742.637481142314,351.535633479765,556.142287229426,525.445215295702,613.504806087112,773.909581815937,5,0,3,4,3,6,vertical,horizontal,vertical,vertical,horizontal,vertical
1b,7,100190,1,15,15,18,F,NA,constant,heterogeneous,5,present,1.11432194709778,1,horizontal,horizontal,1,0.870584325790405,red,1,4,931.334709102064,818.577661679039,565.271262369628,500.363562235235,931.334709102064,818.577661679039,1048.46436652023,542.637481142314,822.224714400653,345.970351986605,565.271262369628,500.363562235235,632.704947607421,792.450942956807,0,0,4,6,0,5,3,NaN,horizontal,vertical,vertical,vertical,vertical,none
1b,7,100190,1,16,16,18,F,NA,constant,heterogeneous,5,absent,0.702999114990234,1,vertical,vertical,1,0.917642469406128,red,3,NaN,911.784642431215,370.807518193712,NaN,NaN,844.280285305067,851.125977018113,1052.5183575291,635.489140744817,911.784642431215,370.807518193712,616.568350913644,422.862115532956,574.848363820974,719.715248510402,0,0,3,3,4,5,0,NaN,vertical,vertical,vertical,horizontal,vertical,none
1b,7,100190,1,17,17,18,F,NA,constant,heterogeneous,5,absent,0.832007884979248,1,horizontal,horizontal,1,0.964700613021851,red,5,NaN,545,600,NaN,NaN,721.200666434388,842.519411655264,1006.29933356561,749.885239334581,1006.29933356561,450.114760665419,721.200666434388,357.480588344736,545,600,0,0,6,6,3,0,4,NaN,vertical,vertical,horizontal,vertical,horizontal,none
1b,7,100190,1,18,18,18,F,NA,constant,heterogeneous,3,present,1.33836603164673,0,horizontal,vertical,1,0.858819789886475,red,1,3,657.405809614959,811.404581001536,688.215357568785,370.807518193712,657.405809614959,811.404581001536,1054.37883281626,617.787900804752,688.215357568785,370.807518193712,0,0,0,0,0,0,4,5,3,NaN,NaN,NaN,horizontal,horizontal,vertical,none,none,none
1b,7,100190,1,19,19,18,F,NA,constant,heterogeneous,5,absent,1.3006649017334,0,vertical,horizontal,1,0.976465148925781,red,3,NaN,967.295052392579,407.549057043193,NaN,NaN,777.775285599347,854.029648013395,1034.72873763037,699.636437764765,967.295052392579,407.549057043193,668.665290897936,381.422338320961,551.535633479765,657.362518857686,0,0,6,5,4,3,0,NaN,horizontal,horizontal,vertical,horizontal,vertical,none
1b,7,100190,1,20,20,18,F,NA,constant,heterogeneous,5,absent,1.43210506439209,0,vertical,horizontal,1,0.658822679519653,red,2,NaN,973.909581815937,786.495193912888,NaN,NaN,676.373546837184,823.028025320546,973.909581815937,786.495193912888,1031.10848569435,492.232343256122,768.923317431687,346.900731331463,549.685068220846,551.343706178981,0,0,6,4,3,0,6,NaN,vertical,vertical,vertical,vertical,vertical,none
1b,7,100190,1,21,21,18,F,NA,constant,heterogeneous,4,absent,NaN,0,horizontal,none,0,0.670587215423584,red,4,NaN,556.142287229426,674.554784704298,NaN,NaN,874.554784704298,843.857712770574,1043.85771277057,525.445215295702,725.445215295702,356.142287229426,556.142287229426,674.554784704298,0,0,0,0,6,3,3,4,NaN,NaN,vertical,vertical,horizontal,horizontal,none,none
1b,7,100190,1,22,22,18,F,NA,constant,heterogeneous,6,absent,NaN,0,horizontal,none,0,0.976465148925781,red,5,NaN,632.704947607421,407.549057043193,NaN,NaN,716.980120613425,841.107236777826,967.295052392579,792.450942956807,1050.31493177915,551.343706178981,883.019879386575,358.892763222174,632.704947607421,407.549057043193,549.685068220846,648.656293821019,5,3,5,0,4,6,horizontal,vertical,horizontal,horizontal,horizontal,horizontal
1b,7,100190,1,23,23,18,F,NA,constant,heterogeneous,5,present,1.48629903793335,1,horizontal,horizontal,1,0.999994220733643,red,5,3,650.114760665419,806.299333565612,800,345,949.885239334581,806.299333565612,1042.51941165526,521.200666434388,800,345,557.480588344736,521.200666434388,650.114760665419,806.299333565612,0,0,6,3,6,5,4,NaN,horizontal,horizontal,vertical,vertical,horizontal,none
1b,7,100190,1,24,24,18,F,NA,constant,heterogeneous,4,present,0.965874910354614,1,vertical,vertical,1,1.08234597206116,red,4,1,558.892763222174,683.019879386575,883.019879386575,841.107236777826,883.019879386575,841.107236777826,1041.10723677783,516.980120613425,716.980120613425,358.892763222174,558.892763222174,683.019879386575,0,0,0,0,0,5,6,4,NaN,NaN,vertical,vertical,horizontal,vertical,none,none
1b,7,100190,1,25,25,18,F,NA,constant,heterogeneous,4,present,0.804949998855591,1,horizontal,horizontal,1,0.976465148925781,red,4,1,591.116228706307,453.738008730483,653.738008730483,808.883771293693,653.738008730483,808.883771293693,1008.88377129369,746.261991269517,946.261991269517,391.116228706307,591.116228706307,453.738008730483,0,0,0,0,0,5,6,4,NaN,NaN,vertical,vertical,horizontal,horizontal,none,none
1b,7,100190,1,26,26,18,F,NA,constant,heterogeneous,4,present,0.806876182556152,1,vertical,vertical,1,1.08234597206116,red,2,1,1000.94274216971,443.006323791957,956.993676208043,800.942742169714,956.993676208043,800.942742169714,1000.94274216971,443.006323791957,643.006323791957,399.057257830286,599.057257830286,756.993676208043,0,0,0,0,6,4,6,0,NaN,NaN,vertical,vertical,vertical,vertical,none,none
1b,7,100190,1,27,27,18,F,NA,constant,heterogeneous,4,present,0.988137006759644,1,horizontal,horizontal,1,1.04705236434937,red,2,1,1052.5183575291,635.489140744817,764.510859255183,852.518357529101,764.510859255183,852.518357529101,1052.5183575291,635.489140744817,835.489140744817,347.4816424709,547.481642470899,564.510859255183,0,0,0,0,6,4,5,6,NaN,NaN,vertical,horizontal,vertical,vertical,none,none
1b,7,100190,1,28,28,18,F,NA,constant,heterogeneous,3,absent,0.645932912826538,1,vertical,vertical,1,1.09411050796509,red,3,NaN,548.874022981887,644.280285305067,NaN,NaN,963.910840470068,795.341332995339,887.215136548046,360.378381699593,548.874022981887,644.280285305067,0,0,0,0,0,0,0,6,4,NaN,NaN,NaN,horizontal,horizontal,vertical,none,none,none
1b,7,100190,1,29,29,18,F,NA,constant,heterogeneous,6,absent,1.41650795936584,1,horizontal,horizontal,1,1.0588169002533,red,6,NaN,550.57236181288,653.017481158529,NaN,NaN,721.200666434388,842.519411655264,970.628304621509,789.501930496736,1049.42763818712,546.982518841471,878.799333565612,357.480588344736,629.371695378491,410.498069503264,550.57236181288,653.017481158529,5,3,3,0,0,4,vertical,vertical,vertical,horizontal,horizontal,horizontal
1b,7,100190,1,30,30,18,F,NA,constant,heterogeneous,6,absent,1.46535897254944,1,horizontal,horizontal,1,0.823526182174683,red,2,NaN,1054.0296480134,622.224714400653,NaN,NaN,907.767656743878,831.108485694346,1054.0296480134,622.224714400653,946.261991269517,391.116228706307,692.232343256122,368.891514305654,545.970351986605,577.775285599347,653.738008730483,808.883771293693,6,4,5,6,3,3,horizontal,horizontal,horizontal,vertical,horizontal,vertical
1b,7,100190,1,31,31,18,F,NA,constant,heterogeneous,5,present,0.882414102554321,1,vertical,vertical,1,0.77646803855896,red,4,5,579.163522034968,472.5,610.498069503264,770.628304621509,903.717843984329,832.954091698863,1053.60308331891,573.345241866748,853.017481158529,350.57236181288,579.163522034968,472.5,610.498069503264,770.628304621509,0,0,3,6,0,4,5,NaN,vertical,vertical,vertical,vertical,vertical,none
1b,7,100190,1,32,32,18,F,NA,constant,heterogeneous,3,absent,0.897499799728394,1,horizontal,horizontal,1,0.858819789886475,red,3,NaN,782.212099195248,345.621167183745,NaN,NaN,588.595418998464,742.594190385041,1029.19248180629,711.784642431215,782.212099195248,345.621167183745,0,0,0,0,0,0,3,0,4,NaN,NaN,NaN,vertical,horizontal,horizontal,none,none,none
1b,7,100190,1,33,33,18,F,NA,constant,heterogeneous,6,present,NaN,0,horizontal,none,0,0.752938966751099,red,4,3,777.775285599347,345.970351986605,1008.88377129369,453.738008730483,822.224714400653,854.029648013395,1031.10848569435,707.767656743878,1008.88377129369,453.738008730483,777.775285599347,345.970351986605,568.891514305654,492.232343256122,591.116228706307,746.261991269517,0,5,6,4,5,3,vertical,vertical,horizontal,horizontal,horizontal,horizontal
1b,7,100190,1,34,34,18,F,NA,constant,heterogeneous,3,absent,1.39821004867554,1,horizontal,horizontal,1,0.964700613021851,red,1,NaN,887.215136548046,839.621618300407,NaN,NaN,887.215136548046,839.621618300407,963.910840470068,404.658667004661,548.874022981887,555.719714694933,0,0,0,0,0,0,4,3,6,NaN,NaN,NaN,horizontal,horizontal,horizontal,none,none,none
1b,7,100190,1,35,35,18,F,NA,constant,heterogeneous,5,present,1.06800293922424,1,vertical,vertical,1,0.882348861694336,red,3,5,1018.57766167904,468.665290897936,545.970351986605,577.775285599347,700.363562235235,834.728737630372,992.450942956807,767.295052392579,1018.57766167904,468.665290897936,742.637481142314,351.535633479765,545.970351986605,577.775285599347,0,0,5,6,4,3,0,NaN,horizontal,horizontal,vertical,vertical,vertical,none
1b,7,100190,1,36,36,18,F,NA,constant,heterogeneous,5,absent,1.20482492446899,1,horizontal,horizontal,1,0.77646803855896,red,5,NaN,552.574589799621,661.690083377915,NaN,NaN,782.212099195248,854.378832816255,1036.43188291453,695.524681321058,963.910840470068,404.658667004661,664.870587620533,383.747735480111,552.574589799621,661.690083377915,0,0,6,5,3,0,4,NaN,horizontal,horizontal,vertical,vertical,horizontal,none
1b,7,100190,1,37,37,18,F,NA,constant,heterogeneous,3,absent,0.960226058959961,1,vertical,vertical,1,0.752938966751099,red,2,NaN,1054.84466088987,591.100628340862,NaN,NaN,680.284751489598,825.151636179026,1054.84466088987,591.100628340862,664.870587620533,383.747735480111,0,0,0,0,0,0,6,4,5,NaN,NaN,NaN,vertical,vertical,horizontal,none,none,none
1b,7,100190,1,38,38,18,F,NA,constant,heterogeneous,4,absent,1.13198089599609,0,vertical,horizontal,1,0.623529071807861,red,1,NaN,729.712474266665,845.121732464271,NaN,NaN,729.712474266665,845.121732464271,1045.12173246427,670.287525733335,870.287525733335,354.878267535729,554.878267535729,529.712474266665,0,0,0,0,4,6,5,5,NaN,NaN,vertical,horizontal,horizontal,vertical,none,none
1b,7,100190,1,39,39,18,F,NA,constant,heterogeneous,6,present,NaN,0,horizontal,none,0,0.611764535903931,red,1,3,786.654331158049,854.650531362416,1027.20666366803,484.232422566416,786.654331158049,854.650531362416,1013.86099482608,738.882953928832,1027.20666366803,484.232422566416,813.345668841951,345.349468637584,586.139005173917,461.117046071168,572.793336331966,715.767577433584,4,5,6,5,3,0,horizontal,vertical,horizontal,horizontal,vertical,horizontal
1b,7,100190,1,40,40,18,F,NA,constant,heterogeneous,5,present,1.37360692024231,1,horizontal,horizontal,1,0.905877933502197,red,1,4,891.383827134052,838.063008756786,586.139005173917,461.117046071168,891.383827134052,838.063008756786,1054.65053136242,586.654331158049,865.998856501143,353.688914296288,586.139005173917,461.117046071168,601.827779828472,760.476699717708,0,0,4,5,6,0,0,NaN,horizontal,horizontal,vertical,vertical,vertical,none
1b,7,100190,1,41,41,18,F,NA,constant,heterogeneous,6,present,1.18552684783936,1,vertical,vertical,1,0.611764535903931,red,1,4,672.5,820.836477965032,927.5,379.163522034968,672.5,820.836477965032,927.5,820.836477965032,1055,600,927.5,379.163522034968,672.5,379.163522034968,545,600,4,6,5,6,3,0,vertical,horizontal,horizontal,horizontal,vertical,vertical
1b,7,100190,1,42,42,18,F,NA,constant,heterogeneous,6,absent,1.65643811225891,0,vertical,horizontal,1,0.764703502655029,red,5,NaN,545.03883773512,595.549636358493,NaN,NaN,923.626453162816,823.028025320546,1054.96116226488,604.450363641507,931.334709102064,381.422338320961,676.373546837184,376.971974679454,545.03883773512,595.549636358493,668.665290897936,818.577661679039,5,0,6,5,4,3,vertical,horizontal,vertical,horizontal,vertical,horizontal
1b,7,100190,1,43,43,18,F,NA,constant,heterogeneous,3,absent,1.3102490901947,1,horizontal,horizontal,1,0.623529071807861,red,2,NaN,853.017481158529,350.57236181288,NaN,NaN,989.501930496736,770.628304621509,853.017481158529,350.57236181288,557.480588344736,678.799333565612,0,0,0,0,0,0,5,4,3,NaN,NaN,NaN,vertical,horizontal,vertical,none,none,none
1b,7,100190,1,44,44,18,F,NA,constant,heterogeneous,4,present,0.720196008682251,1,vertical,vertical,1,0.999994220733643,red,1,3,874.554784704298,843.857712770574,725.445215295702,356.142287229426,874.554784704298,843.857712770574,1043.85771277057,525.445215295702,725.445215295702,356.142287229426,556.142287229426,674.554784704298,0,0,0,0,4,5,6,5,NaN,NaN,vertical,vertical,horizontal,horizontal,none,none
1b,7,100190,1,45,45,18,F,NA,constant,heterogeneous,3,present,1.34402394294739,1,horizontal,horizontal,1,0.647058143615723,red,1,2,716.980120613425,841.107236777826,1050.31493177915,551.343706178981,716.980120613425,841.107236777826,1050.31493177915,551.343706178981,632.704947607421,407.549057043193,0,0,0,0,0,0,4,6,5,NaN,NaN,NaN,horizontal,vertical,horizontal,none,none,none
1b,7,100190,1,46,46,18,F,NA,constant,heterogeneous,6,present,NaN,0,vertical,none,0,0.858819789886475,red,5,1,553.688914296288,534.001143498857,865.998856501143,846.311085703712,865.998856501143,846.311085703712,1046.31108570371,665.998856501143,980.31222920257,419.68777079743,734.001143498857,353.688914296288,553.688914296288,534.001143498857,619.68777079743,780.31222920257,0,6,5,3,4,3,vertical,horizontal,vertical,vertical,vertical,vertical
1b,7,100190,1,47,47,18,F,NA,constant,heterogeneous,4,absent,0.991655111312866,1,vertical,vertical,1,0.752938966751099,red,2,NaN,1050.31493177915,648.656293821019,NaN,NaN,751.343706178981,850.314931779154,1050.31493177915,648.656293821019,848.656293821019,349.685068220846,549.685068220846,551.343706178981,0,0,0,0,6,4,5,0,NaN,NaN,vertical,vertical,horizontal,vertical,none,none
1b,7,100190,1,48,48,18,F,NA,constant,heterogeneous,3,present,0.791336059570312,1,vertical,vertical,1,0.77646803855896,red,1,3,734.001143498857,846.311085703712,619.68777079743,419.68777079743,734.001143498857,846.311085703712,1046.31108570371,534.001143498857,619.68777079743,419.68777079743,0,0,0,0,0,0,4,6,3,NaN,NaN,NaN,vertical,vertical,horizontal,none,none,none
1b,7,100190,1,49,49,18,F,NA,constant,heterogeneous,5,present,0.769649028778076,1,vertical,vertical,1,0.717645359039307,red,3,5,953.462830903772,396.34794493794,556.142287229426,674.554784704298,795.549636358493,854.96116226488,1041.10723677783,683.019879386575,953.462830903772,396.34794493794,653.738008730483,391.116228706307,556.142287229426,674.554784704298,0,0,6,0,4,5,3,NaN,vertical,horizontal,vertical,vertical,horizontal,none
1b,7,100190,1,50,50,18,F,NA,constant,heterogeneous,6,absent,1.34998917579651,0,horizontal,vertical,1,1.0588169002533,red,6,NaN,586.139005173917,738.882953928832,NaN,NaN,813.345668841951,854.650531362416,1027.20666366803,715.767577433584,1013.86099482608,461.117046071168,786.654331158049,345.349468637584,572.793336331966,484.232422566416,586.139005173917,738.882953928832,6,3,5,6,0,4,vertical,horizontal,vertical,vertical,horizontal,horizontal
1b,7,100190,1,51,51,18,F,NA,constant,heterogeneous,6,present,1.67944693565369,0,vertical,horizontal,1,1.09411050796509,red,6,4,558.892763222174,683.019879386575,848.656293821019,349.685068220846,751.343706178981,850.314931779154,992.450942956807,767.295052392579,1041.10723677783,516.980120613425,848.656293821019,349.685068220846,607.549057043193,432.704947607421,558.892763222174,683.019879386575,6,5,5,3,0,4,horizontal,vertical,horizontal,horizontal,vertical,vertical
1b,7,100190,1,52,52,18,F,NA,constant,heterogeneous,6,present,NaN,0,horizontal,none,0,0.694116287231445,red,2,6,980.31222920257,780.31222920257,553.688914296288,665.998856501143,734.001143498857,846.311085703712,980.31222920257,780.31222920257,1046.31108570371,534.001143498857,865.998856501143,353.688914296288,619.68777079743,419.68777079743,553.688914296288,665.998856501143,0,4,5,6,3,5,horizontal,horizontal,vertical,horizontal,horizontal,horizontal
1b,7,100190,1,53,53,18,F,NA,constant,heterogeneous,6,absent,0.939609050750732,1,vertical,vertical,1,0.823526182174683,red,3,NaN,931.334709102064,381.422338320961,NaN,NaN,923.626453162816,823.028025320546,1054.96116226488,604.450363641507,931.334709102064,381.422338320961,676.373546837184,376.971974679454,545.03883773512,595.549636358493,668.665290897936,818.577661679039,0,5,4,3,0,5,vertical,vertical,vertical,horizontal,vertical,horizontal
1b,7,100190,1,54,54,18,F,NA,constant,heterogeneous,4,absent,1.19396805763245,1,horizontal,horizontal,1,0.752938966751099,red,2,NaN,1032.95409169886,703.717843984329,NaN,NaN,696.282156015671,832.954091698863,1032.95409169886,703.717843984329,903.717843984329,367.045908301137,567.045908301137,496.282156015671,0,0,0,0,6,4,5,5,NaN,NaN,vertical,horizontal,horizontal,vertical,none,none
1b,7,100190,1,55,55,18,F,NA,constant,heterogeneous,5,absent,1.30297708511353,1,vertical,vertical,1,0.858819789886475,red,3,NaN,887.215136548046,360.378381699593,NaN,NaN,870.287525733335,845.121732464271,1054.84466088987,608.899371659138,887.215136548046,360.378381699593,599.057257830286,443.006323791957,588.595418998464,742.594190385041,0,0,3,0,4,3,6,NaN,vertical,horizontal,vertical,horizontal,horizontal,none
1b,7,100190,1,56,56,18,F,NA,constant,heterogeneous,4,present,0.971913814544678,0,vertical,horizontal,1,0.929407005310059,red,4,1,549.685068220846,551.343706178981,751.343706178981,850.314931779154,751.343706178981,850.314931779154,1050.31493177915,648.656293821019,848.656293821019,349.685068220846,549.685068220846,551.343706178981,0,0,0,0,6,5,3,4,NaN,NaN,vertical,horizontal,vertical,vertical,none,none
1b,7,100190,1,57,57,18,F,NA,constant,heterogeneous,3,absent,NaN,0,horizontal,none,0,0.682351751327515,red,3,NaN,565.271262369628,699.636437764765,NaN,NaN,1003.65205506206,753.462830903772,831.076682568313,346.900731331463,565.271262369628,699.636437764765,0,0,0,0,0,0,3,6,4,NaN,NaN,NaN,vertical,vertical,horizontal,none,none,none
1b,7,100190,1,58,58,18,F,NA,constant,heterogeneous,5,present,1.55905699729919,1,vertical,vertical,1,0.694116287231445,red,5,1,576.971974679454,723.626453162816,848.656293821019,850.314931779154,848.656293821019,850.314931779154,1053.09926866854,631.076682568313,907.767656743878,368.891514305654,613.504806087112,426.090418184063,576.971974679454,723.626453162816,0,0,6,0,3,5,4,NaN,horizontal,horizontal,horizontal,vertical,vertical,none
1b,7,100190,1,59,59,18,F,NA,constant,heterogeneous,3,present,NaN,0,horizontal,none,0,0.635293607711792,red,2,1,995.341332995339,436.089159529932,844.280285305067,851.125977018113,844.280285305067,851.125977018113,995.341332995339,436.089159529932,560.378381699593,512.784863451954,0,0,0,0,0,0,5,4,3,NaN,NaN,NaN,horizontal,horizontal,horizontal,none,none,none
1b,7,100190,1,60,60,18,F,NA,constant,heterogeneous,4,absent,1.58041906356812,1,vertical,vertical,1,0.847055253982544,red,1,NaN,953.462830903772,803.65205506206,NaN,NaN,953.462830903772,803.65205506206,1003.65205506206,446.537169096228,646.537169096228,396.34794493794,596.34794493794,753.462830903772,0,0,0,0,4,3,6,0,NaN,NaN,vertical,horizontal,vertical,horizontal,none,none
1b,7,100190,1,61,61,18,F,NA,constant,heterogeneous,5,present,0.953743934631348,1,horizontal,horizontal,1,0.870584325790405,red,4,1,664.870587620533,383.747735480111,782.212099195248,854.378832816255,782.212099195248,854.378832816255,1036.43188291453,695.524681321058,963.910840470068,404.658667004661,664.870587620533,383.747735480111,552.574589799621,661.690083377915,0,0,0,5,6,4,3,NaN,vertical,horizontal,vertical,horizontal,horizontal,none
1b,7,100190,1,62,62,18,F,NA,constant,heterogeneous,6,present,1.43875098228455,1,horizontal,horizontal,1,1.09411050796509,red,3,5,1000.94274216971,443.006323791957,563.568117085469,504.475318678942,835.489140744817,852.518357529101,1036.43188291453,695.524681321058,1000.94274216971,443.006323791957,764.510859255183,347.4816424709,563.568117085469,504.475318678942,599.057257830286,756.993676208043,0,5,4,6,6,0,horizontal,vertical,horizontal,horizontal,vertical,vertical
1b,7,100190,1,63,63,18,F,NA,constant,heterogeneous,3,absent,0.677180051803589,1,vertical,vertical,1,0.882348861694336,red,3,NaN,734.001143498857,353.688914296288,NaN,NaN,619.68777079743,780.31222920257,1046.31108570371,665.998856501143,734.001143498857,353.688914296288,0,0,0,0,0,0,3,6,4,NaN,NaN,NaN,vertical,vertical,vertical,none,none,none
1b,7,100190,1,64,64,18,F,NA,constant,heterogeneous,4,present,1.02906894683838,1,horizontal,horizontal,1,0.694116287231445,red,4,1,553.688914296288,534.001143498857,734.001143498857,846.311085703712,734.001143498857,846.311085703712,1046.31108570371,665.998856501143,865.998856501143,353.688914296288,553.688914296288,534.001143498857,0,0,0,0,6,0,5,4,NaN,NaN,horizontal,horizontal,vertical,horizontal,none,none
1b,7,100190,2,1,65,18,F,NA,constant,heterogeneous,6,absent,1.42633104324341,1,horizontal,horizontal,1,0.870584325790405,red,1,NaN,857.362518857686,848.464366520235,NaN,NaN,857.362518857686,848.464366520235,1043.85771277057,674.554784704298,986.495193912888,426.090418184063,742.637481142314,351.535633479765,556.142287229426,525.445215295702,613.504806087112,773.909581815937,4,3,0,3,6,6,horizontal,horizontal,horizontal,horizontal,horizontal,horizontal
1b,7,100190,2,2,66,18,F,NA,constant,heterogeneous,5,present,0.76643705368042,1,horizontal,horizontal,1,0.77646803855896,red,5,1,546.900731331463,568.923317431687,692.232343256122,831.108485694346,692.232343256122,831.108485694346,986.495193912888,773.909581815937,1023.02802532055,476.373546837184,751.343706178981,349.685068220846,546.900731331463,568.923317431687,0,0,3,6,5,0,4,NaN,horizontal,horizontal,vertical,horizontal,horizontal,none
1b,7,100190,2,3,67,18,F,NA,constant,heterogeneous,4,absent,NaN,0,vertical,none,0,0.847055253982544,red,2,NaN,1047.42541020038,538.309916622085,NaN,NaN,861.690083377915,847.425410200379,1047.42541020038,538.309916622085,738.309916622085,352.574589799621,552.574589799621,661.690083377915,0,0,0,0,3,4,5,5,NaN,NaN,horizontal,vertical,vertical,vertical,none,none
1b,7,100190,2,4,68,18,F,NA,constant,heterogeneous,5,present,1.01754283905029,1,vertical,vertical,1,0.905877933502197,red,2,1,973.909581815937,786.495193912888,676.373546837184,823.028025320546,676.373546837184,823.028025320546,973.909581815937,786.495193912888,1031.10848569435,492.232343256122,768.923317431687,346.900731331463,549.685068220846,551.343706178981,0,0,0,4,0,5,3,NaN,horizontal,vertical,horizontal,horizontal,horizontal,none
1b,7,100190,2,5,69,18,F,NA,constant,heterogeneous,3,present,0.561970949172974,1,vertical,vertical,1,0.6,red,2,1,835.489140744817,347.4816424709,1000.94274216971,756.993676208043,1000.94274216971,756.993676208043,835.489140744817,347.4816424709,563.568117085469,695.524681321058,0,0,0,0,0,0,0,4,6,NaN,NaN,NaN,horizontal,vertical,horizontal,none,none,none
1b,7,100190,2,6,70,18,F,NA,constant,heterogeneous,4,absent,1.11402702331543,1,horizontal,horizontal,1,0.635293607711792,red,2,NaN,1049.42763818712,653.017481158529,NaN,NaN,746.982518841471,849.42763818712,1049.42763818712,653.017481158529,853.017481158529,350.57236181288,550.57236181288,546.982518841471,0,0,0,0,0,4,5,5,NaN,NaN,vertical,horizontal,vertical,horizontal,none,none
1b,7,100190,2,7,71,18,F,NA,constant,heterogeneous,5,present,0.859546899795532,0,vertical,horizontal,1,0.95293607711792,red,4,3,643.006323791957,399.057257830286,942.594190385041,388.595418998464,808.899371659138,854.844660889869,1045.12173246427,670.287525733335,942.594190385041,388.595418998464,643.006323791957,399.057257830286,560.378381699593,687.215136548046,0,0,5,3,0,4,6,NaN,horizontal,horizontal,vertical,vertical,horizontal,none
1b,7,100190,2,8,72,18,F,NA,constant,heterogeneous,4,present,1.22079706192017,1,horizontal,horizontal,1,0.6,red,1,2,661.117046071168,813.860994826083,1013.86099482608,738.882953928832,661.117046071168,813.860994826083,1013.86099482608,738.882953928832,938.882953928832,386.139005173917,586.139005173917,461.117046071168,0,0,0,0,4,0,0,6,NaN,NaN,horizontal,vertical,horizontal,vertical,none,none
1b,7,100190,2,9,73,18,F,NA,constant,heterogeneous,3,absent,0.530077934265137,1,vertical,vertical,1,0.835290718078613,red,2,NaN,1031.10848569435,492.232343256122,NaN,NaN,777.775285599347,854.029648013395,1031.10848569435,492.232343256122,591.116228706307,453.738008730483,0,0,0,0,0,0,5,4,0,NaN,NaN,NaN,vertical,vertical,horizontal,none,none,none
1b,7,100190,2,10,74,18,F,NA,constant,heterogeneous,3,absent,1.17110300064087,1,horizontal,horizontal,1,0.705880823135376,red,1,NaN,995.341332995339,763.910840470068,NaN,NaN,995.341332995339,763.910840470068,844.280285305067,348.874022981887,560.378381699593,687.215136548046,0,0,0,0,0,0,4,3,6,NaN,NaN,NaN,horizontal,vertical,vertical,none,none,none
1b,7,100190,2,11,75,18,F,NA,constant,heterogeneous,3,present,0.612700939178467,1,horizontal,horizontal,1,1.09411050796509,red,3,2,773.345241866748,346.39691668109,1032.95409169886,703.717843984329,593.700666434388,749.885239334581,1032.95409169886,703.717843984329,773.345241866748,346.39691668109,0,0,0,0,0,0,5,6,4,NaN,NaN,NaN,horizontal,vertical,horizontal,none,none,none
1b,7,100190,2,12,76,18,F,NA,constant,heterogeneous,3,absent,0.628969192504883,1,vertical,vertical,1,0.999994220733643,red,2,NaN,1054.65053136242,586.654331158049,NaN,NaN,684.232422566416,827.206663668034,1054.65053136242,586.654331158049,661.117046071168,386.139005173917,0,0,0,0,0,0,6,4,5,NaN,NaN,NaN,horizontal,vertical,horizontal,none,none,none
1b,7,100190,2,13,77,18,F,NA,constant,heterogeneous,4,present,0.687392950057983,1,horizontal,horizontal,1,1.08234597206116,red,3,2,782.212099195248,345.621167183745,1054.37883281626,582.212099195248,817.787900804752,854.378832816255,1054.37883281626,582.212099195248,782.212099195248,345.621167183745,545.621167183745,617.787900804752,0,0,0,0,0,3,4,3,NaN,NaN,horizontal,vertical,horizontal,horizontal,none,none
1b,7,100190,2,14,78,18,F,NA,constant,heterogeneous,6,absent,1.4464738368988,1,horizontal,horizontal,1,0.658822679519653,red,6,NaN,586.139005173917,738.882953928832,NaN,NaN,813.345668841951,854.650531362416,1027.20666366803,715.767577433584,1013.86099482608,461.117046071168,786.654331158049,345.349468637584,572.793336331966,484.232422566416,586.139005173917,738.882953928832,6,3,5,6,0,4,vertical,horizontal,horizontal,vertical,vertical,horizontal
1b,7,100190,2,15,79,18,F,NA,constant,heterogeneous,4,present,0.617491006851196,1,vertical,vertical,1,1.08234597206116,red,3,1,808.899371659138,345.155339110131,791.100628340862,854.844660889869,791.100628340862,854.844660889869,1054.84466088987,608.899371659138,808.899371659138,345.155339110131,545.155339110131,591.100628340862,0,0,0,0,5,3,4,5,NaN,NaN,vertical,horizontal,vertical,vertical,none,none
1b,7,100190,2,16,80,18,F,NA,constant,heterogeneous,5,absent,1.33873891830444,1,vertical,vertical,1,0.847055253982544,red,1,NaN,696.282156015671,832.954091698863,NaN,NaN,696.282156015671,832.954091698863,989.501930496736,770.628304621509,1020.83647796503,472.5,746.982518841471,350.57236181288,546.39691668109,573.345241866748,0,0,4,5,5,0,6,NaN,vertical,vertical,vertical,vertical,vertical,none
1b,7,100190,2,17,81,18,F,NA,constant,heterogeneous,5,absent,1.12944793701172,1,horizontal,horizontal,1,0.988229684829712,red,1,NaN,923.626453162816,823.028025320546,NaN,NaN,923.626453162816,823.028025320546,1050.31493177915,551.343706178981,831.076682568313,346.900731331463,568.891514305654,492.232343256122,626.090418184063,786.495193912888,0,0,4,6,6,3,5,NaN,horizontal,horizontal,vertical,horizontal,horizontal,none
1b,7,100190,2,18,82,18,F,NA,constant,heterogeneous,5,absent,0.829704999923706,1,vertical,vertical,1,0.870584325790405,red,2,NaN,1053.60308331891,573.345241866748,NaN,NaN,903.717843984329,832.954091698863,1053.60308331891,573.345241866748,853.017481158529,350.57236181288,579.163522034968,472.5,610.498069503264,770.628304621509,0,0,5,4,6,5,3,NaN,horizontal,vertical,horizontal,vertical,vertical,none
1b,7,100190,2,19,83,18,F,NA,constant,heterogeneous,6,absent,1.33562588691711,1,horizontal,horizontal,1,0.658822679519653,red,4,NaN,795.549636358493,345.03883773512,NaN,NaN,804.450363641507,854.96116226488,1023.02802532055,723.626453162816,1018.57766167904,468.665290897936,795.549636358493,345.03883773512,576.971974679454,476.373546837184,581.422338320961,731.334709102064,0,5,3,4,6,5,horizontal,vertical,horizontal,horizontal,horizontal,vertical
1b,7,100190,2,20,84,18,F,NA,constant,heterogeneous,5,present,0.655983924865723,1,horizontal,horizontal,1,0.882348861694336,red,4,2,581.422338320961,468.665290897936,1054.0296480134,577.775285599347,899.636437764765,834.728737630372,1054.0296480134,577.775285599347,857.362518857686,351.535633479765,581.422338320961,468.665290897936,607.549057043193,767.295052392579,0,0,0,3,6,4,5,NaN,horizontal,vertical,horizontal,horizontal,horizontal,none
1b,7,100190,2,21,85,18,F,NA,constant,heterogeneous,4,present,1.00663781166077,0,horizontal,vertical,1,0.870584325790405,red,3,2,639.523300282292,401.827779828472,998.172220171528,439.523300282291,960.476699717708,798.172220171528,998.172220171528,439.523300282291,639.523300282292,401.827779828472,601.827779828472,760.476699717708,0,0,0,0,6,3,4,6,NaN,NaN,horizontal,horizontal,horizontal,vertical,none,none
1b,7,100190,2,22,86,18,F,NA,constant,heterogeneous,3,absent,1.06937193870544,1,horizontal,horizontal,1,0.717645359039307,red,1,NaN,1016.25226451989,735.129412379467,NaN,NaN,1016.25226451989,735.129412379467,808.899371659138,345.155339110131,574.848363820974,719.715248510402,0,0,0,0,0,0,4,6,5,NaN,NaN,NaN,horizontal,horizontal,horizontal,none,none,none
1b,7,100190,2,23,87,18,F,NA,constant,heterogeneous,6,absent,1.26893210411072,1,vertical,vertical,1,1.09411050796509,red,1,NaN,903.717843984329,832.954091698863,NaN,NaN,903.717843984329,832.954091698863,1053.60308331891,626.654758133252,949.885239334581,393.700666434388,696.282156015671,367.045908301137,546.39691668109,573.345241866748,650.114760665419,806.299333565612,4,0,0,3,5,3,vertical,vertical,vertical,vertical,horizontal,vertical
1b,7,100190,2,24,88,18,F,NA,constant,heterogeneous,6,absent,1.74287486076355,0,vertical,horizontal,1,1.0235232925415,red,6,NaN,550.57236181288,653.017481158529,NaN,NaN,721.200666434388,842.519411655264,970.628304621509,789.501930496736,1049.42763818712,546.982518841471,878.799333565612,357.480588344736,629.371695378491,410.498069503264,550.57236181288,653.017481158529,3,5,6,0,5,4,vertical,vertical,vertical,vertical,horizontal,vertical
1b,7,100190,2,25,89,18,F,NA,constant,heterogeneous,3,present,1.29189896583557,1,vertical,vertical,1,0.705880823135376,red,1,2,857.362518857686,848.464366520235,986.495193912888,426.090418184063,857.362518857686,848.464366520235,986.495193912888,426.090418184063,556.142287229426,525.445215295702,0,0,0,0,0,0,4,5,6,NaN,NaN,NaN,vertical,vertical,vertical,none,none,none
1b,7,100190,2,26,90,18,F,NA,constant,heterogeneous,5,present,1.37158203125,1,vertical,vertical,1,0.682351751327515,red,1,3,657.405809614959,811.404581001536,1039.62161830041,512.784863451954,657.405809614959,811.404581001536,956.993676208043,800.942742169714,1039.62161830041,512.784863451954,791.100628340862,345.155339110131,554.878267535729,529.712474266665,0,0,4,5,0,3,0,NaN,vertical,horizontal,horizontal,vertical,vertical,none
1b,7,100190,2,27,91,18,F,NA,constant,heterogeneous,5,absent,0.848350048065186,1,vertical,vertical,1,0.658822679519653,red,2,NaN,1051.86052685176,560.109211414741,NaN,NaN,915.767577433584,827.206663668034,1051.86052685176,560.109211414741,839.890788585259,348.13947314824,572.793336331966,484.232422566416,619.68777079743,780.31222920257,0,0,3,4,6,5,0,NaN,horizontal,vertical,horizontal,horizontal,vertical,none
1b,7,100190,2,28,92,18,F,NA,constant,heterogeneous,4,absent,0.887755870819092,1,horizontal,horizontal,1,0.717645359039307,red,3,NaN,777.775285599347,345.970351986605,NaN,NaN,822.224714400653,854.029648013395,1054.0296480134,577.775285599347,777.775285599347,345.970351986605,545.970351986605,622.224714400653,0,0,0,0,5,0,4,6,NaN,NaN,vertical,vertical,horizontal,horizontal,none,none
1b,7,100190,2,29,93,18,F,NA,constant,heterogeneous,4,present,0.616856098175049,1,horizontal,horizontal,1,0.95293607711792,red,3,1,883.019879386575,358.892763222174,716.980120613425,841.107236777826,716.980120613425,841.107236777826,1041.10723677783,683.019879386575,883.019879386575,358.892763222174,558.892763222174,516.980120613425,0,0,0,0,0,0,4,5,NaN,NaN,vertical,horizontal,horizontal,horizontal,none,none
1b,7,100190,2,30,94,18,F,NA,constant,heterogeneous,3,present,1.56701278686523,1,horizontal,horizontal,1,1.08234597206116,red,1,2,613.504806087112,773.909581815937,1043.85771277057,674.554784704298,613.504806087112,773.909581815937,1043.85771277057,674.554784704298,742.637481142314,351.535633479765,0,0,0,0,0,0,4,3,6,NaN,NaN,NaN,horizontal,horizontal,vertical,none,none,none
1b,7,100190,2,31,95,18,F,NA,constant,heterogeneous,6,present,1.68421912193298,0,horizontal,vertical,1,0.682351751327515,red,2,5,1036.43188291453,695.524681321058,563.568117085469,504.475318678942,835.489140744817,852.518357529101,1036.43188291453,695.524681321058,1000.94274216971,443.006323791957,764.510859255183,347.4816424709,563.568117085469,504.475318678942,599.057257830286,756.993676208043,0,4,3,5,5,6,vertical,horizontal,horizontal,horizontal,vertical,horizontal
1b,7,100190,2,32,96,18,F,NA,constant,heterogeneous,3,absent,0.913426160812378,1,vertical,vertical,1,0.964700613021851,red,2,NaN,1045.12173246427,529.712474266665,NaN,NaN,738.309916622085,847.425410200379,1045.12173246427,529.712474266665,616.568350913644,422.862115532956,0,0,0,0,0,0,0,4,3,NaN,NaN,NaN,vertical,vertical,vertical,none,none,none
1b,7,100190,2,33,97,18,F,NA,constant,heterogeneous,3,present,0.95721697807312,1,horizontal,horizontal,1,0.670587215423584,red,2,1,989.501930496736,429.371695378491,853.017481158529,849.42763818712,853.017481158529,849.42763818712,989.501930496736,429.371695378491,557.480588344736,521.200666434388,0,0,0,0,0,0,0,4,5,NaN,NaN,NaN,horizontal,horizontal,horizontal,none,none,none
1b,7,100190,2,34,98,18,F,NA,constant,heterogeneous,3,present,1.39105105400085,1,horizontal,horizontal,1,0.929407005310059,red,2,3,831.076682568313,346.900731331463,565.271262369628,699.636437764765,1003.65205506206,753.462830903772,831.076682568313,346.900731331463,565.271262369628,699.636437764765,0,0,0,0,0,0,6,4,6,NaN,NaN,NaN,vertical,horizontal,vertical,none,none,none
1b,7,100190,2,35,99,18,F,NA,constant,heterogeneous,3,absent,1.04677104949951,1,horizontal,horizontal,1,0.77646803855896,red,2,NaN,1046.31108570371,665.998856501143,NaN,NaN,619.68777079743,780.31222920257,1046.31108570371,665.998856501143,734.001143498857,353.688914296288,0,0,0,0,0,0,6,4,6,NaN,NaN,NaN,vertical,horizontal,horizontal,none,none,none
1b,7,100190,2,36,100,18,F,NA,constant,heterogeneous,3,present,0.87021017074585,0,vertical,horizontal,1,0.717645359039307,red,3,2,545.155339110131,591.100628340862,935.129412379467,383.747735480111,919.715248510402,825.151636179026,935.129412379467,383.747735480111,545.155339110131,591.100628340862,0,0,0,0,0,0,3,0,4,NaN,NaN,NaN,horizontal,vertical,vertical,none,none,none
1b,7,100190,2,37,101,18,F,NA,constant,heterogeneous,5,absent,1.55878186225891,1,horizontal,horizontal,1,0.741174430847168,red,5,NaN,583.747735480111,735.129412379467,NaN,NaN,861.690083377915,847.425410200379,1054.37883281626,617.787900804752,895.524681321058,363.568117085469,604.658667004661,436.089159529932,583.747735480111,735.129412379467,0,0,0,6,5,5,4,NaN,vertical,horizontal,vertical,vertical,horizontal,none
1b,7,100190,2,38,102,18,F,NA,constant,heterogeneous,5,absent,1.22699499130249,1,horizontal,horizontal,1,0.647058143615723,red,3,NaN,967.295052392579,407.549057043193,NaN,NaN,777.775285599347,854.029648013395,1034.72873763037,699.636437764765,967.295052392579,407.549057043193,668.665290897936,381.422338320961,551.535633479765,657.362518857686,0,0,3,5,4,0,0,NaN,vertical,horizontal,horizontal,horizontal,vertical,none
1b,7,100190,2,39,103,18,F,NA,constant,heterogeneous,4,absent,1.15743088722229,1,vertical,vertical,1,1.08234597206116,red,2,NaN,980.31222920257,780.31222920257,NaN,NaN,619.68777079743,780.31222920257,980.31222920257,780.31222920257,980.31222920257,419.68777079743,619.68777079743,419.68777079743,0,0,0,0,3,4,0,3,NaN,NaN,horizontal,vertical,vertical,vertical,none,none
1b,7,100190,2,40,104,18,F,NA,constant,heterogeneous,5,present,1.48743200302124,1,horizontal,horizontal,1,0.929407005310059,red,2,5,1051.12597701811,644.280285305067,570.807518193712,711.784642431215,835.489140744817,852.518357529101,1051.12597701811,644.280285305067,919.715248510402,374.848363820974,622.862115532956,416.568350913644,570.807518193712,711.784642431215,0,0,6,4,6,3,0,NaN,horizontal,horizontal,horizontal,vertical,vertical,none
1b,7,100190,2,41,105,18,F,NA,constant,heterogeneous,3,absent,1.33033490180969,1,horizontal,horizontal,1,0.647058143615723,red,2,NaN,1032.95409169886,703.717843984329,NaN,NaN,593.700666434388,749.885239334581,1032.95409169886,703.717843984329,773.345241866748,346.39691668109,0,0,0,0,0,0,5,4,3,NaN,NaN,NaN,horizontal,horizontal,horizontal,none,none,none
1b,7,100190,2,42,106,18,F,NA,constant,heterogeneous,4,absent,1.20981287956238,1,horizontal,horizontal,1,0.835290718078613,red,4,NaN,616.568350913644,777.137884467044,NaN,NaN,977.137884467044,783.431649086356,983.431649086356,422.862115532956,622.862115532956,416.568350913644,616.568350913644,777.137884467044,0,0,0,0,0,5,0,4,NaN,NaN,vertical,horizontal,horizontal,horizontal,none,none
1b,7,100190,2,43,107,18,F,NA,constant,heterogeneous,5,absent,0.951970100402832,1,horizontal,horizontal,1,1.09411050796509,red,3,NaN,1025.15163617903,480.284751489598,NaN,NaN,688.215357568785,829.192481806288,983.431649086356,777.137884467044,1025.15163617903,480.284751489598,755.719714694933,348.874022981887,547.481642470899,564.510859255183,0,0,5,0,4,3,5,NaN,horizontal,vertical,horizontal,horizontal,horizontal,none
1b,7,100190,2,44,108,18,F,NA,constant,heterogeneous,6,present,1.01824307441711,1,vertical,vertical,1,0.752938966751099,red,6,2,588.595418998464,742.594190385041,1029.19248180629,711.784642431215,817.787900804752,854.378832816255,1029.19248180629,711.784642431215,1011.40458100154,457.40580961496,782.212099195248,345.621167183745,570.807518193712,488.215357568785,588.595418998464,742.594190385041,3,5,0,3,0,4,vertical,horizontal,vertical,vertical,vertical,vertical
1b,7,100190,2,45,109,18,F,NA,constant,heterogeneous,6,absent,0.864500999450684,1,vertical,vertical,1,0.882348861694336,red,5,NaN,586.139005173917,461.117046071168,NaN,NaN,786.654331158049,854.650531362416,1013.86099482608,738.882953928832,1027.20666366803,484.232422566416,813.345668841951,345.349468637584,586.139005173917,461.117046071168,572.793336331966,715.767577433584,5,0,3,6,4,6,horizontal,vertical,vertical,horizontal,vertical,vertical
1b,7,100190,2,46,110,18,F,NA,constant,heterogeneous,4,present,0.533241987228394,1,vertical,vertical,1,0.964700613021851,red,3,2,619.68777079743,419.68777079743,980.31222920257,419.68777079743,980.31222920257,780.31222920257,980.31222920257,419.68777079743,619.68777079743,419.68777079743,619.68777079743,780.31222920257,0,0,0,0,3,3,4,6,NaN,NaN,horizontal,horizontal,vertical,vertical,none,none
1b,7,100190,2,47,111,18,F,NA,constant,heterogeneous,4,absent,0.666412115097046,1,vertical,vertical,1,0.917642469406128,red,3,NaN,935.129412379467,383.747735480111,NaN,NaN,664.870587620533,816.252264519889,1016.25226451989,735.129412379467,935.129412379467,383.747735480111,583.747735480111,464.870587620533,0,0,0,0,3,0,4,6,NaN,NaN,vertical,horizontal,vertical,horizontal,none,none
1b,7,100190,2,48,112,18,F,NA,constant,heterogeneous,6,present,1.42178702354431,1,vertical,vertical,1,1.09411050796509,red,1,4,915.767577433584,827.206663668034,684.232422566416,372.793336331966,915.767577433584,827.206663668034,1054.65053136242,613.345668841951,938.882953928832,386.139005173917,684.232422566416,372.793336331966,545.349468637584,586.654331158049,661.117046071168,813.860994826083,4,5,6,3,3,0,vertical,vertical,vertical,vertical,vertical,horizontal
1b,7,100190,2,49,113,18,F,NA,constant,heterogeneous,5,absent,0.579390048980713,1,vertical,vertical,1,0.858819789886475,red,4,NaN,664.870587620533,383.747735480111,NaN,NaN,782.212099195248,854.378832816255,1036.43188291453,695.524681321058,963.910840470068,404.658667004661,664.870587620533,383.747735480111,552.574589799621,661.690083377915,0,0,5,5,0,4,6,NaN,horizontal,horizontal,vertical,vertical,horizontal,none
1b,7,100190,2,50,114,18,F,NA,constant,heterogeneous,4,present,1.25202083587646,1,vertical,vertical,1,1.03528782844543,red,1,2,907.767656743878,831.108485694346,1031.10848569435,492.232343256122,907.767656743878,831.108485694346,1031.10848569435,492.232343256122,692.232343256122,368.891514305654,568.891514305654,707.767656743878,0,0,0,0,4,3,5,0,NaN,NaN,vertical,vertical,horizontal,horizontal,none,none
1b,7,100190,2,51,115,18,F,NA,constant,heterogeneous,6,absent,1.66028380393982,0,horizontal,vertical,1,0.764703502655029,red,6,NaN,650.114760665419,806.299333565612,NaN,NaN,903.717843984329,832.954091698863,1053.60308331891,626.654758133252,949.885239334581,393.700666434388,696.282156015671,367.045908301137,546.39691668109,573.345241866748,650.114760665419,806.299333565612,6,3,3,5,0,4,horizontal,vertical,horizontal,horizontal,horizontal,horizontal
1b,7,100190,2,52,116,18,F,NA,constant,heterogeneous,6,present,1.31130599975586,1,horizontal,horizontal,1,0.670587215423584,red,2,4,960.476699717708,798.172220171528,891.383827134052,361.936991243214,708.616172865948,838.063008756786,960.476699717708,798.172220171528,1051.86052685176,560.109211414741,891.383827134052,361.936991243214,639.523300282292,401.827779828472,548.13947314824,639.890788585259,5,4,5,6,3,0,vertical,horizontal,horizontal,horizontal,vertical,vertical
1b,7,100190,2,53,117,18,F,NA,constant,heterogeneous,5,present,0.945657014846802,1,horizontal,horizontal,1,0.999994220733643,red,5,2,629.371695378491,789.501930496736,1049.42763818712,546.982518841471,927.5,820.836477965032,1049.42763818712,546.982518841471,826.654758133252,346.39691668109,567.045908301137,496.282156015671,629.371695378491,789.501930496736,0,0,0,5,0,3,4,NaN,vertical,vertical,horizontal,horizontal,horizontal,none
1b,7,100190,2,54,118,18,F,NA,constant,heterogeneous,6,absent,1.35089612007141,0,vertical,horizontal,1,0.705880823135376,red,3,NaN,983.431649086356,422.862115532956,NaN,NaN,861.690083377915,847.425410200379,1045.12173246427,670.287525733335,983.431649086356,422.862115532956,738.309916622085,352.574589799621,554.878267535729,529.712474266665,616.568350913644,777.137884467044,6,5,4,0,3,0,vertical,horizontal,vertical,vertical,horizontal,horizontal
1b,7,100190,2,55,119,18,F,NA,constant,heterogeneous,6,present,1.55090284347534,0,horizontal,vertical,1,1.04705236434937,red,2,3,953.462830903772,803.65205506206,1053.09926866854,568.923317431687,700.363562235235,834.728737630372,953.462830903772,803.65205506206,1053.09926866854,568.923317431687,899.636437764765,365.271262369628,646.537169096228,396.34794493794,546.900731331463,631.076682568313,0,4,0,5,5,3,horizontal,horizontal,vertical,horizontal,vertical,horizontal
1b,7,100190,2,56,120,18,F,NA,constant,heterogeneous,3,absent,0.778769016265869,1,vertical,vertical,1,0.635293607711792,red,2,NaN,853.017481158529,350.57236181288,NaN,NaN,989.501930496736,770.628304621509,853.017481158529,350.57236181288,557.480588344736,678.799333565612,0,0,0,0,0,0,6,4,0,NaN,NaN,NaN,horizontal,vertical,horizontal,none,none,none
1b,7,100190,2,57,121,18,F,NA,constant,heterogeneous,3,present,0.831555128097534,1,vertical,vertical,1,0.847055253982544,red,2,1,1051.12597701811,644.280285305067,636.089159529932,795.341332995339,636.089159529932,795.341332995339,1051.12597701811,644.280285305067,712.784863451954,360.378381699593,0,0,0,0,0,0,5,4,3,NaN,NaN,NaN,horizontal,vertical,horizontal,none,none,none
1b,7,100190,2,58,122,18,F,NA,constant,heterogeneous,6,present,0.574598789215088,1,vertical,vertical,1,0.917642469406128,red,6,2,545.349468637584,613.345668841951,938.882953928832,813.860994826083,684.232422566416,827.206663668034,938.882953928832,813.860994826083,1054.65053136242,586.654331158049,915.767577433584,372.793336331966,661.117046071168,386.139005173917,545.349468637584,613.345668841951,6,6,5,0,0,4,horizontal,horizontal,vertical,vertical,vertical,vertical
1b,7,100190,2,59,123,18,F,NA,constant,heterogeneous,4,absent,1.55301094055176,1,horizontal,horizontal,1,0.941171541213989,red,3,NaN,822.224714400653,345.970351986605,NaN,NaN,777.775285599347,854.029648013395,1054.0296480134,622.224714400653,822.224714400653,345.970351986605,545.970351986605,577.775285599347,0,0,0,0,3,3,4,0,NaN,NaN,vertical,horizontal,horizontal,horizontal,none,none
1b,7,100190,2,60,124,18,F,NA,constant,heterogeneous,6,present,1.40575003623962,1,horizontal,horizontal,1,1.07058143615723,red,6,1,551.535633479765,657.362518857686,725.445215295702,843.857712770574,725.445215295702,843.857712770574,973.909581815937,786.495193912888,1048.46436652023,542.637481142314,874.554784704298,356.142287229426,626.090418184063,413.504806087112,551.535633479765,657.362518857686,3,6,3,5,5,4,horizontal,vertical,horizontal,vertical,horizontal,horizontal
1b,7,100190,2,61,125,18,F,NA,constant,heterogeneous,6,present,NaN,0,vertical,none,0,0.788232574462891,red,2,5,977.137884467044,783.431649086356,622.862115532956,416.568350913644,729.712474266665,845.121732464271,977.137884467044,783.431649086356,1047.42541020038,538.309916622085,870.287525733335,354.878267535729,622.862115532956,416.568350913644,552.574589799621,661.690083377915,0,4,3,0,6,3,vertical,vertical,vertical,vertical,vertical,vertical
1b,7,100190,2,62,126,18,F,NA,constant,heterogeneous,4,absent,0.977124929428101,1,vertical,vertical,1,0.95293607711792,red,1,NaN,949.885239334581,806.299333565612,NaN,NaN,949.885239334581,806.299333565612,1006.29933356561,450.114760665419,650.114760665419,393.700666434388,593.700666434388,749.885239334581,0,0,0,0,4,5,3,0,NaN,NaN,vertical,vertical,vertical,horizontal,none,none
1b,7,100190,2,63,127,18,F,NA,constant,heterogeneous,4,present,0.68574595451355,1,vertical,vertical,1,0.647058143615723,red,3,2,708.616172865948,361.936991243214,1038.06300875679,508.616172865948,891.383827134052,838.063008756786,1038.06300875679,508.616172865948,708.616172865948,361.936991243214,561.936991243214,691.383827134052,0,0,0,0,6,5,4,0,NaN,NaN,vertical,horizontal,vertical,horizontal,none,none
1b,7,100190,2,64,128,18,F,NA,constant,heterogeneous,5,present,0.772403955459595,1,vertical,vertical,1,1.03528782844543,red,5,3,545.155339110131,591.100628340862,1011.40458100154,457.40580961496,712.784863451954,839.621618300407,1000.94274216971,756.993676208043,1011.40458100154,457.40580961496,729.712474266665,354.878267535729,545.155339110131,591.100628340862,0,0,0,5,3,6,4,NaN,vertical,vertical,vertical,horizontal,vertical,none
1b,7,100190,3,1,129,18,F,NA,constant,heterogeneous,4,present,0.988029003143311,1,vertical,vertical,1,0.623529071807861,red,2,3,986.495193912888,426.090418184063,626.090418184063,413.504806087112,973.909581815937,786.495193912888,986.495193912888,426.090418184063,626.090418184063,413.504806087112,613.504806087112,773.909581815937,0,0,0,0,6,4,0,0,NaN,NaN,horizontal,vertical,horizontal,horizontal,none,none
1b,7,100190,3,2,130,18,F,NA,constant,heterogeneous,4,absent,0.81208610534668,1,vertical,vertical,1,0.6,red,4,NaN,545.970351986605,577.775285599347,NaN,NaN,777.775285599347,854.029648013395,1054.0296480134,622.224714400653,822.224714400653,345.970351986605,545.970351986605,577.775285599347,0,0,0,0,5,0,3,4,NaN,NaN,vertical,horizontal,horizontal,vertical,none,none
1b,7,100190,3,3,131,18,F,NA,constant,heterogeneous,6,present,1.44183492660522,1,horizontal,horizontal,1,1.0588169002533,red,5,2,558.892763222174,516.980120613425,1041.10723677783,683.019879386575,848.656293821019,850.314931779154,1041.10723677783,683.019879386575,992.450942956807,432.704947607421,751.343706178981,349.685068220846,558.892763222174,516.980120613425,607.549057043193,767.295052392579,6,5,0,3,4,6,horizontal,vertical,vertical,vertical,horizontal,vertical
1b,7,100190,3,4,132,18,F,NA,constant,heterogeneous,4,absent,0.637589931488037,1,horizontal,horizontal,1,0.941171541213989,red,2,NaN,1034.72873763037,500.363562235235,NaN,NaN,899.636437764765,834.728737630372,1034.72873763037,500.363562235235,700.363562235235,365.271262369628,565.271262369628,699.636437764765,0,0,0,0,6,4,0,5,NaN,NaN,horizontal,horizontal,vertical,vertical,none,none
1b,7,100190,3,5,133,18,F,NA,constant,heterogeneous,3,present,0.599113941192627,1,horizontal,horizontal,1,0.623529071807861,red,1,3,591.116228706307,746.261991269517,777.775285599347,345.970351986605,591.116228706307,746.261991269517,1031.10848569435,707.767656743878,777.775285599347,345.970351986605,0,0,0,0,0,0,4,0,5,NaN,NaN,NaN,horizontal,vertical,horizontal,none,none,none
1b,7,100190,3,6,134,18,F,NA,constant,heterogeneous,5,present,1.121169090271,1,horizontal,horizontal,1,1.08234597206116,red,5,1,560.378381699593,687.215136548046,808.899371659138,854.844660889869,808.899371659138,854.844660889869,1045.12173246427,670.287525733335,942.594190385041,388.595418998464,643.006323791957,399.057257830286,560.378381699593,687.215136548046,0,0,0,0,5,3,4,NaN,horizontal,vertical,horizontal,horizontal,horizontal,none
1b,7,100190,3,7,135,18,F,NA,constant,heterogeneous,5,absent,1.44703197479248,1,vertical,vertical,1,0.976465148925781,red,4,NaN,700.363562235235,365.271262369628,NaN,NaN,742.637481142314,848.464366520235,1018.57766167904,731.334709102064,992.450942956807,432.704947607421,700.363562235235,365.271262369628,545.970351986605,622.224714400653,0,0,0,3,5,4,6,NaN,horizontal,horizontal,horizontal,vertical,vertical,none
1b,7,100190,3,8,136,18,F,NA,constant,heterogeneous,3,absent,0.653753042221069,1,horizontal,horizontal,1,0.670587215423584,red,3,NaN,565.271262369628,500.363562235235,NaN,NaN,831.076682568313,853.099268668537,1003.65205506206,446.537169096228,565.271262369628,500.363562235235,0,0,0,0,0,0,6,6,4,NaN,NaN,NaN,vertical,horizontal,horizontal,none,none,none
1b,7,100190,3,9,137,18,F,NA,constant,heterogeneous,6,present,1.08473300933838,1,vertical,vertical,1,1.09411050796509,red,2,4,1013.86099482608,738.882953928832,813.345668841951,345.349468637584,786.654331158049,854.650531362416,1013.86099482608,738.882953928832,1027.20666366803,484.232422566416,813.345668841951,345.349468637584,586.139005173917,461.117046071168,572.793336331966,715.767577433584,3,4,5,6,0,0,vertical,vertical,horizontal,vertical,vertical,vertical
1b,7,100190,3,10,138,18,F,NA,constant,heterogeneous,5,absent,1.62836599349976,1,horizontal,horizontal,1,1.08234597206116,red,2,NaN,1003.65205506206,753.462830903772,NaN,NaN,716.980120613425,841.107236777826,1003.65205506206,753.462830903772,1008.88377129369,453.738008730483,725.445215295702,356.142287229426,545.03883773512,595.549636358493,0,0,6,4,3,5,3,NaN,horizontal,horizontal,vertical,vertical,horizontal,none
1b,7,100190,3,11,139,18,F,NA,constant,heterogeneous,4,present,0.687762022018433,1,horizontal,horizontal,1,0.929407005310059,red,1,4,643.006323791957,800.942742169714,599.057257830286,443.006323791957,643.006323791957,800.942742169714,1000.94274216971,756.993676208043,956.993676208043,399.057257830286,599.057257830286,443.006323791957,0,0,0,0,4,5,3,6,NaN,NaN,horizontal,vertical,horizontal,horizontal,none,none
1b,7,100190,3,12,140,18,F,NA,constant,heterogeneous,5,present,0.792174100875854,1,horizontal,horizontal,1,0.929407005310059,red,3,2,1013.86099482608,461.117046071168,998.172220171528,760.476699717708,708.616172865948,838.063008756786,998.172220171528,760.476699717708,1013.86099482608,461.117046071168,734.001143498857,353.688914296288,545.349468637584,586.654331158049,0,0,6,3,4,5,5,NaN,horizontal,vertical,horizontal,horizontal,horizontal,none
1b,7,100190,3,13,141,18,F,NA,constant,heterogeneous,4,present,1.03792309761047,1,vertical,vertical,1,0.682351751327515,red,2,4,1006.29933356561,450.114760665419,593.700666434388,749.885239334581,949.885239334581,806.299333565612,1006.29933356561,450.114760665419,650.114760665419,393.700666434388,593.700666434388,749.885239334581,0,0,0,0,3,4,3,0,NaN,NaN,vertical,vertical,vertical,vertical,none,none
1b,7,100190,3,14,142,18,F,NA,constant,heterogeneous,5,absent,1.60029077529907,1,horizontal,horizontal,1,0.670587215423584,red,5,NaN,613.504806087112,773.909581815937,NaN,NaN,907.767656743878,831.108485694346,1053.09926866854,568.923317431687,848.656293821019,349.685068220846,576.971974679454,476.373546837184,613.504806087112,773.909581815937,0,0,3,6,5,5,4,NaN,vertical,horizontal,vertical,vertical,horizontal,none
1b,7,100190,3,15,143,18,F,NA,constant,heterogeneous,3,present,0.646024942398071,1,vertical,vertical,1,0.870584325790405,red,3,2,672.5,379.163522034968,1055,600,672.5,820.836477965032,1055,600,672.5,379.163522034968,0,0,0,0,0,0,5,6,4,NaN,NaN,NaN,horizontal,vertical,vertical,none,none,none
1b,7,100190,3,16,144,18,F,NA,constant,heterogeneous,5,absent,1.16603302955627,1,horizontal,horizontal,1,0.741174430847168,red,3,NaN,1000.94274216971,443.006323791957,NaN,NaN,729.712474266665,845.121732464271,1011.40458100154,742.594190385041,1000.94274216971,443.006323791957,712.784863451954,360.378381699593,545.155339110131,608.899371659138,0,0,5,0,4,6,3,NaN,vertical,horizontal,horizontal,vertical,vertical,none
1b,7,100190,3,17,145,18,F,NA,constant,heterogeneous,6,absent,0.741982936859131,1,vertical,vertical,1,1.0235232925415,red,3,NaN,983.431649086356,422.862115532956,NaN,NaN,861.690083377915,847.425410200379,1045.12173246427,670.287525733335,983.431649086356,422.862115532956,738.309916622085,352.574589799621,554.878267535729,529.712474266665,616.568350913644,777.137884467044,5,6,4,0,0,3,horizontal,vertical,vertical,vertical,vertical,horizontal
1b,7,100190,3,18,146,18,F,NA,constant,heterogeneous,3,absent,1.01782703399658,1,vertical,vertical,1,0.635293607711792,red,2,NaN,1018.57766167904,468.665290897936,NaN,NaN,804.450363641507,854.96116226488,1018.57766167904,468.665290897936,576.971974679454,476.373546837184,0,0,0,0,0,0,6,4,3,NaN,NaN,NaN,vertical,vertical,vertical,none,none,none
1b,7,100190,3,19,147,18,F,NA,constant,heterogeneous,5,present,0.965638160705566,1,horizontal,horizontal,1,0.764703502655029,red,3,2,977.137884467044,416.568350913644,1029.19248180629,711.784642431215,764.510859255183,852.518357529101,1029.19248180629,711.784642431215,977.137884467044,416.568350913644,680.284751489598,374.848363820974,548.874022981887,644.280285305067,0,0,5,5,4,3,6,NaN,vertical,vertical,horizontal,vertical,horizontal,none
1b,7,100190,3,20,148,18,F,NA,constant,heterogeneous,6,absent,1.14956188201904,1,horizontal,horizontal,1,1.0235232925415,red,6,NaN,591.116228706307,746.261991269517,NaN,NaN,822.224714400653,854.029648013395,1031.10848569435,707.767656743878,1008.88377129369,453.738008730483,777.775285599347,345.970351986605,568.891514305654,492.232343256122,591.116228706307,746.261991269517,6,0,0,6,5,4,horizontal,horizontal,horizontal,horizontal,horizontal,horizontal
1b,7,100190,3,21,149,18,F,NA,constant,heterogeneous,6,absent,1.87715005874634,1,vertical,vertical,1,0.623529071807861,red,2,NaN,1043.85771277057,674.554784704298,NaN,NaN,857.362518857686,848.464366520235,1043.85771277057,674.554784704298,986.495193912888,426.090418184063,742.637481142314,351.535633479765,556.142287229426,525.445215295702,613.504806087112,773.909581815937,0,4,5,5,6,3,horizontal,vertical,vertical,horizontal,horizontal,horizontal
1b,7,100190,3,22,150,18,F,NA,constant,heterogeneous,6,absent,0.998255014419556,1,horizontal,horizontal,1,0.764703502655029,red,3,NaN,1055,600,NaN,NaN,672.5,820.836477965032,927.5,820.836477965032,1055,600,927.5,379.163522034968,672.5,379.163522034968,545,600,5,0,4,6,6,3,horizontal,horizontal,horizontal,vertical,horizontal,horizontal
1b,7,100190,3,23,151,18,F,NA,constant,heterogeneous,3,present,0.83452582359314,1,vertical,vertical,1,0.811761646270752,red,1,3,870.287525733335,845.121732464271,552.574589799621,538.309916622085,870.287525733335,845.121732464271,977.137884467044,416.568350913644,552.574589799621,538.309916622085,0,0,0,0,0,0,4,5,6,NaN,NaN,NaN,vertical,horizontal,horizontal,none,none,none
1b,7,100190,3,24,152,18,F,NA,constant,heterogeneous,4,absent,0.753607034683228,1,vertical,vertical,1,0.905877933502197,red,4,NaN,610.498069503264,429.371695378491,NaN,NaN,629.371695378491,789.501930496736,989.501930496736,770.628304621509,970.628304621509,410.498069503264,610.498069503264,429.371695378491,0,0,0,0,3,5,6,4,NaN,NaN,vertical,vertical,vertical,vertical,none,none
1b,7,100190,3,25,153,18,F,NA,constant,heterogeneous,3,present,0.75074291229248,1,horizontal,horizontal,1,1.09411050796509,red,2,3,1039.62161830041,512.784863451954,604.658667004661,436.089159529932,755.719714694933,851.125977018113,1039.62161830041,512.784863451954,604.658667004661,436.089159529932,0,0,0,0,0,0,3,4,3,NaN,NaN,NaN,vertical,horizontal,vertical,none,none,none
1b,7,100190,3,26,154,18,F,NA,constant,heterogeneous,4,absent,0.74619197845459,1,horizontal,horizontal,1,1.01175875663757,red,1,NaN,915.767577433584,827.206663668034,NaN,NaN,915.767577433584,827.206663668034,1027.20666366803,484.232422566416,684.232422566416,372.793336331966,572.793336331966,715.767577433584,0,0,0,0,4,0,3,0,NaN,NaN,horizontal,vertical,horizontal,vertical,none,none
1b,7,100190,3,27,155,18,F,NA,constant,heterogeneous,3,absent,0.953209161758423,1,horizontal,horizontal,1,0.999994220733643,red,1,NaN,596.34794493794,753.462830903772,NaN,NaN,596.34794493794,753.462830903772,1034.72873763037,699.636437764765,768.923317431687,346.900731331463,0,0,0,0,0,0,4,0,5,NaN,NaN,NaN,horizontal,vertical,horizontal,none,none,none
1b,7,100190,3,28,156,18,F,NA,constant,heterogeneous,3,absent,1.0007598400116,1,vertical,vertical,1,0.811761646270752,red,3,NaN,768.923317431687,346.900731331463,NaN,NaN,596.34794493794,753.462830903772,1034.72873763037,699.636437764765,768.923317431687,346.900731331463,0,0,0,0,0,0,0,5,4,NaN,NaN,NaN,vertical,vertical,vertical,none,none,none
1b,7,100190,3,29,157,18,F,NA,constant,heterogeneous,4,absent,0.70057201385498,1,horizontal,horizontal,1,0.976465148925781,red,2,NaN,1051.12597701811,644.280285305067,NaN,NaN,755.719714694933,851.125977018113,1051.12597701811,644.280285305067,844.280285305067,348.874022981887,548.874022981887,555.719714694933,0,0,0,0,0,4,3,6,NaN,NaN,horizontal,horizontal,vertical,horizontal,none,none
1b,7,100190,3,30,158,18,F,NA,constant,heterogeneous,3,absent,0.782949209213257,1,horizontal,horizontal,1,0.611764535903931,red,1,NaN,773.345241866748,853.60308331891,NaN,NaN,773.345241866748,853.60308331891,1032.95409169886,496.282156015671,593.700666434388,450.114760665419,0,0,0,0,0,0,4,6,5,NaN,NaN,NaN,horizontal,horizontal,vertical,none,none,none
1b,7,100190,3,31,159,18,F,NA,constant,heterogeneous,6,absent,0.855041027069092,1,vertical,vertical,1,0.611764535903931,red,2,NaN,1053.09926866854,631.076682568313,NaN,NaN,899.636437764765,834.728737630372,1053.09926866854,631.076682568313,953.462830903772,396.34794493794,700.363562235235,365.271262369628,546.900731331463,568.923317431687,646.537169096228,803.65205506206,0,4,0,5,3,6,vertical,vertical,vertical,horizontal,vertical,horizontal
1b,7,100190,3,32,160,18,F,NA,constant,heterogeneous,3,present,1.79825401306152,1,horizontal,horizontal,1,0.694116287231445,red,1,2,721.200666434388,842.519411655264,1049.42763818712,546.982518841471,721.200666434388,842.519411655264,1049.42763818712,546.982518841471,629.371695378491,410.498069503264,0,0,0,0,0,0,4,6,3,NaN,NaN,NaN,horizontal,horizontal,vertical,none,none,none
1b,7,100190,3,33,161,18,F,NA,constant,heterogeneous,3,absent,0.758759021759033,1,horizontal,horizontal,1,0.623529071807861,red,1,NaN,946.261991269517,808.883771293693,NaN,NaN,946.261991269517,808.883771293693,907.767656743878,368.891514305654,545.970351986605,622.224714400653,0,0,0,0,0,0,4,5,3,NaN,NaN,NaN,horizontal,horizontal,horizontal,none,none,none
1b,7,100190,3,34,162,18,F,NA,constant,heterogeneous,3,present,0.950796127319336,1,horizontal,horizontal,1,0.835290718078613,red,1,2,953.462830903772,803.65205506206,899.636437764765,365.271262369628,953.462830903772,803.65205506206,899.636437764765,365.271262369628,546.900731331463,631.076682568313,0,0,0,0,0,0,4,3,5,NaN,NaN,NaN,horizontal,horizontal,horizontal,none,none,none
1b,7,100190,3,35,163,18,F,NA,constant,heterogeneous,3,absent,0.726645946502686,1,vertical,vertical,1,1.04705236434937,red,2,NaN,1038.06300875679,508.616172865948,NaN,NaN,760.109211414741,851.86052685176,1038.06300875679,508.616172865948,601.827779828472,439.523300282291,0,0,0,0,0,0,6,4,0,NaN,NaN,NaN,vertical,vertical,vertical,none,none,none
1b,7,100190,3,36,164,18,F,NA,constant,heterogeneous,5,present,0.858649015426636,1,vertical,vertical,1,0.658822679519653,red,1,5,692.232343256122,831.108485694346,546.900731331463,568.923317431687,692.232343256122,831.108485694346,986.495193912888,773.909581815937,1023.02802532055,476.373546837184,751.343706178981,349.685068220846,546.900731331463,568.923317431687,0,0,4,6,5,5,3,NaN,vertical,horizontal,horizontal,horizontal,horizontal,none
1b,7,100190,3,37,165,18,F,NA,constant,heterogeneous,6,absent,NaN,0,vertical,none,0,0.799997110366821,red,5,NaN,613.504806087112,426.090418184063,NaN,NaN,742.637481142314,848.464366520235,986.495193912888,773.909581815937,1043.85771277057,525.445215295702,857.362518857686,351.535633479765,613.504806087112,426.090418184063,556.142287229426,674.554784704298,5,6,5,0,4,3,vertical,horizontal,vertical,vertical,vertical,horizontal
1b,7,100190,3,38,166,18,F,NA,constant,heterogeneous,3,present,0.576693058013916,0,vertical,horizontal,1,0.823526182174683,red,1,2,1011.40458100154,742.594190385041,817.787900804752,345.621167183745,1011.40458100154,742.594190385041,817.787900804752,345.621167183745,570.807518193712,711.784642431215,0,0,0,0,0,0,4,0,5,NaN,NaN,NaN,vertical,vertical,horizontal,none,none,none
1b,7,100190,3,39,167,18,F,NA,constant,heterogeneous,5,absent,1.33148288726807,1,horizontal,horizontal,1,0.752938966751099,red,3,NaN,1034.72873763037,500.363562235235,NaN,NaN,668.665290897936,818.577661679039,967.295052392579,792.450942956807,1034.72873763037,500.363562235235,777.775285599347,345.970351986605,551.535633479765,542.637481142314,0,0,6,3,4,3,5,NaN,horizontal,horizontal,horizontal,horizontal,horizontal,none
1b,7,100190,3,40,168,18,F,NA,constant,heterogeneous,4,absent,1.35171484947205,1,vertical,vertical,1,1.07058143615723,red,3,NaN,977.137884467044,416.568350913644,NaN,NaN,622.862115532956,783.431649086356,983.431649086356,777.137884467044,977.137884467044,416.568350913644,616.568350913644,422.862115532956,0,0,0,0,6,5,4,5,NaN,NaN,vertical,horizontal,vertical,vertical,none,none
1b,7,100190,3,41,169,18,F,NA,constant,heterogeneous,6,present,1.21437096595764,1,horizontal,horizontal,1,0.964700613021851,red,1,6,755.719714694933,851.125977018113,560.378381699593,687.215136548046,755.719714694933,851.125977018113,995.341332995339,763.910840470068,1039.62161830041,512.784863451954,844.280285305067,348.874022981887,604.658667004661,436.089159529932,560.378381699593,687.215136548046,4,5,3,6,0,0,horizontal,horizontal,horizontal,horizontal,vertical,vertical
1b,7,100190,3,42,170,18,F,NA,constant,heterogeneous,5,absent,0.863087892532349,1,vertical,vertical,1,0.799997110366821,red,1,NaN,817.787900804752,854.378832816255,NaN,NaN,817.787900804752,854.378832816255,1047.42541020038,661.690083377915,935.129412379467,383.747735480111,636.089159529932,404.658667004661,563.568117085469,695.524681321058,0,0,4,3,0,5,3,NaN,vertical,horizontal,horizontal,horizontal,horizontal,none
1b,7,100190,3,43,171,18,F,NA,constant,heterogeneous,3,absent,0.984393835067749,1,vertical,vertical,1,0.799997110366821,red,1,NaN,989.501930496736,770.628304621509,NaN,NaN,989.501930496736,770.628304621509,853.017481158529,350.57236181288,557.480588344736,678.799333565612,0,0,0,0,0,0,4,6,3,NaN,NaN,NaN,vertical,vertical,vertical,none,none,none
1b,7,100190,3,44,172,18,F,NA,constant,heterogeneous,5,absent,1.64100003242493,1,vertical,vertical,1,0.635293607711792,red,3,NaN,835.489140744817,347.4816424709,NaN,NaN,919.715248510402,825.151636179026,1051.12597701811,555.719714694933,835.489140744817,347.4816424709,570.807518193712,488.215357568785,622.862115532956,783.431649086356,0,0,5,3,4,5,6,NaN,vertical,horizontal,vertical,vertical,horizontal,none
1b,7,100190,3,45,173,18,F,NA,constant,heterogeneous,3,present,0.727429866790771,1,vertical,vertical,1,1.08234597206116,red,2,3,1042.51941165526,678.799333565612,746.982518841471,350.57236181288,610.498069503264,770.628304621509,1042.51941165526,678.799333565612,746.982518841471,350.57236181288,0,0,0,0,0,0,3,4,6,NaN,NaN,NaN,horizontal,vertical,horizontal,none,none,none
1b,7,100190,3,46,174,18,F,NA,constant,heterogeneous,4,absent,0.686084032058716,1,vertical,vertical,1,0.999994220733643,red,1,NaN,963.910840470068,795.341332995339,NaN,NaN,963.910840470068,795.341332995339,995.341332995339,436.089159529932,636.089159529932,404.658667004661,604.658667004661,763.910840470068,0,0,0,0,4,5,6,0,NaN,NaN,vertical,vertical,horizontal,vertical,none,none
1b,7,100190,3,47,175,18,F,NA,constant,heterogeneous,6,absent,1.99340009689331,1,horizontal,horizontal,1,1.07058143615723,red,6,NaN,545.621167183745,617.787900804752,NaN,NaN,688.215357568785,829.192481806288,942.594190385041,811.404581001536,1054.37883281626,582.212099195248,911.784642431215,370.807518193712,657.405809614959,388.595418998464,545.621167183745,617.787900804752,0,6,3,3,5,4,horizontal,horizontal,horizontal,horizontal,horizontal,horizontal
1b,7,100190,3,48,176,18,F,NA,constant,heterogeneous,6,present,1.25479578971863,1,vertical,vertical,1,0.858819789886475,red,2,1,1018.57766167904,731.334709102064,795.549636358493,854.96116226488,795.549636358493,854.96116226488,1018.57766167904,731.334709102064,1023.02802532055,476.373546837184,804.450363641507,345.03883773512,581.422338320961,468.665290897936,576.971974679454,723.626453162816,6,4,5,6,5,0,horizontal,vertical,vertical,vertical,horizontal,vertical
1b,7,100190,3,49,177,18,F,NA,constant,heterogeneous,5,present,1.27893590927124,1,vertical,vertical,1,0.741174430847168,red,1,3,742.637481142314,848.464366520235,992.450942956807,432.704947607421,742.637481142314,848.464366520235,1018.57766167904,731.334709102064,992.450942956807,432.704947607421,700.363562235235,365.271262369628,545.970351986605,622.224714400653,0,0,4,0,6,0,3,NaN,vertical,vertical,vertical,horizontal,vertical,none
1b,7,100190,3,50,178,18,F,NA,constant,heterogeneous,4,present,0.640049934387207,1,vertical,vertical,1,0.788232574462891,red,1,4,822.224714400653,854.029648013395,545.970351986605,622.224714400653,822.224714400653,854.029648013395,1054.0296480134,577.775285599347,777.775285599347,345.970351986605,545.970351986605,622.224714400653,0,0,0,0,4,0,6,0,NaN,NaN,vertical,horizontal,horizontal,vertical,none,none
1b,7,100190,3,51,179,18,F,NA,constant,heterogeneous,4,present,1.82832384109497,0,horizontal,vertical,1,0.764703502655029,red,4,3,568.891514305654,492.232343256122,907.767656743878,368.891514305654,692.232343256122,831.108485694346,1031.10848569435,707.767656743878,907.767656743878,368.891514305654,568.891514305654,492.232343256122,0,0,0,0,6,0,3,4,NaN,NaN,vertical,vertical,vertical,horizontal,none,none
1b,7,100190,3,52,180,18,F,NA,constant,heterogeneous,4,present,0.756932020187378,1,vertical,vertical,1,0.788232574462891,red,2,4,1039.62161830041,512.784863451954,560.378381699593,687.215136548046,887.215136548046,839.621618300407,1039.62161830041,512.784863451954,712.784863451954,360.378381699593,560.378381699593,687.215136548046,0,0,0,0,6,4,5,6,NaN,NaN,horizontal,vertical,vertical,vertical,none,none
1b,7,100190,3,53,181,18,F,NA,constant,heterogeneous,6,present,1.16558980941772,1,vertical,vertical,1,0.682351751327515,red,4,6,844.280285305067,348.874022981887,560.378381699593,687.215136548046,755.719714694933,851.125977018113,995.341332995339,763.910840470068,1039.62161830041,512.784863451954,844.280285305067,348.874022981887,604.658667004661,436.089159529932,560.378381699593,687.215136548046,3,0,0,4,6,3,vertical,horizontal,vertical,vertical,vertical,horizontal
1b,7,100190,3,54,182,18,F,NA,constant,heterogeneous,5,present,0.826160907745361,1,vertical,vertical,1,1.03528782844543,red,3,2,887.215136548046,360.378381699593,1054.84466088987,608.899371659138,870.287525733335,845.121732464271,1054.84466088987,608.899371659138,887.215136548046,360.378381699593,599.057257830286,443.006323791957,588.595418998464,742.594190385041,0,0,0,6,4,5,3,NaN,horizontal,vertical,vertical,horizontal,horizontal,none
1b,7,100190,3,55,183,18,F,NA,constant,heterogeneous,6,absent,1.69209003448486,1,horizontal,horizontal,1,0.658822679519653,red,3,NaN,1029.19248180629,488.215357568785,NaN,NaN,782.212099195248,854.378832816255,1011.40458100154,742.594190385041,1029.19248180629,488.215357568785,817.787900804752,345.621167183745,588.595418998464,457.40580961496,570.807518193712,711.784642431215,5,0,4,3,6,5,horizontal,vertical,horizontal,horizontal,vertical,horizontal
1b,7,100190,3,56,184,18,F,NA,constant,heterogeneous,5,present,0.863267183303833,1,vertical,vertical,1,0.870584325790405,red,4,5,742.637481142314,351.535633479765,545.970351986605,577.775285599347,700.363562235235,834.728737630372,992.450942956807,767.295052392579,1018.57766167904,468.665290897936,742.637481142314,351.535633479765,545.970351986605,577.775285599347,0,0,6,3,0,4,5,NaN,horizontal,vertical,vertical,vertical,horizontal,none
1b,7,100190,3,57,185,18,F,NA,constant,heterogeneous,4,absent,NaN,0,horizontal,none,0,0.705880823135376,red,4,NaN,545.03883773512,604.450363641507,NaN,NaN,804.450363641507,854.96116226488,1054.96116226488,595.549636358493,795.549636358493,345.03883773512,545.03883773512,604.450363641507,0,0,0,0,5,3,3,4,NaN,NaN,horizontal,horizontal,horizontal,horizontal,none,none
1b,7,100190,3,58,186,18,F,NA,constant,heterogeneous,4,present,1.22810792922974,1,horizontal,horizontal,1,0.647058143615723,red,3,1,808.899371659138,345.155339110131,791.100628340862,854.844660889869,791.100628340862,854.844660889869,1054.84466088987,608.899371659138,808.899371659138,345.155339110131,545.155339110131,591.100628340862,0,0,0,0,0,0,4,6,NaN,NaN,horizontal,vertical,horizontal,vertical,none,none
1b,7,100190,3,59,187,18,F,NA,constant,heterogeneous,5,present,1.14540481567383,1,horizontal,horizontal,1,0.623529071807861,red,3,2,887.215136548046,360.378381699593,1054.84466088987,608.899371659138,870.287525733335,845.121732464271,1054.84466088987,608.899371659138,887.215136548046,360.378381699593,599.057257830286,443.006323791957,588.595418998464,742.594190385041,0,0,5,3,4,6,0,NaN,horizontal,horizontal,horizontal,vertical,vertical,none
1b,7,100190,3,60,188,18,F,NA,constant,heterogeneous,6,present,1.02158904075623,1,vertical,vertical,1,0.858819789886475,red,1,5,725.445215295702,843.857712770574,626.090418184063,413.504806087112,725.445215295702,843.857712770574,973.909581815937,786.495193912888,1048.46436652023,542.637481142314,874.554784704298,356.142287229426,626.090418184063,413.504806087112,551.535633479765,657.362518857686,4,5,0,0,6,6,vertical,horizontal,vertical,horizontal,horizontal,vertical
1b,7,100190,3,61,189,18,F,NA,constant,heterogeneous,6,present,1.21884417533875,1,horizontal,horizontal,1,1.03528782844543,red,2,3,970.628304621509,789.501930496736,1049.42763818712,546.982518841471,721.200666434388,842.519411655264,970.628304621509,789.501930496736,1049.42763818712,546.982518841471,878.799333565612,357.480588344736,629.371695378491,410.498069503264,550.57236181288,653.017481158529,6,4,6,0,3,5,horizontal,horizontal,horizontal,horizontal,horizontal,horizontal
1b,7,100190,3,62,190,18,F,NA,constant,heterogeneous,5,absent,1.48722887039185,1,vertical,vertical,1,0.988229684829712,red,4,NaN,643.006323791957,399.057257830286,NaN,NaN,808.899371659138,854.844660889869,1045.12173246427,670.287525733335,942.594190385041,388.595418998464,643.006323791957,399.057257830286,560.378381699593,687.215136548046,0,0,5,3,6,4,0,NaN,horizontal,horizontal,horizontal,vertical,vertical,none
1b,7,100190,3,63,191,18,F,NA,constant,heterogeneous,6,present,NaN,0,horizontal,none,0,0.835290718078613,red,5,2,546.900731331463,568.923317431687,1053.09926866854,631.076682568313,899.636437764765,834.728737630372,1053.09926866854,631.076682568313,953.462830903772,396.34794493794,700.363562235235,365.271262369628,546.900731331463,568.923317431687,646.537169096228,803.65205506206,3,0,6,3,4,5,horizontal,vertical,horizontal,horizontal,horizontal,horizontal
1b,7,100190,3,64,192,18,F,NA,constant,heterogeneous,4,present,0.798336982727051,1,horizontal,horizontal,1,0.611764535903931,red,1,2,874.554784704298,843.857712770574,1043.85771277057,525.445215295702,874.554784704298,843.857712770574,1043.85771277057,525.445215295702,725.445215295702,356.142287229426,556.142287229426,674.554784704298,0,0,0,0,4,0,5,5,NaN,NaN,horizontal,vertical,vertical,vertical,none,none
1b,7,100190,4,1,193,18,F,NA,constant,heterogeneous,3,absent,0.938267946243286,1,horizontal,horizontal,1,0.658822679519653,red,3,NaN,563.568117085469,504.475318678942,NaN,NaN,835.489140744817,852.518357529101,1000.94274216971,443.006323791957,563.568117085469,504.475318678942,0,0,0,0,0,0,3,6,4,NaN,NaN,NaN,vertical,horizontal,horizontal,none,none,none
1b,7,100190,4,2,194,18,F,NA,constant,heterogeneous,5,present,0.862439155578613,1,horizontal,horizontal,1,0.670587215423584,red,1,2,712.784863451954,839.621618300407,1000.94274216971,756.993676208043,712.784863451954,839.621618300407,1000.94274216971,756.993676208043,1011.40458100154,457.40580961496,729.712474266665,354.878267535729,545.155339110131,591.100628340862,0,0,4,5,0,3,6,NaN,horizontal,horizontal,vertical,vertical,vertical,none
1b,7,100190,4,3,195,18,F,NA,constant,heterogeneous,3,absent,0.621948003768921,1,horizontal,horizontal,1,0.705880823135376,red,2,NaN,946.261991269517,391.116228706307,NaN,NaN,907.767656743878,831.108485694346,946.261991269517,391.116228706307,545.970351986605,577.775285599347,0,0,0,0,0,0,6,4,0,NaN,NaN,NaN,horizontal,horizontal,vertical,none,none,none
1b,7,100190,4,4,196,18,F,NA,constant,heterogeneous,4,present,0.688363075256348,1,horizontal,horizontal,1,0.694116287231445,red,3,2,927.5,379.163522034968,1020.83647796503,727.5,672.5,820.836477965032,1020.83647796503,727.5,927.5,379.163522034968,579.163522034968,472.5,0,0,0,0,5,3,4,6,NaN,NaN,horizontal,horizontal,horizontal,vertical,none,none
1b,7,100190,4,5,197,18,F,NA,constant,heterogeneous,5,absent,0.75383996963501,1,vertical,vertical,1,0.77646803855896,red,2,NaN,956.993676208043,800.942742169714,NaN,NaN,657.405809614959,811.404581001536,956.993676208043,800.942742169714,1039.62161830041,512.784863451954,791.100628340862,345.155339110131,554.878267535729,529.712474266665,0,0,5,4,5,0,6,NaN,vertical,vertical,vertical,horizontal,horizontal,none
1b,7,100190,4,6,198,18,F,NA,constant,heterogeneous,5,absent,0.601418018341064,1,vertical,vertical,1,0.811761646270752,red,3,NaN,960.476699717708,401.827779828472,NaN,NaN,786.654331158049,854.650531362416,1038.06300875679,691.383827134052,960.476699717708,401.827779828472,661.117046071168,386.139005173917,553.688914296288,665.998856501143,0,0,0,5,4,3,3,NaN,horizontal,vertical,vertical,horizontal,horizontal,none
1b,7,100190,4,7,199,18,F,NA,constant,heterogeneous,3,absent,0.526072025299072,1,vertical,vertical,1,1.0235232925415,red,1,NaN,874.554784704298,843.857712770574,NaN,NaN,874.554784704298,843.857712770574,973.909581815937,413.504806087112,551.535633479765,542.637481142314,0,0,0,0,0,0,4,5,0,NaN,NaN,NaN,vertical,vertical,horizontal,none,none,none
1b,7,100190,4,8,200,18,F,NA,constant,heterogeneous,5,present,0.4514479637146,1,vertical,vertical,1,0.929407005310059,red,2,4,1051.12597701811,555.719714694933,570.807518193712,488.215357568785,919.715248510402,825.151636179026,1051.12597701811,555.719714694933,835.489140744817,347.4816424709,570.807518193712,488.215357568785,622.862115532956,783.431649086356,0,0,5,4,5,0,0,NaN,vertical,vertical,vertical,vertical,vertical,none
1b,7,100190,4,9,201,18,F,NA,constant,heterogeneous,3,present,1.10444593429565,1,vertical,vertical,1,0.999994220733643,red,3,1,574.848363820974,719.715248510402,1016.25226451989,735.129412379467,1016.25226451989,735.129412379467,808.899371659138,345.155339110131,574.848363820974,719.715248510402,0,0,0,0,0,0,0,3,4,NaN,NaN,NaN,vertical,horizontal,vertical,none,none,none
1b,7,100190,4,10,202,18,F,NA,constant,heterogeneous,6,absent,0.879077911376953,0,horizontal,vertical,1,0.811761646270752,red,4,NaN,831.076682568313,346.900731331463,NaN,NaN,768.923317431687,853.099268668537,1003.65205506206,753.462830903772,1034.72873763037,500.363562235235,831.076682568313,346.900731331463,596.34794493794,446.537169096228,565.271262369628,699.636437764765,6,3,3,4,0,6,horizontal,vertical,vertical,horizontal,vertical,vertical
1b,7,100190,4,11,203,18,F,NA,constant,heterogeneous,6,present,0.857069969177246,0,horizontal,vertical,1,0.611764535903931,red,4,6,700.363562235235,365.271262369628,646.537169096228,803.65205506206,899.636437764765,834.728737630372,1053.09926866854,631.076682568313,953.462830903772,396.34794493794,700.363562235235,365.271262369628,546.900731331463,568.923317431687,646.537169096228,803.65205506206,5,3,6,4,6,3,vertical,vertical,vertical,horizontal,horizontal,vertical
1b,7,100190,4,12,204,18,F,NA,constant,heterogeneous,3,present,1.00683188438416,1,horizontal,horizontal,1,0.823526182174683,red,1,3,911.784642431215,829.192481806288,545.621167183745,582.212099195248,911.784642431215,829.192481806288,942.594190385041,388.595418998464,545.621167183745,582.212099195248,0,0,0,0,0,0,4,6,5,NaN,NaN,NaN,horizontal,vertical,horizontal,none,none,none
1b,7,100190,4,13,205,18,F,NA,constant,heterogeneous,4,absent,1.12686800956726,1,vertical,vertical,1,0.788232574462891,red,1,NaN,831.076682568313,853.099268668537,NaN,NaN,831.076682568313,853.099268668537,1053.09926866854,568.923317431687,768.923317431687,346.900731331463,546.900731331463,631.076682568313,0,0,0,0,4,5,3,6,NaN,NaN,vertical,horizontal,vertical,vertical,none,none
1b,7,100190,4,14,206,18,F,NA,constant,heterogeneous,3,absent,0.90327000617981,1,vertical,vertical,1,1.09411050796509,red,3,NaN,786.654331158049,345.349468637584,NaN,NaN,586.139005173917,738.882953928832,1027.20666366803,715.767577433584,786.654331158049,345.349468637584,0,0,0,0,0,0,5,3,4,NaN,NaN,NaN,vertical,horizontal,vertical,none,none,none
1b,7,100190,4,15,207,18,F,NA,constant,heterogeneous,6,absent,0.802603960037231,1,vertical,vertical,1,1.0588169002533,red,5,NaN,613.504806087112,426.090418184063,NaN,NaN,742.637481142314,848.464366520235,986.495193912888,773.909581815937,1043.85771277057,525.445215295702,857.362518857686,351.535633479765,613.504806087112,426.090418184063,556.142287229426,674.554784704298,3,3,5,6,4,5,horizontal,horizontal,horizontal,vertical,vertical,horizontal
1b,7,100190,4,16,208,18,F,NA,constant,heterogeneous,4,present,0.803073883056641,1,horizontal,horizontal,1,1.01175875663757,red,2,1,1054.65053136242,586.654331158049,813.345668841951,854.650531362416,813.345668841951,854.650531362416,1054.65053136242,586.654331158049,786.654331158049,345.349468637584,545.349468637584,613.345668841951,0,0,0,0,0,4,3,5,NaN,NaN,vertical,horizontal,horizontal,horizontal,none,none
1b,7,100190,4,17,209,18,F,NA,constant,heterogeneous,4,absent,0.892165899276733,1,horizontal,horizontal,1,0.835290718078613,red,1,NaN,953.462830903772,803.65205506206,NaN,NaN,953.462830903772,803.65205506206,1003.65205506206,446.537169096228,646.537169096228,396.34794493794,596.34794493794,753.462830903772,0,0,0,0,4,0,6,5,NaN,NaN,horizontal,horizontal,vertical,horizontal,none,none
1b,7,100190,4,18,210,18,F,NA,constant,heterogeneous,6,present,1.5508759021759,1,horizontal,horizontal,1,0.647058143615723,red,6,1,646.537169096228,803.65205506206,899.636437764765,834.728737630372,899.636437764765,834.728737630372,1053.09926866854,631.076682568313,953.462830903772,396.34794493794,700.363562235235,365.271262369628,546.900731331463,568.923317431687,646.537169096228,803.65205506206,3,6,5,5,0,4,vertical,vertical,vertical,horizontal,horizontal,horizontal
1b,7,100190,4,19,211,18,F,NA,constant,heterogeneous,6,present,1.4021999835968,1,vertical,vertical,1,0.811761646270752,red,5,6,653.738008730483,391.116228706307,545.970351986605,622.224714400653,692.232343256122,831.108485694346,946.261991269517,808.883771293693,1054.0296480134,577.775285599347,907.767656743878,368.891514305654,653.738008730483,391.116228706307,545.970351986605,622.224714400653,0,3,5,6,4,6,vertical,horizontal,horizontal,vertical,vertical,vertical
1b,7,100190,4,20,212,18,F,NA,constant,heterogeneous,5,absent,1.50834012031555,1,horizontal,horizontal,1,0.882348861694336,red,3,NaN,826.654758133252,346.39691668109,NaN,NaN,927.5,820.836477965032,1049.42763818712,546.982518841471,826.654758133252,346.39691668109,567.045908301137,496.282156015671,629.371695378491,789.501930496736,0,0,6,5,4,0,5,NaN,horizontal,horizontal,horizontal,vertical,horizontal,none
1b,7,100190,4,21,213,18,F,NA,constant,heterogeneous,4,present,0.763713836669922,1,vertical,vertical,1,1.0588169002533,red,1,4,704.475318678942,836.431882914531,563.568117085469,504.475318678942,704.475318678942,836.431882914531,1036.43188291453,695.524681321058,895.524681321058,363.568117085469,563.568117085469,504.475318678942,0,0,0,0,4,3,0,6,NaN,NaN,vertical,vertical,vertical,horizontal,none,none
1b,7,100190,4,22,214,18,F,NA,constant,heterogeneous,6,present,1.72281908988953,1,horizontal,horizontal,1,0.77646803855896,red,1,4,692.232343256122,831.108485694346,907.767656743878,368.891514305654,692.232343256122,831.108485694346,946.261991269517,808.883771293693,1054.0296480134,577.775285599347,907.767656743878,368.891514305654,653.738008730483,391.116228706307,545.970351986605,622.224714400653,4,5,6,5,6,3,horizontal,vertical,vertical,vertical,horizontal,horizontal
1b,7,100190,4,23,215,18,F,NA,constant,heterogeneous,5,present,0.736511945724487,1,horizontal,horizontal,1,0.752938966751099,red,4,3,646.537169096228,396.34794493794,946.261991269517,391.116228706307,804.450363641507,854.96116226488,1043.85771277057,674.554784704298,946.261991269517,391.116228706307,646.537169096228,396.34794493794,558.892763222174,683.019879386575,0,0,0,5,3,4,0,NaN,horizontal,horizontal,horizontal,horizontal,horizontal,none
1b,7,100190,4,24,216,18,F,NA,constant,heterogeneous,6,absent,1.68124890327454,1,horizontal,horizontal,1,1.08234597206116,red,3,NaN,1003.65205506206,446.537169096228,NaN,NaN,831.076682568313,853.099268668537,1034.72873763037,699.636437764765,1003.65205506206,446.537169096228,768.923317431687,346.900731331463,565.271262369628,500.363562235235,596.34794493794,753.462830903772,0,3,4,3,0,5,vertical,horizontal,horizontal,horizontal,horizontal,vertical
1b,7,100190,4,25,217,18,F,NA,constant,heterogeneous,4,absent,1.80527782440186,1,horizontal,horizontal,1,0.917642469406128,red,3,NaN,946.261991269517,391.116228706307,NaN,NaN,653.738008730483,808.883771293693,1008.88377129369,746.261991269517,946.261991269517,391.116228706307,591.116228706307,453.738008730483,0,0,0,0,0,0,4,5,NaN,NaN,horizontal,vertical,horizontal,horizontal,none,none
1b,7,100190,4,26,218,18,F,NA,constant,heterogeneous,3,absent,0.7150559425354,1,vertical,vertical,1,1.07058143615723,red,1,NaN,848.656293821019,850.314931779154,NaN,NaN,848.656293821019,850.314931779154,992.450942956807,432.704947607421,558.892763222174,516.980120613425,0,0,0,0,0,0,4,6,3,NaN,NaN,NaN,vertical,horizontal,vertical,none,none,none
1b,7,100190,4,27,219,18,F,NA,constant,heterogeneous,3,absent,0.98624587059021,1,horizontal,horizontal,1,1.03528782844543,red,1,NaN,657.405809614959,811.404581001536,NaN,NaN,657.405809614959,811.404581001536,1054.37883281626,617.787900804752,688.215357568785,370.807518193712,0,0,0,0,0,0,4,6,3,NaN,NaN,NaN,horizontal,horizontal,vertical,none,none,none
1b,7,100190,4,28,220,18,F,NA,constant,heterogeneous,4,absent,0.807037115097046,1,vertical,vertical,1,0.647058143615723,red,3,NaN,684.232422566416,372.793336331966,NaN,NaN,915.767577433584,827.206663668034,1027.20666366803,484.232422566416,684.232422566416,372.793336331966,572.793336331966,715.767577433584,0,0,0,0,6,5,4,3,NaN,NaN,horizontal,horizontal,vertical,horizontal,none,none
1b,7,100190,4,29,221,18,F,NA,constant,heterogeneous,6,absent,1.2151198387146,1,horizontal,horizontal,1,0.988229684829712,red,1,NaN,826.654758133252,853.60308331891,NaN,NaN,826.654758133252,853.60308331891,1032.95409169886,703.717843984329,1006.29933356561,450.114760665419,773.345241866748,346.39691668109,567.045908301137,496.282156015671,593.700666434388,749.885239334581,4,0,0,6,3,5,horizontal,vertical,vertical,horizontal,vertical,horizontal
1b,7,100190,4,30,222,18,F,NA,constant,heterogeneous,4,absent,1.18567681312561,1,horizontal,horizontal,1,0.917642469406128,red,4,NaN,567.045908301137,703.717843984329,NaN,NaN,903.717843984329,832.954091698863,1032.95409169886,496.282156015671,696.282156015671,367.045908301137,567.045908301137,703.717843984329,0,0,0,0,5,3,0,4,NaN,NaN,horizontal,vertical,horizontal,horizontal,none,none
1b,7,100190,4,31,223,18,F,NA,constant,heterogeneous,5,absent,0.747680902481079,1,horizontal,horizontal,1,0.705880823135376,red,5,NaN,549.685068220846,648.656293821019,NaN,NaN,768.923317431687,853.099268668537,1031.10848569435,707.767656743878,973.909581815937,413.504806087112,676.373546837184,376.971974679454,549.685068220846,648.656293821019,0,0,6,5,0,0,4,NaN,horizontal,vertical,vertical,vertical,horizontal,none
1b,7,100190,4,32,224,18,F,NA,constant,heterogeneous,5,absent,1.41283512115479,1,horizontal,horizontal,1,0.917642469406128,red,2,NaN,1054.96116226488,604.450363641507,NaN,NaN,874.554784704298,843.857712770574,1054.96116226488,604.450363641507,883.019879386575,358.892763222174,596.34794493794,446.537169096228,591.116228706307,746.261991269517,0,0,3,4,0,6,5,NaN,vertical,horizontal,vertical,horizontal,vertical,none
1b,7,100190,4,33,225,18,F,NA,constant,heterogeneous,6,absent,1.18247509002686,1,vertical,vertical,1,0.647058143615723,red,2,NaN,1029.19248180629,711.784642431215,NaN,NaN,817.787900804752,854.378832816255,1029.19248180629,711.784642431215,1011.40458100154,457.40580961496,782.212099195248,345.621167183745,570.807518193712,488.215357568785,588.595418998464,742.594190385041,0,4,3,0,3,6,horizontal,vertical,vertical,vertical,vertical,horizontal
1b,7,100190,4,34,226,18,F,NA,constant,heterogeneous,6,present,1.71856093406677,1,vertical,vertical,1,1.01175875663757,red,1,2,817.787900804752,854.378832816255,1029.19248180629,711.784642431215,817.787900804752,854.378832816255,1029.19248180629,711.784642431215,1011.40458100154,457.40580961496,782.212099195248,345.621167183745,570.807518193712,488.215357568785,588.595418998464,742.594190385041,4,5,3,6,0,0,vertical,horizontal,horizontal,horizontal,horizontal,horizontal
1b,7,100190,4,35,227,18,F,NA,constant,heterogeneous,4,present,1.10608005523682,1,vertical,vertical,1,0.835290718078613,red,2,4,995.341332995339,763.910840470068,604.658667004661,436.089159529932,636.089159529932,795.341332995339,995.341332995339,763.910840470068,963.910840470068,404.658667004661,604.658667004661,436.089159529932,0,0,0,0,3,4,6,0,NaN,NaN,horizontal,vertical,horizontal,horizontal,none,none
1b,7,100190,4,36,228,18,F,NA,constant,heterogeneous,4,present,1.19016885757446,1,horizontal,horizontal,1,0.694116287231445,red,1,2,742.637481142314,848.464366520235,1048.46436652023,657.362518857686,742.637481142314,848.464366520235,1048.46436652023,657.362518857686,857.362518857686,351.535633479765,551.535633479765,542.637481142314,0,0,0,0,4,3,0,6,NaN,NaN,horizontal,vertical,vertical,horizontal,none,none
1b,7,100190,4,37,229,18,F,NA,constant,heterogeneous,6,present,1.26650595664978,1,horizontal,horizontal,1,0.811761646270752,red,1,4,704.475318678942,836.431882914531,895.524681321058,363.568117085469,704.475318678942,836.431882914531,956.993676208043,800.942742169714,1052.5183575291,564.510859255183,895.524681321058,363.568117085469,643.006323791957,399.057257830286,547.481642470899,635.489140744817,4,0,3,6,3,5,horizontal,vertical,horizontal,vertical,vertical,vertical
1b,7,100190,4,38,230,18,F,NA,constant,heterogeneous,4,absent,NaN,0,vertical,none,0,0.811761646270752,red,2,NaN,1011.40458100154,457.40580961496,NaN,NaN,942.594190385041,811.404581001536,1011.40458100154,457.40580961496,657.405809614959,388.595418998464,588.595418998464,742.594190385041,0,0,0,0,3,4,5,6,NaN,NaN,vertical,vertical,vertical,horizontal,none,none
1b,7,100190,4,39,231,18,F,NA,constant,heterogeneous,3,present,1.83181500434875,0,vertical,horizontal,1,0.988229684829712,red,1,2,616.568350913644,777.137884467044,1045.12173246427,670.287525733335,616.568350913644,777.137884467044,1045.12173246427,670.287525733335,738.309916622085,352.574589799621,0,0,0,0,0,0,4,6,3,NaN,NaN,NaN,vertical,horizontal,vertical,none,none,none
1b,7,100190,4,40,232,18,F,NA,constant,heterogeneous,3,absent,0.918385982513428,1,horizontal,horizontal,1,0.670587215423584,red,2,NaN,817.787900804752,345.621167183745,NaN,NaN,1011.40458100154,742.594190385041,817.787900804752,345.621167183745,570.807518193712,711.784642431215,0,0,0,0,0,0,0,4,6,NaN,NaN,NaN,vertical,horizontal,vertical,none,none,none
1b,7,100190,4,41,233,18,F,NA,constant,heterogeneous,3,present,0.84798002243042,1,horizontal,horizontal,1,0.941171541213989,red,2,1,1052.5183575291,635.489140744817,643.006323791957,800.942742169714,643.006323791957,800.942742169714,1052.5183575291,635.489140744817,704.475318678942,363.568117085469,0,0,0,0,0,0,5,4,6,NaN,NaN,NaN,vertical,horizontal,horizontal,none,none,none
1b,7,100190,4,42,234,18,F,NA,constant,heterogeneous,6,present,0.909471035003662,1,vertical,vertical,1,1.0235232925415,red,6,4,643.006323791957,800.942742169714,704.475318678942,363.568117085469,895.524681321058,836.431882914531,1052.5183575291,635.489140744817,956.993676208043,399.057257830286,704.475318678942,363.568117085469,547.481642470899,564.510859255183,643.006323791957,800.942742169714,6,0,5,3,6,4,horizontal,vertical,vertical,vertical,vertical,vertical
1b,7,100190,4,43,235,18,F,NA,constant,heterogeneous,3,present,0.572190046310425,1,vertical,vertical,1,0.811761646270752,red,1,2,813.345668841951,854.650531362416,1013.86099482608,461.117046071168,813.345668841951,854.650531362416,1013.86099482608,461.117046071168,572.793336331966,484.232422566416,0,0,0,0,0,0,4,6,0,NaN,NaN,NaN,vertical,horizontal,vertical,none,none,none
1b,7,100190,4,44,236,18,F,NA,constant,heterogeneous,6,present,0.763742923736572,1,vertical,vertical,1,0.799997110366821,red,3,4,989.501930496736,429.371695378491,746.982518841471,350.57236181288,853.017481158529,849.42763818712,1042.51941165526,678.799333565612,989.501930496736,429.371695378491,746.982518841471,350.57236181288,557.480588344736,521.200666434388,610.498069503264,770.628304621509,0,6,4,6,0,3,horizontal,vertical,vertical,vertical,vertical,horizontal
1b,7,100190,4,45,237,18,F,NA,constant,heterogeneous,3,present,1.41960406303406,1,horizontal,horizontal,1,1.0235232925415,red,1,2,777.775285599347,854.029648013395,1031.10848569435,492.232343256122,777.775285599347,854.029648013395,1031.10848569435,492.232343256122,591.116228706307,453.738008730483,0,0,0,0,0,0,4,0,5,NaN,NaN,NaN,horizontal,vertical,horizontal,none,none,none
1b,7,100190,4,46,238,18,F,NA,constant,heterogeneous,3,absent,0.853206872940063,1,vertical,vertical,1,1.04705236434937,red,1,NaN,992.450942956807,767.295052392579,NaN,NaN,992.450942956807,767.295052392579,848.656293821019,349.685068220846,558.892763222174,683.019879386575,0,0,0,0,0,0,4,6,5,NaN,NaN,NaN,vertical,horizontal,horizontal,none,none,none
1b,7,100190,4,47,239,18,F,NA,constant,heterogeneous,4,absent,0.973630905151367,1,horizontal,horizontal,1,0.764703502655029,red,2,NaN,1025.15163617903,480.284751489598,NaN,NaN,919.715248510402,825.151636179026,1025.15163617903,480.284751489598,680.284751489598,374.848363820974,574.848363820974,719.715248510402,0,0,0,0,3,4,3,6,NaN,NaN,vertical,horizontal,horizontal,vertical,none,none
1b,7,100190,4,48,240,18,F,NA,constant,heterogeneous,6,absent,1.20661282539368,1,vertical,vertical,1,1.07058143615723,red,4,NaN,874.554784704298,356.142287229426,NaN,NaN,725.445215295702,843.857712770574,973.909581815937,786.495193912888,1048.46436652023,542.637481142314,874.554784704298,356.142287229426,626.090418184063,413.504806087112,551.535633479765,657.362518857686,3,0,5,4,6,6,horizontal,vertical,horizontal,vertical,vertical,vertical
1b,7,100190,4,49,241,18,F,NA,constant,heterogeneous,5,absent,0.971362113952637,1,vertical,vertical,1,0.623529071807861,red,5,NaN,546.900731331463,631.076682568313,NaN,NaN,751.343706178981,850.314931779154,1023.02802532055,723.626453162816,986.495193912888,426.090418184063,692.232343256122,368.891514305654,546.900731331463,631.076682568313,0,0,6,3,5,6,4,NaN,horizontal,horizontal,vertical,horizontal,vertical,none
1b,7,100190,4,50,242,18,F,NA,constant,heterogeneous,5,absent,1.61747097969055,1,horizontal,horizontal,1,0.729409894943237,red,3,NaN,883.019879386575,358.892763222174,NaN,NaN,874.554784704298,843.857712770574,1054.96116226488,604.450363641507,883.019879386575,358.892763222174,596.34794493794,446.537169096228,591.116228706307,746.261991269517,0,0,0,6,4,5,5,NaN,horizontal,horizontal,horizontal,vertical,vertical,none
1b,7,100190,4,51,243,18,F,NA,constant,heterogeneous,5,present,1.23022198677063,1,horizontal,horizontal,1,1.01175875663757,red,1,5,734.001143498857,846.311085703712,545.349468637584,613.345668841951,734.001143498857,846.311085703712,1013.86099482608,738.882953928832,998.172220171528,439.523300282291,708.616172865948,361.936991243214,545.349468637584,613.345668841951,0,0,4,0,5,6,0,NaN,horizontal,horizontal,horizontal,vertical,horizontal,none
1b,7,100190,4,52,244,18,F,NA,constant,heterogeneous,4,present,1.25622701644897,1,vertical,vertical,1,1.0588169002533,red,4,3,586.139005173917,738.882953928832,661.117046071168,386.139005173917,938.882953928832,813.860994826083,1013.86099482608,461.117046071168,661.117046071168,386.139005173917,586.139005173917,738.882953928832,0,0,0,0,5,5,0,4,NaN,NaN,vertical,horizontal,horizontal,vertical,none,none
1b,7,100190,4,53,245,18,F,NA,constant,heterogeneous,5,present,0.874128103256226,1,vertical,vertical,1,1.03528782844543,red,2,1,1046.31108570371,534.001143498857,938.882953928832,813.860994826083,938.882953928832,813.860994826083,1046.31108570371,534.001143498857,813.345668841951,345.349468637584,561.936991243214,508.616172865948,639.523300282292,798.172220171528,0,0,0,4,6,6,5,NaN,horizontal,vertical,horizontal,vertical,vertical,none
