experiment,subject,uniqueID,block,trial,trial_cumulative,age,gender,color_cond_blocking,color_history,shape_type,set_size,distractor,rt,acc,target_orient,response_key,response_made,iti,target_color,target_item,distractor_item,target_X,target_Y,distractor_X,distractor_Y,item1_X,item1_Y,item2_X,item2_Y,item3_X,item3_Y,item4_X,item4_Y,item5_X,item5_Y,item6_X,item6_Y,item1_shape,item2_shape,item3_shape,item4_shape,item5_shape,item6_shape,item1_line,item2_line,item3_line,item4_line,item5_line,item6_line
1b,8,100189,1,1,1,21,F,NA,constant,heterogeneous,5,absent,0.680168867111206,1,horizontal,horizontal,1,1.02351800304348,green,4,NaN,574.848363820974,480.284751489598,NaN,NaN,911.784642431215,829.192481806288,1052.5183575291,564.510859255183,844.280285305067,348.874022981887,574.848363820974,480.284751489598,616.568350913644,777.137884467044,0,0,0,5,0,4,5,NaN,vertical,vertical,vertical,horizontal,vertical,none
1b,8,100189,1,2,2,21,F,NA,constant,heterogeneous,4,absent,1.22628617286682,1,vertical,vertical,1,0.823523390495171,green,3,NaN,704.475318678942,363.568117085469,NaN,NaN,895.524681321058,836.431882914531,1036.43188291453,504.475318678942,704.475318678942,363.568117085469,563.568117085469,695.524681321058,0,0,0,0,3,0,4,0,NaN,NaN,vertical,vertical,vertical,vertical,none,none
1b,8,100189,1,3,3,21,F,NA,constant,heterogeneous,6,absent,1.31197714805603,1,vertical,vertical,1,0.64705755589372,green,5,NaN,664.870587620533,383.747735480111,NaN,NaN,680.284751489598,825.151636179026,935.129412379467,816.252264519889,1054.84466088987,591.100628340862,919.715248510402,374.848363820974,664.870587620533,383.747735480111,545.155339110131,608.899371659138,5,3,3,0,4,5,vertical,horizontal,vertical,vertical,vertical,horizontal
1b,8,100189,1,4,4,21,F,NA,constant,heterogeneous,6,present,NaN,0,horizontal,none,0,0.65882194486715,green,4,1,919.715248510402,374.848363820974,680.284751489598,825.151636179026,680.284751489598,825.151636179026,935.129412379467,816.252264519889,1054.84466088987,591.100628340862,919.715248510402,374.848363820974,664.870587620533,383.747735480111,545.155339110131,608.899371659138,3,0,6,4,5,3,horizontal,horizontal,horizontal,horizontal,horizontal,horizontal
1b,8,100189,1,5,5,21,F,NA,constant,heterogeneous,3,present,0.968039989471436,1,vertical,vertical,1,0.61176438897343,green,3,1,558.892763222174,683.019879386575,992.450942956807,767.295052392579,992.450942956807,767.295052392579,848.656293821019,349.685068220846,558.892763222174,683.019879386575,0,0,0,0,0,0,6,6,4,NaN,NaN,NaN,vertical,horizontal,vertical,none,none,none
1b,8,100189,1,6,6,21,F,NA,constant,heterogeneous,3,present,0.857993125915527,1,vertical,vertical,1,0.7176438897343,green,2,3,1043.85771277057,525.445215295702,613.504806087112,426.090418184063,742.637481142314,848.464366520235,1043.85771277057,525.445215295702,613.504806087112,426.090418184063,0,0,0,0,0,0,3,4,6,NaN,NaN,NaN,horizontal,vertical,vertical,none,none,none
1b,8,100189,1,7,7,21,F,NA,constant,heterogeneous,3,absent,0.633701086044312,1,vertical,vertical,1,0.729408278707731,green,3,NaN,572.793336331966,715.767577433584,NaN,NaN,1013.86099482608,738.882953928832,813.345668841951,345.349468637584,572.793336331966,715.767577433584,0,0,0,0,0,0,0,3,4,NaN,NaN,NaN,vertical,horizontal,vertical,none,none,none
1b,8,100189,1,8,8,21,F,NA,constant,heterogeneous,4,absent,1.2911159992218,0,vertical,horizontal,1,0.6,green,3,NaN,844.280285305067,348.874022981887,NaN,NaN,755.719714694933,851.125977018113,1051.12597701811,644.280285305067,844.280285305067,348.874022981887,548.874022981887,555.719714694933,0,0,0,0,5,6,4,3,NaN,NaN,horizontal,horizontal,vertical,vertical,none,none
1b,8,100189,1,9,9,21,F,NA,constant,heterogeneous,3,present,0.799935817718506,1,vertical,vertical,1,0.941167280229471,green,3,2,738.309916622085,352.574589799621,1045.12173246427,670.287525733335,616.568350913644,777.137884467044,1045.12173246427,670.287525733335,738.309916622085,352.574589799621,0,0,0,0,0,0,3,5,4,NaN,NaN,NaN,horizontal,vertical,vertical,none,none,none
1b,8,100189,1,10,10,21,F,NA,constant,heterogeneous,4,absent,1.22472596168518,1,horizontal,horizontal,1,0.63529316692029,green,1,NaN,831.076682568313,853.099268668537,NaN,NaN,831.076682568313,853.099268668537,1053.09926866854,568.923317431687,768.923317431687,346.900731331463,546.900731331463,631.076682568313,0,0,0,0,4,5,0,6,NaN,NaN,horizontal,vertical,horizontal,horizontal,none,none
1b,8,100189,1,11,11,21,F,NA,constant,heterogeneous,5,present,0.790437936782837,1,vertical,vertical,1,0.847052168442031,green,5,2,576.971974679454,723.626453162816,1053.09926866854,631.076682568313,848.656293821019,850.314931779154,1053.09926866854,631.076682568313,907.767656743878,368.891514305654,613.504806087112,426.090418184063,576.971974679454,723.626453162816,0,0,6,3,5,0,4,NaN,vertical,horizontal,horizontal,vertical,vertical,none
1b,8,100189,1,12,12,21,F,NA,constant,heterogeneous,5,present,0.845432996749878,1,horizontal,horizontal,1,0.952931669202902,green,4,5,692.232343256122,368.891514305654,546.900731331463,631.076682568313,751.343706178981,850.314931779154,1023.02802532055,723.626453162816,986.495193912888,426.090418184063,692.232343256122,368.891514305654,546.900731331463,631.076682568313,0,0,3,0,0,4,5,NaN,vertical,horizontal,vertical,horizontal,horizontal,none
1b,8,100189,1,13,13,21,F,NA,constant,heterogeneous,6,absent,1.17372703552246,1,vertical,vertical,1,0.952931669202902,green,5,NaN,545.03883773512,595.549636358493,NaN,NaN,923.626453162816,823.028025320546,1054.96116226488,604.450363641507,931.334709102064,381.422338320961,676.373546837184,376.971974679454,545.03883773512,595.549636358493,668.665290897936,818.577661679039,5,6,6,0,4,3,horizontal,horizontal,vertical,vertical,vertical,vertical
1b,8,100189,1,14,14,21,F,NA,constant,heterogeneous,5,absent,0.857280969619751,1,vertical,vertical,1,0.61176438897343,green,3,NaN,853.017481158529,350.57236181288,NaN,NaN,903.717843984329,832.954091698863,1053.60308331891,573.345241866748,853.017481158529,350.57236181288,579.163522034968,472.5,610.498069503264,770.628304621509,0,0,3,0,4,0,6,NaN,vertical,horizontal,vertical,vertical,vertical,none
1b,8,100189,1,15,15,21,F,NA,constant,heterogeneous,4,absent,1.09237098693848,1,horizontal,horizontal,1,0.67058633384058,green,1,NaN,661.117046071168,813.860994826083,NaN,NaN,661.117046071168,813.860994826083,1013.86099482608,738.882953928832,938.882953928832,386.139005173917,586.139005173917,461.117046071168,0,0,0,0,4,0,5,0,NaN,NaN,horizontal,horizontal,vertical,vertical,none,none
1b,8,100189,1,16,16,21,F,NA,constant,heterogeneous,3,absent,1.05323505401611,1,vertical,vertical,1,0.752937056654591,green,2,NaN,1018.57766167904,468.665290897936,NaN,NaN,804.450363641507,854.96116226488,1018.57766167904,468.665290897936,576.971974679454,476.373546837184,0,0,0,0,0,0,6,4,6,NaN,NaN,NaN,horizontal,vertical,vertical,none,none,none
1b,8,100189,1,17,17,21,F,NA,constant,heterogeneous,5,present,0.990241050720215,1,vertical,vertical,1,0.988224836123192,green,3,5,817.787900804752,345.621167183745,636.089159529932,795.341332995339,935.129412379467,816.252264519889,1047.42541020038,538.309916622085,817.787900804752,345.621167183745,563.568117085469,504.475318678942,636.089159529932,795.341332995339,0,0,5,5,4,0,6,NaN,vertical,vertical,vertical,vertical,vertical,none
1b,8,100189,1,18,18,21,F,NA,constant,heterogeneous,6,present,0.735207080841064,1,vertical,vertical,1,0.64705755589372,green,4,5,874.554784704298,356.142287229426,626.090418184063,413.504806087112,725.445215295702,843.857712770574,973.909581815937,786.495193912888,1048.46436652023,542.637481142314,874.554784704298,356.142287229426,626.090418184063,413.504806087112,551.535633479765,657.362518857686,3,5,0,4,6,6,vertical,horizontal,horizontal,vertical,vertical,horizontal
1b,8,100189,1,19,19,21,F,NA,constant,heterogeneous,3,present,0.675004005432129,1,horizontal,horizontal,1,1.04704678099034,green,2,3,835.489140744817,347.4816424709,563.568117085469,695.524681321058,1000.94274216971,756.993676208043,835.489140744817,347.4816424709,563.568117085469,695.524681321058,0,0,0,0,0,0,5,4,3,NaN,NaN,NaN,horizontal,horizontal,horizontal,none,none,none
1b,8,100189,1,20,20,21,F,NA,constant,heterogeneous,4,present,0.743007183074951,0,horizontal,vertical,1,0.929402891256041,green,2,1,1031.10848569435,492.232343256122,907.767656743878,831.108485694346,907.767656743878,831.108485694346,1031.10848569435,492.232343256122,692.232343256122,368.891514305654,568.891514305654,707.767656743878,0,0,0,0,3,4,0,5,NaN,NaN,horizontal,horizontal,vertical,horizontal,none,none
1b,8,100189,1,21,21,21,F,NA,constant,heterogeneous,6,absent,0.960755109786987,1,horizontal,horizontal,1,0.917638502282611,green,3,NaN,1000.94274216971,443.006323791957,NaN,NaN,835.489140744817,852.518357529101,1036.43188291453,695.524681321058,1000.94274216971,443.006323791957,764.510859255183,347.4816424709,563.568117085469,504.475318678942,599.057257830286,756.993676208043,5,5,4,0,3,0,horizontal,vertical,horizontal,vertical,horizontal,horizontal
1b,8,100189,1,22,22,21,F,NA,constant,heterogeneous,6,present,0.980608940124512,1,vertical,vertical,1,0.823523390495171,green,4,3,782.212099195248,345.621167183745,1011.40458100154,457.40580961496,817.787900804752,854.378832816255,1029.19248180629,711.784642431215,1011.40458100154,457.40580961496,782.212099195248,345.621167183745,570.807518193712,488.215357568785,588.595418998464,742.594190385041,0,3,6,4,5,6,horizontal,vertical,horizontal,vertical,vertical,horizontal
1b,8,100189,1,23,23,21,F,NA,constant,heterogeneous,3,present,0.834488153457642,1,horizontal,horizontal,1,0.917638502282611,green,1,2,610.498069503264,770.628304621509,1042.51941165526,678.799333565612,610.498069503264,770.628304621509,1042.51941165526,678.799333565612,746.982518841471,350.57236181288,0,0,0,0,0,0,4,0,5,NaN,NaN,NaN,horizontal,vertical,vertical,none,none,none
1b,8,100189,1,24,24,21,F,NA,constant,heterogeneous,5,present,1.30531692504883,1,horizontal,horizontal,1,0.68235072281401,green,5,1,558.892763222174,683.019879386575,804.450363641507,854.96116226488,804.450363641507,854.96116226488,1043.85771277057,674.554784704298,946.261991269517,391.116228706307,646.537169096228,396.34794493794,558.892763222174,683.019879386575,0,0,3,0,5,3,4,NaN,vertical,vertical,vertical,vertical,horizontal,none
1b,8,100189,1,25,25,21,F,NA,constant,heterogeneous,3,absent,1.0287880897522,1,horizontal,horizontal,1,0.847052168442031,green,2,NaN,1029.19248180629,488.215357568785,NaN,NaN,782.212099195248,854.378832816255,1029.19248180629,488.215357568785,588.595418998464,457.40580961496,0,0,0,0,0,0,3,4,3,NaN,NaN,NaN,vertical,horizontal,horizontal,none,none,none
1b,8,100189,1,26,26,21,F,NA,constant,heterogeneous,3,present,1.1933319568634,0,horizontal,vertical,1,0.799994612548311,green,1,3,835.489140744817,852.518357529101,563.568117085469,504.475318678942,835.489140744817,852.518357529101,1000.94274216971,443.006323791957,563.568117085469,504.475318678942,0,0,0,0,0,0,4,5,5,NaN,NaN,NaN,horizontal,vertical,horizontal,none,none,none
1b,8,100189,1,27,27,21,F,NA,constant,heterogeneous,3,absent,0.825490951538086,1,horizontal,horizontal,1,0.799994612548311,green,3,NaN,572.793336331966,715.767577433584,NaN,NaN,1013.86099482608,738.882953928832,813.345668841951,345.349468637584,572.793336331966,715.767577433584,0,0,0,0,0,0,6,6,4,NaN,NaN,NaN,vertical,vertical,horizontal,none,none,none
1b,8,100189,1,28,28,21,F,NA,constant,heterogeneous,6,absent,1.51056790351868,1,vertical,vertical,1,0.62352877794686,green,3,NaN,1003.65205506206,446.537169096228,NaN,NaN,831.076682568313,853.099268668537,1034.72873763037,699.636437764765,1003.65205506206,446.537169096228,768.923317431687,346.900731331463,565.271262369628,500.363562235235,596.34794493794,753.462830903772,3,5,4,3,6,5,horizontal,horizontal,vertical,horizontal,vertical,vertical
1b,8,100189,1,29,29,21,F,NA,constant,heterogeneous,6,absent,1.26247096061707,1,vertical,vertical,1,1.08233994791063,green,4,NaN,708.616172865948,361.936991243214,NaN,NaN,891.383827134052,838.063008756786,1051.86052685176,639.890788585259,960.476699717708,401.827779828472,708.616172865948,361.936991243214,548.13947314824,560.109211414741,639.523300282292,798.172220171528,3,3,5,4,5,6,vertical,vertical,horizontal,vertical,vertical,vertical
1b,8,100189,1,30,30,21,F,NA,constant,heterogeneous,5,absent,1.01987099647522,1,vertical,vertical,1,0.988224836123192,green,5,NaN,547.481642470899,635.489140744817,NaN,NaN,755.719714694933,851.125977018113,1025.15163617903,719.715248510402,983.431649086356,422.862115532956,688.215357568785,370.807518193712,547.481642470899,635.489140744817,0,0,6,5,6,3,4,NaN,vertical,vertical,horizontal,vertical,vertical,none
1b,8,100189,1,31,31,21,F,NA,constant,heterogeneous,4,present,1.0252091884613,1,horizontal,horizontal,1,1.03528239201691,green,2,3,1027.20666366803,484.232422566416,684.232422566416,372.793336331966,915.767577433584,827.206663668034,1027.20666366803,484.232422566416,684.232422566416,372.793336331966,572.793336331966,715.767577433584,0,0,0,0,6,4,6,3,NaN,NaN,horizontal,horizontal,vertical,horizontal,none,none
1b,8,100189,1,32,32,21,F,NA,constant,heterogeneous,4,present,1.16684007644653,1,horizontal,horizontal,1,1.04704678099034,green,1,4,931.334709102064,818.577661679039,581.422338320961,731.334709102064,931.334709102064,818.577661679039,1018.57766167904,468.665290897936,668.665290897936,381.422338320961,581.422338320961,731.334709102064,0,0,0,0,4,6,0,6,NaN,NaN,horizontal,vertical,horizontal,vertical,none,none
1b,8,100189,1,33,33,21,F,NA,constant,heterogeneous,4,present,0.890722036361694,1,vertical,vertical,1,0.811759001521741,green,1,3,822.224714400653,854.029648013395,777.775285599347,345.970351986605,822.224714400653,854.029648013395,1054.0296480134,577.775285599347,777.775285599347,345.970351986605,545.970351986605,622.224714400653,0,0,0,0,4,0,5,6,NaN,NaN,vertical,vertical,vertical,vertical,none,none
1b,8,100189,1,34,34,21,F,NA,constant,heterogeneous,5,absent,1.67899012565613,1,horizontal,horizontal,1,0.7176438897343,green,2,NaN,1046.31108570371,665.998856501143,NaN,NaN,813.345668841951,854.650531362416,1046.31108570371,665.998856501143,938.882953928832,386.139005173917,639.523300282292,401.827779828472,561.936991243214,691.383827134052,0,0,0,4,5,3,5,NaN,vertical,horizontal,horizontal,horizontal,horizontal,none
1b,8,100189,1,35,35,21,F,NA,constant,heterogeneous,6,present,1.95764708518982,1,horizontal,horizontal,1,0.64705755589372,green,2,3,1054.84466088987,608.899371659138,935.129412379467,383.747735480111,919.715248510402,825.151636179026,1054.84466088987,608.899371659138,935.129412379467,383.747735480111,680.284751489598,374.848363820974,545.155339110131,591.100628340862,664.870587620533,816.252264519889,5,4,3,6,0,0,vertical,horizontal,horizontal,horizontal,horizontal,vertical
1b,8,100189,1,36,36,21,F,NA,constant,heterogeneous,5,absent,0.909880876541138,1,vertical,vertical,1,0.63529316692029,green,3,NaN,883.019879386575,358.892763222174,NaN,NaN,874.554784704298,843.857712770574,1054.96116226488,604.450363641507,883.019879386575,358.892763222174,596.34794493794,446.537169096228,591.116228706307,746.261991269517,0,0,5,3,4,0,6,NaN,horizontal,vertical,vertical,vertical,horizontal,none
1b,8,100189,1,37,37,21,F,NA,constant,heterogeneous,4,absent,0.972429037094116,1,horizontal,horizontal,1,0.811759001521741,green,3,NaN,708.616172865948,361.936991243214,NaN,NaN,891.383827134052,838.063008756786,1038.06300875679,508.616172865948,708.616172865948,361.936991243214,561.936991243214,691.383827134052,0,0,0,0,6,3,4,0,NaN,NaN,horizontal,horizontal,horizontal,vertical,none,none
1b,8,100189,1,38,38,21,F,NA,constant,heterogeneous,6,absent,NaN,0,horizontal,none,0,0.811759001521741,green,6,NaN,588.595418998464,742.594190385041,NaN,NaN,817.787900804752,854.378832816255,1029.19248180629,711.784642431215,1011.40458100154,457.40580961496,782.212099195248,345.621167183745,570.807518193712,488.215357568785,588.595418998464,742.594190385041,3,0,3,0,5,4,horizontal,vertical,vertical,horizontal,horizontal,horizontal
1b,8,100189,1,39,39,21,F,NA,constant,heterogeneous,5,absent,1.49463105201721,1,horizontal,horizontal,1,0.7176438897343,green,2,NaN,1034.72873763037,699.636437764765,NaN,NaN,777.775285599347,854.029648013395,1034.72873763037,699.636437764765,967.295052392579,407.549057043193,668.665290897936,381.422338320961,551.535633479765,657.362518857686,0,0,6,4,5,3,0,NaN,horizontal,horizontal,horizontal,horizontal,vertical,none
1b,8,100189,1,40,40,21,F,NA,constant,heterogeneous,6,present,0.914582967758179,1,vertical,vertical,1,0.882345335362321,green,6,2,572.793336331966,715.767577433584,1013.86099482608,738.882953928832,786.654331158049,854.650531362416,1013.86099482608,738.882953928832,1027.20666366803,484.232422566416,813.345668841951,345.349468637584,586.139005173917,461.117046071168,572.793336331966,715.767577433584,0,0,5,6,5,4,horizontal,vertical,horizontal,horizontal,horizontal,vertical
1b,8,100189,1,41,41,21,F,NA,constant,heterogeneous,6,present,1.51322913169861,1,horizontal,horizontal,1,0.61176438897343,green,5,2,554.878267535729,529.712474266665,1045.12173246427,670.287525733335,861.690083377915,847.425410200379,1045.12173246427,670.287525733335,983.431649086356,422.862115532956,738.309916622085,352.574589799621,554.878267535729,529.712474266665,616.568350913644,777.137884467044,0,6,3,5,4,3,vertical,vertical,vertical,vertical,horizontal,horizontal
1b,8,100189,1,42,42,21,F,NA,constant,heterogeneous,6,absent,1.56499099731445,1,horizontal,horizontal,1,1.0705755589372,green,3,NaN,1051.12597701811,555.719714694933,NaN,NaN,712.784863451954,839.621618300407,963.910840470068,795.341332995339,1051.12597701811,555.719714694933,887.215136548046,360.378381699593,636.089159529932,404.658667004661,548.874022981887,644.280285305067,6,5,4,3,0,6,horizontal,horizontal,horizontal,vertical,horizontal,horizontal
1b,8,100189,1,43,43,21,F,NA,constant,heterogeneous,6,present,0.819752931594849,1,horizontal,horizontal,1,0.752937056654591,green,5,2,556.142287229426,525.445215295702,1043.85771277057,674.554784704298,857.362518857686,848.464366520235,1043.85771277057,674.554784704298,986.495193912888,426.090418184063,742.637481142314,351.535633479765,556.142287229426,525.445215295702,613.504806087112,773.909581815937,0,0,3,6,4,6,horizontal,horizontal,horizontal,horizontal,horizontal,horizontal
1b,8,100189,1,44,44,21,F,NA,constant,heterogeneous,4,present,0.776141881942749,1,vertical,vertical,1,1.01175361407005,green,3,1,817.787900804752,345.621167183745,782.212099195248,854.378832816255,782.212099195248,854.378832816255,1054.37883281626,617.787900804752,817.787900804752,345.621167183745,545.621167183745,582.212099195248,0,0,0,0,5,0,4,0,NaN,NaN,vertical,horizontal,vertical,horizontal,none,none
1b,8,100189,1,45,45,21,F,NA,constant,heterogeneous,5,absent,1.00704002380371,1,vertical,vertical,1,0.741172667681161,green,5,NaN,546.900731331463,568.923317431687,NaN,NaN,692.232343256122,831.108485694346,986.495193912888,773.909581815937,1023.02802532055,476.373546837184,751.343706178981,349.685068220846,546.900731331463,568.923317431687,0,0,5,3,6,3,4,NaN,horizontal,vertical,vertical,horizontal,vertical,none
1b,8,100189,1,46,46,21,F,NA,constant,heterogeneous,5,absent,1.17793297767639,1,horizontal,horizontal,1,0.929402891256041,green,1,NaN,768.923317431687,853.099268668537,NaN,NaN,768.923317431687,853.099268668537,1031.10848569435,707.767656743878,973.909581815937,413.504806087112,676.373546837184,376.971974679454,549.685068220846,648.656293821019,0,0,4,0,3,5,3,NaN,horizontal,horizontal,horizontal,horizontal,vertical,none
1b,8,100189,1,47,47,21,F,NA,constant,heterogeneous,5,present,0.704600095748901,1,vertical,vertical,1,0.741172667681161,green,1,4,742.637481142314,848.464366520235,700.363562235235,365.271262369628,742.637481142314,848.464366520235,1018.57766167904,731.334709102064,992.450942956807,432.704947607421,700.363562235235,365.271262369628,545.970351986605,622.224714400653,0,0,4,5,0,6,6,NaN,vertical,vertical,horizontal,horizontal,vertical,none
1b,8,100189,1,48,48,21,F,NA,constant,heterogeneous,3,absent,0.85662317276001,1,horizontal,horizontal,1,0.68235072281401,green,3,NaN,646.537169096228,396.34794493794,NaN,NaN,700.363562235235,834.728737630372,1053.09926866854,568.923317431687,646.537169096228,396.34794493794,0,0,0,0,0,0,6,0,4,NaN,NaN,NaN,horizontal,horizontal,horizontal,none,none,none
1b,8,100189,1,49,49,21,F,NA,constant,heterogeneous,4,absent,0.889699935913086,1,horizontal,horizontal,1,1.01175361407005,green,4,NaN,604.658667004661,763.910840470068,NaN,NaN,963.910840470068,795.341332995339,995.341332995339,436.089159529932,636.089159529932,404.658667004661,604.658667004661,763.910840470068,0,0,0,0,0,3,5,4,NaN,NaN,vertical,vertical,horizontal,horizontal,none,none
1b,8,100189,1,50,50,21,F,NA,constant,heterogeneous,5,present,0.795563936233521,1,horizontal,horizontal,1,0.976460447149762,green,1,4,887.215136548046,839.621618300407,588.595418998464,457.40580961496,887.215136548046,839.621618300407,1054.84466088987,591.100628340862,870.287525733335,354.878267535729,588.595418998464,457.40580961496,599.057257830286,756.993676208043,0,0,4,6,6,3,5,NaN,horizontal,vertical,horizontal,horizontal,vertical,none
1b,8,100189,1,51,51,21,F,NA,constant,heterogeneous,3,present,1.04170799255371,1,horizontal,horizontal,1,0.905874113309181,green,3,2,636.089159529932,404.658667004661,1051.12597701811,555.719714694933,712.784863451954,839.621618300407,1051.12597701811,555.719714694933,636.089159529932,404.658667004661,0,0,0,0,0,0,5,3,4,NaN,NaN,NaN,horizontal,vertical,horizontal,none,none,none
1b,8,100189,1,52,52,21,F,NA,constant,heterogeneous,5,present,1.52829003334045,1,horizontal,horizontal,1,0.882345335362321,green,3,4,1000.94274216971,443.006323791957,712.784863451954,360.378381699593,729.712474266665,845.121732464271,1011.40458100154,742.594190385041,1000.94274216971,443.006323791957,712.784863451954,360.378381699593,545.155339110131,608.899371659138,0,0,3,5,4,6,3,NaN,vertical,vertical,horizontal,vertical,horizontal,none
1b,8,100189,1,53,53,21,F,NA,constant,heterogeneous,4,present,1.04541301727295,1,vertical,vertical,1,0.7176438897343,green,3,4,768.923317431687,346.900731331463,546.900731331463,631.076682568313,831.076682568313,853.099268668537,1053.09926866854,568.923317431687,768.923317431687,346.900731331463,546.900731331463,631.076682568313,0,0,0,0,3,6,4,5,NaN,NaN,horizontal,horizontal,vertical,vertical,none,none
1b,8,100189,1,54,54,21,F,NA,constant,heterogeneous,3,present,0.72860312461853,1,vertical,vertical,1,0.917638502282611,green,2,3,903.717843984329,367.045908301137,546.39691668109,626.654758133252,949.885239334581,806.299333565612,903.717843984329,367.045908301137,546.39691668109,626.654758133252,0,0,0,0,0,0,5,4,0,NaN,NaN,NaN,vertical,vertical,vertical,none,none,none
1b,8,100189,1,55,55,21,F,NA,constant,heterogeneous,4,absent,1.50915384292603,1,vertical,vertical,1,0.67058633384058,green,3,NaN,639.523300282292,401.827779828472,NaN,NaN,960.476699717708,798.172220171528,998.172220171528,439.523300282291,639.523300282292,401.827779828472,601.827779828472,760.476699717708,0,0,0,0,5,6,4,3,NaN,NaN,horizontal,vertical,vertical,vertical,none,none
1b,8,100189,1,56,56,21,F,NA,constant,heterogeneous,6,present,1.16382002830505,1,vertical,vertical,1,0.811759001521741,green,5,1,545.970351986605,577.775285599347,907.767656743878,831.108485694346,907.767656743878,831.108485694346,1054.0296480134,622.224714400653,946.261991269517,391.116228706307,692.232343256122,368.891514305654,545.970351986605,577.775285599347,653.738008730483,808.883771293693,0,5,3,0,4,3,horizontal,vertical,vertical,horizontal,vertical,vertical
1b,8,100189,1,57,57,21,F,NA,constant,heterogeneous,4,absent,0.961673021316528,1,vertical,vertical,1,0.70587950076087,green,3,NaN,696.282156015671,367.045908301137,NaN,NaN,903.717843984329,832.954091698863,1032.95409169886,496.282156015671,696.282156015671,367.045908301137,567.045908301137,703.717843984329,0,0,0,0,0,3,4,3,NaN,NaN,vertical,horizontal,vertical,vertical,none,none
1b,8,100189,1,58,58,21,F,NA,constant,heterogeneous,5,present,0.948614120483398,0,vertical,horizontal,1,0.776465834601451,green,2,4,1054.84466088987,591.100628340862,588.595418998464,457.40580961496,887.215136548046,839.621618300407,1054.84466088987,591.100628340862,870.287525733335,354.878267535729,588.595418998464,457.40580961496,599.057257830286,756.993676208043,0,0,6,4,6,0,5,NaN,horizontal,vertical,horizontal,vertical,vertical,none
1b,8,100189,1,59,59,21,F,NA,constant,heterogeneous,4,present,0.768899917602539,1,vertical,vertical,1,1.08233994791063,green,2,1,1053.60308331891,626.654758133252,773.345241866748,853.60308331891,773.345241866748,853.60308331891,1053.60308331891,626.654758133252,826.654758133252,346.39691668109,546.39691668109,573.345241866748,0,0,0,0,5,4,3,0,NaN,NaN,horizontal,vertical,horizontal,vertical,none,none
1b,8,100189,1,60,60,21,F,NA,constant,heterogeneous,4,present,0.602046012878418,1,horizontal,horizontal,1,1.0705755589372,green,4,3,613.504806087112,426.090418184063,973.909581815937,413.504806087112,626.090418184063,786.495193912888,986.495193912888,773.909581815937,973.909581815937,413.504806087112,613.504806087112,426.090418184063,0,0,0,0,6,0,3,4,NaN,NaN,horizontal,vertical,vertical,horizontal,none,none
1b,8,100189,1,61,61,21,F,NA,constant,heterogeneous,6,absent,NaN,0,horizontal,none,0,1.05881116996377,green,1,NaN,817.787900804752,854.378832816255,NaN,NaN,817.787900804752,854.378832816255,1029.19248180629,711.784642431215,1011.40458100154,457.40580961496,782.212099195248,345.621167183745,570.807518193712,488.215357568785,588.595418998464,742.594190385041,4,3,5,3,0,0,horizontal,horizontal,horizontal,horizontal,vertical,vertical
1b,8,100189,1,62,62,21,F,NA,constant,heterogeneous,3,absent,1.47472190856934,1,vertical,vertical,1,0.741172667681161,green,1,NaN,760.109211414741,851.86052685176,NaN,NaN,760.109211414741,851.86052685176,1038.06300875679,508.616172865948,601.827779828472,439.523300282291,0,0,0,0,0,0,4,6,3,NaN,NaN,NaN,vertical,horizontal,vertical,none,none,none
1b,8,100189,1,63,63,21,F,NA,constant,heterogeneous,3,absent,1.33273601531982,1,vertical,vertical,1,0.61176438897343,green,3,NaN,764.510859255183,347.4816424709,NaN,NaN,599.057257830286,756.993676208043,1036.43188291453,695.524681321058,764.510859255183,347.4816424709,0,0,0,0,0,0,0,5,4,NaN,NaN,NaN,vertical,vertical,vertical,none,none,none
1b,8,100189,1,64,64,21,F,NA,constant,heterogeneous,3,absent,0.943490028381348,1,horizontal,horizontal,1,0.999989225096622,green,1,NaN,953.462830903772,803.65205506206,NaN,NaN,953.462830903772,803.65205506206,899.636437764765,365.271262369628,546.900731331463,631.076682568313,0,0,0,0,0,0,4,0,6,NaN,NaN,NaN,horizontal,horizontal,horizontal,none,none,none
1b,8,100189,2,1,65,21,F,NA,constant,heterogeneous,6,present,1.39903616905212,1,horizontal,horizontal,1,0.976460447149762,green,5,3,646.537169096228,396.34794493794,1053.09926866854,568.923317431687,700.363562235235,834.728737630372,953.462830903772,803.65205506206,1053.09926866854,568.923317431687,899.636437764765,365.271262369628,646.537169096228,396.34794493794,546.900731331463,631.076682568313,0,3,0,6,4,5,vertical,vertical,vertical,horizontal,horizontal,horizontal
1b,8,100189,2,2,66,21,F,NA,constant,heterogeneous,6,present,0.89875602722168,1,vertical,vertical,1,0.976460447149762,green,3,2,949.885239334581,393.700666434388,1053.60308331891,626.654758133252,903.717843984329,832.954091698863,1053.60308331891,626.654758133252,949.885239334581,393.700666434388,696.282156015671,367.045908301137,546.39691668109,573.345241866748,650.114760665419,806.299333565612,6,3,4,6,5,0,horizontal,vertical,vertical,horizontal,vertical,horizontal
1b,8,100189,2,3,67,21,F,NA,constant,heterogeneous,5,absent,1.27855801582336,1,horizontal,horizontal,1,1.08233994791063,green,5,NaN,560.378381699593,687.215136548046,NaN,NaN,808.899371659138,854.844660889869,1045.12173246427,670.287525733335,942.594190385041,388.595418998464,643.006323791957,399.057257830286,560.378381699593,687.215136548046,0,0,0,3,6,5,4,NaN,horizontal,horizontal,horizontal,horizontal,horizontal,none
1b,8,100189,2,4,68,21,F,NA,constant,heterogeneous,5,absent,1.56934380531311,1,vertical,vertical,1,0.858816557415461,green,1,NaN,650.114760665419,806.299333565612,NaN,NaN,650.114760665419,806.299333565612,949.885239334581,806.299333565612,1042.51941165526,521.200666434388,800,345,557.480588344736,521.200666434388,0,0,4,0,5,5,6,NaN,vertical,horizontal,vertical,horizontal,vertical,none
1b,8,100189,2,5,69,21,F,NA,constant,heterogeneous,6,absent,1.32289695739746,1,horizontal,horizontal,1,0.894109724335751,green,4,NaN,742.637481142314,351.535633479765,NaN,NaN,857.362518857686,848.464366520235,1043.85771277057,674.554784704298,986.495193912888,426.090418184063,742.637481142314,351.535633479765,556.142287229426,525.445215295702,613.504806087112,773.909581815937,0,6,5,4,3,5,horizontal,horizontal,vertical,horizontal,vertical,horizontal
1b,8,100189,2,6,70,21,F,NA,constant,heterogeneous,5,absent,0.623128890991211,1,horizontal,horizontal,1,0.858816557415461,green,4,NaN,626.090418184063,413.504806087112,NaN,NaN,831.076682568313,853.099268668537,1050.31493177915,648.656293821019,923.626453162816,376.971974679454,626.090418184063,413.504806087112,568.891514305654,707.767656743878,0,0,5,5,0,4,6,NaN,vertical,vertical,vertical,horizontal,horizontal,none
1b,8,100189,2,7,71,21,F,NA,constant,heterogeneous,6,absent,1.18475699424744,1,vertical,vertical,1,0.65882194486715,green,3,NaN,1006.29933356561,450.114760665419,NaN,NaN,826.654758133252,853.60308331891,1032.95409169886,703.717843984329,1006.29933356561,450.114760665419,773.345241866748,346.39691668109,567.045908301137,496.282156015671,593.700666434388,749.885239334581,6,5,4,3,0,3,vertical,horizontal,vertical,vertical,vertical,horizontal
1b,8,100189,2,8,72,21,F,NA,constant,heterogeneous,6,present,1.31556296348572,1,horizontal,horizontal,1,0.952931669202902,green,3,6,1018.57766167904,468.665290897936,581.422338320961,731.334709102064,804.450363641507,854.96116226488,1023.02802532055,723.626453162816,1018.57766167904,468.665290897936,795.549636358493,345.03883773512,576.971974679454,476.373546837184,581.422338320961,731.334709102064,0,5,4,6,0,3,vertical,vertical,horizontal,vertical,horizontal,vertical
1b,8,100189,2,9,73,21,F,NA,constant,heterogeneous,3,present,0.78003716468811,1,horizontal,horizontal,1,0.70587950076087,green,2,1,1039.62161830041,512.784863451954,755.719714694933,851.125977018113,755.719714694933,851.125977018113,1039.62161830041,512.784863451954,604.658667004661,436.089159529932,0,0,0,0,0,0,0,4,5,NaN,NaN,NaN,vertical,horizontal,horizontal,none,none,none
1b,8,100189,2,10,74,21,F,NA,constant,heterogeneous,4,present,1.59277200698853,1,horizontal,horizontal,1,0.847052168442031,green,1,4,935.129412379467,816.252264519889,583.747735480111,735.129412379467,935.129412379467,816.252264519889,1016.25226451989,464.870587620533,664.870587620533,383.747735480111,583.747735480111,735.129412379467,0,0,0,0,4,5,6,3,NaN,NaN,horizontal,vertical,horizontal,horizontal,none,none
1b,8,100189,2,11,75,21,F,NA,constant,heterogeneous,5,present,0.816255807876587,1,vertical,vertical,1,0.776465834601451,green,3,4,887.215136548046,360.378381699593,599.057257830286,443.006323791957,870.287525733335,845.121732464271,1054.84466088987,608.899371659138,887.215136548046,360.378381699593,599.057257830286,443.006323791957,588.595418998464,742.594190385041,0,0,6,0,4,6,0,NaN,horizontal,vertical,vertical,vertical,vertical,none
1b,8,100189,2,12,76,21,F,NA,constant,heterogeneous,6,absent,1.82394790649414,1,horizontal,horizontal,1,0.952931669202902,green,4,NaN,861.690083377915,352.574589799621,NaN,NaN,738.309916622085,847.425410200379,983.431649086356,777.137884467044,1045.12173246427,529.712474266665,861.690083377915,352.574589799621,616.568350913644,422.862115532956,554.878267535729,670.287525733335,6,0,3,4,0,5,horizontal,horizontal,horizontal,horizontal,vertical,horizontal
1b,8,100189,2,13,77,21,F,NA,constant,heterogeneous,4,present,0.702827930450439,1,vertical,vertical,1,0.917638502282611,green,4,1,613.504806087112,773.909581815937,973.909581815937,786.495193912888,973.909581815937,786.495193912888,986.495193912888,426.090418184063,626.090418184063,413.504806087112,613.504806087112,773.909581815937,0,0,0,0,5,6,0,4,NaN,NaN,horizontal,vertical,horizontal,vertical,none,none
1b,8,100189,2,14,78,21,F,NA,constant,heterogeneous,3,absent,0.706423044204712,1,horizontal,horizontal,1,0.858816557415461,green,2,NaN,1054.65053136242,586.654331158049,NaN,NaN,684.232422566416,827.206663668034,1054.65053136242,586.654331158049,661.117046071168,386.139005173917,0,0,0,0,0,0,0,4,6,NaN,NaN,NaN,horizontal,horizontal,horizontal,none,none,none
1b,8,100189,2,15,79,21,F,NA,constant,heterogeneous,5,absent,0.894227981567383,1,vertical,vertical,1,0.870580946388891,green,1,NaN,870.287525733335,845.121732464271,NaN,NaN,870.287525733335,845.121732464271,1054.84466088987,608.899371659138,887.215136548046,360.378381699593,599.057257830286,443.006323791957,588.595418998464,742.594190385041,0,0,4,6,5,5,3,NaN,vertical,horizontal,vertical,horizontal,vertical,none
1b,8,100189,2,16,80,21,F,NA,constant,heterogeneous,6,present,0.978452920913696,1,vertical,vertical,1,0.70587950076087,green,6,5,657.405809614959,811.404581001536,545.621167183745,582.212099195248,911.784642431215,829.192481806288,1054.37883281626,617.787900804752,942.594190385041,388.595418998464,688.215357568785,370.807518193712,545.621167183745,582.212099195248,657.405809614959,811.404581001536,6,0,5,6,5,4,horizontal,vertical,horizontal,horizontal,vertical,vertical
1b,8,100189,2,17,81,21,F,NA,constant,heterogeneous,3,present,0.69896388053894,1,vertical,vertical,1,0.63529316692029,green,2,1,1053.60308331891,626.654758133252,650.114760665419,806.299333565612,650.114760665419,806.299333565612,1053.60308331891,626.654758133252,696.282156015671,367.045908301137,0,0,0,0,0,0,3,4,3,NaN,NaN,NaN,horizontal,vertical,vertical,none,none,none
1b,8,100189,2,18,82,21,F,NA,constant,heterogeneous,4,absent,0.628926992416382,0,vertical,horizontal,1,0.788230223574881,green,3,NaN,661.117046071168,386.139005173917,NaN,NaN,938.882953928832,813.860994826083,1013.86099482608,461.117046071168,661.117046071168,386.139005173917,586.139005173917,738.882953928832,0,0,0,0,0,6,4,3,NaN,NaN,vertical,horizontal,vertical,horizontal,none,none
1b,8,100189,2,19,83,21,F,NA,constant,heterogeneous,3,absent,0.779201984405518,1,vertical,vertical,1,1.0705755589372,green,3,NaN,593.700666434388,450.114760665419,NaN,NaN,773.345241866748,853.60308331891,1032.95409169886,496.282156015671,593.700666434388,450.114760665419,0,0,0,0,0,0,3,6,4,NaN,NaN,NaN,horizontal,vertical,vertical,none,none,none
1b,8,100189,2,20,84,21,F,NA,constant,heterogeneous,3,absent,0.647183895111084,1,horizontal,horizontal,1,1.02351800304348,green,3,NaN,546.39691668109,573.345241866748,NaN,NaN,903.717843984329,832.954091698863,949.885239334581,393.700666434388,546.39691668109,573.345241866748,0,0,0,0,0,0,6,3,4,NaN,NaN,NaN,vertical,horizontal,horizontal,none,none,none
1b,8,100189,2,21,85,21,F,NA,constant,heterogeneous,5,present,0.699632167816162,1,horizontal,horizontal,1,0.952931669202902,green,5,4,545.621167183745,582.212099195248,738.309916622085,352.574589799621,704.475318678942,836.431882914531,995.341332995339,763.910840470068,1016.25226451989,464.870587620533,738.309916622085,352.574589799621,545.621167183745,582.212099195248,0,0,5,6,3,5,4,NaN,horizontal,vertical,vertical,horizontal,horizontal,none
1b,8,100189,2,22,86,21,F,NA,constant,heterogeneous,3,present,1.04581093788147,1,vertical,vertical,1,1.01175361407005,green,3,2,700.363562235235,365.271262369628,1053.09926866854,631.076682568313,646.537169096228,803.65205506206,1053.09926866854,631.076682568313,700.363562235235,365.271262369628,0,0,0,0,0,0,6,6,4,NaN,NaN,NaN,horizontal,horizontal,vertical,none,none,none
1b,8,100189,2,23,87,21,F,NA,constant,heterogeneous,4,present,1.42769813537598,1,vertical,vertical,1,0.62352877794686,green,1,3,782.212099195248,854.378832816255,817.787900804752,345.621167183745,782.212099195248,854.378832816255,1054.37883281626,617.787900804752,817.787900804752,345.621167183745,545.621167183745,582.212099195248,0,0,0,0,4,0,5,3,NaN,NaN,vertical,horizontal,horizontal,horizontal,none,none
1b,8,100189,2,24,88,21,F,NA,constant,heterogeneous,6,present,1.49726009368896,1,horizontal,horizontal,1,0.62352877794686,green,2,5,1036.43188291453,695.524681321058,563.568117085469,504.475318678942,835.489140744817,852.518357529101,1036.43188291453,695.524681321058,1000.94274216971,443.006323791957,764.510859255183,347.4816424709,563.568117085469,504.475318678942,599.057257830286,756.993676208043,6,4,3,5,0,3,vertical,horizontal,vertical,horizontal,vertical,vertical
1b,8,100189,2,25,89,21,F,NA,constant,heterogeneous,5,present,0.849249124526978,1,vertical,vertical,1,1.09410433688406,green,5,4,547.481642470899,635.489140744817,688.215357568785,370.807518193712,755.719714694933,851.125977018113,1025.15163617903,719.715248510402,983.431649086356,422.862115532956,688.215357568785,370.807518193712,547.481642470899,635.489140744817,0,0,3,5,6,0,4,NaN,vertical,vertical,horizontal,horizontal,vertical,none
1b,8,100189,2,26,90,21,F,NA,constant,heterogeneous,3,absent,0.718481063842773,1,vertical,vertical,1,0.823523390495171,green,2,NaN,1053.60308331891,626.654758133252,NaN,NaN,650.114760665419,806.299333565612,1053.60308331891,626.654758133252,696.282156015671,367.045908301137,0,0,0,0,0,0,6,4,0,NaN,NaN,NaN,horizontal,vertical,vertical,none,none,none
1b,8,100189,2,27,91,21,F,NA,constant,heterogeneous,5,present,1.40714192390442,1,horizontal,horizontal,1,0.69411511178744,green,2,3,1047.42541020038,538.309916622085,817.787900804752,345.621167183745,935.129412379467,816.252264519889,1047.42541020038,538.309916622085,817.787900804752,345.621167183745,563.568117085469,504.475318678942,636.089159529932,795.341332995339,0,0,3,4,6,3,0,NaN,vertical,horizontal,vertical,vertical,vertical,none
1b,8,100189,2,28,92,21,F,NA,constant,heterogeneous,6,present,0.972843885421753,0,vertical,horizontal,1,1.0705755589372,green,5,1,622.862115532956,416.568350913644,729.712474266665,845.121732464271,729.712474266665,845.121732464271,977.137884467044,783.431649086356,1047.42541020038,538.309916622085,870.287525733335,354.878267535729,622.862115532956,416.568350913644,552.574589799621,661.690083377915,3,3,0,6,4,0,horizontal,horizontal,vertical,horizontal,vertical,horizontal
1b,8,100189,2,29,93,21,F,NA,constant,heterogeneous,5,present,0.875855922698975,1,horizontal,horizontal,1,0.976460447149762,green,4,5,586.139005173917,461.117046071168,601.827779828472,760.476699717708,891.383827134052,838.063008756786,1054.65053136242,586.654331158049,865.998856501143,353.688914296288,586.139005173917,461.117046071168,601.827779828472,760.476699717708,0,0,3,5,0,4,6,NaN,horizontal,horizontal,vertical,horizontal,vertical,none
1b,8,100189,2,30,94,21,F,NA,constant,heterogeneous,4,present,0.81013011932373,1,vertical,vertical,1,0.62352877794686,green,2,3,1034.72873763037,699.636437764765,899.636437764765,365.271262369628,700.363562235235,834.728737630372,1034.72873763037,699.636437764765,899.636437764765,365.271262369628,565.271262369628,500.363562235235,0,0,0,0,3,4,0,0,NaN,NaN,horizontal,vertical,horizontal,horizontal,none,none
1b,8,100189,2,31,95,21,F,NA,constant,heterogeneous,4,present,1.1900680065155,1,vertical,vertical,1,0.776465834601451,green,3,1,782.212099195248,345.621167183745,817.787900804752,854.378832816255,817.787900804752,854.378832816255,1054.37883281626,582.212099195248,782.212099195248,345.621167183745,545.621167183745,617.787900804752,0,0,0,0,6,6,4,3,NaN,NaN,vertical,vertical,vertical,horizontal,none,none
1b,8,100189,2,32,96,21,F,NA,constant,heterogeneous,4,present,0.785976886749268,1,horizontal,horizontal,1,1.01175361407005,green,2,3,1018.57766167904,731.334709102064,931.334709102064,381.422338320961,668.665290897936,818.577661679039,1018.57766167904,731.334709102064,931.334709102064,381.422338320961,581.422338320961,468.665290897936,0,0,0,0,0,4,5,6,NaN,NaN,vertical,horizontal,horizontal,vertical,none,none
1b,8,100189,2,33,97,21,F,NA,constant,heterogeneous,6,absent,1.90761399269104,1,horizontal,horizontal,1,0.68235072281401,green,4,NaN,903.717843984329,367.045908301137,NaN,NaN,696.282156015671,832.954091698863,949.885239334581,806.299333565612,1053.60308331891,573.345241866748,903.717843984329,367.045908301137,650.114760665419,393.700666434388,546.39691668109,626.654758133252,0,3,6,4,5,6,vertical,vertical,vertical,horizontal,horizontal,horizontal
1b,8,100189,2,34,98,21,F,NA,constant,heterogeneous,3,present,0.762846946716309,1,horizontal,horizontal,1,1.03528239201691,green,3,2,574.848363820974,719.715248510402,808.899371659138,345.155339110131,1016.25226451989,735.129412379467,808.899371659138,345.155339110131,574.848363820974,719.715248510402,0,0,0,0,0,0,3,3,4,NaN,NaN,NaN,vertical,vertical,horizontal,none,none,none
1b,8,100189,2,35,99,21,F,NA,constant,heterogeneous,3,present,0.713432788848877,1,vertical,vertical,1,0.964696058176332,green,2,3,887.215136548046,360.378381699593,548.874022981887,644.280285305067,963.910840470068,795.341332995339,887.215136548046,360.378381699593,548.874022981887,644.280285305067,0,0,0,0,0,0,6,4,5,NaN,NaN,NaN,horizontal,vertical,horizontal,none,none,none
1b,8,100189,2,36,100,21,F,NA,constant,heterogeneous,4,absent,0.837169885635376,1,vertical,vertical,1,0.870580946388891,green,1,NaN,907.767656743878,831.108485694346,NaN,NaN,907.767656743878,831.108485694346,1031.10848569435,492.232343256122,692.232343256122,368.891514305654,568.891514305654,707.767656743878,0,0,0,0,4,6,6,3,NaN,NaN,vertical,vertical,vertical,vertical,none,none
1b,8,100189,2,37,101,21,F,NA,constant,heterogeneous,4,present,0.790594100952148,1,horizontal,horizontal,1,1.02351800304348,green,2,4,986.495193912888,773.909581815937,613.504806087112,426.090418184063,626.090418184063,786.495193912888,986.495193912888,773.909581815937,973.909581815937,413.504806087112,613.504806087112,426.090418184063,0,0,0,0,0,4,6,0,NaN,NaN,horizontal,horizontal,vertical,horizontal,none,none
1b,8,100189,2,38,102,21,F,NA,constant,heterogeneous,6,absent,1.61234617233276,1,horizontal,horizontal,1,1.08233994791063,green,5,NaN,601.827779828472,439.523300282291,NaN,NaN,760.109211414741,851.86052685176,998.172220171528,760.476699717708,1038.06300875679,508.616172865948,839.890788585259,348.13947314824,601.827779828472,439.523300282291,561.936991243214,691.383827134052,5,0,6,3,4,0,horizontal,horizontal,vertical,vertical,horizontal,horizontal
1b,8,100189,2,39,103,21,F,NA,constant,heterogeneous,4,absent,0.912744045257568,1,horizontal,horizontal,1,0.788230223574881,green,1,NaN,688.215357568785,829.192481806288,NaN,NaN,688.215357568785,829.192481806288,1029.19248180629,711.784642431215,911.784642431215,370.807518193712,570.807518193712,488.215357568785,0,0,0,0,4,6,3,5,NaN,NaN,horizontal,horizontal,horizontal,horizontal,none,none
1b,8,100189,2,40,104,21,F,NA,constant,heterogeneous,5,present,0.803620100021362,1,vertical,vertical,1,0.823523390495171,green,3,2,935.129412379467,383.747735480111,1047.42541020038,661.690083377915,817.787900804752,854.378832816255,1047.42541020038,661.690083377915,935.129412379467,383.747735480111,636.089159529932,404.658667004661,563.568117085469,695.524681321058,0,0,6,0,4,0,3,NaN,horizontal,vertical,vertical,horizontal,vertical,none
1b,8,100189,2,41,105,21,F,NA,constant,heterogeneous,3,absent,1.36126399040222,1,horizontal,horizontal,1,0.870580946388891,green,2,NaN,983.431649086356,422.862115532956,NaN,NaN,861.690083377915,847.425410200379,983.431649086356,422.862115532956,554.878267535729,529.712474266665,0,0,0,0,0,0,6,4,0,NaN,NaN,NaN,vertical,horizontal,horizontal,none,none,none
1b,8,100189,2,42,106,21,F,NA,constant,heterogeneous,5,present,1.23225688934326,1,horizontal,horizontal,1,0.988224836123192,green,4,1,800,345,650.114760665419,806.299333565612,650.114760665419,806.299333565612,949.885239334581,806.299333565612,1042.51941165526,521.200666434388,800,345,557.480588344736,521.200666434388,0,0,3,6,0,4,5,NaN,vertical,horizontal,vertical,horizontal,horizontal,none
1b,8,100189,2,43,107,21,F,NA,constant,heterogeneous,5,absent,1.76878690719604,1,horizontal,horizontal,1,1.01175361407005,green,5,NaN,550.57236181288,546.982518841471,NaN,NaN,672.5,820.836477965032,970.628304621509,789.501930496736,1032.95409169886,496.282156015671,773.345241866748,346.39691668109,550.57236181288,546.982518841471,0,0,3,6,3,5,4,NaN,horizontal,vertical,horizontal,horizontal,horizontal,none
1b,8,100189,2,44,108,21,F,NA,constant,heterogeneous,3,present,0.692938089370728,1,horizontal,horizontal,1,0.788230223574881,green,3,1,639.523300282292,401.827779828472,708.616172865948,838.063008756786,708.616172865948,838.063008756786,1051.86052685176,560.109211414741,639.523300282292,401.827779828472,0,0,0,0,0,0,3,0,4,NaN,NaN,NaN,horizontal,horizontal,horizontal,none,none,none
1b,8,100189,2,45,109,21,F,NA,constant,heterogeneous,6,absent,1.29203605651855,1,vertical,vertical,1,1.04704678099034,green,4,NaN,907.767656743878,368.891514305654,NaN,NaN,692.232343256122,831.108485694346,946.261991269517,808.883771293693,1054.0296480134,577.775285599347,907.767656743878,368.891514305654,653.738008730483,391.116228706307,545.970351986605,622.224714400653,3,5,6,4,0,0,vertical,horizontal,horizontal,vertical,vertical,horizontal
1b,8,100189,2,46,110,21,F,NA,constant,heterogeneous,5,absent,1.18227005004883,1,vertical,vertical,1,1.02351800304348,green,2,NaN,1054.96116226488,595.549636358493,NaN,NaN,883.019879386575,841.107236777826,1054.96116226488,595.549636358493,874.554784704298,356.142287229426,591.116228706307,453.738008730483,596.34794493794,753.462830903772,0,0,3,4,0,6,3,NaN,vertical,vertical,vertical,horizontal,vertical,none
1b,8,100189,2,47,111,21,F,NA,constant,heterogeneous,5,present,1.02158713340759,1,vertical,vertical,1,0.988224836123192,green,1,4,653.738008730483,808.883771293693,795.549636358493,345.03883773512,653.738008730483,808.883771293693,953.462830903772,803.65205506206,1041.10723677783,516.980120613425,795.549636358493,345.03883773512,556.142287229426,525.445215295702,0,0,4,0,3,6,5,NaN,vertical,vertical,vertical,vertical,vertical,none
1b,8,100189,2,48,112,21,F,NA,constant,heterogeneous,5,absent,0.8785719871521,1,vertical,vertical,1,0.799994612548311,green,1,NaN,883.019879386575,841.107236777826,NaN,NaN,883.019879386575,841.107236777826,1054.96116226488,595.549636358493,874.554784704298,356.142287229426,591.116228706307,453.738008730483,596.34794493794,753.462830903772,0,0,4,5,6,0,5,NaN,vertical,vertical,horizontal,horizontal,horizontal,none
1b,8,100189,2,49,113,21,F,NA,constant,heterogeneous,4,absent,0.838242053985596,1,horizontal,horizontal,1,0.917638502282611,green,3,NaN,668.665290897936,381.422338320961,NaN,NaN,931.334709102064,818.577661679039,1018.57766167904,468.665290897936,668.665290897936,381.422338320961,581.422338320961,731.334709102064,0,0,0,0,6,5,4,6,NaN,NaN,horizontal,horizontal,horizontal,vertical,none,none
1b,8,100189,2,50,114,21,F,NA,constant,heterogeneous,6,present,0.993438005447388,0,vertical,horizontal,1,1.09410433688406,green,6,4,549.685068220846,648.656293821019,883.019879386575,358.892763222174,716.980120613425,841.107236777826,967.295052392579,792.450942956807,1050.31493177915,551.343706178981,883.019879386575,358.892763222174,632.704947607421,407.549057043193,549.685068220846,648.656293821019,5,0,6,3,5,4,horizontal,horizontal,horizontal,vertical,horizontal,vertical
1b,8,100189,2,51,115,21,F,NA,constant,heterogeneous,4,absent,0.697383880615234,1,vertical,vertical,1,1.02351800304348,green,4,NaN,613.504806087112,773.909581815937,NaN,NaN,973.909581815937,786.495193912888,986.495193912888,426.090418184063,626.090418184063,413.504806087112,613.504806087112,773.909581815937,0,0,0,0,3,6,6,4,NaN,NaN,vertical,vertical,horizontal,vertical,none,none
1b,8,100189,2,52,116,21,F,NA,constant,heterogeneous,5,absent,0.663633108139038,1,horizontal,horizontal,1,0.976460447149762,green,5,NaN,553.688914296288,665.998856501143,NaN,NaN,786.654331158049,854.650531362416,1038.06300875679,691.383827134052,960.476699717708,401.827779828472,661.117046071168,386.139005173917,553.688914296288,665.998856501143,0,0,3,5,0,3,4,NaN,vertical,horizontal,horizontal,vertical,horizontal,none
1b,8,100189,2,53,117,21,F,NA,constant,heterogeneous,3,absent,0.565838813781738,1,vertical,vertical,1,1.05881116996377,green,1,NaN,721.200666434388,842.519411655264,NaN,NaN,721.200666434388,842.519411655264,1049.42763818712,546.982518841471,629.371695378491,410.498069503264,0,0,0,0,0,0,4,5,5,NaN,NaN,NaN,vertical,horizontal,horizontal,none,none,none
1b,8,100189,2,54,118,21,F,NA,constant,heterogeneous,4,absent,0.708452939987183,1,horizontal,horizontal,1,0.929402891256041,green,4,NaN,546.900731331463,631.076682568313,NaN,NaN,831.076682568313,853.099268668537,1053.09926866854,568.923317431687,768.923317431687,346.900731331463,546.900731331463,631.076682568313,0,0,0,0,6,0,6,4,NaN,NaN,horizontal,horizontal,horizontal,horizontal,none,none
1b,8,100189,2,55,119,21,F,NA,constant,heterogeneous,3,absent,1.03154397010803,1,vertical,vertical,1,0.847052168442031,green,2,NaN,1016.25226451989,464.870587620533,NaN,NaN,808.899371659138,854.844660889869,1016.25226451989,464.870587620533,574.848363820974,480.284751489598,0,0,0,0,0,0,3,4,0,NaN,NaN,NaN,vertical,vertical,vertical,none,none,none
1b,8,100189,2,56,120,21,F,NA,constant,heterogeneous,6,absent,0.781788110733032,1,vertical,vertical,1,1.0705755589372,green,5,NaN,607.549057043193,432.704947607421,NaN,NaN,751.343706178981,850.314931779154,992.450942956807,767.295052392579,1041.10723677783,516.980120613425,848.656293821019,349.685068220846,607.549057043193,432.704947607421,558.892763222174,683.019879386575,3,6,5,5,4,0,horizontal,horizontal,vertical,vertical,vertical,horizontal
1b,8,100189,2,57,121,21,F,NA,constant,heterogeneous,6,present,1.22269916534424,1,horizontal,horizontal,1,1.05881116996377,green,4,2,734.001143498857,353.688914296288,1046.31108570371,665.998856501143,865.998856501143,846.311085703712,1046.31108570371,665.998856501143,980.31222920257,419.68777079743,734.001143498857,353.688914296288,553.688914296288,534.001143498857,619.68777079743,780.31222920257,5,3,6,4,5,0,vertical,vertical,horizontal,horizontal,vertical,vertical
1b,8,100189,2,58,122,21,F,NA,constant,heterogeneous,4,present,0.860377788543701,1,horizontal,horizontal,1,1.04704678099034,green,3,2,804.450363641507,345.03883773512,1054.96116226488,604.450363641507,795.549636358493,854.96116226488,1054.96116226488,604.450363641507,804.450363641507,345.03883773512,545.03883773512,595.549636358493,0,0,0,0,3,5,4,0,NaN,NaN,vertical,vertical,horizontal,vertical,none,none
1b,8,100189,2,59,123,21,F,NA,constant,heterogeneous,4,absent,0.910374879837036,1,vertical,vertical,1,0.823523390495171,green,1,NaN,804.450363641507,854.96116226488,NaN,NaN,804.450363641507,854.96116226488,1054.96116226488,595.549636358493,795.549636358493,345.03883773512,545.03883773512,604.450363641507,0,0,0,0,4,0,3,5,NaN,NaN,vertical,vertical,vertical,vertical,none,none
1b,8,100189,2,60,124,21,F,NA,constant,heterogeneous,6,absent,1.51506900787354,1,vertical,vertical,1,0.7176438897343,green,1,NaN,688.215357568785,829.192481806288,NaN,NaN,688.215357568785,829.192481806288,942.594190385041,811.404581001536,1054.37883281626,582.212099195248,911.784642431215,370.807518193712,657.405809614959,388.595418998464,545.621167183745,617.787900804752,4,3,5,0,3,6,vertical,horizontal,horizontal,vertical,horizontal,horizontal
1b,8,100189,2,61,125,21,F,NA,constant,heterogeneous,3,present,0.903531789779663,0,horizontal,vertical,1,0.69411511178744,green,2,1,1051.12597701811,644.280285305067,636.089159529932,795.341332995339,636.089159529932,795.341332995339,1051.12597701811,644.280285305067,712.784863451954,360.378381699593,0,0,0,0,0,0,6,4,3,NaN,NaN,NaN,horizontal,horizontal,horizontal,none,none,none
1b,8,100189,2,62,126,21,F,NA,constant,heterogeneous,4,absent,0.845069885253906,1,horizontal,horizontal,1,0.976460447149762,green,4,NaN,586.139005173917,461.117046071168,NaN,NaN,661.117046071168,813.860994826083,1013.86099482608,738.882953928832,938.882953928832,386.139005173917,586.139005173917,461.117046071168,0,0,0,0,5,0,3,4,NaN,NaN,horizontal,vertical,horizontal,horizontal,none,none
1b,8,100189,2,63,127,21,F,NA,constant,heterogeneous,3,present,0.664185047149658,1,vertical,vertical,1,1.09410433688406,green,1,2,822.224714400653,854.029648013395,1008.88377129369,453.738008730483,822.224714400653,854.029648013395,1008.88377129369,453.738008730483,568.891514305654,492.232343256122,0,0,0,0,0,0,4,6,0,NaN,NaN,NaN,vertical,horizontal,vertical,none,none,none
1b,8,100189,2,64,128,21,F,NA,constant,heterogeneous,3,absent,0.850840091705322,1,horizontal,horizontal,1,0.870580946388891,green,2,NaN,1046.31108570371,665.998856501143,NaN,NaN,619.68777079743,780.31222920257,1046.31108570371,665.998856501143,734.001143498857,353.688914296288,0,0,0,0,0,0,0,4,6,NaN,NaN,NaN,vertical,horizontal,horizontal,none,none,none
1b,8,100189,3,1,129,21,F,NA,constant,heterogeneous,6,present,1.46528315544128,1,vertical,vertical,1,0.61176438897343,green,1,6,786.654331158049,854.650531362416,572.793336331966,715.767577433584,786.654331158049,854.650531362416,1013.86099482608,738.882953928832,1027.20666366803,484.232422566416,813.345668841951,345.349468637584,586.139005173917,461.117046071168,572.793336331966,715.767577433584,4,0,6,5,3,3,vertical,vertical,vertical,horizontal,horizontal,horizontal
1b,8,100189,3,2,130,21,F,NA,constant,heterogeneous,6,present,1.52960395812988,1,horizontal,horizontal,1,0.752937056654591,green,1,5,680.284751489598,825.151636179026,664.870587620533,383.747735480111,680.284751489598,825.151636179026,935.129412379467,816.252264519889,1054.84466088987,591.100628340862,919.715248510402,374.848363820974,664.870587620533,383.747735480111,545.155339110131,608.899371659138,4,6,0,3,5,6,horizontal,vertical,vertical,vertical,vertical,vertical
1b,8,100189,3,3,131,21,F,NA,constant,heterogeneous,4,present,0.799381971359253,1,horizontal,horizontal,1,0.741172667681161,green,3,2,786.654331158049,345.349468637584,1054.65053136242,586.654331158049,813.345668841951,854.650531362416,1054.65053136242,586.654331158049,786.654331158049,345.349468637584,545.349468637584,613.345668841951,0,0,0,0,6,3,4,0,NaN,NaN,horizontal,vertical,horizontal,horizontal,none,none
1b,8,100189,3,4,132,21,F,NA,constant,heterogeneous,6,present,1.09349489212036,1,horizontal,horizontal,1,0.894109724335751,green,5,2,545.03883773512,595.549636358493,1054.96116226488,604.450363641507,923.626453162816,823.028025320546,1054.96116226488,604.450363641507,931.334709102064,381.422338320961,676.373546837184,376.971974679454,545.03883773512,595.549636358493,668.665290897936,818.577661679039,3,3,0,0,4,5,vertical,horizontal,horizontal,horizontal,horizontal,vertical
1b,8,100189,3,5,133,21,F,NA,constant,heterogeneous,5,present,0.939401149749756,1,horizontal,horizontal,1,0.776465834601451,green,2,3,1049.42763818712,653.017481158529,927.5,379.163522034968,826.654758133252,853.60308331891,1049.42763818712,653.017481158529,927.5,379.163522034968,629.371695378491,410.498069503264,567.045908301137,703.717843984329,0,0,0,4,0,6,5,NaN,vertical,horizontal,horizontal,horizontal,vertical,none
1b,8,100189,3,6,134,21,F,NA,constant,heterogeneous,6,absent,1.0226001739502,1,vertical,vertical,1,0.62352877794686,green,6,NaN,583.747735480111,735.129412379467,NaN,NaN,808.899371659138,854.844660889869,1025.15163617903,719.715248510402,1016.25226451989,464.870587620533,791.100628340862,345.155339110131,574.848363820974,480.284751489598,583.747735480111,735.129412379467,5,3,0,6,5,4,horizontal,horizontal,horizontal,vertical,vertical,vertical
1b,8,100189,3,7,135,21,F,NA,constant,heterogeneous,6,absent,0.615568876266479,1,vertical,vertical,1,0.811759001521741,green,3,NaN,1054.37883281626,582.212099195248,NaN,NaN,688.215357568785,829.192481806288,942.594190385041,811.404581001536,1054.37883281626,582.212099195248,911.784642431215,370.807518193712,657.405809614959,388.595418998464,545.621167183745,617.787900804752,5,0,4,6,3,6,vertical,vertical,vertical,vertical,vertical,vertical
1b,8,100189,3,8,136,21,F,NA,constant,heterogeneous,4,present,0.646306991577148,1,vertical,vertical,1,0.70587950076087,green,4,1,556.142287229426,674.554784704298,874.554784704298,843.857712770574,874.554784704298,843.857712770574,1043.85771277057,525.445215295702,725.445215295702,356.142287229426,556.142287229426,674.554784704298,0,0,0,0,5,0,6,4,NaN,NaN,vertical,vertical,horizontal,vertical,none,none
1b,8,100189,3,9,137,21,F,NA,constant,heterogeneous,6,present,0.986929178237915,1,horizontal,horizontal,1,0.776465834601451,green,5,6,661.117046071168,386.139005173917,545.349468637584,613.345668841951,684.232422566416,827.206663668034,938.882953928832,813.860994826083,1054.65053136242,586.654331158049,915.767577433584,372.793336331966,661.117046071168,386.139005173917,545.349468637584,613.345668841951,5,5,6,0,4,6,vertical,vertical,horizontal,horizontal,horizontal,vertical
1b,8,100189,3,10,138,21,F,NA,constant,heterogeneous,6,absent,1.64829802513123,1,horizontal,horizontal,1,0.65882194486715,green,1,NaN,760.109211414741,851.86052685176,NaN,NaN,760.109211414741,851.86052685176,998.172220171528,760.476699717708,1038.06300875679,508.616172865948,839.890788585259,348.13947314824,601.827779828472,439.523300282291,561.936991243214,691.383827134052,4,6,0,5,0,3,horizontal,horizontal,horizontal,horizontal,vertical,horizontal
1b,8,100189,3,11,139,21,F,NA,constant,heterogeneous,6,absent,NaN,0,vertical,none,0,0.952931669202902,green,3,NaN,935.129412379467,383.747735480111,NaN,NaN,919.715248510402,825.151636179026,1054.84466088987,608.899371659138,935.129412379467,383.747735480111,680.284751489598,374.848363820974,545.155339110131,591.100628340862,664.870587620533,816.252264519889,0,6,4,3,6,0,horizontal,vertical,vertical,vertical,vertical,vertical
1b,8,100189,3,12,140,21,F,NA,constant,heterogeneous,5,present,0.692039966583252,1,vertical,vertical,1,0.764701445628021,green,5,4,636.089159529932,795.341332995339,563.568117085469,504.475318678942,935.129412379467,816.252264519889,1047.42541020038,538.309916622085,817.787900804752,345.621167183745,563.568117085469,504.475318678942,636.089159529932,795.341332995339,0,0,6,5,6,5,4,NaN,vertical,horizontal,vertical,horizontal,vertical,none
1b,8,100189,3,13,141,21,F,NA,constant,heterogeneous,3,present,0.900097846984863,1,horizontal,horizontal,1,0.905874113309181,green,1,2,911.784642431215,829.192481806288,942.594190385041,388.595418998464,911.784642431215,829.192481806288,942.594190385041,388.595418998464,545.621167183745,582.212099195248,0,0,0,0,0,0,4,3,6,NaN,NaN,NaN,horizontal,horizontal,vertical,none,none,none
1b,8,100189,3,14,142,21,F,NA,constant,heterogeneous,4,absent,1.50446891784668,1,horizontal,horizontal,1,0.905874113309181,green,2,NaN,1013.86099482608,461.117046071168,NaN,NaN,938.882953928832,813.860994826083,1013.86099482608,461.117046071168,661.117046071168,386.139005173917,586.139005173917,738.882953928832,0,0,0,0,5,4,0,3,NaN,NaN,horizontal,horizontal,horizontal,vertical,none,none
1b,8,100189,3,15,143,21,F,NA,constant,heterogeneous,4,present,0.689317941665649,1,vertical,vertical,1,0.929402891256041,green,1,4,857.362518857686,848.464366520235,551.535633479765,657.362518857686,857.362518857686,848.464366520235,1048.46436652023,542.637481142314,742.637481142314,351.535633479765,551.535633479765,657.362518857686,0,0,0,0,4,3,3,5,NaN,NaN,vertical,vertical,vertical,vertical,none,none
1b,8,100189,3,16,144,21,F,NA,constant,heterogeneous,6,present,0.97419810295105,1,vertical,vertical,1,0.941167280229471,green,4,2,848.656293821019,349.685068220846,992.450942956807,767.295052392579,751.343706178981,850.314931779154,992.450942956807,767.295052392579,1041.10723677783,516.980120613425,848.656293821019,349.685068220846,607.549057043193,432.704947607421,558.892763222174,683.019879386575,0,3,5,4,5,6,vertical,vertical,vertical,vertical,vertical,horizontal
1b,8,100189,3,17,145,21,F,NA,constant,heterogeneous,5,present,0.758611917495728,1,horizontal,horizontal,1,0.64705755589372,green,5,1,632.704947607421,792.450942956807,931.334709102064,818.577661679039,931.334709102064,818.577661679039,1048.46436652023,542.637481142314,822.224714400653,345.970351986605,565.271262369628,500.363562235235,632.704947607421,792.450942956807,0,0,0,5,3,0,4,NaN,horizontal,horizontal,vertical,vertical,horizontal,none
1b,8,100189,3,18,146,21,F,NA,constant,heterogeneous,4,absent,0.718774080276489,1,vertical,vertical,1,0.63529316692029,green,1,NaN,935.129412379467,816.252264519889,NaN,NaN,935.129412379467,816.252264519889,1016.25226451989,464.870587620533,664.870587620533,383.747735480111,583.747735480111,735.129412379467,0,0,0,0,4,5,0,5,NaN,NaN,vertical,horizontal,horizontal,vertical,none,none
1b,8,100189,3,19,147,21,F,NA,constant,heterogeneous,3,absent,0.613744020462036,1,horizontal,horizontal,1,0.62352877794686,green,3,NaN,579.163522034968,727.5,NaN,NaN,1020.83647796503,727.5,800,345,579.163522034968,727.5,0,0,0,0,0,0,3,5,4,NaN,NaN,NaN,horizontal,vertical,horizontal,none,none,none
1b,8,100189,3,20,148,21,F,NA,constant,heterogeneous,5,present,1.03737497329712,1,horizontal,horizontal,1,0.952931669202902,green,3,4,1041.10723677783,516.980120613425,795.549636358493,345.03883773512,653.738008730483,808.883771293693,953.462830903772,803.65205506206,1041.10723677783,516.980120613425,795.549636358493,345.03883773512,556.142287229426,525.445215295702,0,0,6,5,4,6,0,NaN,horizontal,horizontal,horizontal,vertical,horizontal,none
1b,8,100189,3,21,149,21,F,NA,constant,heterogeneous,5,present,0.954659938812256,1,vertical,vertical,1,0.811759001521741,green,4,3,800,345,1042.51941165526,521.200666434388,650.114760665419,806.299333565612,949.885239334581,806.299333565612,1042.51941165526,521.200666434388,800,345,557.480588344736,521.200666434388,0,0,0,3,5,4,5,NaN,vertical,vertical,vertical,vertical,vertical,none
1b,8,100189,3,22,150,21,F,NA,constant,heterogeneous,6,absent,1.72919821739197,1,horizontal,horizontal,1,0.964696058176332,green,4,NaN,716.980120613425,358.892763222174,NaN,NaN,883.019879386575,841.107236777826,1050.31493177915,648.656293821019,967.295052392579,407.549057043193,716.980120613425,358.892763222174,549.685068220846,551.343706178981,632.704947607421,792.450942956807,5,3,6,4,3,0,vertical,vertical,vertical,horizontal,vertical,vertical
1b,8,100189,3,23,151,21,F,NA,constant,heterogeneous,5,absent,1.1318461894989,0,vertical,horizontal,1,0.776465834601451,green,4,NaN,576.971974679454,476.373546837184,NaN,NaN,907.767656743878,831.108485694346,1053.09926866854,568.923317431687,848.656293821019,349.685068220846,576.971974679454,476.373546837184,613.504806087112,773.909581815937,0,0,6,0,0,4,6,NaN,horizontal,horizontal,horizontal,vertical,horizontal,none
1b,8,100189,3,24,152,21,F,NA,constant,heterogeneous,3,present,0.687562942504883,1,horizontal,horizontal,1,0.64705755589372,green,3,2,551.535633479765,657.362518857686,874.554784704298,356.142287229426,973.909581815937,786.495193912888,874.554784704298,356.142287229426,551.535633479765,657.362518857686,0,0,0,0,0,0,0,3,4,NaN,NaN,NaN,vertical,horizontal,horizontal,none,none,none
1b,8,100189,3,25,153,21,F,NA,constant,heterogeneous,5,absent,1.43058395385742,1,horizontal,horizontal,1,0.65882194486715,green,1,NaN,911.784642431215,829.192481806288,NaN,NaN,911.784642431215,829.192481806288,1052.5183575291,564.510859255183,844.280285305067,348.874022981887,574.848363820974,480.284751489598,616.568350913644,777.137884467044,0,0,4,6,3,0,5,NaN,horizontal,horizontal,vertical,vertical,vertical,none
1b,8,100189,3,26,154,21,F,NA,constant,heterogeneous,5,absent,0.898299932479858,1,horizontal,horizontal,1,0.952931669202902,green,3,NaN,953.462830903772,396.34794493794,NaN,NaN,795.549636358493,854.96116226488,1041.10723677783,683.019879386575,953.462830903772,396.34794493794,653.738008730483,391.116228706307,556.142287229426,674.554784704298,0,0,0,5,4,6,5,NaN,vertical,horizontal,horizontal,horizontal,vertical,none
1b,8,100189,3,27,155,21,F,NA,constant,heterogeneous,6,absent,1.51632499694824,1,horizontal,horizontal,1,0.988224836123192,green,4,NaN,672.5,379.163522034968,NaN,NaN,927.5,820.836477965032,1055,600,927.5,379.163522034968,672.5,379.163522034968,545,600,672.5,820.836477965032,3,0,5,4,3,5,horizontal,vertical,vertical,horizontal,vertical,horizontal
1b,8,100189,3,28,156,21,F,NA,constant,heterogeneous,3,present,0.659394025802612,1,horizontal,horizontal,1,1.02351800304348,green,3,2,554.878267535729,670.287525733335,861.690083377915,352.574589799621,983.431649086356,777.137884467044,861.690083377915,352.574589799621,554.878267535729,670.287525733335,0,0,0,0,0,0,6,3,4,NaN,NaN,NaN,horizontal,horizontal,horizontal,none,none,none
1b,8,100189,3,29,157,21,F,NA,constant,heterogeneous,4,present,1.01202201843262,1,vertical,vertical,1,0.752937056654591,green,3,2,661.117046071168,386.139005173917,1013.86099482608,461.117046071168,938.882953928832,813.860994826083,1013.86099482608,461.117046071168,661.117046071168,386.139005173917,586.139005173917,738.882953928832,0,0,0,0,3,0,4,5,NaN,NaN,horizontal,horizontal,vertical,vertical,none,none
1b,8,100189,3,30,158,21,F,NA,constant,heterogeneous,5,absent,1.35180401802063,1,horizontal,horizontal,1,0.764701445628021,green,1,NaN,878.799333565612,842.519411655264,NaN,NaN,878.799333565612,842.519411655264,1055,600,878.799333565612,357.480588344736,593.700666434388,450.114760665419,593.700666434388,749.885239334581,0,0,4,3,6,5,0,NaN,horizontal,vertical,vertical,vertical,vertical,none
1b,8,100189,3,31,159,21,F,NA,constant,heterogeneous,3,absent,0.836400985717773,1,vertical,vertical,1,0.67058633384058,green,3,NaN,650.114760665419,393.700666434388,NaN,NaN,696.282156015671,832.954091698863,1053.60308331891,573.345241866748,650.114760665419,393.700666434388,0,0,0,0,0,0,6,3,4,NaN,NaN,NaN,horizontal,horizontal,vertical,none,none,none
1b,8,100189,3,32,160,21,F,NA,constant,heterogeneous,6,present,0.94672679901123,1,vertical,vertical,1,1.05881116996377,green,3,5,942.594190385041,388.595418998464,545.621167183745,582.212099195248,911.784642431215,829.192481806288,1054.37883281626,617.787900804752,942.594190385041,388.595418998464,688.215357568785,370.807518193712,545.621167183745,582.212099195248,657.405809614959,811.404581001536,0,3,4,0,3,5,vertical,horizontal,vertical,horizontal,horizontal,horizontal
1b,8,100189,3,33,161,21,F,NA,constant,heterogeneous,4,present,1.1072940826416,1,horizontal,horizontal,1,0.870580946388891,green,2,3,1020.83647796503,472.5,672.5,379.163522034968,927.5,820.836477965032,1020.83647796503,472.5,672.5,379.163522034968,579.163522034968,727.5,0,0,0,0,5,4,0,6,NaN,NaN,vertical,horizontal,vertical,vertical,none,none
1b,8,100189,3,34,162,21,F,NA,constant,heterogeneous,4,absent,0.752013921737671,1,horizontal,horizontal,1,0.917638502282611,green,2,NaN,1006.29933356561,749.885239334581,NaN,NaN,650.114760665419,806.299333565612,1006.29933356561,749.885239334581,949.885239334581,393.700666434388,593.700666434388,450.114760665419,0,0,0,0,3,4,6,0,NaN,NaN,horizontal,horizontal,vertical,vertical,none,none
1b,8,100189,3,35,163,21,F,NA,constant,heterogeneous,3,absent,0.728584051132202,1,vertical,vertical,1,0.858816557415461,green,1,NaN,716.980120613425,841.107236777826,NaN,NaN,716.980120613425,841.107236777826,1050.31493177915,551.343706178981,632.704947607421,407.549057043193,0,0,0,0,0,0,4,3,6,NaN,NaN,NaN,vertical,vertical,vertical,none,none,none
1b,8,100189,3,36,164,21,F,NA,constant,heterogeneous,3,present,0.65239691734314,1,vertical,vertical,1,1.04704678099034,green,3,1,567.045908301137,703.717843984329,1006.29933356561,749.885239334581,1006.29933356561,749.885239334581,826.654758133252,346.39691668109,567.045908301137,703.717843984329,0,0,0,0,0,0,0,3,4,NaN,NaN,NaN,horizontal,vertical,vertical,none,none,none
1b,8,100189,3,37,165,21,F,NA,constant,heterogeneous,5,absent,0.909711122512817,1,vertical,vertical,1,0.811759001521741,green,3,NaN,946.261991269517,391.116228706307,NaN,NaN,804.450363641507,854.96116226488,1043.85771277057,674.554784704298,946.261991269517,391.116228706307,646.537169096228,396.34794493794,558.892763222174,683.019879386575,0,0,3,5,4,0,5,NaN,horizontal,vertical,vertical,vertical,vertical,none
1b,8,100189,3,38,166,21,F,NA,constant,heterogeneous,5,absent,1.08908486366272,1,vertical,vertical,1,1.04704678099034,green,1,NaN,795.549636358493,854.96116226488,NaN,NaN,795.549636358493,854.96116226488,1041.10723677783,683.019879386575,953.462830903772,396.34794493794,653.738008730483,391.116228706307,556.142287229426,674.554784704298,0,0,4,3,0,3,6,NaN,vertical,vertical,vertical,horizontal,horizontal,none
1b,8,100189,3,39,167,21,F,NA,constant,heterogeneous,4,absent,0.977025032043457,1,vertical,vertical,1,0.905874113309181,green,3,NaN,970.628304621509,410.498069503264,NaN,NaN,629.371695378491,789.501930496736,989.501930496736,770.628304621509,970.628304621509,410.498069503264,610.498069503264,429.371695378491,0,0,0,0,0,5,4,6,NaN,NaN,horizontal,vertical,vertical,horizontal,none,none
1b,8,100189,3,40,168,21,F,NA,constant,heterogeneous,3,present,0.622355937957764,1,vertical,vertical,1,0.870580946388891,green,1,2,804.450363641507,854.96116226488,1018.57766167904,468.665290897936,804.450363641507,854.96116226488,1018.57766167904,468.665290897936,576.971974679454,476.373546837184,0,0,0,0,0,0,4,3,5,NaN,NaN,NaN,vertical,horizontal,horizontal,none,none,none
1b,8,100189,3,41,169,21,F,NA,constant,heterogeneous,4,present,0.725458145141602,1,vertical,vertical,1,0.7176438897343,green,1,2,721.200666434388,842.519411655264,1042.51941165526,678.799333565612,721.200666434388,842.519411655264,1042.51941165526,678.799333565612,878.799333565612,357.480588344736,557.480588344736,521.200666434388,0,0,0,0,4,0,6,0,NaN,NaN,vertical,vertical,horizontal,vertical,none,none
1b,8,100189,3,42,170,21,F,NA,constant,heterogeneous,3,absent,0.519841909408569,1,vertical,vertical,1,0.788230223574881,green,1,NaN,911.784642431215,829.192481806288,NaN,NaN,911.784642431215,829.192481806288,942.594190385041,388.595418998464,545.621167183745,582.212099195248,0,0,0,0,0,0,4,3,0,NaN,NaN,NaN,vertical,vertical,horizontal,none,none,none
1b,8,100189,3,43,171,21,F,NA,constant,heterogeneous,6,present,0.759756088256836,1,horizontal,horizontal,1,0.67058633384058,green,4,1,826.654758133252,346.39691668109,773.345241866748,853.60308331891,773.345241866748,853.60308331891,1006.29933356561,749.885239334581,1032.95409169886,496.282156015671,826.654758133252,346.39691668109,593.700666434388,450.114760665419,567.045908301137,703.717843984329,0,3,6,4,5,6,vertical,horizontal,vertical,horizontal,horizontal,vertical
1b,8,100189,3,44,172,21,F,NA,constant,heterogeneous,5,absent,0.639430046081543,1,vertical,vertical,1,0.811759001521741,green,4,NaN,795.549636358493,345.03883773512,NaN,NaN,653.738008730483,808.883771293693,953.462830903772,803.65205506206,1041.10723677783,516.980120613425,795.549636358493,345.03883773512,556.142287229426,525.445215295702,0,0,6,6,0,4,0,NaN,vertical,horizontal,vertical,vertical,horizontal,none
1b,8,100189,3,45,173,21,F,NA,constant,heterogeneous,5,present,1.16803288459778,1,horizontal,horizontal,1,0.776465834601451,green,4,3,657.405809614959,388.595418998464,956.993676208043,399.057257830286,791.100628340862,854.844660889869,1039.62161830041,687.215136548046,956.993676208043,399.057257830286,657.405809614959,388.595418998464,554.878267535729,670.287525733335,0,0,0,6,5,4,3,NaN,vertical,horizontal,vertical,horizontal,vertical,none
1b,8,100189,3,46,174,21,F,NA,constant,heterogeneous,4,absent,0.708700180053711,1,horizontal,horizontal,1,1.05881116996377,green,1,NaN,923.626453162816,823.028025320546,NaN,NaN,923.626453162816,823.028025320546,1023.02802532055,476.373546837184,676.373546837184,376.971974679454,576.971974679454,723.626453162816,0,0,0,0,4,5,3,3,NaN,NaN,horizontal,vertical,horizontal,horizontal,none,none
1b,8,100189,3,47,175,21,F,NA,constant,heterogeneous,3,present,0.618752956390381,1,vertical,vertical,1,0.988224836123192,green,1,3,887.215136548046,839.621618300407,548.874022981887,555.719714694933,887.215136548046,839.621618300407,963.910840470068,404.658667004661,548.874022981887,555.719714694933,0,0,0,0,0,0,4,5,5,NaN,NaN,NaN,vertical,vertical,vertical,none,none,none
1b,8,100189,3,48,176,21,F,NA,constant,heterogeneous,6,absent,0.785476922988892,1,vertical,vertical,1,0.905874113309181,green,4,NaN,676.373546837184,376.971974679454,NaN,NaN,923.626453162816,823.028025320546,1054.96116226488,604.450363641507,931.334709102064,381.422338320961,676.373546837184,376.971974679454,545.03883773512,595.549636358493,668.665290897936,818.577661679039,5,0,0,4,3,3,horizontal,horizontal,horizontal,vertical,vertical,vertical
1b,8,100189,3,49,177,21,F,NA,constant,heterogeneous,3,absent,0.885302066802979,1,horizontal,horizontal,1,0.6,green,2,NaN,826.654758133252,346.39691668109,NaN,NaN,1006.29933356561,749.885239334581,826.654758133252,346.39691668109,567.045908301137,703.717843984329,0,0,0,0,0,0,6,4,0,NaN,NaN,NaN,horizontal,horizontal,horizontal,none,none,none
1b,8,100189,3,50,178,21,F,NA,constant,heterogeneous,4,absent,1.0231831073761,0,vertical,horizontal,1,0.6,green,1,NaN,622.862115532956,783.431649086356,NaN,NaN,622.862115532956,783.431649086356,983.431649086356,777.137884467044,977.137884467044,416.568350913644,616.568350913644,422.862115532956,0,0,0,0,4,6,5,6,NaN,NaN,vertical,horizontal,vertical,vertical,none,none
1b,8,100189,3,51,179,21,F,NA,constant,heterogeneous,4,absent,1.49325108528137,1,horizontal,horizontal,1,0.67058633384058,green,2,NaN,1043.85771277057,525.445215295702,NaN,NaN,874.554784704298,843.857712770574,1043.85771277057,525.445215295702,725.445215295702,356.142287229426,556.142287229426,674.554784704298,0,0,0,0,5,4,6,6,NaN,NaN,vertical,horizontal,vertical,vertical,none,none
1b,8,100189,3,52,180,21,F,NA,constant,heterogeneous,4,present,1.30011987686157,1,horizontal,horizontal,1,1.02351800304348,green,3,4,844.280285305067,348.874022981887,548.874022981887,555.719714694933,755.719714694933,851.125977018113,1051.12597701811,644.280285305067,844.280285305067,348.874022981887,548.874022981887,555.719714694933,0,0,0,0,3,3,4,0,NaN,NaN,horizontal,horizontal,horizontal,horizontal,none,none
1b,8,100189,3,53,181,21,F,NA,constant,heterogeneous,5,present,0.847387790679932,1,vertical,vertical,1,0.858816557415461,green,4,2,786.654331158049,345.349468637584,960.476699717708,798.172220171528,661.117046071168,813.860994826083,960.476699717708,798.172220171528,1038.06300875679,508.616172865948,786.654331158049,345.349468637584,553.688914296288,534.001143498857,0,0,6,3,3,4,0,NaN,vertical,vertical,horizontal,vertical,horizontal,none
1b,8,100189,3,54,182,21,F,NA,constant,heterogeneous,3,absent,0.749077081680298,1,horizontal,horizontal,1,0.823523390495171,green,1,NaN,593.700666434388,749.885239334581,NaN,NaN,593.700666434388,749.885239334581,1032.95409169886,703.717843984329,773.345241866748,346.39691668109,0,0,0,0,0,0,4,6,0,NaN,NaN,NaN,horizontal,vertical,vertical,none,none,none
1b,8,100189,3,55,183,21,F,NA,constant,heterogeneous,6,absent,1.56480002403259,1,horizontal,horizontal,1,0.847052168442031,green,4,NaN,734.001143498857,353.688914296288,NaN,NaN,865.998856501143,846.311085703712,1046.31108570371,665.998856501143,980.31222920257,419.68777079743,734.001143498857,353.688914296288,553.688914296288,534.001143498857,619.68777079743,780.31222920257,3,6,0,4,0,5,vertical,vertical,horizontal,horizontal,vertical,horizontal
1b,8,100189,3,56,184,21,F,NA,constant,heterogeneous,4,absent,0.781502962112427,1,vertical,vertical,1,1.04704678099034,green,1,NaN,953.462830903772,803.65205506206,NaN,NaN,953.462830903772,803.65205506206,1003.65205506206,446.537169096228,646.537169096228,396.34794493794,596.34794493794,753.462830903772,0,0,0,0,4,0,6,3,NaN,NaN,vertical,vertical,horizontal,horizontal,none,none
1b,8,100189,3,57,185,21,F,NA,constant,heterogeneous,6,present,0.811309814453125,1,vertical,vertical,1,0.894109724335751,green,6,2,639.523300282292,798.172220171528,1051.86052685176,639.890788585259,891.383827134052,838.063008756786,1051.86052685176,639.890788585259,960.476699717708,401.827779828472,708.616172865948,361.936991243214,548.13947314824,560.109211414741,639.523300282292,798.172220171528,5,0,3,6,6,4,horizontal,vertical,horizontal,vertical,vertical,vertical
1b,8,100189,3,58,186,21,F,NA,constant,heterogeneous,3,absent,0.720938920974731,1,horizontal,horizontal,1,0.65882194486715,green,1,NaN,716.980120613425,841.107236777826,NaN,NaN,716.980120613425,841.107236777826,1050.31493177915,551.343706178981,632.704947607421,407.549057043193,0,0,0,0,0,0,4,3,0,NaN,NaN,NaN,horizontal,horizontal,vertical,none,none,none
1b,8,100189,3,59,187,21,F,NA,constant,heterogeneous,3,absent,0.726831912994385,0,vertical,horizontal,1,0.752937056654591,green,1,NaN,1003.65205506206,753.462830903772,NaN,NaN,1003.65205506206,753.462830903772,831.076682568313,346.900731331463,565.271262369628,699.636437764765,0,0,0,0,0,0,4,6,3,NaN,NaN,NaN,vertical,vertical,horizontal,none,none,none
1b,8,100189,3,60,188,21,F,NA,constant,heterogeneous,3,present,1.05894088745117,1,horizontal,horizontal,1,0.68235072281401,green,3,2,760.109211414741,348.13947314824,1038.06300875679,691.383827134052,601.827779828472,760.476699717708,1038.06300875679,691.383827134052,760.109211414741,348.13947314824,0,0,0,0,0,0,5,6,4,NaN,NaN,NaN,vertical,vertical,horizontal,none,none,none
1b,8,100189,3,61,189,21,F,NA,constant,heterogeneous,5,absent,1.26699995994568,1,horizontal,horizontal,1,0.929402891256041,green,4,NaN,599.057257830286,443.006323791957,NaN,NaN,870.287525733335,845.121732464271,1054.84466088987,608.899371659138,887.215136548046,360.378381699593,599.057257830286,443.006323791957,588.595418998464,742.594190385041,0,0,6,3,5,4,5,NaN,horizontal,vertical,horizontal,horizontal,horizontal,none
1b,8,100189,3,62,190,21,F,NA,constant,heterogeneous,3,present,1.31791210174561,1,vertical,vertical,1,0.870580946388891,green,3,1,795.549636358493,345.03883773512,581.422338320961,731.334709102064,581.422338320961,731.334709102064,1023.02802532055,723.626453162816,795.549636358493,345.03883773512,0,0,0,0,0,0,6,3,4,NaN,NaN,NaN,horizontal,horizontal,vertical,none,none,none
1b,8,100189,3,63,191,21,F,NA,constant,heterogeneous,4,present,0.767234086990356,1,horizontal,horizontal,1,0.741172667681161,green,2,3,1020.83647796503,727.5,927.5,379.163522034968,672.5,820.836477965032,1020.83647796503,727.5,927.5,379.163522034968,579.163522034968,472.5,0,0,0,0,5,4,0,6,NaN,NaN,vertical,horizontal,vertical,horizontal,none,none
1b,8,100189,3,64,192,21,F,NA,constant,heterogeneous,5,present,1.0792760848999,1,vertical,vertical,1,1.02351800304348,green,1,2,826.654758133252,853.60308331891,1049.42763818712,653.017481158529,826.654758133252,853.60308331891,1049.42763818712,653.017481158529,927.5,379.163522034968,629.371695378491,410.498069503264,567.045908301137,703.717843984329,0,0,4,5,0,3,5,NaN,vertical,horizontal,vertical,vertical,vertical,none
1b,8,100189,4,1,193,21,F,NA,constant,heterogeneous,6,absent,0.76438307762146,1,horizontal,horizontal,1,0.729408278707731,green,4,NaN,891.383827134052,361.936991243214,NaN,NaN,708.616172865948,838.063008756786,960.476699717708,798.172220171528,1051.86052685176,560.109211414741,891.383827134052,361.936991243214,639.523300282292,401.827779828472,548.13947314824,639.890788585259,5,6,5,4,0,3,vertical,horizontal,horizontal,horizontal,vertical,vertical
1b,8,100189,4,2,194,21,F,NA,constant,heterogeneous,3,absent,0.625401973724365,1,vertical,vertical,1,0.65882194486715,green,3,NaN,554.878267535729,529.712474266665,NaN,NaN,861.690083377915,847.425410200379,983.431649086356,422.862115532956,554.878267535729,529.712474266665,0,0,0,0,0,0,0,3,4,NaN,NaN,NaN,vertical,vertical,vertical,none,none,none
1b,8,100189,4,3,195,21,F,NA,constant,heterogeneous,3,present,0.7729811668396,1,horizontal,horizontal,1,0.752937056654591,green,1,3,773.345241866748,853.60308331891,593.700666434388,450.114760665419,773.345241866748,853.60308331891,1032.95409169886,496.282156015671,593.700666434388,450.114760665419,0,0,0,0,0,0,4,0,3,NaN,NaN,NaN,horizontal,vertical,horizontal,none,none,none
1b,8,100189,4,4,196,21,F,NA,constant,heterogeneous,4,absent,0.590442180633545,1,vertical,vertical,1,0.894109724335751,green,4,NaN,546.39691668109,626.654758133252,NaN,NaN,826.654758133252,853.60308331891,1053.60308331891,573.345241866748,773.345241866748,346.39691668109,546.39691668109,626.654758133252,0,0,0,0,5,0,0,4,NaN,NaN,horizontal,vertical,horizontal,vertical,none,none
1b,8,100189,4,5,197,21,F,NA,constant,heterogeneous,5,absent,0.938248157501221,1,horizontal,horizontal,1,0.988224836123192,green,3,NaN,831.076682568313,346.900731331463,NaN,NaN,923.626453162816,823.028025320546,1050.31493177915,551.343706178981,831.076682568313,346.900731331463,568.891514305654,492.232343256122,626.090418184063,786.495193912888,0,0,3,0,4,6,5,NaN,horizontal,horizontal,horizontal,horizontal,horizontal,none
1b,8,100189,4,6,198,21,F,NA,constant,heterogeneous,3,present,0.755412817001343,1,horizontal,horizontal,1,0.905874113309181,green,2,3,865.998856501143,353.688914296288,553.688914296288,665.998856501143,980.31222920257,780.31222920257,865.998856501143,353.688914296288,553.688914296288,665.998856501143,0,0,0,0,0,0,3,4,5,NaN,NaN,NaN,horizontal,horizontal,horizontal,none,none,none
1b,8,100189,4,7,199,21,F,NA,constant,heterogeneous,4,absent,0.674549102783203,1,horizontal,horizontal,1,1.01175361407005,green,2,NaN,1013.86099482608,461.117046071168,NaN,NaN,938.882953928832,813.860994826083,1013.86099482608,461.117046071168,661.117046071168,386.139005173917,586.139005173917,738.882953928832,0,0,0,0,6,4,3,6,NaN,NaN,horizontal,horizontal,vertical,horizontal,none,none
1b,8,100189,4,8,200,21,F,NA,constant,heterogeneous,5,present,0.684708118438721,1,vertical,vertical,1,0.811759001521741,green,3,4,973.909581815937,413.504806087112,676.373546837184,376.971974679454,768.923317431687,853.099268668537,1031.10848569435,707.767656743878,973.909581815937,413.504806087112,676.373546837184,376.971974679454,549.685068220846,648.656293821019,0,0,5,5,4,6,0,NaN,vertical,vertical,vertical,horizontal,vertical,none
1b,8,100189,4,9,201,21,F,NA,constant,heterogeneous,6,present,0.787431955337524,1,horizontal,horizontal,1,0.835287779468601,green,3,4,986.495193912888,426.090418184063,742.637481142314,351.535633479765,857.362518857686,848.464366520235,1043.85771277057,674.554784704298,986.495193912888,426.090418184063,742.637481142314,351.535633479765,556.142287229426,525.445215295702,613.504806087112,773.909581815937,6,5,4,5,0,0,horizontal,horizontal,horizontal,vertical,horizontal,horizontal
1b,8,100189,4,10,202,21,F,NA,constant,heterogeneous,6,present,1.9262809753418,1,horizontal,horizontal,1,0.941167280229471,green,1,4,844.280285305067,851.125977018113,755.719714694933,348.874022981887,844.280285305067,851.125977018113,1039.62161830041,687.215136548046,995.341332995339,436.089159529932,755.719714694933,348.874022981887,560.378381699593,512.784863451954,604.658667004661,763.910840470068,4,3,6,3,0,5,horizontal,horizontal,horizontal,horizontal,vertical,horizontal
1b,8,100189,4,11,203,21,F,NA,constant,heterogeneous,4,absent,0.675144195556641,1,horizontal,horizontal,1,0.905874113309181,green,4,NaN,586.139005173917,461.117046071168,NaN,NaN,661.117046071168,813.860994826083,1013.86099482608,738.882953928832,938.882953928832,386.139005173917,586.139005173917,461.117046071168,0,0,0,0,5,5,6,4,NaN,NaN,horizontal,horizontal,horizontal,horizontal,none,none
1b,8,100189,4,12,204,21,F,NA,constant,heterogeneous,5,absent,0.709815979003906,1,horizontal,horizontal,1,1.05881116996377,green,4,NaN,557.480588344736,521.200666434388,NaN,NaN,949.885239334581,806.299333565612,1042.51941165526,521.200666434388,800,345,557.480588344736,521.200666434388,650.114760665419,806.299333565612,0,0,3,6,3,4,5,NaN,vertical,vertical,horizontal,horizontal,vertical,none
1b,8,100189,4,13,205,21,F,NA,constant,heterogeneous,5,present,1.19601511955261,1,vertical,vertical,1,0.988224836123192,green,2,5,1046.31108570371,665.998856501143,561.936991243214,691.383827134052,813.345668841951,854.650531362416,1046.31108570371,665.998856501143,938.882953928832,386.139005173917,639.523300282292,401.827779828472,561.936991243214,691.383827134052,0,0,5,4,3,6,3,NaN,horizontal,vertical,vertical,horizontal,vertical,none
1b,8,100189,4,14,206,21,F,NA,constant,heterogeneous,5,present,0.810184955596924,1,vertical,vertical,1,0.70587950076087,green,1,5,861.690083377915,847.425410200379,583.747735480111,735.129412379467,861.690083377915,847.425410200379,1054.37883281626,617.787900804752,895.524681321058,363.568117085469,604.658667004661,436.089159529932,583.747735480111,735.129412379467,0,0,4,3,5,6,5,NaN,vertical,vertical,vertical,vertical,horizontal,none
1b,8,100189,4,15,207,21,F,NA,constant,heterogeneous,4,present,0.877081871032715,1,horizontal,horizontal,1,0.929402891256041,green,3,4,946.261991269517,391.116228706307,591.116228706307,453.738008730483,653.738008730483,808.883771293693,1008.88377129369,746.261991269517,946.261991269517,391.116228706307,591.116228706307,453.738008730483,0,0,0,0,5,5,4,6,NaN,NaN,vertical,vertical,horizontal,horizontal,none,none
1b,8,100189,4,16,208,21,F,NA,constant,heterogeneous,3,absent,0.927449941635132,1,vertical,vertical,1,1.03528239201691,green,3,NaN,650.114760665419,393.700666434388,NaN,NaN,696.282156015671,832.954091698863,1053.60308331891,573.345241866748,650.114760665419,393.700666434388,0,0,0,0,0,0,3,6,4,NaN,NaN,NaN,horizontal,vertical,vertical,none,none,none
1b,8,100189,4,17,209,21,F,NA,constant,heterogeneous,5,absent,0.693167924880981,1,vertical,vertical,1,0.952931669202902,green,3,NaN,998.172220171528,439.523300282291,NaN,NaN,734.001143498857,846.311085703712,1013.86099482608,738.882953928832,998.172220171528,439.523300282291,708.616172865948,361.936991243214,545.349468637584,613.345668841951,0,0,0,0,4,6,3,NaN,vertical,vertical,vertical,horizontal,vertical,none
1b,8,100189,4,18,210,21,F,NA,constant,heterogeneous,3,absent,0.665569067001343,1,vertical,vertical,1,0.905874113309181,green,3,NaN,613.504806087112,426.090418184063,NaN,NaN,742.637481142314,848.464366520235,1043.85771277057,525.445215295702,613.504806087112,426.090418184063,0,0,0,0,0,0,3,5,4,NaN,NaN,NaN,horizontal,vertical,vertical,none,none,none
1b,8,100189,4,19,211,21,F,NA,constant,heterogeneous,3,present,0.510162830352783,1,vertical,vertical,1,0.764701445628021,green,3,1,581.422338320961,468.665290897936,795.549636358493,854.96116226488,795.549636358493,854.96116226488,1023.02802532055,476.373546837184,581.422338320961,468.665290897936,0,0,0,0,0,0,6,5,4,NaN,NaN,NaN,horizontal,vertical,vertical,none,none,none
1b,8,100189,4,20,212,21,F,NA,constant,heterogeneous,3,present,0.617282152175903,1,vertical,vertical,1,0.847052168442031,green,1,3,822.224714400653,854.029648013395,568.891514305654,492.232343256122,822.224714400653,854.029648013395,1008.88377129369,453.738008730483,568.891514305654,492.232343256122,0,0,0,0,0,0,4,6,6,NaN,NaN,NaN,vertical,horizontal,vertical,none,none,none
1b,8,100189,4,21,213,21,F,NA,constant,heterogeneous,6,absent,0.876827955245972,1,horizontal,horizontal,1,0.941167280229471,green,5,NaN,616.568350913644,422.862115532956,NaN,NaN,738.309916622085,847.425410200379,983.431649086356,777.137884467044,1045.12173246427,529.712474266665,861.690083377915,352.574589799621,616.568350913644,422.862115532956,554.878267535729,670.287525733335,3,6,3,5,4,6,vertical,vertical,horizontal,vertical,horizontal,vertical
1b,8,100189,4,22,214,21,F,NA,constant,heterogeneous,5,present,0.793743133544922,1,horizontal,horizontal,1,0.752937056654591,green,1,5,696.282156015671,832.954091698863,546.39691668109,573.345241866748,696.282156015671,832.954091698863,989.501930496736,770.628304621509,1020.83647796503,472.5,746.982518841471,350.57236181288,546.39691668109,573.345241866748,0,0,4,5,6,5,0,NaN,horizontal,vertical,vertical,vertical,horizontal,none
1b,8,100189,4,23,215,21,F,NA,constant,heterogeneous,3,absent,0.622452974319458,1,horizontal,horizontal,1,0.858816557415461,green,2,NaN,848.656293821019,349.685068220846,NaN,NaN,992.450942956807,767.295052392579,848.656293821019,349.685068220846,558.892763222174,683.019879386575,0,0,0,0,0,0,0,4,3,NaN,NaN,NaN,horizontal,horizontal,vertical,none,none,none
1b,8,100189,4,24,216,21,F,NA,constant,heterogeneous,4,absent,1.01493787765503,1,vertical,vertical,1,0.764701445628021,green,3,NaN,942.594190385041,388.595418998464,NaN,NaN,657.405809614959,811.404581001536,1011.40458100154,742.594190385041,942.594190385041,388.595418998464,588.595418998464,457.40580961496,0,0,0,0,0,6,4,3,NaN,NaN,vertical,vertical,vertical,horizontal,none,none
1b,8,100189,4,25,217,21,F,NA,constant,heterogeneous,4,present,0.75980281829834,1,horizontal,horizontal,1,1.02351800304348,green,1,3,684.232422566416,827.206663668034,915.767577433584,372.793336331966,684.232422566416,827.206663668034,1027.20666366803,715.767577433584,915.767577433584,372.793336331966,572.793336331966,484.232422566416,0,0,0,0,4,5,0,6,NaN,NaN,horizontal,horizontal,horizontal,horizontal,none,none
1b,8,100189,4,26,218,21,F,NA,constant,heterogeneous,6,absent,NaN,0,horizontal,none,0,1.02351800304348,green,2,NaN,1042.51941165526,678.799333565612,NaN,NaN,853.017481158529,849.42763818712,1042.51941165526,678.799333565612,989.501930496736,429.371695378491,746.982518841471,350.57236181288,557.480588344736,521.200666434388,610.498069503264,770.628304621509,5,4,5,0,6,0,vertical,horizontal,vertical,horizontal,vertical,vertical
1b,8,100189,4,27,219,21,F,NA,constant,heterogeneous,6,present,0.788978099822998,1,horizontal,horizontal,1,0.858816557415461,green,2,4,995.341332995339,763.910840470068,844.280285305067,348.874022981887,755.719714694933,851.125977018113,995.341332995339,763.910840470068,1039.62161830041,512.784863451954,844.280285305067,348.874022981887,604.658667004661,436.089159529932,560.378381699593,687.215136548046,5,4,0,3,5,3,horizontal,horizontal,horizontal,vertical,vertical,horizontal
1b,8,100189,4,28,220,21,F,NA,constant,heterogeneous,5,absent,0.669986963272095,1,vertical,vertical,1,1.04704678099034,green,3,NaN,1011.40458100154,457.40580961496,NaN,NaN,712.784863451954,839.621618300407,1000.94274216971,756.993676208043,1011.40458100154,457.40580961496,729.712474266665,354.878267535729,545.155339110131,591.100628340862,0,0,5,0,4,5,6,NaN,horizontal,horizontal,vertical,horizontal,horizontal,none
1b,8,100189,4,29,221,21,F,NA,constant,heterogeneous,5,present,0.824048042297363,0,horizontal,vertical,1,0.811759001521741,green,1,4,907.767656743878,831.108485694346,576.971974679454,476.373546837184,907.767656743878,831.108485694346,1053.09926866854,568.923317431687,848.656293821019,349.685068220846,576.971974679454,476.373546837184,613.504806087112,773.909581815937,0,0,4,5,5,6,3,NaN,horizontal,horizontal,vertical,horizontal,vertical,none
1b,8,100189,4,30,222,21,F,NA,constant,heterogeneous,6,absent,1.13838696479797,1,vertical,vertical,1,0.882345335362321,green,3,NaN,1043.85771277057,525.445215295702,NaN,NaN,742.637481142314,848.464366520235,986.495193912888,773.909581815937,1043.85771277057,525.445215295702,857.362518857686,351.535633479765,613.504806087112,426.090418184063,556.142287229426,674.554784704298,3,0,4,6,5,5,vertical,vertical,vertical,vertical,vertical,horizontal
1b,8,100189,4,31,223,21,F,NA,constant,heterogeneous,4,present,0.716325998306274,1,horizontal,horizontal,1,0.752937056654591,green,1,3,782.212099195248,854.378832816255,817.787900804752,345.621167183745,782.212099195248,854.378832816255,1054.37883281626,617.787900804752,817.787900804752,345.621167183745,545.621167183745,582.212099195248,0,0,0,0,4,3,5,6,NaN,NaN,horizontal,vertical,horizontal,horizontal,none,none
1b,8,100189,4,32,224,21,F,NA,constant,heterogeneous,3,present,0.635866165161133,1,horizontal,horizontal,1,1.04704678099034,green,3,1,551.535633479765,657.362518857686,973.909581815937,786.495193912888,973.909581815937,786.495193912888,874.554784704298,356.142287229426,551.535633479765,657.362518857686,0,0,0,0,0,0,5,3,4,NaN,NaN,NaN,vertical,vertical,horizontal,none,none,none
1b,8,100189,4,33,225,21,F,NA,constant,heterogeneous,6,absent,1.70807385444641,1,vertical,vertical,1,0.952931669202902,green,2,NaN,983.431649086356,777.137884467044,NaN,NaN,738.309916622085,847.425410200379,983.431649086356,777.137884467044,1045.12173246427,529.712474266665,861.690083377915,352.574589799621,616.568350913644,422.862115532956,554.878267535729,670.287525733335,6,4,3,0,5,0,vertical,vertical,vertical,vertical,horizontal,horizontal
1b,8,100189,4,34,226,21,F,NA,constant,heterogeneous,5,present,0.628942966461182,1,vertical,vertical,1,0.929402891256041,green,1,2,684.232422566416,827.206663668034,980.31222920257,780.31222920257,684.232422566416,827.206663668034,980.31222920257,780.31222920257,1027.20666366803,484.232422566416,760.109211414741,348.13947314824,548.13947314824,560.109211414741,0,0,4,6,5,3,0,NaN,vertical,horizontal,vertical,horizontal,vertical,none
1b,8,100189,4,35,227,21,F,NA,constant,heterogeneous,4,absent,1.02895402908325,1,horizontal,horizontal,1,0.964696058176332,green,1,NaN,967.295052392579,792.450942956807,NaN,NaN,967.295052392579,792.450942956807,992.450942956807,432.704947607421,632.704947607421,407.549057043193,607.549057043193,767.295052392579,0,0,0,0,4,5,0,6,NaN,NaN,horizontal,horizontal,vertical,horizontal,none,none
1b,8,100189,4,36,228,21,F,NA,constant,heterogeneous,3,present,0.727066993713379,1,vertical,vertical,1,1.05881116996377,green,2,1,986.495193912888,426.090418184063,857.362518857686,848.464366520235,857.362518857686,848.464366520235,986.495193912888,426.090418184063,556.142287229426,525.445215295702,0,0,0,0,0,0,3,4,6,NaN,NaN,NaN,horizontal,vertical,horizontal,none,none,none
1b,8,100189,4,37,229,21,F,NA,constant,heterogeneous,6,present,0.705010175704956,1,vertical,vertical,1,0.764701445628021,green,1,6,738.309916622085,847.425410200379,554.878267535729,670.287525733335,738.309916622085,847.425410200379,983.431649086356,777.137884467044,1045.12173246427,529.712474266665,861.690083377915,352.574589799621,616.568350913644,422.862115532956,554.878267535729,670.287525733335,4,5,6,0,3,0,vertical,horizontal,horizontal,vertical,vertical,horizontal
1b,8,100189,4,38,230,21,F,NA,constant,heterogeneous,4,absent,0.628677845001221,1,horizontal,horizontal,1,1.0705755589372,green,4,NaN,588.595418998464,742.594190385041,NaN,NaN,942.594190385041,811.404581001536,1011.40458100154,457.40580961496,657.405809614959,388.595418998464,588.595418998464,742.594190385041,0,0,0,0,3,5,0,4,NaN,NaN,horizontal,horizontal,vertical,horizontal,none,none
1b,8,100189,4,39,231,21,F,NA,constant,heterogeneous,5,absent,0.671763896942139,1,vertical,vertical,1,0.729408278707731,green,1,NaN,729.712474266665,845.121732464271,NaN,NaN,729.712474266665,845.121732464271,1011.40458100154,742.594190385041,1000.94274216971,443.006323791957,712.784863451954,360.378381699593,545.155339110131,608.899371659138,0,0,4,5,3,3,0,NaN,vertical,horizontal,vertical,horizontal,horizontal,none
1b,8,100189,4,40,232,21,F,NA,constant,heterogeneous,6,present,1.1114239692688,0,vertical,horizontal,1,0.894109724335751,green,4,6,848.656293821019,349.685068220846,558.892763222174,683.019879386575,751.343706178981,850.314931779154,992.450942956807,767.295052392579,1041.10723677783,516.980120613425,848.656293821019,349.685068220846,607.549057043193,432.704947607421,558.892763222174,683.019879386575,5,3,0,4,0,6,vertical,vertical,horizontal,vertical,vertical,horizontal
1b,8,100189,4,41,233,21,F,NA,constant,heterogeneous,4,present,0.887748003005981,1,vertical,vertical,1,0.882345335362321,green,4,3,581.422338320961,468.665290897936,931.334709102064,381.422338320961,668.665290897936,818.577661679039,1018.57766167904,731.334709102064,931.334709102064,381.422338320961,581.422338320961,468.665290897936,0,0,0,0,5,5,6,4,NaN,NaN,vertical,vertical,vertical,vertical,none,none
1b,8,100189,4,42,234,21,F,NA,constant,heterogeneous,5,present,0.980799198150635,1,horizontal,horizontal,1,0.964696058176332,green,5,3,550.57236181288,546.982518841471,1032.95409169886,496.282156015671,672.5,820.836477965032,970.628304621509,789.501930496736,1032.95409169886,496.282156015671,773.345241866748,346.39691668109,550.57236181288,546.982518841471,0,0,3,0,3,0,4,NaN,horizontal,horizontal,vertical,horizontal,horizontal,none
1b,8,100189,4,43,235,21,F,NA,constant,heterogeneous,5,absent,1.34823083877563,1,horizontal,horizontal,1,0.788230223574881,green,4,NaN,664.870587620533,383.747735480111,NaN,NaN,782.212099195248,854.378832816255,1036.43188291453,695.524681321058,963.910840470068,404.658667004661,664.870587620533,383.747735480111,552.574589799621,661.690083377915,0,0,3,0,3,4,5,NaN,horizontal,vertical,horizontal,horizontal,horizontal,none
1b,8,100189,4,44,236,21,F,NA,constant,heterogeneous,4,absent,0.708456993103027,1,vertical,vertical,1,0.64705755589372,green,1,NaN,629.371695378491,789.501930496736,NaN,NaN,629.371695378491,789.501930496736,989.501930496736,770.628304621509,970.628304621509,410.498069503264,610.498069503264,429.371695378491,0,0,0,0,4,0,5,0,NaN,NaN,vertical,vertical,horizontal,horizontal,none,none
1b,8,100189,4,45,237,21,F,NA,constant,heterogeneous,4,present,0.753650188446045,1,horizontal,horizontal,1,0.741172667681161,green,4,1,548.13947314824,639.890788585259,839.890788585259,851.86052685176,839.890788585259,851.86052685176,1051.86052685176,560.109211414741,760.109211414741,348.13947314824,548.13947314824,639.890788585259,0,0,0,0,3,0,5,4,NaN,NaN,horizontal,vertical,horizontal,horizontal,none,none
1b,8,100189,4,46,238,21,F,NA,constant,heterogeneous,3,present,0.735811948776245,1,horizontal,horizontal,1,0.741172667681161,green,3,2,622.862115532956,416.568350913644,1047.42541020038,538.309916622085,729.712474266665,845.121732464271,1047.42541020038,538.309916622085,622.862115532956,416.568350913644,0,0,0,0,0,0,5,0,4,NaN,NaN,NaN,horizontal,horizontal,horizontal,none,none,none
1b,8,100189,4,47,239,21,F,NA,constant,heterogeneous,6,present,1.06952905654907,1,vertical,vertical,1,0.941167280229471,green,5,2,626.090418184063,413.504806087112,973.909581815937,786.495193912888,725.445215295702,843.857712770574,973.909581815937,786.495193912888,1048.46436652023,542.637481142314,874.554784704298,356.142287229426,626.090418184063,413.504806087112,551.535633479765,657.362518857686,0,6,6,3,4,3,vertical,vertical,vertical,vertical,vertical,horizontal
1b,8,100189,4,48,240,21,F,NA,constant,heterogeneous,5,absent,0.597548961639404,1,vertical,vertical,1,0.7176438897343,green,4,NaN,586.139005173917,461.117046071168,NaN,NaN,891.383827134052,838.063008756786,1054.65053136242,586.654331158049,865.998856501143,353.688914296288,586.139005173917,461.117046071168,601.827779828472,760.476699717708,0,0,6,3,3,4,6,NaN,vertical,horizontal,horizontal,vertical,horizontal,none
1b,8,100189,4,49,241,21,F,NA,constant,heterogeneous,6,absent,0.742477893829346,1,vertical,vertical,1,0.64705755589372,green,2,NaN,1042.51941165526,678.799333565612,NaN,NaN,853.017481158529,849.42763818712,1042.51941165526,678.799333565612,989.501930496736,429.371695378491,746.982518841471,350.57236181288,557.480588344736,521.200666434388,610.498069503264,770.628304621509,3,4,0,5,3,6,horizontal,vertical,horizontal,vertical,horizontal,horizontal
1b,8,100189,4,50,242,21,F,NA,constant,heterogeneous,4,present,0.627719879150391,1,vertical,vertical,1,0.70587950076087,green,4,1,552.574589799621,661.690083377915,861.690083377915,847.425410200379,861.690083377915,847.425410200379,1047.42541020038,538.309916622085,738.309916622085,352.574589799621,552.574589799621,661.690083377915,0,0,0,0,0,6,3,4,NaN,NaN,vertical,vertical,horizontal,vertical,none,none
