experiment,subject,uniqueID,block,trial,trial_cumulative,age,gender,color_cond_blocking,color_history,shape_type,set_size,distractor,rt,acc,target_orient,response_key,response_made,iti,target_color,target_item,distractor_item,target_X,target_Y,distractor_X,distractor_Y,item1_X,item1_Y,item2_X,item2_Y,item3_X,item3_Y,item4_X,item4_Y,item5_X,item5_Y,item6_X,item6_Y,item1_shape,item2_shape,item3_shape,item4_shape,item5_shape,item6_shape,item1_line,item2_line,item3_line,item4_line,item5_line,item6_line
1b,9,100194,1,1,1,19,M,NA,constant,heterogeneous,6,absent,1.54979610443115,1,horizontal,horizontal,1,0.729409612235376,red,1,NaN,899.636437764765,834.728737630372,NaN,NaN,899.636437764765,834.728737630372,1053.09926866854,631.076682568313,953.462830903772,396.34794493794,700.363562235235,365.271262369628,546.900731331463,568.923317431687,646.537169096228,803.65205506206,4,5,6,0,3,6,horizontal,vertical,horizontal,horizontal,vertical,horizontal
1b,9,100194,1,2,2,19,M,NA,constant,heterogeneous,3,present,0.759974956512451,1,vertical,vertical,1,0.952935306096481,red,1,2,613.504806087112,773.909581815937,1043.85771277057,674.554784704298,613.504806087112,773.909581815937,1043.85771277057,674.554784704298,742.637481142314,351.535633479765,0,0,0,0,0,0,4,0,0,NaN,NaN,NaN,vertical,vertical,horizontal,none,none,none
1b,9,100194,1,3,3,19,M,NA,constant,heterogeneous,4,present,0.761753082275391,0,vertical,horizontal,1,0.929406285690049,red,1,3,963.910840470068,795.341332995339,636.089159529932,404.658667004661,963.910840470068,795.341332995339,995.341332995339,436.089159529932,636.089159529932,404.658667004661,604.658667004661,763.910840470068,0,0,0,0,4,5,6,6,NaN,NaN,vertical,horizontal,vertical,vertical,none,none
1b,9,100194,1,4,4,19,M,NA,constant,heterogeneous,4,present,0.993813991546631,1,horizontal,horizontal,1,1.03528687751899,red,4,3,570.807518193712,711.784642431215,688.215357568785,370.807518193712,911.784642431215,829.192481806288,1029.19248180629,488.215357568785,688.215357568785,370.807518193712,570.807518193712,711.784642431215,0,0,0,0,3,6,5,4,NaN,NaN,horizontal,vertical,vertical,horizontal,none,none
1b,9,100194,1,5,5,19,M,NA,constant,heterogeneous,6,absent,1.32492303848267,1,vertical,vertical,1,0.964699816299697,red,1,NaN,795.549636358493,854.96116226488,NaN,NaN,795.549636358493,854.96116226488,1018.57766167904,731.334709102064,1023.02802532055,476.373546837184,804.450363641507,345.03883773512,581.422338320961,468.665290897936,576.971974679454,723.626453162816,4,5,0,3,3,6,vertical,vertical,horizontal,horizontal,vertical,vertical
1b,9,100194,1,6,6,19,M,NA,constant,heterogeneous,4,absent,1.0865478515625,1,horizontal,horizontal,1,0.741174122438592,red,1,NaN,865.998856501143,846.311085703712,NaN,NaN,865.998856501143,846.311085703712,1046.31108570371,534.001143498857,734.001143498857,353.688914296288,553.688914296288,665.998856501143,0,0,0,0,4,0,6,3,NaN,NaN,horizontal,horizontal,horizontal,horizontal,none,none
1b,9,100194,1,7,7,19,M,NA,constant,heterogeneous,3,present,0.827364921569824,1,horizontal,horizontal,1,0.941170795893265,red,1,3,777.775285599347,854.029648013395,591.116228706307,453.738008730483,777.775285599347,854.029648013395,1031.10848569435,492.232343256122,591.116228706307,453.738008730483,0,0,0,0,0,0,4,0,0,NaN,NaN,NaN,horizontal,vertical,horizontal,none,none,none
1b,9,100194,1,8,8,19,M,NA,constant,heterogeneous,5,present,1.05508899688721,1,horizontal,horizontal,1,0.752938632641808,red,3,5,935.129412379467,383.747735480111,563.568117085469,695.524681321058,817.787900804752,854.378832816255,1047.42541020038,661.690083377915,935.129412379467,383.747735480111,636.089159529932,404.658667004661,563.568117085469,695.524681321058,0,0,6,5,4,6,3,NaN,horizontal,horizontal,horizontal,horizontal,horizontal,none
1b,9,100194,1,9,9,19,M,NA,constant,heterogeneous,3,present,0.835348129272461,1,vertical,vertical,1,0.752938632641808,red,2,3,938.882953928832,386.139005173917,545.349468637584,586.654331158049,915.767577433584,827.206663668034,938.882953928832,386.139005173917,545.349468637584,586.654331158049,0,0,0,0,0,0,5,4,5,NaN,NaN,NaN,horizontal,vertical,horizontal,none,none,none
1b,9,100194,1,10,10,19,M,NA,constant,heterogeneous,4,absent,0.849472045898438,1,vertical,vertical,1,0.65882255101608,red,2,NaN,995.341332995339,763.910840470068,NaN,NaN,636.089159529932,795.341332995339,995.341332995339,763.910840470068,963.910840470068,404.658667004661,604.658667004661,436.089159529932,0,0,0,0,5,4,6,0,NaN,NaN,vertical,vertical,vertical,vertical,none,none
1b,9,100194,1,11,11,19,M,NA,constant,heterogeneous,5,absent,1.10756802558899,1,vertical,vertical,1,0.635293530609648,red,1,NaN,751.343706178981,850.314931779154,NaN,NaN,751.343706178981,850.314931779154,1023.02802532055,723.626453162816,986.495193912888,426.090418184063,692.232343256122,368.891514305654,546.900731331463,631.076682568313,0,0,4,0,6,5,3,NaN,vertical,horizontal,vertical,horizontal,vertical,none
1b,9,100194,1,12,12,19,M,NA,constant,heterogeneous,5,present,1.12358593940735,1,vertical,vertical,1,0.882348244877185,red,4,1,764.510859255183,347.4816424709,680.284751489598,825.151636179026,680.284751489598,825.151636179026,977.137884467044,783.431649086356,1029.19248180629,488.215357568785,764.510859255183,347.4816424709,548.874022981887,555.719714694933,0,0,5,5,0,4,6,NaN,horizontal,vertical,horizontal,vertical,horizontal,none
1b,9,100194,1,13,13,19,M,NA,constant,heterogeneous,3,present,0.770485877990723,1,horizontal,horizontal,1,0.623529020406432,red,3,2,545.155339110131,591.100628340862,935.129412379467,383.747735480111,919.715248510402,825.151636179026,935.129412379467,383.747735480111,545.155339110131,591.100628340862,0,0,0,0,0,0,5,6,4,NaN,NaN,NaN,horizontal,horizontal,horizontal,none,none,none
1b,9,100194,1,14,14,19,M,NA,constant,heterogeneous,6,present,1.1713559627533,1,vertical,vertical,1,0.870583734673969,red,1,6,915.767577433584,827.206663668034,661.117046071168,813.860994826083,915.767577433584,827.206663668034,1054.65053136242,613.345668841951,938.882953928832,386.139005173917,684.232422566416,372.793336331966,545.349468637584,586.654331158049,661.117046071168,813.860994826083,4,0,5,3,5,6,vertical,vertical,horizontal,horizontal,horizontal,horizontal
1b,9,100194,1,15,15,19,M,NA,constant,heterogeneous,5,absent,1.56779813766479,1,horizontal,horizontal,1,0.635293530609648,red,3,NaN,980.31222920257,419.68777079743,NaN,NaN,760.109211414741,851.86052685176,1027.20666366803,715.767577433584,980.31222920257,419.68777079743,684.232422566416,372.793336331966,548.13947314824,639.890788585259,0,0,5,0,4,6,3,NaN,vertical,vertical,horizontal,horizontal,vertical,none
1b,9,100194,1,16,16,19,M,NA,constant,heterogeneous,4,absent,1.52309393882751,1,vertical,vertical,1,0.788232163251457,red,2,NaN,1049.42763818712,653.017481158529,NaN,NaN,746.982518841471,849.42763818712,1049.42763818712,653.017481158529,853.017481158529,350.57236181288,550.57236181288,546.982518841471,0,0,0,0,6,4,3,6,NaN,NaN,vertical,vertical,horizontal,horizontal,none,none
1b,9,100194,1,17,17,19,M,NA,constant,heterogeneous,3,present,1.2177529335022,1,horizontal,horizontal,1,0.799996673454673,red,2,3,956.993676208043,399.057257830286,547.481642470899,564.510859255183,895.524681321058,836.431882914531,956.993676208043,399.057257830286,547.481642470899,564.510859255183,0,0,0,0,0,0,0,4,6,NaN,NaN,NaN,horizontal,horizontal,vertical,none,none,none
1b,9,100194,1,18,18,19,M,NA,constant,heterogeneous,6,absent,1.57041501998901,1,vertical,vertical,1,0.799996673454673,red,2,NaN,1054.65053136242,613.345668841951,NaN,NaN,915.767577433584,827.206663668034,1054.65053136242,613.345668841951,938.882953928832,386.139005173917,684.232422566416,372.793336331966,545.349468637584,586.654331158049,661.117046071168,813.860994826083,6,4,5,0,3,5,vertical,vertical,vertical,vertical,horizontal,vertical
1b,9,100194,1,19,19,19,M,NA,constant,heterogeneous,6,present,0.892055988311768,0,vertical,horizontal,1,0.71764510203216,red,1,3,751.343706178981,850.314931779154,1041.10723677783,516.980120613425,751.343706178981,850.314931779154,992.450942956807,767.295052392579,1041.10723677783,516.980120613425,848.656293821019,349.685068220846,607.549057043193,432.704947607421,558.892763222174,683.019879386575,4,0,3,6,6,0,vertical,horizontal,vertical,horizontal,vertical,vertical
1b,9,100194,1,20,20,19,M,NA,constant,heterogeneous,5,absent,1.32373809814453,1,vertical,vertical,1,1.08234491833186,red,3,NaN,808.899371659138,345.155339110131,NaN,NaN,942.594190385041,811.404581001536,1045.12173246427,529.712474266665,808.899371659138,345.155339110131,560.378381699593,512.784863451954,643.006323791957,800.942742169714,0,0,3,0,4,5,6,NaN,horizontal,horizontal,vertical,horizontal,horizontal,none
1b,9,100194,1,21,21,19,M,NA,constant,heterogeneous,4,absent,0.890316009521484,1,horizontal,horizontal,1,0.799996673454673,red,4,NaN,557.480588344736,521.200666434388,NaN,NaN,721.200666434388,842.519411655264,1042.51941165526,678.799333565612,878.799333565612,357.480588344736,557.480588344736,521.200666434388,0,0,0,0,0,5,6,4,NaN,NaN,vertical,horizontal,horizontal,horizontal,none,none
1b,9,100194,1,22,22,19,M,NA,constant,heterogeneous,6,absent,1.39405989646912,1,vertical,vertical,1,0.682351571422512,red,1,NaN,891.383827134052,838.063008756786,NaN,NaN,891.383827134052,838.063008756786,1051.86052685176,639.890788585259,960.476699717708,401.827779828472,708.616172865948,361.936991243214,548.13947314824,560.109211414741,639.523300282292,798.172220171528,4,3,0,6,6,0,vertical,horizontal,vertical,vertical,horizontal,vertical
1b,9,100194,1,23,23,19,M,NA,constant,heterogeneous,3,absent,1.50735402107239,1,vertical,vertical,1,0.670587061219296,red,2,NaN,1054.0296480134,622.224714400653,NaN,NaN,653.738008730483,808.883771293693,1054.0296480134,622.224714400653,692.232343256122,368.891514305654,0,0,0,0,0,0,6,4,0,NaN,NaN,NaN,horizontal,vertical,vertical,none,none,none
1b,9,100194,1,24,24,19,M,NA,constant,heterogeneous,5,absent,1.12703204154968,1,vertical,vertical,1,1.07058040812864,red,5,NaN,545.349468637584,613.345668841951,NaN,NaN,734.001143498857,846.311085703712,1013.86099482608,738.882953928832,998.172220171528,439.523300282291,708.616172865948,361.936991243214,545.349468637584,613.345668841951,0,0,6,5,0,0,4,NaN,horizontal,horizontal,vertical,vertical,vertical,none
1b,9,100194,1,25,25,19,M,NA,constant,heterogeneous,6,present,1.54456210136414,1,horizontal,horizontal,1,0.741174122438592,red,4,2,696.282156015671,367.045908301137,1053.60308331891,626.654758133252,903.717843984329,832.954091698863,1053.60308331891,626.654758133252,949.885239334581,393.700666434388,696.282156015671,367.045908301137,546.39691668109,573.345241866748,650.114760665419,806.299333565612,5,6,3,4,6,3,vertical,horizontal,horizontal,horizontal,vertical,vertical
1b,9,100194,1,26,26,19,M,NA,constant,heterogeneous,5,present,1.56918478012085,1,horizontal,horizontal,1,1.07058040812864,red,4,2,692.232343256122,368.891514305654,1023.02802532055,723.626453162816,751.343706178981,850.314931779154,1023.02802532055,723.626453162816,986.495193912888,426.090418184063,692.232343256122,368.891514305654,546.900731331463,631.076682568313,0,0,3,3,6,4,0,NaN,vertical,horizontal,horizontal,horizontal,horizontal,none
1b,9,100194,1,27,27,19,M,NA,constant,heterogeneous,4,present,1.1453001499176,1,vertical,vertical,1,1.02352236731578,red,3,1,831.076682568313,346.900731331463,768.923317431687,853.099268668537,768.923317431687,853.099268668537,1053.09926866854,631.076682568313,831.076682568313,346.900731331463,546.900731331463,568.923317431687,0,0,0,0,0,0,4,5,NaN,NaN,vertical,horizontal,vertical,vertical,none,none
1b,9,100194,1,28,28,19,M,NA,constant,heterogeneous,3,absent,1.24204707145691,1,vertical,vertical,1,1.09410942853507,red,3,NaN,684.232422566416,372.793336331966,NaN,NaN,661.117046071168,813.860994826083,1054.65053136242,613.345668841951,684.232422566416,372.793336331966,0,0,0,0,0,0,6,0,4,NaN,NaN,NaN,horizontal,horizontal,vertical,none,none,none
1b,9,100194,1,29,29,19,M,NA,constant,heterogeneous,5,present,NaN,0,horizontal,none,0,0.670587061219296,red,3,2,839.890788585259,348.13947314824,1051.86052685176,560.109211414741,915.767577433584,827.206663668034,1051.86052685176,560.109211414741,839.890788585259,348.13947314824,572.793336331966,484.232422566416,619.68777079743,780.31222920257,0,0,0,0,4,5,6,NaN,vertical,horizontal,horizontal,vertical,vertical,none
1b,9,100194,1,30,30,19,M,NA,constant,heterogeneous,6,present,1.40687990188599,1,horizontal,horizontal,1,0.905877265283617,red,4,3,915.767577433584,372.793336331966,1054.65053136242,586.654331158049,684.232422566416,827.206663668034,938.882953928832,813.860994826083,1054.65053136242,586.654331158049,915.767577433584,372.793336331966,661.117046071168,386.139005173917,545.349468637584,613.345668841951,3,0,3,4,6,6,horizontal,horizontal,vertical,horizontal,horizontal,horizontal
1b,9,100194,1,31,31,19,M,NA,constant,heterogeneous,4,absent,1.38472986221313,0,vertical,horizontal,1,1.08234491833186,red,2,NaN,1008.88377129369,453.738008730483,NaN,NaN,946.261991269517,808.883771293693,1008.88377129369,453.738008730483,653.738008730483,391.116228706307,591.116228706307,746.261991269517,0,0,0,0,3,4,6,0,NaN,NaN,horizontal,vertical,horizontal,vertical,none,none
1b,9,100194,1,32,32,19,M,NA,constant,heterogeneous,5,absent,1.41684103012085,1,vertical,vertical,1,0.611764510203216,red,5,NaN,616.568350913644,777.137884467044,NaN,NaN,911.784642431215,829.192481806288,1052.5183575291,564.510859255183,844.280285305067,348.874022981887,574.848363820974,480.284751489598,616.568350913644,777.137884467044,0,0,6,3,6,3,4,NaN,horizontal,vertical,horizontal,horizontal,vertical,none
1b,9,100194,1,33,33,19,M,NA,constant,heterogeneous,6,present,1.26507210731506,1,vertical,vertical,1,0.776467653048241,red,1,5,725.445215295702,843.857712770574,626.090418184063,413.504806087112,725.445215295702,843.857712770574,973.909581815937,786.495193912888,1048.46436652023,542.637481142314,874.554784704298,356.142287229426,626.090418184063,413.504806087112,551.535633479765,657.362518857686,4,3,5,6,6,0,vertical,horizontal,vertical,horizontal,horizontal,horizontal
1b,9,100194,1,34,34,19,M,NA,constant,heterogeneous,4,absent,1.92331290245056,1,horizontal,horizontal,1,1.04705138772221,red,2,NaN,1054.96116226488,604.450363641507,NaN,NaN,795.549636358493,854.96116226488,1054.96116226488,604.450363641507,804.450363641507,345.03883773512,545.03883773512,595.549636358493,0,0,0,0,3,4,6,0,NaN,NaN,vertical,horizontal,vertical,vertical,none,none
1b,9,100194,1,35,35,19,M,NA,constant,heterogeneous,5,present,NaN,0,vertical,none,0,0.635293530609648,red,1,4,870.287525733335,845.121732464271,599.057257830286,443.006323791957,870.287525733335,845.121732464271,1054.84466088987,608.899371659138,887.215136548046,360.378381699593,599.057257830286,443.006323791957,588.595418998464,742.594190385041,0,0,4,3,3,5,5,NaN,vertical,horizontal,vertical,vertical,horizontal,none
1b,9,100194,1,36,36,19,M,NA,constant,heterogeneous,4,absent,0.978492975234985,1,horizontal,horizontal,1,0.776467653048241,red,4,NaN,613.504806087112,426.090418184063,NaN,NaN,626.090418184063,786.495193912888,986.495193912888,773.909581815937,973.909581815937,413.504806087112,613.504806087112,426.090418184063,0,0,0,0,6,3,3,4,NaN,NaN,horizontal,horizontal,vertical,horizontal,none,none
1b,9,100194,1,37,37,19,M,NA,constant,heterogeneous,3,absent,0.832008838653564,1,vertical,vertical,1,1.07058040812864,red,3,NaN,552.574589799621,538.309916622085,NaN,NaN,870.287525733335,845.121732464271,977.137884467044,416.568350913644,552.574589799621,538.309916622085,0,0,0,0,0,0,0,5,4,NaN,NaN,NaN,horizontal,horizontal,vertical,none,none,none
1b,9,100194,1,38,38,19,M,NA,constant,heterogeneous,3,absent,1.00537705421448,1,vertical,vertical,1,1.04705138772221,red,2,NaN,857.362518857686,351.535633479765,NaN,NaN,986.495193912888,773.909581815937,857.362518857686,351.535633479765,556.142287229426,674.554784704298,0,0,0,0,0,0,6,4,0,NaN,NaN,NaN,vertical,vertical,horizontal,none,none,none
1b,9,100194,1,39,39,19,M,NA,constant,heterogeneous,5,absent,1.17967391014099,1,horizontal,horizontal,1,0.694116081625728,red,3,NaN,956.993676208043,399.057257830286,NaN,NaN,791.100628340862,854.844660889869,1039.62161830041,687.215136548046,956.993676208043,399.057257830286,657.405809614959,388.595418998464,554.878267535729,670.287525733335,0,0,5,0,4,6,6,NaN,vertical,horizontal,horizontal,horizontal,vertical,none
1b,9,100194,1,40,40,19,M,NA,constant,heterogeneous,3,absent,1.39096212387085,1,horizontal,horizontal,1,0.776467653048241,red,3,NaN,546.900731331463,631.076682568313,NaN,NaN,953.462830903772,803.65205506206,899.636437764765,365.271262369628,546.900731331463,631.076682568313,0,0,0,0,0,0,0,0,4,NaN,NaN,NaN,vertical,vertical,horizontal,none,none,none
1b,9,100194,1,41,41,19,M,NA,constant,heterogeneous,6,present,1.22460889816284,1,horizontal,horizontal,1,0.894112755080401,red,6,1,639.523300282292,798.172220171528,891.383827134052,838.063008756786,891.383827134052,838.063008756786,1051.86052685176,639.890788585259,960.476699717708,401.827779828472,708.616172865948,361.936991243214,548.13947314824,560.109211414741,639.523300282292,798.172220171528,6,5,6,3,5,4,vertical,horizontal,vertical,vertical,vertical,horizontal
1b,9,100194,1,42,42,19,M,NA,constant,heterogeneous,3,absent,0.723314046859741,1,horizontal,horizontal,1,1.08234491833186,red,2,NaN,907.767656743878,368.891514305654,NaN,NaN,946.261991269517,808.883771293693,907.767656743878,368.891514305654,545.970351986605,622.224714400653,0,0,0,0,0,0,0,4,0,NaN,NaN,NaN,vertical,horizontal,vertical,none,none,none
1b,9,100194,1,43,43,19,M,NA,constant,heterogeneous,5,absent,1.09351396560669,1,horizontal,horizontal,1,1.01175785711256,red,3,NaN,839.890788585259,348.13947314824,NaN,NaN,915.767577433584,827.206663668034,1051.86052685176,560.109211414741,839.890788585259,348.13947314824,572.793336331966,484.232422566416,619.68777079743,780.31222920257,0,0,3,5,4,5,3,NaN,vertical,vertical,horizontal,vertical,horizontal,none
1b,9,100194,1,44,44,19,M,NA,constant,heterogeneous,3,absent,0.716488838195801,1,horizontal,horizontal,1,0.623529020406432,red,3,NaN,572.793336331966,715.767577433584,NaN,NaN,1013.86099482608,738.882953928832,813.345668841951,345.349468637584,572.793336331966,715.767577433584,0,0,0,0,0,0,3,5,4,NaN,NaN,NaN,horizontal,vertical,horizontal,none,none,none
1b,9,100194,1,45,45,19,M,NA,constant,heterogeneous,4,present,1.23711609840393,0,vertical,horizontal,1,0.894112755080401,red,2,3,1049.42763818712,546.982518841471,746.982518841471,350.57236181288,853.017481158529,849.42763818712,1049.42763818712,546.982518841471,746.982518841471,350.57236181288,550.57236181288,653.017481158529,0,0,0,0,3,4,0,6,NaN,NaN,horizontal,vertical,horizontal,vertical,none,none
1b,9,100194,1,46,46,19,M,NA,constant,heterogeneous,6,absent,1.23669505119324,1,horizontal,horizontal,1,0.729409612235376,red,6,NaN,650.114760665419,806.299333565612,NaN,NaN,903.717843984329,832.954091698863,1053.60308331891,626.654758133252,949.885239334581,393.700666434388,696.282156015671,367.045908301137,546.39691668109,573.345241866748,650.114760665419,806.299333565612,0,6,0,3,3,4,horizontal,horizontal,horizontal,horizontal,horizontal,horizontal
1b,9,100194,1,47,47,19,M,NA,constant,heterogeneous,3,present,0.810658931732178,1,horizontal,horizontal,1,0.858819224470753,red,2,1,1041.10723677783,516.980120613425,751.343706178981,850.314931779154,751.343706178981,850.314931779154,1041.10723677783,516.980120613425,607.549057043193,432.704947607421,0,0,0,0,0,0,3,4,0,NaN,NaN,NaN,vertical,horizontal,vertical,none,none,none
1b,9,100194,1,48,48,19,M,NA,constant,heterogeneous,4,present,0.708956003189087,1,horizontal,horizontal,1,1.07058040812864,red,3,4,721.200666434388,357.480588344736,557.480588344736,678.799333565612,878.799333565612,842.519411655264,1042.51941165526,521.200666434388,721.200666434388,357.480588344736,557.480588344736,678.799333565612,0,0,0,0,0,3,4,5,NaN,NaN,vertical,horizontal,horizontal,horizontal,none,none
1b,9,100194,1,49,49,19,M,NA,constant,heterogeneous,6,absent,1.63555192947388,1,vertical,vertical,1,0.611764510203216,red,6,NaN,547.481642470899,635.489140744817,NaN,NaN,704.475318678942,836.431882914531,956.993676208043,800.942742169714,1052.5183575291,564.510859255183,895.524681321058,363.568117085469,643.006323791957,399.057257830286,547.481642470899,635.489140744817,3,0,5,5,6,4,horizontal,horizontal,vertical,horizontal,horizontal,vertical
1b,9,100194,1,50,50,19,M,NA,constant,heterogeneous,4,present,1.28155207633972,1,vertical,vertical,1,1.05881589792543,red,3,2,639.523300282292,401.827779828472,998.172220171528,439.523300282291,960.476699717708,798.172220171528,998.172220171528,439.523300282291,639.523300282292,401.827779828472,601.827779828472,760.476699717708,0,0,0,0,6,5,4,0,NaN,NaN,horizontal,horizontal,vertical,vertical,none,none
1b,9,100194,1,51,51,19,M,NA,constant,heterogeneous,6,present,1.41289806365967,1,vertical,vertical,1,0.670587061219296,red,1,3,746.982518841471,849.42763818712,1042.51941165526,521.200666434388,746.982518841471,849.42763818712,989.501930496736,770.628304621509,1042.51941165526,521.200666434388,853.017481158529,350.57236181288,610.498069503264,429.371695378491,557.480588344736,678.799333565612,4,3,6,0,5,6,vertical,vertical,vertical,vertical,horizontal,horizontal
1b,9,100194,1,52,52,19,M,NA,constant,heterogeneous,6,absent,1.18218088150024,1,horizontal,horizontal,1,0.847054714267537,red,6,NaN,607.549057043193,767.295052392579,NaN,NaN,848.656293821019,850.314931779154,1041.10723677783,683.019879386575,992.450942956807,432.704947607421,751.343706178981,349.685068220846,558.892763222174,516.980120613425,607.549057043193,767.295052392579,6,5,3,6,0,4,horizontal,horizontal,horizontal,horizontal,horizontal,horizontal
1b,9,100194,1,53,53,19,M,NA,constant,heterogeneous,5,present,1.75736403465271,1,horizontal,horizontal,1,0.764703142845024,red,3,1,800,345,949.885239334581,806.299333565612,949.885239334581,806.299333565612,1042.51941165526,521.200666434388,800,345,557.480588344736,521.200666434388,650.114760665419,806.299333565612,0,0,6,5,4,3,0,NaN,horizontal,vertical,horizontal,vertical,vertical,none
1b,9,100194,1,54,54,19,M,NA,constant,heterogeneous,4,present,1.32140588760376,1,horizontal,horizontal,1,1.02352236731578,red,2,4,1048.46436652023,542.637481142314,551.535633479765,657.362518857686,857.362518857686,848.464366520235,1048.46436652023,542.637481142314,742.637481142314,351.535633479765,551.535633479765,657.362518857686,0,0,0,0,6,4,3,0,NaN,NaN,horizontal,horizontal,horizontal,horizontal,none,none
1b,9,100194,1,55,55,19,M,NA,constant,heterogeneous,5,present,0.983412027359009,1,vertical,vertical,1,0.776467653048241,red,2,4,963.910840470068,795.341332995339,782.212099195248,345.621167183745,664.870587620533,816.252264519889,963.910840470068,795.341332995339,1036.43188291453,504.475318678942,782.212099195248,345.621167183745,552.574589799621,538.309916622085,0,0,6,4,5,3,0,NaN,vertical,vertical,horizontal,horizontal,horizontal,none
1b,9,100194,1,56,56,19,M,NA,constant,heterogeneous,6,absent,1.42110705375671,1,horizontal,horizontal,1,0.894112755080401,red,5,NaN,546.900731331463,568.923317431687,NaN,NaN,899.636437764765,834.728737630372,1053.09926866854,631.076682568313,953.462830903772,396.34794493794,700.363562235235,365.271262369628,546.900731331463,568.923317431687,646.537169096228,803.65205506206,6,0,3,0,4,5,horizontal,horizontal,horizontal,horizontal,horizontal,horizontal
1b,9,100194,1,57,57,19,M,NA,constant,heterogeneous,4,present,0.938723802566528,1,horizontal,horizontal,1,0.65882255101608,red,3,2,822.224714400653,345.970351986605,1054.0296480134,622.224714400653,777.775285599347,854.029648013395,1054.0296480134,622.224714400653,822.224714400653,345.970351986605,545.970351986605,577.775285599347,0,0,0,0,6,3,4,0,NaN,NaN,horizontal,vertical,horizontal,horizontal,none,none
1b,9,100194,1,58,58,19,M,NA,constant,heterogeneous,3,present,0.710020065307617,1,vertical,vertical,1,0.623529020406432,red,3,2,557.480588344736,521.200666434388,989.501930496736,429.371695378491,853.017481158529,849.42763818712,989.501930496736,429.371695378491,557.480588344736,521.200666434388,0,0,0,0,0,0,3,0,4,NaN,NaN,NaN,horizontal,vertical,vertical,none,none,none
1b,9,100194,1,59,59,19,M,NA,constant,heterogeneous,3,present,0.89401912689209,1,vertical,vertical,1,0.882348244877185,red,2,3,986.495193912888,426.090418184063,556.142287229426,525.445215295702,857.362518857686,848.464366520235,986.495193912888,426.090418184063,556.142287229426,525.445215295702,0,0,0,0,0,0,0,4,5,NaN,NaN,NaN,horizontal,vertical,vertical,none,none,none
1b,9,100194,1,60,60,19,M,NA,constant,heterogeneous,3,absent,0.577000141143799,0,horizontal,vertical,1,0.835290204064321,red,2,NaN,986.495193912888,426.090418184063,NaN,NaN,857.362518857686,848.464366520235,986.495193912888,426.090418184063,556.142287229426,525.445215295702,0,0,0,0,0,0,3,4,6,NaN,NaN,NaN,horizontal,horizontal,horizontal,none,none,none
1b,9,100194,1,61,61,19,M,NA,constant,heterogeneous,4,absent,1.69185709953308,1,vertical,vertical,1,0.752938632641808,red,1,NaN,927.5,820.836477965032,NaN,NaN,927.5,820.836477965032,1020.83647796503,472.5,672.5,379.163522034968,579.163522034968,727.5,0,0,0,0,4,3,5,6,NaN,NaN,vertical,horizontal,vertical,horizontal,none,none
1b,9,100194,1,62,62,19,M,NA,constant,heterogeneous,6,present,0.701312065124512,1,horizontal,horizontal,1,0.776467653048241,red,5,1,632.704947607421,407.549057043193,716.980120613425,841.107236777826,716.980120613425,841.107236777826,967.295052392579,792.450942956807,1050.31493177915,551.343706178981,883.019879386575,358.892763222174,632.704947607421,407.549057043193,549.685068220846,648.656293821019,3,0,6,6,4,0,horizontal,vertical,vertical,horizontal,horizontal,vertical
1b,9,100194,1,63,63,19,M,NA,constant,heterogeneous,5,absent,0.916975975036621,1,horizontal,horizontal,1,1.07058040812864,red,5,NaN,554.878267535729,529.712474266665,NaN,NaN,657.405809614959,811.404581001536,956.993676208043,800.942742169714,1039.62161830041,512.784863451954,791.100628340862,345.155339110131,554.878267535729,529.712474266665,0,0,0,0,5,3,4,NaN,horizontal,horizontal,horizontal,vertical,horizontal,none
1b,9,100194,1,64,64,19,M,NA,constant,heterogeneous,5,present,NaN,0,vertical,none,0,1.07058040812864,red,3,4,878.799333565612,357.480588344736,593.700666434388,450.114760665419,878.799333565612,842.519411655264,1055,600,878.799333565612,357.480588344736,593.700666434388,450.114760665419,593.700666434388,749.885239334581,0,0,3,3,4,5,6,NaN,vertical,vertical,vertical,horizontal,horizontal,none
1b,9,100194,2,1,65,19,M,NA,constant,heterogeneous,4,absent,0.759269952774048,1,vertical,vertical,1,0.858819224470753,red,2,NaN,1054.96116226488,595.549636358493,NaN,NaN,804.450363641507,854.96116226488,1054.96116226488,595.549636358493,795.549636358493,345.03883773512,545.03883773512,604.450363641507,0,0,0,0,6,4,5,6,NaN,NaN,horizontal,vertical,horizontal,vertical,none,none
1b,9,100194,2,2,66,19,M,NA,constant,heterogeneous,6,present,1.01891493797302,1,horizontal,horizontal,1,0.823525693861105,red,3,2,1053.60308331891,573.345241866748,949.885239334581,806.299333565612,696.282156015671,832.954091698863,949.885239334581,806.299333565612,1053.60308331891,573.345241866748,903.717843984329,367.045908301137,650.114760665419,393.700666434388,546.39691668109,626.654758133252,3,5,4,0,3,0,vertical,vertical,horizontal,horizontal,vertical,horizontal
1b,9,100194,2,3,67,19,M,NA,constant,heterogeneous,3,present,0.544554948806763,0,vertical,horizontal,1,1.05881589792543,red,2,1,998.172220171528,439.523300282291,839.890788585259,851.86052685176,839.890788585259,851.86052685176,998.172220171528,439.523300282291,561.936991243214,508.616172865948,0,0,0,0,0,0,6,4,6,NaN,NaN,NaN,horizontal,vertical,horizontal,none,none,none
1b,9,100194,2,4,68,19,M,NA,constant,heterogeneous,3,present,0.901938915252686,1,horizontal,horizontal,1,0.905877265283617,red,1,3,716.980120613425,841.107236777826,632.704947607421,407.549057043193,716.980120613425,841.107236777826,1050.31493177915,551.343706178981,632.704947607421,407.549057043193,0,0,0,0,0,0,4,6,3,NaN,NaN,NaN,horizontal,vertical,horizontal,none,none,none
1b,9,100194,2,5,69,19,M,NA,constant,heterogeneous,6,present,0.730417013168335,1,vertical,vertical,1,0.905877265283617,red,4,5,826.654758133252,346.39691668109,593.700666434388,450.114760665419,773.345241866748,853.60308331891,1006.29933356561,749.885239334581,1032.95409169886,496.282156015671,826.654758133252,346.39691668109,593.700666434388,450.114760665419,567.045908301137,703.717843984329,6,5,3,4,0,0,vertical,vertical,vertical,vertical,vertical,horizontal
1b,9,100194,2,6,70,19,M,NA,constant,heterogeneous,5,present,0.849931001663208,1,horizontal,horizontal,1,1.03528687751899,red,5,1,548.13947314824,639.890788585259,760.109211414741,851.86052685176,760.109211414741,851.86052685176,1027.20666366803,715.767577433584,980.31222920257,419.68777079743,684.232422566416,372.793336331966,548.13947314824,639.890788585259,0,0,5,0,3,6,4,NaN,horizontal,horizontal,vertical,horizontal,horizontal,none
1b,9,100194,2,7,71,19,M,NA,constant,heterogeneous,5,present,0.653549909591675,1,vertical,vertical,1,0.729409612235376,red,3,2,907.767656743878,368.891514305654,1053.09926866854,631.076682568313,848.656293821019,850.314931779154,1053.09926866854,631.076682568313,907.767656743878,368.891514305654,613.504806087112,426.090418184063,576.971974679454,723.626453162816,0,0,0,6,4,3,5,NaN,horizontal,horizontal,vertical,horizontal,horizontal,none
1b,9,100194,2,8,72,19,M,NA,constant,heterogeneous,5,present,0.794693946838379,1,horizontal,horizontal,1,0.999993346909345,red,5,2,632.704947607421,792.450942956807,1048.46436652023,542.637481142314,931.334709102064,818.577661679039,1048.46436652023,542.637481142314,822.224714400653,345.970351986605,565.271262369628,500.363562235235,632.704947607421,792.450942956807,0,0,0,6,6,3,4,NaN,horizontal,vertical,vertical,horizontal,horizontal,none
1b,9,100194,2,9,73,19,M,NA,constant,heterogeneous,3,absent,0.876621961593628,0,horizontal,vertical,1,0.894112755080401,red,2,NaN,813.345668841951,345.349468637584,NaN,NaN,1013.86099482608,738.882953928832,813.345668841951,345.349468637584,572.793336331966,715.767577433584,0,0,0,0,0,0,5,4,5,NaN,NaN,NaN,vertical,horizontal,horizontal,none,none,none
1b,9,100194,2,10,74,19,M,NA,constant,heterogeneous,4,present,1.2246630191803,1,vertical,vertical,1,0.905877265283617,red,2,4,983.431649086356,777.137884467044,616.568350913644,422.862115532956,622.862115532956,783.431649086356,983.431649086356,777.137884467044,977.137884467044,416.568350913644,616.568350913644,422.862115532956,0,0,0,0,6,4,3,6,NaN,NaN,vertical,vertical,horizontal,horizontal,none,none
1b,9,100194,2,11,75,19,M,NA,constant,heterogeneous,4,present,1.56298112869263,1,horizontal,horizontal,1,0.882348244877185,red,3,1,764.510859255183,347.4816424709,835.489140744817,852.518357529101,835.489140744817,852.518357529101,1052.5183575291,564.510859255183,764.510859255183,347.4816424709,547.481642470899,635.489140744817,0,0,0,0,5,3,4,6,NaN,NaN,horizontal,vertical,horizontal,vertical,none,none
1b,9,100194,2,12,76,19,M,NA,constant,heterogeneous,4,absent,1.60645604133606,1,horizontal,horizontal,1,0.999993346909345,red,4,NaN,619.68777079743,419.68777079743,NaN,NaN,619.68777079743,780.31222920257,980.31222920257,780.31222920257,980.31222920257,419.68777079743,619.68777079743,419.68777079743,0,0,0,0,3,5,6,4,NaN,NaN,horizontal,horizontal,vertical,horizontal,none,none
1b,9,100194,2,13,77,19,M,NA,constant,heterogeneous,3,present,0.79677414894104,1,vertical,vertical,1,0.917641775486833,red,1,2,899.636437764765,834.728737630372,953.462830903772,396.34794493794,899.636437764765,834.728737630372,953.462830903772,396.34794493794,546.900731331463,568.923317431687,0,0,0,0,0,0,4,0,6,NaN,NaN,NaN,vertical,vertical,vertical,none,none,none
1b,9,100194,2,14,78,19,M,NA,constant,heterogeneous,5,absent,1.10984301567078,1,horizontal,horizontal,1,0.647058040812864,red,5,NaN,546.900731331463,568.923317431687,NaN,NaN,692.232343256122,831.108485694346,986.495193912888,773.909581815937,1023.02802532055,476.373546837184,751.343706178981,349.685068220846,546.900731331463,568.923317431687,0,0,6,3,3,0,4,NaN,vertical,horizontal,vertical,vertical,horizontal,none
1b,9,100194,2,15,79,19,M,NA,constant,heterogeneous,5,absent,1.42947196960449,1,horizontal,horizontal,1,0.858819224470753,red,4,NaN,729.712474266665,354.878267535729,NaN,NaN,712.784863451954,839.621618300407,1000.94274216971,756.993676208043,1011.40458100154,457.40580961496,729.712474266665,354.878267535729,545.155339110131,591.100628340862,0,0,5,0,6,4,3,NaN,vertical,horizontal,vertical,horizontal,vertical,none
1b,9,100194,2,16,80,19,M,NA,constant,heterogeneous,5,absent,0.715957880020142,1,vertical,vertical,1,0.894112755080401,red,3,NaN,813.345668841951,345.349468637584,NaN,NaN,938.882953928832,813.860994826083,1046.31108570371,534.001143498857,813.345668841951,345.349468637584,561.936991243214,508.616172865948,639.523300282292,798.172220171528,0,0,0,3,4,6,5,NaN,horizontal,horizontal,vertical,horizontal,horizontal,none
1b,9,100194,2,17,81,19,M,NA,constant,heterogeneous,5,present,1.99049401283264,1,horizontal,horizontal,1,0.6,red,2,3,956.993676208043,800.942742169714,1039.62161830041,512.784863451954,657.405809614959,811.404581001536,956.993676208043,800.942742169714,1039.62161830041,512.784863451954,791.100628340862,345.155339110131,554.878267535729,529.712474266665,0,0,5,4,6,0,3,NaN,vertical,horizontal,vertical,horizontal,horizontal,none
1b,9,100194,2,18,82,19,M,NA,constant,heterogeneous,6,present,1.83949494361877,1,horizontal,horizontal,1,0.647058040812864,red,6,2,604.658667004661,763.910840470068,1039.62161830041,687.215136548046,844.280285305067,851.125977018113,1039.62161830041,687.215136548046,995.341332995339,436.089159529932,755.719714694933,348.874022981887,560.378381699593,512.784863451954,604.658667004661,763.910840470068,3,0,0,5,6,4,horizontal,vertical,vertical,vertical,horizontal,horizontal
1b,9,100194,2,19,83,19,M,NA,constant,heterogeneous,3,present,1.31977605819702,1,horizontal,horizontal,1,0.952935306096481,red,2,1,1023.02802532055,723.626453162816,581.422338320961,731.334709102064,581.422338320961,731.334709102064,1023.02802532055,723.626453162816,795.549636358493,345.03883773512,0,0,0,0,0,0,5,4,0,NaN,NaN,NaN,horizontal,horizontal,vertical,none,none,none
1b,9,100194,2,20,84,19,M,NA,constant,heterogeneous,6,present,1.14195895195007,0,vertical,horizontal,1,0.799996673454673,red,5,2,596.34794493794,446.537169096228,1003.65205506206,753.462830903772,768.923317431687,853.099268668537,1003.65205506206,753.462830903772,1034.72873763037,500.363562235235,831.076682568313,346.900731331463,596.34794493794,446.537169096228,565.271262369628,699.636437764765,5,0,6,3,4,6,horizontal,vertical,vertical,vertical,vertical,vertical
1b,9,100194,2,21,85,19,M,NA,constant,heterogeneous,6,absent,1.39913606643677,1,horizontal,horizontal,1,1.09410942853507,red,2,NaN,1051.86052685176,639.890788585259,NaN,NaN,891.383827134052,838.063008756786,1051.86052685176,639.890788585259,960.476699717708,401.827779828472,708.616172865948,361.936991243214,548.13947314824,560.109211414741,639.523300282292,798.172220171528,6,4,5,3,0,0,vertical,horizontal,horizontal,horizontal,horizontal,horizontal
1b,9,100194,2,22,86,19,M,NA,constant,heterogeneous,6,absent,0.867770910263062,1,vertical,vertical,1,0.823525693861105,red,4,NaN,800,345,NaN,NaN,800,855,1020.83647796503,727.5,1020.83647796503,472.5,800,345,579.163522034968,472.5,579.163522034968,727.5,3,3,5,4,0,6,vertical,vertical,horizontal,vertical,horizontal,vertical
1b,9,100194,2,23,87,19,M,NA,constant,heterogeneous,4,absent,1.39693522453308,1,horizontal,horizontal,1,0.976464326502913,red,4,NaN,553.688914296288,534.001143498857,NaN,NaN,734.001143498857,846.311085703712,1046.31108570371,665.998856501143,865.998856501143,353.688914296288,553.688914296288,534.001143498857,0,0,0,0,3,6,3,4,NaN,NaN,horizontal,horizontal,vertical,horizontal,none,none
1b,9,100194,2,24,88,19,M,NA,constant,heterogeneous,6,absent,1.37849998474121,0,horizontal,vertical,1,0.682351571422512,red,2,NaN,1053.09926866854,631.076682568313,NaN,NaN,899.636437764765,834.728737630372,1053.09926866854,631.076682568313,953.462830903772,396.34794493794,700.363562235235,365.271262369628,546.900731331463,568.923317431687,646.537169096228,803.65205506206,3,4,5,0,6,0,horizontal,horizontal,horizontal,vertical,horizontal,vertical
1b,9,100194,2,25,89,19,M,NA,constant,heterogeneous,4,absent,0.777549028396606,1,vertical,vertical,1,0.964699816299697,red,3,NaN,923.626453162816,376.971974679454,NaN,NaN,676.373546837184,823.028025320546,1023.02802532055,723.626453162816,923.626453162816,376.971974679454,576.971974679454,476.373546837184,0,0,0,0,6,5,4,6,NaN,NaN,vertical,horizontal,vertical,vertical,none,none
1b,9,100194,2,26,90,19,M,NA,constant,heterogeneous,6,absent,1.1150279045105,1,vertical,vertical,1,0.882348244877185,red,1,NaN,831.076682568313,853.099268668537,NaN,NaN,831.076682568313,853.099268668537,1034.72873763037,699.636437764765,1003.65205506206,446.537169096228,768.923317431687,346.900731331463,565.271262369628,500.363562235235,596.34794493794,753.462830903772,4,0,6,3,3,6,vertical,vertical,horizontal,vertical,vertical,vertical
1b,9,100194,2,27,91,19,M,NA,constant,heterogeneous,3,absent,0.982885837554932,1,vertical,vertical,1,1.07058040812864,red,3,NaN,545.970351986605,577.775285599347,NaN,NaN,907.767656743878,831.108485694346,946.261991269517,391.116228706307,545.970351986605,577.775285599347,0,0,0,0,0,0,5,0,4,NaN,NaN,NaN,vertical,vertical,vertical,none,none,none
1b,9,100194,2,28,92,19,M,NA,constant,heterogeneous,3,present,0.900123834609985,1,horizontal,horizontal,1,0.670587061219296,red,1,3,599.057257830286,756.993676208043,764.510859255183,347.4816424709,599.057257830286,756.993676208043,1036.43188291453,695.524681321058,764.510859255183,347.4816424709,0,0,0,0,0,0,4,0,5,NaN,NaN,NaN,horizontal,horizontal,vertical,none,none,none
1b,9,100194,2,29,93,19,M,NA,constant,heterogeneous,5,present,1.06949591636658,1,horizontal,horizontal,1,0.764703142845024,red,5,1,545.970351986605,577.775285599347,700.363562235235,834.728737630372,700.363562235235,834.728737630372,992.450942956807,767.295052392579,1018.57766167904,468.665290897936,742.637481142314,351.535633479765,545.970351986605,577.775285599347,0,0,6,0,5,3,4,NaN,horizontal,vertical,vertical,vertical,horizontal,none
1b,9,100194,2,30,94,19,M,NA,constant,heterogeneous,3,absent,0.842076063156128,1,vertical,vertical,1,0.952935306096481,red,2,NaN,1036.43188291453,504.475318678942,NaN,NaN,764.510859255183,852.518357529101,1036.43188291453,504.475318678942,599.057257830286,443.006323791957,0,0,0,0,0,0,6,4,0,NaN,NaN,NaN,horizontal,vertical,horizontal,none,none,none
1b,9,100194,2,31,95,19,M,NA,constant,heterogeneous,6,present,0.785200119018555,1,horizontal,horizontal,1,0.905877265283617,red,2,1,1054.96116226488,604.450363641507,923.626453162816,823.028025320546,923.626453162816,823.028025320546,1054.96116226488,604.450363641507,931.334709102064,381.422338320961,676.373546837184,376.971974679454,545.03883773512,595.549636358493,668.665290897936,818.577661679039,6,4,5,3,3,0,horizontal,horizontal,vertical,vertical,vertical,horizontal
1b,9,100194,2,32,96,19,M,NA,constant,heterogeneous,4,absent,0.884291887283325,1,vertical,vertical,1,0.752938632641808,red,2,NaN,1045.12173246427,670.287525733335,NaN,NaN,729.712474266665,845.121732464271,1045.12173246427,670.287525733335,870.287525733335,354.878267535729,554.878267535729,529.712474266665,0,0,0,0,6,4,0,6,NaN,NaN,vertical,vertical,vertical,vertical,none,none
1b,9,100194,2,33,97,19,M,NA,constant,heterogeneous,4,present,1.43813514709473,1,vertical,vertical,1,0.799996673454673,red,3,1,822.224714400653,345.970351986605,777.775285599347,854.029648013395,777.775285599347,854.029648013395,1054.0296480134,622.224714400653,822.224714400653,345.970351986605,545.970351986605,577.775285599347,0,0,0,0,5,5,4,0,NaN,NaN,horizontal,vertical,vertical,horizontal,none,none
1b,9,100194,2,34,98,19,M,NA,constant,heterogeneous,5,present,1.64390397071838,1,vertical,vertical,1,0.635293530609648,red,3,2,1027.20666366803,484.232422566416,980.31222920257,780.31222920257,684.232422566416,827.206663668034,980.31222920257,780.31222920257,1027.20666366803,484.232422566416,760.109211414741,348.13947314824,548.13947314824,560.109211414741,0,0,5,0,4,3,0,NaN,horizontal,vertical,vertical,vertical,vertical,none
1b,9,100194,2,35,99,19,M,NA,constant,heterogeneous,3,present,0.804164171218872,1,horizontal,horizontal,1,0.776467653048241,red,2,3,808.899371659138,345.155339110131,574.848363820974,719.715248510402,1016.25226451989,735.129412379467,808.899371659138,345.155339110131,574.848363820974,719.715248510402,0,0,0,0,0,0,3,4,5,NaN,NaN,NaN,horizontal,horizontal,vertical,none,none,none
1b,9,100194,2,36,100,19,M,NA,constant,heterogeneous,5,present,0.865981101989746,1,vertical,vertical,1,1.07058040812864,red,3,5,983.431649086356,422.862115532956,547.481642470899,635.489140744817,755.719714694933,851.125977018113,1025.15163617903,719.715248510402,983.431649086356,422.862115532956,688.215357568785,370.807518193712,547.481642470899,635.489140744817,0,0,3,6,4,0,5,NaN,horizontal,horizontal,vertical,vertical,vertical,none
1b,9,100194,2,37,101,19,M,NA,constant,heterogeneous,6,absent,1.82935309410095,1,horizontal,horizontal,1,0.894112755080401,red,1,NaN,786.654331158049,854.650531362416,NaN,NaN,786.654331158049,854.650531362416,1013.86099482608,738.882953928832,1027.20666366803,484.232422566416,813.345668841951,345.349468637584,586.139005173917,461.117046071168,572.793336331966,715.767577433584,4,0,5,0,3,6,horizontal,vertical,horizontal,vertical,vertical,vertical
1b,9,100194,2,38,102,19,M,NA,constant,heterogeneous,4,present,1.11411309242249,1,horizontal,horizontal,1,0.999993346909345,red,4,2,572.793336331966,715.767577433584,1027.20666366803,484.232422566416,915.767577433584,827.206663668034,1027.20666366803,484.232422566416,684.232422566416,372.793336331966,572.793336331966,715.767577433584,0,0,0,0,0,3,3,4,NaN,NaN,horizontal,horizontal,vertical,horizontal,none,none
1b,9,100194,2,39,103,19,M,NA,constant,heterogeneous,4,present,0.615792036056519,1,horizontal,horizontal,1,0.964699816299697,red,4,2,556.142287229426,674.554784704298,1043.85771277057,525.445215295702,874.554784704298,843.857712770574,1043.85771277057,525.445215295702,725.445215295702,356.142287229426,556.142287229426,674.554784704298,0,0,0,0,3,0,0,4,NaN,NaN,horizontal,horizontal,vertical,horizontal,none,none
1b,9,100194,2,40,104,19,M,NA,constant,heterogeneous,5,absent,0.775327920913696,1,vertical,vertical,1,0.952935306096481,red,5,NaN,616.568350913644,777.137884467044,NaN,NaN,911.784642431215,829.192481806288,1052.5183575291,564.510859255183,844.280285305067,348.874022981887,574.848363820974,480.284751489598,616.568350913644,777.137884467044,0,0,0,3,6,5,4,NaN,horizontal,horizontal,vertical,vertical,vertical,none
1b,9,100194,2,41,105,19,M,NA,constant,heterogeneous,5,absent,1.05477809906006,1,horizontal,horizontal,1,0.988228836706129,red,4,NaN,716.980120613425,358.892763222174,NaN,NaN,725.445215295702,843.857712770574,1008.88377129369,746.261991269517,1003.65205506206,446.537169096228,716.980120613425,358.892763222174,545.03883773512,604.450363641507,0,0,3,5,6,4,3,NaN,horizontal,horizontal,vertical,horizontal,vertical,none
1b,9,100194,2,42,106,19,M,NA,constant,heterogeneous,4,present,1.04500293731689,0,vertical,horizontal,1,1.04705138772221,red,3,1,716.980120613425,358.892763222174,883.019879386575,841.107236777826,883.019879386575,841.107236777826,1041.10723677783,516.980120613425,716.980120613425,358.892763222174,558.892763222174,683.019879386575,0,0,0,0,6,6,4,3,NaN,NaN,horizontal,horizontal,vertical,horizontal,none,none
1b,9,100194,2,43,107,19,M,NA,constant,heterogeneous,3,absent,0.617908954620361,1,horizontal,horizontal,1,1.01175785711256,red,2,NaN,983.431649086356,422.862115532956,NaN,NaN,861.690083377915,847.425410200379,983.431649086356,422.862115532956,554.878267535729,529.712474266665,0,0,0,0,0,0,5,4,3,NaN,NaN,NaN,horizontal,horizontal,horizontal,none,none,none
1b,9,100194,2,44,108,19,M,NA,constant,heterogeneous,3,absent,0.788034915924072,1,vertical,vertical,1,1.07058040812864,red,3,NaN,548.874022981887,555.719714694933,NaN,NaN,887.215136548046,839.621618300407,963.910840470068,404.658667004661,548.874022981887,555.719714694933,0,0,0,0,0,0,0,3,4,NaN,NaN,NaN,horizontal,vertical,vertical,none,none,none
1b,9,100194,2,45,109,19,M,NA,constant,heterogeneous,5,absent,1.45982909202576,1,vertical,vertical,1,0.776467653048241,red,1,NaN,895.524681321058,836.431882914531,NaN,NaN,895.524681321058,836.431882914531,1054.37883281626,582.212099195248,861.690083377915,352.574589799621,583.747735480111,464.870587620533,604.658667004661,763.910840470068,0,0,4,6,5,0,3,NaN,vertical,vertical,horizontal,horizontal,vertical,none
1b,9,100194,2,46,110,19,M,NA,constant,heterogeneous,6,absent,0.90563702583313,1,horizontal,horizontal,1,1.03528687751899,red,4,NaN,760.109211414741,348.13947314824,NaN,NaN,839.890788585259,851.86052685176,1038.06300875679,691.383827134052,998.172220171528,439.523300282291,760.109211414741,348.13947314824,561.936991243214,508.616172865948,601.827779828472,760.476699717708,5,0,0,4,6,5,horizontal,vertical,horizontal,horizontal,horizontal,horizontal
1b,9,100194,2,47,111,19,M,NA,constant,heterogeneous,4,absent,1.20184206962585,1,horizontal,horizontal,1,0.682351571422512,red,3,NaN,831.076682568313,346.900731331463,NaN,NaN,768.923317431687,853.099268668537,1053.09926866854,631.076682568313,831.076682568313,346.900731331463,546.900731331463,568.923317431687,0,0,0,0,6,3,4,3,NaN,NaN,vertical,horizontal,horizontal,horizontal,none,none
1b,9,100194,2,48,112,19,M,NA,constant,heterogeneous,6,absent,0.599745035171509,1,vertical,vertical,1,1.07058040812864,red,4,NaN,919.715248510402,374.848363820974,NaN,NaN,680.284751489598,825.151636179026,935.129412379467,816.252264519889,1054.84466088987,591.100628340862,919.715248510402,374.848363820974,664.870587620533,383.747735480111,545.155339110131,608.899371659138,6,5,3,4,0,3,vertical,horizontal,horizontal,vertical,vertical,vertical
1b,9,100194,2,49,113,19,M,NA,constant,heterogeneous,4,absent,0.819745063781738,1,vertical,vertical,1,0.799996673454673,red,2,NaN,1053.09926866854,568.923317431687,NaN,NaN,831.076682568313,853.099268668537,1053.09926866854,568.923317431687,768.923317431687,346.900731331463,546.900731331463,631.076682568313,0,0,0,0,6,4,3,3,NaN,NaN,horizontal,vertical,horizontal,vertical,none,none
1b,9,100194,2,50,114,19,M,NA,constant,heterogeneous,6,absent,1.20817995071411,1,vertical,vertical,1,1.01175785711256,red,2,NaN,1000.94274216971,756.993676208043,NaN,NaN,764.510859255183,852.518357529101,1000.94274216971,756.993676208043,1036.43188291453,504.475318678942,835.489140744817,347.4816424709,599.057257830286,443.006323791957,563.568117085469,695.524681321058,3,4,3,5,6,0,horizontal,vertical,vertical,vertical,vertical,horizontal
1b,9,100194,2,51,115,19,M,NA,constant,heterogeneous,3,absent,0.700891971588135,1,vertical,vertical,1,0.6,red,3,NaN,548.13947314824,639.890788585259,NaN,NaN,960.476699717708,798.172220171528,891.383827134052,361.936991243214,548.13947314824,639.890788585259,0,0,0,0,0,0,3,6,4,NaN,NaN,NaN,horizontal,vertical,vertical,none,none,none
1b,9,100194,2,52,116,19,M,NA,constant,heterogeneous,5,absent,1.05425190925598,0,horizontal,vertical,1,0.964699816299697,red,5,NaN,548.13947314824,639.890788585259,NaN,NaN,760.109211414741,851.86052685176,1027.20666366803,715.767577433584,980.31222920257,419.68777079743,684.232422566416,372.793336331966,548.13947314824,639.890788585259,0,0,5,5,0,3,4,NaN,horizontal,horizontal,vertical,horizontal,horizontal,none
1b,9,100194,2,53,117,19,M,NA,constant,heterogeneous,4,present,0.925829172134399,1,vertical,vertical,1,0.917641775486833,red,1,2,664.870587620533,816.252264519889,1016.25226451989,735.129412379467,664.870587620533,816.252264519889,1016.25226451989,735.129412379467,935.129412379467,383.747735480111,583.747735480111,464.870587620533,0,0,0,0,4,5,6,3,NaN,NaN,vertical,vertical,vertical,vertical,none,none
1b,9,100194,2,54,118,19,M,NA,constant,heterogeneous,4,absent,1.71033096313477,1,horizontal,horizontal,1,0.694116081625728,red,2,NaN,983.431649086356,422.862115532956,NaN,NaN,977.137884467044,783.431649086356,983.431649086356,422.862115532956,622.862115532956,416.568350913644,616.568350913644,777.137884467044,0,0,0,0,5,4,0,3,NaN,NaN,horizontal,horizontal,vertical,horizontal,none,none
1b,9,100194,2,55,119,19,M,NA,constant,heterogeneous,3,absent,1.64163589477539,1,horizontal,horizontal,1,1.04705138772221,red,3,NaN,672.5,379.163522034968,NaN,NaN,672.5,820.836477965032,1055,600,672.5,379.163522034968,0,0,0,0,0,0,5,3,4,NaN,NaN,NaN,horizontal,horizontal,horizontal,none,none,none
1b,9,100194,2,56,120,19,M,NA,constant,heterogeneous,6,present,1.51515507698059,1,vertical,vertical,1,1.02352236731578,red,2,4,1046.31108570371,665.998856501143,734.001143498857,353.688914296288,865.998856501143,846.311085703712,1046.31108570371,665.998856501143,980.31222920257,419.68777079743,734.001143498857,353.688914296288,553.688914296288,534.001143498857,619.68777079743,780.31222920257,5,4,3,5,0,6,vertical,vertical,horizontal,horizontal,horizontal,horizontal
1b,9,100194,2,57,121,19,M,NA,constant,heterogeneous,5,present,0.767413139343262,1,vertical,vertical,1,1.09410942853507,red,4,3,751.343706178981,349.685068220846,1023.02802532055,476.373546837184,692.232343256122,831.108485694346,986.495193912888,773.909581815937,1023.02802532055,476.373546837184,751.343706178981,349.685068220846,546.900731331463,568.923317431687,0,0,5,6,3,4,0,NaN,vertical,horizontal,horizontal,vertical,vertical,none
1b,9,100194,2,58,122,19,M,NA,constant,heterogeneous,3,present,0.6768798828125,1,vertical,vertical,1,0.882348244877185,red,3,1,650.114760665419,393.700666434388,696.282156015671,832.954091698863,696.282156015671,832.954091698863,1053.60308331891,573.345241866748,650.114760665419,393.700666434388,0,0,0,0,0,0,5,3,4,NaN,NaN,NaN,vertical,vertical,vertical,none,none,none
1b,9,100194,2,59,123,19,M,NA,constant,heterogeneous,4,present,1.16283082962036,1,horizontal,horizontal,1,0.623529020406432,red,2,3,1055,600,800,345,800,855,1055,600,800,345,545,600,0,0,0,0,3,4,5,5,NaN,NaN,vertical,horizontal,horizontal,horizontal,none,none
1b,9,100194,2,60,124,19,M,NA,constant,heterogeneous,3,absent,1.35017585754395,1,horizontal,horizontal,1,0.999993346909345,red,1,NaN,835.489140744817,852.518357529101,NaN,NaN,835.489140744817,852.518357529101,1000.94274216971,443.006323791957,563.568117085469,504.475318678942,0,0,0,0,0,0,4,0,6,NaN,NaN,NaN,horizontal,vertical,horizontal,none,none,none
1b,9,100194,2,61,125,19,M,NA,constant,heterogeneous,5,absent,1.37421488761902,1,vertical,vertical,1,0.847054714267537,red,3,NaN,895.524681321058,363.568117085469,NaN,NaN,861.690083377915,847.425410200379,1054.37883281626,617.787900804752,895.524681321058,363.568117085469,604.658667004661,436.089159529932,583.747735480111,735.129412379467,0,0,5,6,4,3,6,NaN,horizontal,vertical,vertical,vertical,horizontal,none
1b,9,100194,2,62,126,19,M,NA,constant,heterogeneous,3,present,1.08152794837952,1,vertical,vertical,1,1.01175785711256,red,2,1,865.998856501143,353.688914296288,980.31222920257,780.31222920257,980.31222920257,780.31222920257,865.998856501143,353.688914296288,553.688914296288,665.998856501143,0,0,0,0,0,0,6,4,6,NaN,NaN,NaN,horizontal,vertical,horizontal,none,none,none
1b,9,100194,2,63,127,19,M,NA,constant,heterogeneous,6,present,0.876794099807739,1,horizontal,horizontal,1,0.847054714267537,red,2,3,1025.15163617903,719.715248510402,1016.25226451989,464.870587620533,808.899371659138,854.844660889869,1025.15163617903,719.715248510402,1016.25226451989,464.870587620533,791.100628340862,345.155339110131,574.848363820974,480.284751489598,583.747735480111,735.129412379467,6,4,5,0,3,3,vertical,horizontal,vertical,horizontal,vertical,vertical
1b,9,100194,2,64,128,19,M,NA,constant,heterogeneous,6,present,0.848526000976562,1,vertical,vertical,1,0.705880591828944,red,2,4,1039.62161830041,687.215136548046,755.719714694933,348.874022981887,844.280285305067,851.125977018113,1039.62161830041,687.215136548046,995.341332995339,436.089159529932,755.719714694933,348.874022981887,560.378381699593,512.784863451954,604.658667004661,763.910840470068,0,4,6,6,3,5,horizontal,vertical,horizontal,horizontal,horizontal,horizontal
1b,9,100194,3,1,129,19,M,NA,constant,heterogeneous,3,absent,0.767340898513794,1,horizontal,horizontal,1,1.04705138772221,red,2,NaN,1031.10848569435,707.767656743878,NaN,NaN,591.116228706307,746.261991269517,1031.10848569435,707.767656743878,777.775285599347,345.970351986605,0,0,0,0,0,0,6,4,5,NaN,NaN,NaN,horizontal,horizontal,vertical,none,none,none
1b,9,100194,3,2,130,19,M,NA,constant,heterogeneous,5,present,1.1631338596344,1,vertical,vertical,1,0.811761183657889,red,2,5,1043.85771277057,525.445215295702,646.537169096228,803.65205506206,946.261991269517,808.883771293693,1043.85771277057,525.445215295702,804.450363641507,345.03883773512,558.892763222174,516.980120613425,646.537169096228,803.65205506206,0,0,0,4,5,6,3,NaN,vertical,vertical,vertical,vertical,horizontal,none
1b,9,100194,3,3,131,19,M,NA,constant,heterogeneous,3,present,0.632217884063721,1,horizontal,horizontal,1,0.694116081625728,red,1,2,734.001143498857,846.311085703712,1046.31108570371,534.001143498857,734.001143498857,846.311085703712,1046.31108570371,534.001143498857,619.68777079743,419.68777079743,0,0,0,0,0,0,4,0,6,NaN,NaN,NaN,horizontal,vertical,vertical,none,none,none
1b,9,100194,3,4,132,19,M,NA,constant,heterogeneous,4,present,0.676236152648926,1,vertical,vertical,1,0.776467653048241,red,3,2,795.549636358493,345.03883773512,1054.96116226488,595.549636358493,804.450363641507,854.96116226488,1054.96116226488,595.549636358493,795.549636358493,345.03883773512,545.03883773512,604.450363641507,0,0,0,0,6,5,4,6,NaN,NaN,vertical,vertical,vertical,horizontal,none,none
1b,9,100194,3,5,133,19,M,NA,constant,heterogeneous,6,present,0.666079044342041,1,vertical,vertical,1,0.999993346909345,red,4,3,813.345668841951,345.349468637584,1027.20666366803,484.232422566416,786.654331158049,854.650531362416,1013.86099482608,738.882953928832,1027.20666366803,484.232422566416,813.345668841951,345.349468637584,586.139005173917,461.117046071168,572.793336331966,715.767577433584,3,0,3,4,6,0,horizontal,horizontal,vertical,vertical,horizontal,vertical
1b,9,100194,3,6,134,19,M,NA,constant,heterogeneous,3,present,0.86537504196167,1,vertical,vertical,1,1.08234491833186,red,1,2,973.909581815937,786.495193912888,874.554784704298,356.142287229426,973.909581815937,786.495193912888,874.554784704298,356.142287229426,551.535633479765,657.362518857686,0,0,0,0,0,0,4,6,3,NaN,NaN,NaN,vertical,horizontal,vertical,none,none,none
1b,9,100194,3,7,135,19,M,NA,constant,heterogeneous,4,absent,1.10245585441589,1,horizontal,horizontal,1,0.988228836706129,red,4,NaN,576.971974679454,723.626453162816,NaN,NaN,923.626453162816,823.028025320546,1023.02802532055,476.373546837184,676.373546837184,376.971974679454,576.971974679454,723.626453162816,0,0,0,0,0,3,5,4,NaN,NaN,vertical,vertical,horizontal,horizontal,none,none
1b,9,100194,3,8,136,19,M,NA,constant,heterogeneous,6,absent,1.49074101448059,0,horizontal,vertical,1,0.905877265283617,red,1,NaN,874.554784704298,843.857712770574,NaN,NaN,874.554784704298,843.857712770574,1048.46436652023,657.362518857686,973.909581815937,413.504806087112,725.445215295702,356.142287229426,551.535633479765,542.637481142314,626.090418184063,786.495193912888,4,6,5,0,6,0,horizontal,horizontal,horizontal,horizontal,vertical,vertical
1b,9,100194,3,9,137,19,M,NA,constant,heterogeneous,5,absent,1.53618788719177,0,vertical,horizontal,1,0.964699816299697,red,4,NaN,567.045908301137,496.282156015671,NaN,NaN,927.5,820.836477965032,1049.42763818712,546.982518841471,826.654758133252,346.39691668109,567.045908301137,496.282156015671,629.371695378491,789.501930496736,0,0,5,6,6,4,0,NaN,horizontal,horizontal,horizontal,vertical,horizontal,none
1b,9,100194,3,10,138,19,M,NA,constant,heterogeneous,5,absent,1.2127571105957,1,horizontal,horizontal,1,1.09410942853507,red,2,NaN,989.501930496736,770.628304621509,NaN,NaN,696.282156015671,832.954091698863,989.501930496736,770.628304621509,1020.83647796503,472.5,746.982518841471,350.57236181288,546.39691668109,573.345241866748,0,0,3,4,0,3,6,NaN,vertical,horizontal,vertical,horizontal,vertical,none
1b,9,100194,3,11,139,19,M,NA,constant,heterogeneous,6,present,0.942179918289185,1,vertical,vertical,1,0.647058040812864,red,3,2,1051.86052685176,560.109211414741,960.476699717708,798.172220171528,708.616172865948,838.063008756786,960.476699717708,798.172220171528,1051.86052685176,560.109211414741,891.383827134052,361.936991243214,639.523300282292,401.827779828472,548.13947314824,639.890788585259,3,3,4,5,6,0,horizontal,horizontal,vertical,vertical,vertical,horizontal
1b,9,100194,3,12,140,19,M,NA,constant,heterogeneous,6,absent,1.18987488746643,1,vertical,vertical,1,0.623529020406432,red,1,NaN,764.510859255183,852.518357529101,NaN,NaN,764.510859255183,852.518357529101,1000.94274216971,756.993676208043,1036.43188291453,504.475318678942,835.489140744817,347.4816424709,599.057257830286,443.006323791957,563.568117085469,695.524681321058,4,5,0,6,0,6,vertical,horizontal,vertical,horizontal,horizontal,vertical
1b,9,100194,3,13,141,19,M,NA,constant,heterogeneous,6,present,0.901859998703003,1,vertical,vertical,1,0.6,red,3,6,1049.42763818712,546.982518841471,550.57236181288,653.017481158529,721.200666434388,842.519411655264,970.628304621509,789.501930496736,1049.42763818712,546.982518841471,878.799333565612,357.480588344736,629.371695378491,410.498069503264,550.57236181288,653.017481158529,3,6,4,5,0,0,horizontal,vertical,vertical,vertical,vertical,horizontal
1b,9,100194,3,14,142,19,M,NA,constant,heterogeneous,3,absent,0.975754022598267,1,horizontal,horizontal,1,0.788232163251457,red,2,NaN,1054.37883281626,617.787900804752,NaN,NaN,657.405809614959,811.404581001536,1054.37883281626,617.787900804752,688.215357568785,370.807518193712,0,0,0,0,0,0,3,4,5,NaN,NaN,NaN,horizontal,horizontal,vertical,none,none,none
1b,9,100194,3,15,143,19,M,NA,constant,heterogeneous,5,absent,0.831017017364502,1,vertical,vertical,1,0.988228836706129,red,3,NaN,986.495193912888,426.090418184063,NaN,NaN,751.343706178981,850.314931779154,1023.02802532055,723.626453162816,986.495193912888,426.090418184063,692.232343256122,368.891514305654,546.900731331463,631.076682568313,0,0,5,6,4,6,5,NaN,vertical,horizontal,vertical,horizontal,vertical,none
1b,9,100194,3,16,144,19,M,NA,constant,heterogeneous,4,absent,1.87845420837402,1,vertical,vertical,1,0.917641775486833,red,2,NaN,1053.09926866854,568.923317431687,NaN,NaN,831.076682568313,853.099268668537,1053.09926866854,568.923317431687,768.923317431687,346.900731331463,546.900731331463,631.076682568313,0,0,0,0,6,4,3,5,NaN,NaN,vertical,vertical,horizontal,horizontal,none,none
1b,9,100194,3,17,145,19,M,NA,constant,heterogeneous,6,absent,1.03589510917664,1,vertical,vertical,1,0.799996673454673,red,5,NaN,643.006323791957,399.057257830286,NaN,NaN,704.475318678942,836.431882914531,956.993676208043,800.942742169714,1052.5183575291,564.510859255183,895.524681321058,363.568117085469,643.006323791957,399.057257830286,547.481642470899,635.489140744817,0,3,6,0,4,5,horizontal,vertical,horizontal,vertical,vertical,horizontal
1b,9,100194,3,18,146,19,M,NA,constant,heterogeneous,6,present,1.26678085327148,1,horizontal,horizontal,1,0.682351571422512,red,3,5,1055,600,672.5,379.163522034968,672.5,820.836477965032,927.5,820.836477965032,1055,600,927.5,379.163522034968,672.5,379.163522034968,545,600,3,6,4,0,5,0,horizontal,vertical,horizontal,horizontal,horizontal,vertical
1b,9,100194,3,19,147,19,M,NA,constant,heterogeneous,5,present,1.25091910362244,0,horizontal,vertical,1,0.929406285690049,red,5,2,567.045908301137,703.717843984329,1049.42763818712,653.017481158529,826.654758133252,853.60308331891,1049.42763818712,653.017481158529,927.5,379.163522034968,629.371695378491,410.498069503264,567.045908301137,703.717843984329,0,0,3,6,0,6,4,NaN,vertical,horizontal,vertical,horizontal,horizontal,none
1b,9,100194,3,20,148,19,M,NA,constant,heterogeneous,6,absent,1.28811383247375,1,horizontal,horizontal,1,0.999993346909345,red,4,NaN,874.554784704298,356.142287229426,NaN,NaN,725.445215295702,843.857712770574,973.909581815937,786.495193912888,1048.46436652023,542.637481142314,874.554784704298,356.142287229426,626.090418184063,413.504806087112,551.535633479765,657.362518857686,3,6,0,4,5,6,vertical,horizontal,horizontal,horizontal,horizontal,vertical
1b,9,100194,3,21,149,19,M,NA,constant,heterogeneous,3,absent,1.19403100013733,1,horizontal,horizontal,1,1.02352236731578,red,3,NaN,680.284751489598,374.848363820974,NaN,NaN,664.870587620533,816.252264519889,1054.84466088987,608.899371659138,680.284751489598,374.848363820974,0,0,0,0,0,0,3,3,4,NaN,NaN,NaN,horizontal,horizontal,horizontal,none,none,none
1b,9,100194,3,22,150,19,M,NA,constant,heterogeneous,5,present,0.818899154663086,1,horizontal,horizontal,1,0.623529020406432,red,2,3,998.172220171528,760.476699717708,1013.86099482608,461.117046071168,708.616172865948,838.063008756786,998.172220171528,760.476699717708,1013.86099482608,461.117046071168,734.001143498857,353.688914296288,545.349468637584,586.654331158049,0,0,6,4,5,6,0,NaN,vertical,horizontal,vertical,vertical,vertical,none
1b,9,100194,3,23,151,19,M,NA,constant,heterogeneous,4,present,0.915726900100708,1,horizontal,horizontal,1,0.623529020406432,red,4,2,548.13947314824,560.109211414741,1051.86052685176,639.890788585259,760.109211414741,851.86052685176,1051.86052685176,639.890788585259,839.890788585259,348.13947314824,548.13947314824,560.109211414741,0,0,0,0,3,6,6,4,NaN,NaN,vertical,vertical,vertical,horizontal,none,none
1b,9,100194,3,24,152,19,M,NA,constant,heterogeneous,4,absent,0.984639883041382,0,vertical,horizontal,1,0.917641775486833,red,3,NaN,704.475318678942,363.568117085469,NaN,NaN,895.524681321058,836.431882914531,1036.43188291453,504.475318678942,704.475318678942,363.568117085469,563.568117085469,695.524681321058,0,0,0,0,6,6,4,0,NaN,NaN,horizontal,horizontal,vertical,horizontal,none,none
1b,9,100194,3,25,153,19,M,NA,constant,heterogeneous,3,present,0.845160961151123,1,vertical,vertical,1,0.647058040812864,red,3,1,591.116228706307,453.738008730483,777.775285599347,854.029648013395,777.775285599347,854.029648013395,1031.10848569435,492.232343256122,591.116228706307,453.738008730483,0,0,0,0,0,0,3,3,4,NaN,NaN,NaN,vertical,horizontal,vertical,none,none,none
1b,9,100194,3,26,154,19,M,NA,constant,heterogeneous,5,present,0.569507122039795,0,horizontal,vertical,1,0.764703142845024,red,5,2,629.371695378491,789.501930496736,1049.42763818712,546.982518841471,927.5,820.836477965032,1049.42763818712,546.982518841471,826.654758133252,346.39691668109,567.045908301137,496.282156015671,629.371695378491,789.501930496736,0,0,3,5,6,5,4,NaN,vertical,vertical,horizontal,vertical,horizontal,none
1b,9,100194,3,27,155,19,M,NA,constant,heterogeneous,4,present,0.790795087814331,1,vertical,vertical,1,0.882348244877185,red,3,1,927.5,379.163522034968,672.5,820.836477965032,672.5,820.836477965032,1020.83647796503,727.5,927.5,379.163522034968,579.163522034968,472.5,0,0,0,0,3,5,4,0,NaN,NaN,horizontal,horizontal,vertical,vertical,none,none
1b,9,100194,3,28,156,19,M,NA,constant,heterogeneous,6,present,0.701847076416016,1,horizontal,horizontal,1,0.752938632641808,red,4,5,782.212099195248,345.621167183745,570.807518193712,488.215357568785,817.787900804752,854.378832816255,1029.19248180629,711.784642431215,1011.40458100154,457.40580961496,782.212099195248,345.621167183745,570.807518193712,488.215357568785,588.595418998464,742.594190385041,3,3,5,4,6,0,horizontal,horizontal,horizontal,horizontal,vertical,vertical
1b,9,100194,3,29,157,19,M,NA,constant,heterogeneous,5,present,1.16290593147278,1,vertical,vertical,1,0.752938632641808,red,1,2,791.100628340862,854.844660889869,1039.62161830041,687.215136548046,791.100628340862,854.844660889869,1039.62161830041,687.215136548046,956.993676208043,399.057257830286,657.405809614959,388.595418998464,554.878267535729,670.287525733335,0,0,4,3,5,6,5,NaN,vertical,horizontal,horizontal,vertical,vertical,none
1b,9,100194,3,30,158,19,M,NA,constant,heterogeneous,4,present,1.21347284317017,1,vertical,vertical,1,0.752938632641808,red,2,1,1053.60308331891,626.654758133252,773.345241866748,853.60308331891,773.345241866748,853.60308331891,1053.60308331891,626.654758133252,826.654758133252,346.39691668109,546.39691668109,573.345241866748,0,0,0,0,3,4,0,3,NaN,NaN,vertical,vertical,vertical,vertical,none,none
1b,9,100194,3,31,159,19,M,NA,constant,heterogeneous,3,present,0.709514141082764,1,horizontal,horizontal,1,0.776467653048241,red,3,2,548.13947314824,639.890788585259,891.383827134052,361.936991243214,960.476699717708,798.172220171528,891.383827134052,361.936991243214,548.13947314824,639.890788585259,0,0,0,0,0,0,0,6,4,NaN,NaN,NaN,vertical,vertical,horizontal,none,none,none
1b,9,100194,3,32,160,19,M,NA,constant,heterogeneous,6,absent,1.09823083877563,1,vertical,vertical,1,0.917641775486833,red,1,NaN,911.784642431215,829.192481806288,NaN,NaN,911.784642431215,829.192481806288,1054.37883281626,617.787900804752,942.594190385041,388.595418998464,688.215357568785,370.807518193712,545.621167183745,582.212099195248,657.405809614959,811.404581001536,4,0,3,6,3,5,vertical,horizontal,vertical,horizontal,vertical,vertical
1b,9,100194,3,33,161,19,M,NA,constant,heterogeneous,5,present,0.980175971984863,1,vertical,vertical,1,0.988228836706129,red,3,5,1027.20666366803,484.232422566416,548.13947314824,560.109211414741,684.232422566416,827.206663668034,980.31222920257,780.31222920257,1027.20666366803,484.232422566416,760.109211414741,348.13947314824,548.13947314824,560.109211414741,0,0,0,5,4,0,6,NaN,vertical,vertical,vertical,vertical,vertical,none
1b,9,100194,3,34,162,19,M,NA,constant,heterogeneous,4,present,0.730720043182373,1,horizontal,horizontal,1,0.941170795893265,red,3,1,887.215136548046,360.378381699593,712.784863451954,839.621618300407,712.784863451954,839.621618300407,1039.62161830041,687.215136548046,887.215136548046,360.378381699593,560.378381699593,512.784863451954,0,0,0,0,3,6,4,0,NaN,NaN,vertical,vertical,horizontal,horizontal,none,none
1b,9,100194,3,35,163,19,M,NA,constant,heterogeneous,3,absent,0.984802961349487,1,vertical,vertical,1,0.764703142845024,red,1,NaN,989.501930496736,770.628304621509,NaN,NaN,989.501930496736,770.628304621509,853.017481158529,350.57236181288,557.480588344736,678.799333565612,0,0,0,0,0,0,4,0,3,NaN,NaN,NaN,vertical,vertical,horizontal,none,none,none
1b,9,100194,3,36,164,19,M,NA,constant,heterogeneous,4,present,0.875638008117676,1,horizontal,horizontal,1,0.752938632641808,red,3,2,725.445215295702,356.142287229426,1043.85771277057,525.445215295702,874.554784704298,843.857712770574,1043.85771277057,525.445215295702,725.445215295702,356.142287229426,556.142287229426,674.554784704298,0,0,0,0,3,3,4,0,NaN,NaN,horizontal,horizontal,horizontal,vertical,none,none
1b,9,100194,3,37,165,19,M,NA,constant,heterogeneous,5,absent,1.2457230091095,1,horizontal,horizontal,1,0.811761183657889,red,3,NaN,826.654758133252,346.39691668109,NaN,NaN,927.5,820.836477965032,1049.42763818712,546.982518841471,826.654758133252,346.39691668109,567.045908301137,496.282156015671,629.371695378491,789.501930496736,0,0,5,3,4,0,5,NaN,vertical,horizontal,horizontal,horizontal,vertical,none
1b,9,100194,3,38,166,19,M,NA,constant,heterogeneous,6,absent,1.59146904945374,1,horizontal,horizontal,1,0.835290204064321,red,6,NaN,563.568117085469,695.524681321058,NaN,NaN,764.510859255183,852.518357529101,1000.94274216971,756.993676208043,1036.43188291453,504.475318678942,835.489140744817,347.4816424709,599.057257830286,443.006323791957,563.568117085469,695.524681321058,5,5,3,0,0,4,vertical,vertical,horizontal,horizontal,vertical,horizontal
1b,9,100194,3,39,167,19,M,NA,constant,heterogeneous,3,absent,0.707574844360352,1,horizontal,horizontal,1,1.01175785711256,red,3,NaN,738.309916622085,352.574589799621,NaN,NaN,616.568350913644,777.137884467044,1045.12173246427,670.287525733335,738.309916622085,352.574589799621,0,0,0,0,0,0,6,0,4,NaN,NaN,NaN,vertical,horizontal,horizontal,none,none,none
1b,9,100194,3,40,168,19,M,NA,constant,heterogeneous,6,absent,1.62794589996338,1,vertical,vertical,1,0.682351571422512,red,1,NaN,899.636437764765,834.728737630372,NaN,NaN,899.636437764765,834.728737630372,1053.09926866854,631.076682568313,953.462830903772,396.34794493794,700.363562235235,365.271262369628,546.900731331463,568.923317431687,646.537169096228,803.65205506206,4,5,6,5,0,3,vertical,vertical,horizontal,vertical,vertical,horizontal
1b,9,100194,3,41,169,19,M,NA,constant,heterogeneous,4,absent,1.09279799461365,1,horizontal,horizontal,1,0.611764510203216,red,2,NaN,1043.85771277057,674.554784704298,NaN,NaN,725.445215295702,843.857712770574,1043.85771277057,674.554784704298,874.554784704298,356.142287229426,556.142287229426,525.445215295702,0,0,0,0,0,4,5,0,NaN,NaN,horizontal,horizontal,vertical,horizontal,none,none
1b,9,100194,3,42,170,19,M,NA,constant,heterogeneous,4,absent,1.22625184059143,1,vertical,vertical,1,0.952935306096481,red,3,NaN,643.006323791957,399.057257830286,NaN,NaN,956.993676208043,800.942742169714,1000.94274216971,443.006323791957,643.006323791957,399.057257830286,599.057257830286,756.993676208043,0,0,0,0,5,0,4,0,NaN,NaN,horizontal,vertical,vertical,vertical,none,none
1b,9,100194,3,43,171,19,M,NA,constant,heterogeneous,6,present,1.03851199150085,1,horizontal,horizontal,1,0.776467653048241,red,2,1,1042.51941165526,678.799333565612,853.017481158529,849.42763818712,853.017481158529,849.42763818712,1042.51941165526,678.799333565612,989.501930496736,429.371695378491,746.982518841471,350.57236181288,557.480588344736,521.200666434388,610.498069503264,770.628304621509,5,4,6,6,5,0,vertical,horizontal,horizontal,vertical,horizontal,vertical
1b,9,100194,3,44,172,19,M,NA,constant,heterogeneous,3,absent,0.836997032165527,1,vertical,vertical,1,0.682351571422512,red,1,NaN,591.116228706307,746.261991269517,NaN,NaN,591.116228706307,746.261991269517,1031.10848569435,707.767656743878,777.775285599347,345.970351986605,0,0,0,0,0,0,4,5,6,NaN,NaN,NaN,vertical,horizontal,horizontal,none,none,none
1b,9,100194,3,45,173,19,M,NA,constant,heterogeneous,3,present,0.938988924026489,1,vertical,vertical,1,0.858819224470753,red,2,3,998.172220171528,439.523300282291,561.936991243214,508.616172865948,839.890788585259,851.86052685176,998.172220171528,439.523300282291,561.936991243214,508.616172865948,0,0,0,0,0,0,0,4,3,NaN,NaN,NaN,horizontal,vertical,horizontal,none,none,none
1b,9,100194,3,46,174,19,M,NA,constant,heterogeneous,5,present,1.79665398597717,1,horizontal,horizontal,1,0.929406285690049,red,4,5,664.870587620533,383.747735480111,552.574589799621,661.690083377915,782.212099195248,854.378832816255,1036.43188291453,695.524681321058,963.910840470068,404.658667004661,664.870587620533,383.747735480111,552.574589799621,661.690083377915,0,0,3,3,5,4,6,NaN,horizontal,vertical,vertical,horizontal,vertical,none
1b,9,100194,3,47,175,19,M,NA,constant,heterogeneous,4,present,1.17296814918518,1,horizontal,horizontal,1,0.623529020406432,red,1,3,755.719714694933,851.125977018113,844.280285305067,348.874022981887,755.719714694933,851.125977018113,1051.12597701811,644.280285305067,844.280285305067,348.874022981887,548.874022981887,555.719714694933,0,0,0,0,4,5,5,3,NaN,NaN,horizontal,horizontal,horizontal,vertical,none,none
1b,9,100194,3,48,176,19,M,NA,constant,heterogeneous,5,absent,0.914118051528931,1,vertical,vertical,1,0.882348244877185,red,5,NaN,553.688914296288,665.998856501143,NaN,NaN,786.654331158049,854.650531362416,1038.06300875679,691.383827134052,960.476699717708,401.827779828472,661.117046071168,386.139005173917,553.688914296288,665.998856501143,0,0,5,3,5,6,4,NaN,vertical,horizontal,horizontal,vertical,vertical,none
1b,9,100194,3,49,177,19,M,NA,constant,heterogeneous,3,absent,0.720020055770874,1,vertical,vertical,1,0.764703142845024,red,3,NaN,725.445215295702,356.142287229426,NaN,NaN,626.090418184063,786.495193912888,1048.46436652023,657.362518857686,725.445215295702,356.142287229426,0,0,0,0,0,0,3,0,4,NaN,NaN,NaN,vertical,vertical,vertical,none,none,none
1b,9,100194,3,50,178,19,M,NA,constant,heterogeneous,3,present,0.820297002792358,1,horizontal,horizontal,1,1.08234491833186,red,1,2,721.200666434388,842.519411655264,1049.42763818712,546.982518841471,721.200666434388,842.519411655264,1049.42763818712,546.982518841471,629.371695378491,410.498069503264,0,0,0,0,0,0,4,0,3,NaN,NaN,NaN,horizontal,horizontal,vertical,none,none,none
1b,9,100194,3,51,179,19,M,NA,constant,heterogeneous,6,present,0.762663125991821,1,horizontal,horizontal,1,0.905877265283617,red,2,3,935.129412379467,816.252264519889,1054.84466088987,591.100628340862,680.284751489598,825.151636179026,935.129412379467,816.252264519889,1054.84466088987,591.100628340862,919.715248510402,374.848363820974,664.870587620533,383.747735480111,545.155339110131,608.899371659138,6,4,0,0,3,3,horizontal,horizontal,vertical,vertical,horizontal,vertical
1b,9,100194,3,52,180,19,M,NA,constant,heterogeneous,5,present,1.17094707489014,1,vertical,vertical,1,1.03528687751899,red,4,1,725.445215295702,356.142287229426,716.980120613425,841.107236777826,716.980120613425,841.107236777826,1003.65205506206,753.462830903772,1008.88377129369,453.738008730483,725.445215295702,356.142287229426,545.03883773512,595.549636358493,0,0,5,3,3,4,6,NaN,horizontal,horizontal,horizontal,vertical,horizontal,none
1b,9,100194,3,53,181,19,M,NA,constant,heterogeneous,3,absent,0.631181001663208,1,vertical,vertical,1,1.03528687751899,red,1,NaN,622.862115532956,783.431649086356,NaN,NaN,622.862115532956,783.431649086356,1047.42541020038,661.690083377915,729.712474266665,354.878267535729,0,0,0,0,0,0,4,3,5,NaN,NaN,NaN,vertical,vertical,vertical,none,none,none
1b,9,100194,3,54,182,19,M,NA,constant,heterogeneous,6,absent,0.814727067947388,1,horizontal,horizontal,1,0.741174122438592,red,3,NaN,1025.15163617903,480.284751489598,NaN,NaN,791.100628340862,854.844660889869,1016.25226451989,735.129412379467,1025.15163617903,480.284751489598,808.899371659138,345.155339110131,583.747735480111,464.870587620533,574.848363820974,719.715248510402,5,0,4,6,3,6,vertical,vertical,horizontal,vertical,horizontal,vertical
1b,9,100194,3,55,183,19,M,NA,constant,heterogeneous,4,absent,0.765937089920044,0,horizontal,vertical,1,0.729409612235376,red,3,NaN,738.309916622085,352.574589799621,NaN,NaN,861.690083377915,847.425410200379,1047.42541020038,538.309916622085,738.309916622085,352.574589799621,552.574589799621,661.690083377915,0,0,0,0,6,5,4,5,NaN,NaN,vertical,horizontal,horizontal,vertical,none,none
1b,9,100194,3,56,184,19,M,NA,constant,heterogeneous,6,present,1.23282194137573,1,vertical,vertical,1,0.964699816299697,red,1,6,915.767577433584,827.206663668034,661.117046071168,813.860994826083,915.767577433584,827.206663668034,1054.65053136242,613.345668841951,938.882953928832,386.139005173917,684.232422566416,372.793336331966,545.349468637584,586.654331158049,661.117046071168,813.860994826083,4,0,0,6,3,3,vertical,vertical,horizontal,vertical,horizontal,horizontal
1b,9,100194,3,57,185,19,M,NA,constant,heterogeneous,3,present,0.700027942657471,1,vertical,vertical,1,0.729409612235376,red,3,2,560.378381699593,687.215136548046,844.280285305067,348.874022981887,995.341332995339,763.910840470068,844.280285305067,348.874022981887,560.378381699593,687.215136548046,0,0,0,0,0,0,5,5,4,NaN,NaN,NaN,vertical,horizontal,vertical,none,none,none
1b,9,100194,3,58,186,19,M,NA,constant,heterogeneous,3,present,0.725121021270752,1,horizontal,horizontal,1,0.941170795893265,red,1,3,942.594190385041,811.404581001536,545.621167183745,617.787900804752,942.594190385041,811.404581001536,911.784642431215,370.807518193712,545.621167183745,617.787900804752,0,0,0,0,0,0,4,0,3,NaN,NaN,NaN,horizontal,horizontal,vertical,none,none,none
1b,9,100194,3,59,187,19,M,NA,constant,heterogeneous,5,absent,0.743217945098877,1,vertical,vertical,1,0.988228836706129,red,2,NaN,1051.86052685176,639.890788585259,NaN,NaN,839.890788585259,851.86052685176,1051.86052685176,639.890788585259,915.767577433584,372.793336331966,619.68777079743,419.68777079743,572.793336331966,715.767577433584,0,0,5,4,0,6,6,NaN,vertical,vertical,horizontal,vertical,horizontal,none
1b,9,100194,3,60,188,19,M,NA,constant,heterogeneous,4,absent,1.17625999450684,1,horizontal,horizontal,1,0.894112755080401,red,2,NaN,983.431649086356,777.137884467044,NaN,NaN,622.862115532956,783.431649086356,983.431649086356,777.137884467044,977.137884467044,416.568350913644,616.568350913644,422.862115532956,0,0,0,0,0,4,5,3,NaN,NaN,vertical,horizontal,vertical,horizontal,none,none
1b,9,100194,3,61,189,19,M,NA,constant,heterogeneous,4,present,0.904353141784668,1,vertical,vertical,1,0.611764510203216,red,4,1,613.504806087112,773.909581815937,973.909581815937,786.495193912888,973.909581815937,786.495193912888,986.495193912888,426.090418184063,626.090418184063,413.504806087112,613.504806087112,773.909581815937,0,0,0,0,0,5,3,4,NaN,NaN,horizontal,vertical,vertical,vertical,none,none
1b,9,100194,3,62,190,19,M,NA,constant,heterogeneous,4,absent,0.748148918151855,1,vertical,vertical,1,0.682351571422512,red,1,NaN,700.363562235235,834.728737630372,NaN,NaN,700.363562235235,834.728737630372,1034.72873763037,699.636437764765,899.636437764765,365.271262369628,565.271262369628,500.363562235235,0,0,0,0,4,6,3,0,NaN,NaN,vertical,horizontal,vertical,vertical,none,none
1b,9,100194,3,63,191,19,M,NA,constant,heterogeneous,5,absent,1.65905904769897,1,horizontal,horizontal,1,0.6,red,4,NaN,777.775285599347,345.970351986605,NaN,NaN,668.665290897936,818.577661679039,967.295052392579,792.450942956807,1034.72873763037,500.363562235235,777.775285599347,345.970351986605,551.535633479765,542.637481142314,0,0,6,0,5,4,3,NaN,vertical,vertical,horizontal,horizontal,horizontal,none
1b,9,100194,3,64,192,19,M,NA,constant,heterogeneous,5,absent,0.876612186431885,1,horizontal,horizontal,1,0.6,red,1,NaN,734.001143498857,846.311085703712,NaN,NaN,734.001143498857,846.311085703712,1013.86099482608,738.882953928832,998.172220171528,439.523300282291,708.616172865948,361.936991243214,545.349468637584,613.345668841951,0,0,4,6,5,0,5,NaN,horizontal,horizontal,vertical,vertical,horizontal,none
1b,9,100194,4,1,193,19,M,NA,constant,heterogeneous,5,present,0.736570119857788,1,horizontal,horizontal,1,0.65882255101608,red,3,1,1029.19248180629,488.215357568785,680.284751489598,825.151636179026,680.284751489598,825.151636179026,977.137884467044,783.431649086356,1029.19248180629,488.215357568785,764.510859255183,347.4816424709,548.874022981887,555.719714694933,0,0,3,5,4,0,6,NaN,horizontal,vertical,horizontal,horizontal,horizontal,none
1b,9,100194,4,2,194,19,M,NA,constant,heterogeneous,5,present,1.18223690986633,1,horizontal,horizontal,1,0.941170795893265,red,4,3,596.34794493794,446.537169096228,883.019879386575,358.892763222174,874.554784704298,843.857712770574,1054.96116226488,604.450363641507,883.019879386575,358.892763222174,596.34794493794,446.537169096228,591.116228706307,746.261991269517,0,0,0,3,3,4,0,NaN,vertical,horizontal,horizontal,horizontal,vertical,none
1b,9,100194,4,3,195,19,M,NA,constant,heterogeneous,5,present,0.632865190505981,1,vertical,vertical,1,0.929406285690049,red,4,5,646.537169096228,396.34794493794,558.892763222174,683.019879386575,804.450363641507,854.96116226488,1043.85771277057,674.554784704298,946.261991269517,391.116228706307,646.537169096228,396.34794493794,558.892763222174,683.019879386575,0,0,0,6,3,4,0,NaN,horizontal,vertical,vertical,vertical,horizontal,none
1b,9,100194,4,4,196,19,M,NA,constant,heterogeneous,6,absent,1.31263399124146,1,horizontal,horizontal,1,0.764703142845024,red,1,NaN,817.787900804752,854.378832816255,NaN,NaN,817.787900804752,854.378832816255,1029.19248180629,711.784642431215,1011.40458100154,457.40580961496,782.212099195248,345.621167183745,570.807518193712,488.215357568785,588.595418998464,742.594190385041,4,0,5,3,5,0,horizontal,horizontal,horizontal,horizontal,horizontal,horizontal
1b,9,100194,4,5,197,19,M,NA,constant,heterogeneous,4,present,0.612504959106445,1,vertical,vertical,1,1.07058040812864,red,2,3,1031.10848569435,492.232343256122,692.232343256122,368.891514305654,907.767656743878,831.108485694346,1031.10848569435,492.232343256122,692.232343256122,368.891514305654,568.891514305654,707.767656743878,0,0,0,0,6,4,3,5,NaN,NaN,horizontal,vertical,vertical,horizontal,none,none
1b,9,100194,4,6,198,19,M,NA,constant,heterogeneous,4,present,0.713424205780029,1,horizontal,horizontal,1,0.811761183657889,red,4,2,548.874022981887,555.719714694933,1051.12597701811,644.280285305067,755.719714694933,851.125977018113,1051.12597701811,644.280285305067,844.280285305067,348.874022981887,548.874022981887,555.719714694933,0,0,0,0,3,3,0,4,NaN,NaN,horizontal,vertical,horizontal,horizontal,none,none
1b,9,100194,4,7,199,19,M,NA,constant,heterogeneous,4,present,0.58373498916626,1,horizontal,horizontal,1,0.811761183657889,red,4,1,546.900731331463,631.076682568313,831.076682568313,853.099268668537,831.076682568313,853.099268668537,1053.09926866854,568.923317431687,768.923317431687,346.900731331463,546.900731331463,631.076682568313,0,0,0,0,6,6,0,4,NaN,NaN,horizontal,vertical,horizontal,horizontal,none,none
1b,9,100194,4,8,200,19,M,NA,constant,heterogeneous,6,present,0.706629037857056,0,horizontal,vertical,1,0.752938632641808,red,5,2,664.870587620533,383.747735480111,935.129412379467,816.252264519889,680.284751489598,825.151636179026,935.129412379467,816.252264519889,1054.84466088987,591.100628340862,919.715248510402,374.848363820974,664.870587620533,383.747735480111,545.155339110131,608.899371659138,5,3,6,0,4,3,vertical,vertical,horizontal,horizontal,horizontal,vertical
1b,9,100194,4,9,201,19,M,NA,constant,heterogeneous,4,present,0.553669929504395,1,vertical,vertical,1,0.635293530609648,red,2,1,1003.65205506206,446.537169096228,953.462830903772,803.65205506206,953.462830903772,803.65205506206,1003.65205506206,446.537169096228,646.537169096228,396.34794493794,596.34794493794,753.462830903772,0,0,0,0,3,4,5,0,NaN,NaN,horizontal,vertical,horizontal,vertical,none,none
1b,9,100194,4,10,202,19,M,NA,constant,heterogeneous,6,absent,0.913412809371948,1,vertical,vertical,1,0.811761183657889,red,1,NaN,822.224714400653,854.029648013395,NaN,NaN,822.224714400653,854.029648013395,1031.10848569435,707.767656743878,1008.88377129369,453.738008730483,777.775285599347,345.970351986605,568.891514305654,492.232343256122,591.116228706307,746.261991269517,4,5,6,3,3,6,vertical,horizontal,horizontal,horizontal,horizontal,horizontal
1b,9,100194,4,11,203,19,M,NA,constant,heterogeneous,6,absent,1.61445808410645,1,horizontal,horizontal,1,0.941170795893265,red,5,NaN,572.793336331966,484.232422566416,NaN,NaN,813.345668841951,854.650531362416,1027.20666366803,715.767577433584,1013.86099482608,461.117046071168,786.654331158049,345.349468637584,572.793336331966,484.232422566416,586.139005173917,738.882953928832,5,6,5,0,4,0,horizontal,horizontal,vertical,horizontal,horizontal,vertical
1b,9,100194,4,12,204,19,M,NA,constant,heterogeneous,5,absent,1.8009729385376,0,vertical,horizontal,1,0.894112755080401,red,2,NaN,963.910840470068,795.341332995339,NaN,NaN,664.870587620533,816.252264519889,963.910840470068,795.341332995339,1036.43188291453,504.475318678942,782.212099195248,345.621167183745,552.574589799621,538.309916622085,0,0,3,4,6,0,0,NaN,horizontal,vertical,horizontal,vertical,horizontal,none
1b,9,100194,4,13,205,19,M,NA,constant,heterogeneous,5,absent,0.769236087799072,1,vertical,vertical,1,1.01175785711256,red,3,NaN,956.993676208043,399.057257830286,NaN,NaN,791.100628340862,854.844660889869,1039.62161830041,687.215136548046,956.993676208043,399.057257830286,657.405809614959,388.595418998464,554.878267535729,670.287525733335,0,0,0,3,4,6,6,NaN,horizontal,horizontal,vertical,horizontal,vertical,none
1b,9,100194,4,14,206,19,M,NA,constant,heterogeneous,5,present,0.760535955429077,1,vertical,vertical,1,0.976464326502913,red,4,3,646.537169096228,396.34794493794,946.261991269517,391.116228706307,804.450363641507,854.96116226488,1043.85771277057,674.554784704298,946.261991269517,391.116228706307,646.537169096228,396.34794493794,558.892763222174,683.019879386575,0,0,6,3,0,4,3,NaN,vertical,vertical,vertical,vertical,vertical,none
1b,9,100194,4,15,207,19,M,NA,constant,heterogeneous,3,absent,0.592586994171143,1,vertical,vertical,1,0.635293530609648,red,2,NaN,839.890788585259,348.13947314824,NaN,NaN,998.172220171528,760.476699717708,839.890788585259,348.13947314824,561.936991243214,691.383827134052,0,0,0,0,0,0,0,4,3,NaN,NaN,NaN,horizontal,vertical,vertical,none,none,none
1b,9,100194,4,16,208,19,M,NA,constant,heterogeneous,3,absent,1.03299713134766,1,horizontal,horizontal,1,1.02352236731578,red,2,NaN,883.019879386575,358.892763222174,NaN,NaN,967.295052392579,792.450942956807,883.019879386575,358.892763222174,549.685068220846,648.656293821019,0,0,0,0,0,0,3,4,3,NaN,NaN,NaN,horizontal,horizontal,vertical,none,none,none
1b,9,100194,4,17,209,19,M,NA,constant,heterogeneous,3,absent,0.745964050292969,1,vertical,vertical,1,0.611764510203216,red,1,NaN,870.287525733335,845.121732464271,NaN,NaN,870.287525733335,845.121732464271,977.137884467044,416.568350913644,552.574589799621,538.309916622085,0,0,0,0,0,0,4,5,6,NaN,NaN,NaN,vertical,vertical,vertical,none,none,none
1b,9,100194,4,18,210,19,M,NA,constant,heterogeneous,4,present,0.813958883285522,0,vertical,horizontal,1,0.635293530609648,red,4,2,545.03883773512,595.549636358493,1054.96116226488,604.450363641507,795.549636358493,854.96116226488,1054.96116226488,604.450363641507,804.450363641507,345.03883773512,545.03883773512,595.549636358493,0,0,0,0,0,3,5,4,NaN,NaN,horizontal,vertical,horizontal,vertical,none,none
1b,9,100194,4,19,211,19,M,NA,constant,heterogeneous,4,absent,0.720583915710449,1,vertical,vertical,1,0.917641775486833,red,2,NaN,1039.62161830041,687.215136548046,NaN,NaN,712.784863451954,839.621618300407,1039.62161830041,687.215136548046,887.215136548046,360.378381699593,560.378381699593,512.784863451954,0,0,0,0,0,4,0,5,NaN,NaN,vertical,vertical,vertical,vertical,none,none
1b,9,100194,4,20,212,19,M,NA,constant,heterogeneous,3,absent,1.11830186843872,1,horizontal,horizontal,1,0.952935306096481,red,2,NaN,1023.02802532055,476.373546837184,NaN,NaN,795.549636358493,854.96116226488,1023.02802532055,476.373546837184,581.422338320961,468.665290897936,0,0,0,0,0,0,3,4,6,NaN,NaN,NaN,vertical,horizontal,horizontal,none,none,none
1b,9,100194,4,21,213,19,M,NA,constant,heterogeneous,3,present,0.727720975875854,1,vertical,vertical,1,0.941170795893265,red,1,2,927.5,820.836477965032,927.5,379.163522034968,927.5,820.836477965032,927.5,379.163522034968,545,600,0,0,0,0,0,0,4,6,6,NaN,NaN,NaN,vertical,horizontal,horizontal,none,none,none
1b,9,100194,4,22,214,19,M,NA,constant,heterogeneous,5,absent,0.898983001708984,1,horizontal,horizontal,1,0.835290204064321,red,5,NaN,551.535633479765,542.637481142314,NaN,NaN,668.665290897936,818.577661679039,967.295052392579,792.450942956807,1034.72873763037,500.363562235235,777.775285599347,345.970351986605,551.535633479765,542.637481142314,0,0,3,6,5,0,4,NaN,horizontal,vertical,vertical,horizontal,horizontal,none
1b,9,100194,4,23,215,19,M,NA,constant,heterogeneous,6,absent,1.98249197006226,0,vertical,horizontal,1,0.65882255101608,red,1,NaN,777.775285599347,854.029648013395,NaN,NaN,777.775285599347,854.029648013395,1008.88377129369,746.261991269517,1031.10848569435,492.232343256122,822.224714400653,345.970351986605,591.116228706307,453.738008730483,568.891514305654,707.767656743878,4,6,5,3,5,6,vertical,vertical,vertical,horizontal,vertical,horizontal
1b,9,100194,4,24,216,19,M,NA,constant,heterogeneous,4,present,0.607392072677612,1,vertical,vertical,1,0.858819224470753,red,2,1,1036.43188291453,695.524681321058,704.475318678942,836.431882914531,704.475318678942,836.431882914531,1036.43188291453,695.524681321058,895.524681321058,363.568117085469,563.568117085469,504.475318678942,0,0,0,0,0,4,0,5,NaN,NaN,horizontal,vertical,horizontal,horizontal,none,none
1b,9,100194,4,25,217,19,M,NA,constant,heterogeneous,6,absent,1.13563919067383,1,vertical,vertical,1,0.788232163251457,red,1,NaN,672.5,820.836477965032,NaN,NaN,672.5,820.836477965032,927.5,820.836477965032,1055,600,927.5,379.163522034968,672.5,379.163522034968,545,600,4,3,3,0,0,6,vertical,vertical,horizontal,horizontal,vertical,vertical
1b,9,100194,4,26,218,19,M,NA,constant,heterogeneous,4,absent,0.676080942153931,1,horizontal,horizontal,1,1.09410942853507,red,2,NaN,1048.46436652023,657.362518857686,NaN,NaN,742.637481142314,848.464366520235,1048.46436652023,657.362518857686,857.362518857686,351.535633479765,551.535633479765,542.637481142314,0,0,0,0,6,4,0,5,NaN,NaN,horizontal,horizontal,vertical,horizontal,none,none
1b,9,100194,4,27,219,19,M,NA,constant,heterogeneous,3,absent,0.891323089599609,1,horizontal,horizontal,1,0.670587061219296,red,3,NaN,604.658667004661,436.089159529932,NaN,NaN,755.719714694933,851.125977018113,1039.62161830041,512.784863451954,604.658667004661,436.089159529932,0,0,0,0,0,0,0,6,4,NaN,NaN,NaN,vertical,vertical,horizontal,none,none,none
1b,9,100194,4,28,220,19,M,NA,constant,heterogeneous,5,present,0.738295078277588,1,vertical,vertical,1,0.858819224470753,red,5,4,643.006323791957,800.942742169714,560.378381699593,512.784863451954,942.594190385041,811.404581001536,1045.12173246427,529.712474266665,808.899371659138,345.155339110131,560.378381699593,512.784863451954,643.006323791957,800.942742169714,0,0,5,5,3,0,4,NaN,vertical,horizontal,horizontal,vertical,vertical,none
1b,9,100194,4,29,221,19,M,NA,constant,heterogeneous,6,present,0.767119884490967,1,horizontal,horizontal,1,0.894112755080401,red,4,6,672.5,379.163522034968,672.5,820.836477965032,927.5,820.836477965032,1055,600,927.5,379.163522034968,672.5,379.163522034968,545,600,672.5,820.836477965032,3,0,3,4,0,5,horizontal,vertical,horizontal,horizontal,horizontal,horizontal
1b,9,100194,4,30,222,19,M,NA,constant,heterogeneous,3,present,0.689888000488281,1,horizontal,horizontal,1,0.764703142845024,red,2,1,1047.42541020038,538.309916622085,729.712474266665,845.121732464271,729.712474266665,845.121732464271,1047.42541020038,538.309916622085,622.862115532956,416.568350913644,0,0,0,0,0,0,0,4,5,NaN,NaN,NaN,vertical,horizontal,horizontal,none,none,none
1b,9,100194,4,31,223,19,M,NA,constant,heterogeneous,3,present,0.553506135940552,0,vertical,horizontal,1,0.682351571422512,red,2,1,1051.12597701811,644.280285305067,636.089159529932,795.341332995339,636.089159529932,795.341332995339,1051.12597701811,644.280285305067,712.784863451954,360.378381699593,0,0,0,0,0,0,5,4,0,NaN,NaN,NaN,vertical,vertical,horizontal,none,none,none
1b,9,100194,4,32,224,19,M,NA,constant,heterogeneous,4,present,0.959718942642212,1,horizontal,horizontal,1,0.941170795893265,red,2,1,992.450942956807,767.295052392579,632.704947607421,792.450942956807,632.704947607421,792.450942956807,992.450942956807,767.295052392579,967.295052392579,407.549057043193,607.549057043193,432.704947607421,0,0,0,0,6,4,0,5,NaN,NaN,horizontal,horizontal,horizontal,vertical,none,none
1b,9,100194,4,33,225,19,M,NA,constant,heterogeneous,3,absent,1.23740983009338,1,vertical,vertical,1,0.71764510203216,red,1,NaN,764.510859255183,852.518357529101,NaN,NaN,764.510859255183,852.518357529101,1036.43188291453,504.475318678942,599.057257830286,443.006323791957,0,0,0,0,0,0,4,3,5,NaN,NaN,NaN,vertical,horizontal,vertical,none,none,none
1b,9,100194,4,34,226,19,M,NA,constant,heterogeneous,6,present,1.2021369934082,1,horizontal,horizontal,1,0.988228836706129,red,3,4,931.334709102064,381.422338320961,676.373546837184,376.971974679454,923.626453162816,823.028025320546,1054.96116226488,604.450363641507,931.334709102064,381.422338320961,676.373546837184,376.971974679454,545.03883773512,595.549636358493,668.665290897936,818.577661679039,3,3,4,5,6,0,vertical,horizontal,horizontal,vertical,vertical,vertical
1b,9,100194,4,35,227,19,M,NA,constant,heterogeneous,6,absent,1.79979181289673,0,horizontal,vertical,1,0.670587061219296,red,3,NaN,1023.02802532055,476.373546837184,NaN,NaN,795.549636358493,854.96116226488,1018.57766167904,731.334709102064,1023.02802532055,476.373546837184,804.450363641507,345.03883773512,581.422338320961,468.665290897936,576.971974679454,723.626453162816,0,5,4,5,3,3,horizontal,horizontal,horizontal,vertical,horizontal,vertical
1b,9,100194,4,36,228,19,M,NA,constant,heterogeneous,3,present,0.856339931488037,1,vertical,vertical,1,0.611764510203216,red,3,1,545.349468637584,586.654331158049,915.767577433584,827.206663668034,915.767577433584,827.206663668034,938.882953928832,386.139005173917,545.349468637584,586.654331158049,0,0,0,0,0,0,0,0,4,NaN,NaN,NaN,vertical,horizontal,vertical,none,none,none
1b,9,100194,4,37,229,19,M,NA,constant,heterogeneous,3,present,0.502486944198608,1,vertical,vertical,1,0.847054714267537,red,3,1,545.03883773512,604.450363641507,931.334709102064,818.577661679039,931.334709102064,818.577661679039,923.626453162816,376.971974679454,545.03883773512,604.450363641507,0,0,0,0,0,0,6,5,4,NaN,NaN,NaN,vertical,vertical,vertical,none,none,none
1b,9,100194,4,38,230,19,M,NA,constant,heterogeneous,5,absent,0.779140949249268,1,horizontal,horizontal,1,0.929406285690049,red,4,NaN,579.163522034968,472.5,NaN,NaN,903.717843984329,832.954091698863,1053.60308331891,573.345241866748,853.017481158529,350.57236181288,579.163522034968,472.5,610.498069503264,770.628304621509,0,0,5,3,0,4,0,NaN,horizontal,vertical,horizontal,horizontal,horizontal,none
1b,9,100194,4,39,231,19,M,NA,constant,heterogeneous,6,present,0.66017484664917,1,vertical,vertical,1,0.858819224470753,red,5,4,607.549057043193,432.704947607421,848.656293821019,349.685068220846,751.343706178981,850.314931779154,992.450942956807,767.295052392579,1041.10723677783,516.980120613425,848.656293821019,349.685068220846,607.549057043193,432.704947607421,558.892763222174,683.019879386575,0,5,3,6,4,6,vertical,vertical,vertical,horizontal,vertical,horizontal
1b,9,100194,4,40,232,19,M,NA,constant,heterogeneous,5,absent,0.598156929016113,1,horizontal,horizontal,1,0.823525693861105,red,4,NaN,629.371695378491,410.498069503264,NaN,NaN,826.654758133252,853.60308331891,1049.42763818712,653.017481158529,927.5,379.163522034968,629.371695378491,410.498069503264,567.045908301137,703.717843984329,0,0,6,5,3,4,3,NaN,horizontal,horizontal,horizontal,horizontal,horizontal,none
1b,9,100194,4,41,233,19,M,NA,constant,heterogeneous,6,present,1.22446513175964,1,vertical,vertical,1,0.917641775486833,red,4,2,895.524681321058,363.568117085469,956.993676208043,800.942742169714,704.475318678942,836.431882914531,956.993676208043,800.942742169714,1052.5183575291,564.510859255183,895.524681321058,363.568117085469,643.006323791957,399.057257830286,547.481642470899,635.489140744817,6,0,6,4,0,3,horizontal,vertical,horizontal,vertical,vertical,horizontal
1b,9,100194,4,42,234,19,M,NA,constant,heterogeneous,4,absent,1.0559229850769,1,vertical,vertical,1,0.741174122438592,red,3,NaN,903.717843984329,367.045908301137,NaN,NaN,696.282156015671,832.954091698863,1032.95409169886,703.717843984329,903.717843984329,367.045908301137,567.045908301137,496.282156015671,0,0,0,0,6,3,4,5,NaN,NaN,vertical,vertical,vertical,horizontal,none,none
1b,9,100194,4,43,235,19,M,NA,constant,heterogeneous,3,present,1.02356696128845,1,horizontal,horizontal,1,0.917641775486833,red,3,2,551.535633479765,657.362518857686,874.554784704298,356.142287229426,973.909581815937,786.495193912888,874.554784704298,356.142287229426,551.535633479765,657.362518857686,0,0,0,0,0,0,3,5,4,NaN,NaN,NaN,vertical,horizontal,horizontal,none,none,none
1b,9,100194,4,44,236,19,M,NA,constant,heterogeneous,3,present,0.581405878067017,1,horizontal,horizontal,1,0.647058040812864,red,1,3,588.595418998464,742.594190385041,782.212099195248,345.621167183745,588.595418998464,742.594190385041,1029.19248180629,711.784642431215,782.212099195248,345.621167183745,0,0,0,0,0,0,4,0,6,NaN,NaN,NaN,horizontal,horizontal,vertical,none,none,none
1b,9,100194,4,45,237,19,M,NA,constant,heterogeneous,4,absent,0.981765985488892,1,vertical,vertical,1,0.635293530609648,red,4,NaN,545.349468637584,613.345668841951,NaN,NaN,813.345668841951,854.650531362416,1054.65053136242,586.654331158049,786.654331158049,345.349468637584,545.349468637584,613.345668841951,0,0,0,0,5,0,3,4,NaN,NaN,vertical,vertical,horizontal,vertical,none,none
1b,9,100194,4,46,238,19,M,NA,constant,heterogeneous,3,present,0.687227010726929,1,horizontal,horizontal,1,1.08234491833186,red,2,3,946.261991269517,391.116228706307,545.970351986605,577.775285599347,907.767656743878,831.108485694346,946.261991269517,391.116228706307,545.970351986605,577.775285599347,0,0,0,0,0,0,3,4,3,NaN,NaN,NaN,vertical,horizontal,horizontal,none,none,none
1b,9,100194,4,47,239,19,M,NA,constant,heterogeneous,3,absent,1.09715795516968,0,vertical,horizontal,1,0.6,red,1,NaN,931.334709102064,818.577661679039,NaN,NaN,931.334709102064,818.577661679039,923.626453162816,376.971974679454,545.03883773512,604.450363641507,0,0,0,0,0,0,4,6,5,NaN,NaN,NaN,vertical,horizontal,horizontal,none,none,none
1b,9,100194,4,48,240,19,M,NA,constant,heterogeneous,5,present,0.748805999755859,1,vertical,vertical,1,0.882348244877185,red,3,5,1013.86099482608,461.117046071168,545.349468637584,586.654331158049,708.616172865948,838.063008756786,998.172220171528,760.476699717708,1013.86099482608,461.117046071168,734.001143498857,353.688914296288,545.349468637584,586.654331158049,0,0,6,3,4,6,0,NaN,horizontal,horizontal,vertical,horizontal,horizontal,none
1b,9,100194,4,49,241,19,M,NA,constant,heterogeneous,4,absent,1.46609711647034,1,horizontal,horizontal,1,0.705880591828944,red,1,NaN,903.717843984329,832.954091698863,NaN,NaN,903.717843984329,832.954091698863,1032.95409169886,496.282156015671,696.282156015671,367.045908301137,567.045908301137,703.717843984329,0,0,0,0,4,5,3,5,NaN,NaN,horizontal,horizontal,vertical,horizontal,none,none
1b,9,100194,4,50,242,19,M,NA,constant,heterogeneous,6,absent,1.49673414230347,1,vertical,vertical,1,1.05881589792543,red,3,NaN,1038.06300875679,508.616172865948,NaN,NaN,760.109211414741,851.86052685176,998.172220171528,760.476699717708,1038.06300875679,508.616172865948,839.890788585259,348.13947314824,601.827779828472,439.523300282291,561.936991243214,691.383827134052,0,5,4,0,5,3,horizontal,horizontal,vertical,vertical,vertical,vertical
1b,9,100194,4,51,243,19,M,NA,constant,heterogeneous,6,present,NaN,0,horizontal,none,0,0.858819224470753,red,4,2,927.5,379.163522034968,927.5,820.836477965032,672.5,820.836477965032,927.5,820.836477965032,1055,600,927.5,379.163522034968,672.5,379.163522034968,545,600,0,6,5,4,3,3,vertical,horizontal,horizontal,horizontal,horizontal,vertical
1b,9,100194,4,52,244,19,M,NA,constant,heterogeneous,4,absent,0.777732133865356,1,vertical,vertical,1,0.670587061219296,red,3,NaN,980.31222920257,419.68777079743,NaN,NaN,619.68777079743,780.31222920257,980.31222920257,780.31222920257,980.31222920257,419.68777079743,619.68777079743,419.68777079743,0,0,0,0,5,6,4,0,NaN,NaN,horizontal,horizontal,vertical,horizontal,none,none
1b,9,100194,4,53,245,19,M,NA,constant,heterogeneous,4,absent,0.650715112686157,1,horizontal,horizontal,1,0.858819224470753,red,3,NaN,831.076682568313,346.900731331463,NaN,NaN,768.923317431687,853.099268668537,1053.09926866854,631.076682568313,831.076682568313,346.900731331463,546.900731331463,568.923317431687,0,0,0,0,0,5,4,3,NaN,NaN,horizontal,vertical,horizontal,vertical,none,none
1b,9,100194,4,54,246,19,M,NA,constant,heterogeneous,5,present,1.17694115638733,1,horizontal,horizontal,1,0.647058040812864,red,5,1,646.537169096228,803.65205506206,946.261991269517,808.883771293693,946.261991269517,808.883771293693,1043.85771277057,525.445215295702,804.450363641507,345.03883773512,558.892763222174,516.980120613425,646.537169096228,803.65205506206,0,0,6,0,5,0,4,NaN,vertical,vertical,vertical,vertical,horizontal,none
