"","Subject","Group","Block","ColorTMS.Block.","Confidence.RESP.Block.","correctResponseButton","correctRT.Block.","GrayTMS.Block.","leftStimulus.Block.","Number.Block.","NumberResponse.Block.","PracticeList","PracticeList.Cycle","PracticeList.Sample","Reaction.RT.Block.","Response.RESP.Block.","ResponseAccuracy.Block.","responseHand","rightStimulus.Block.","Running.Block.","StimulusColor.Block.","TMS","Trial","Hemisphere","Procedure.Trial.","Running.Trial.","SubTrial","CenterColorList","CenterColorList.Cycle","CenterColorList.Sample","LeftColorList","LeftColorList.Cycle","LeftColorList.Sample","Procedure.SubTrial.","RightColorList","RightColorList.Cycle","RightColorList.Sample","Running.SubTrial.","StimulusColor.SubTrial.","VariOhje","VariOhje2","LogLevel5","CenterTrialList","CenterTrialList.Cycle","CenterTrialList.Sample","ColorTMS.LogLevel5.","Confidence.RESP.LogLevel5.","correctRT.LogLevel5.","GrayTMS.LogLevel5.","leftStimulus.LogLevel5.","LeftTrialList","LeftTrialList.Cycle","LeftTrialList.Sample","Number.LogLevel5.","NumberResponse.LogLevel5.","Procedure.LogLevel5.","Reaction.RT.LogLevel5.","Response.RESP.LogLevel5.","ResponseAccuracy.LogLevel5.","rightStimulus.LogLevel5.","RightTrialList","RightTrialList.Cycle","RightTrialList.Sample","Running.LogLevel5.","virhe","expTrial","virhe.edellinen"
"42","1",1,41,NA,NA,5,NA,NA,NA,NA,NA,NA,NA,NA,NA,NA,NA,"VASENTA",NA,"ResponseHandList","",1,1,"Left","LeftHemiProc","HemiList",1,NA,NA,NA,2,1,1,"LeftColorProc",NA,NA,NA,"LeftColorList","Blue","SINISEN","sini",2,NA,NA,NA,1,4,362,0,1,3,1,2,"2",1,"LeftTrialProc",345,1,0,1,NA,NA,NA,"LeftTrialList",0,1,0
"45","1",1,41,NA,NA,5,NA,NA,NA,NA,NA,NA,NA,NA,NA,NA,NA,"VASENTA",NA,"ResponseHandList","",1,1,"Left","LeftHemiProc","HemiList",1,NA,NA,NA,2,1,1,"LeftColorProc",NA,NA,NA,"LeftColorList","Blue","SINISEN","sini",5,NA,NA,NA,1,4,345,0,1,3,1,5,"2",1,"LeftTrialProc",328,1,0,1,NA,NA,NA,"LeftTrialList",0,1,0
"47","1",1,41,NA,NA,5,NA,NA,NA,NA,NA,NA,NA,NA,NA,NA,NA,"VASENTA",NA,"ResponseHandList","",1,1,"Left","LeftHemiProc","HemiList",1,NA,NA,NA,2,1,1,"LeftColorProc",NA,NA,NA,"LeftColorList","Blue","SINISEN","sini",7,NA,NA,NA,0,4,308,1,1,1,1,7,"1",1,"LeftTrialProc",292,1,1,0,NA,NA,NA,"LeftTrialList",0,1,0
"48","1",1,41,NA,NA,5,NA,NA,NA,NA,NA,NA,NA,NA,NA,NA,NA,"VASENTA",NA,"ResponseHandList","",1,1,"Left","LeftHemiProc","HemiList",1,NA,NA,NA,2,1,1,"LeftColorProc",NA,NA,NA,"LeftColorList","Blue","SINISEN","sini",8,NA,NA,NA,1,4,360,0,1,3,1,8,"2",1,"LeftTrialProc",343,1,0,1,NA,NA,NA,"LeftTrialList",0,1,0
"49","1",1,41,NA,NA,5,NA,NA,NA,NA,NA,NA,NA,NA,NA,NA,NA,"VASENTA",NA,"ResponseHandList","",1,1,"Left","LeftHemiProc","HemiList",1,NA,NA,NA,2,1,1,"LeftColorProc",NA,NA,NA,"LeftColorList","Blue","SINISEN","sini",9,NA,NA,NA,1,4,374,0,1,3,1,9,"2",1,"LeftTrialProc",357,1,0,1,NA,NA,NA,"LeftTrialList",0,1,0
"51","1",1,41,NA,NA,5,NA,NA,NA,NA,NA,NA,NA,NA,NA,NA,NA,"VASENTA",NA,"ResponseHandList","",1,1,"Left","LeftHemiProc","HemiList",1,NA,NA,NA,2,1,1,"LeftColorProc",NA,NA,NA,"LeftColorList","Blue","SINISEN","sini",11,NA,NA,NA,1,4,291,0,1,3,1,11,"2",1,"LeftTrialProc",274,1,0,1,NA,NA,NA,"LeftTrialList",0,1,0
"52","1",1,41,NA,NA,5,NA,NA,NA,NA,NA,NA,NA,NA,NA,NA,NA,"VASENTA",NA,"ResponseHandList","",1,1,"Left","LeftHemiProc","HemiList",1,NA,NA,NA,2,1,1,"LeftColorProc",NA,NA,NA,"LeftColorList","Blue","SINISEN","sini",12,NA,NA,NA,0,4,326,1,1,1,1,12,"1",1,"LeftTrialProc",309,1,1,0,NA,NA,NA,"LeftTrialList",0,1,0
"55","1",1,41,NA,NA,5,NA,NA,NA,NA,NA,NA,NA,NA,NA,NA,NA,"VASENTA",NA,"ResponseHandList","",1,1,"Left","LeftHemiProc","HemiList",1,NA,NA,NA,2,1,1,"LeftColorProc",NA,NA,NA,"LeftColorList","Blue","SINISEN","sini",15,NA,NA,NA,0,4,334,1,1,1,1,15,"1",1,"LeftTrialProc",317,1,1,0,NA,NA,NA,"LeftTrialList",0,1,0
"56","1",1,41,NA,NA,5,NA,NA,NA,NA,NA,NA,NA,NA,NA,NA,NA,"VASENTA",NA,"ResponseHandList","",1,1,"Left","LeftHemiProc","HemiList",1,NA,NA,NA,2,1,1,"LeftColorProc",NA,NA,NA,"LeftColorList","Blue","SINISEN","sini",16,NA,NA,NA,1,4,306,0,1,3,1,16,"2",1,"LeftTrialProc",289,1,0,1,NA,NA,NA,"LeftTrialList",0,1,0
"58","1",1,41,NA,NA,5,NA,NA,NA,NA,NA,NA,NA,NA,NA,NA,NA,"VASENTA",NA,"ResponseHandList","",1,1,"Left","LeftHemiProc","HemiList",1,NA,NA,NA,2,1,1,"LeftColorProc",NA,NA,NA,"LeftColorList","Blue","SINISEN","sini",18,NA,NA,NA,1,4,333,0,1,3,1,18,"2",1,"LeftTrialProc",316,1,0,1,NA,NA,NA,"LeftTrialList",0,1,0
"60","1",1,41,NA,NA,5,NA,NA,NA,NA,NA,NA,NA,NA,NA,NA,NA,"VASENTA",NA,"ResponseHandList","",1,1,"Left","LeftHemiProc","HemiList",1,NA,NA,NA,2,1,1,"LeftColorProc",NA,NA,NA,"LeftColorList","Blue","SINISEN","sini",20,NA,NA,NA,0,4,324,1,1,1,1,20,"1",1,"LeftTrialProc",308,1,1,0,NA,NA,NA,"LeftTrialList",0,1,0
"64","1",1,41,NA,NA,5,NA,NA,NA,NA,NA,NA,NA,NA,NA,NA,NA,"VASENTA",NA,"ResponseHandList","",1,1,"Left","LeftHemiProc","HemiList",1,NA,NA,NA,2,1,1,"LeftColorProc",NA,NA,NA,"LeftColorList","Blue","SINISEN","sini",24,NA,NA,NA,1,4,289,0,1,3,1,24,"2",1,"LeftTrialProc",273,1,0,1,NA,NA,NA,"LeftTrialList",0,1,0
"67","1",1,41,NA,NA,5,NA,NA,NA,NA,NA,NA,NA,NA,NA,NA,NA,"VASENTA",NA,"ResponseHandList","",1,1,"Left","LeftHemiProc","HemiList",1,NA,NA,NA,2,1,1,"LeftColorProc",NA,NA,NA,"LeftColorList","Blue","SINISEN","sini",27,NA,NA,NA,0,4,308,1,1,1,1,27,"1",1,"LeftTrialProc",291,1,1,0,NA,NA,NA,"LeftTrialList",0,1,0
"68","1",1,41,NA,NA,5,NA,NA,NA,NA,NA,NA,NA,NA,NA,NA,NA,"VASENTA",NA,"ResponseHandList","",1,1,"Left","LeftHemiProc","HemiList",1,NA,NA,NA,2,1,1,"LeftColorProc",NA,NA,NA,"LeftColorList","Blue","SINISEN","sini",28,NA,NA,NA,0,4,297,1,1,1,1,28,"1",1,"LeftTrialProc",280,1,1,0,NA,NA,NA,"LeftTrialList",0,1,0
"70","1",1,41,NA,NA,5,NA,NA,NA,NA,NA,NA,NA,NA,NA,NA,NA,"VASENTA",NA,"ResponseHandList","",1,1,"Left","LeftHemiProc","HemiList",1,NA,NA,NA,2,1,1,"LeftColorProc",NA,NA,NA,"LeftColorList","Blue","SINISEN","sini",30,NA,NA,NA,0,4,274,1,1,1,1,30,"1",1,"LeftTrialProc",257,1,1,0,NA,NA,NA,"LeftTrialList",0,1,0
"71","1",1,41,NA,NA,5,NA,NA,NA,NA,NA,NA,NA,NA,NA,NA,NA,"VASENTA",NA,"ResponseHandList","",1,1,"Left","LeftHemiProc","HemiList",1,NA,NA,NA,2,1,1,"LeftColorProc",NA,NA,NA,"LeftColorList","Blue","SINISEN","sini",31,NA,NA,NA,0,4,315,1,1,1,1,31,"1",1,"LeftTrialProc",298,1,1,0,NA,NA,NA,"LeftTrialList",0,1,0
"72","1",1,41,NA,NA,5,NA,NA,NA,NA,NA,NA,NA,NA,NA,NA,NA,"VASENTA",NA,"ResponseHandList","",1,1,"Left","LeftHemiProc","HemiList",1,NA,NA,NA,2,1,1,"LeftColorProc",NA,NA,NA,"LeftColorList","Blue","SINISEN","sini",32,NA,NA,NA,0,4,328,1,1,1,1,32,"1",1,"LeftTrialProc",311,1,1,0,NA,NA,NA,"LeftTrialList",0,1,0
"78","1",1,41,NA,NA,5,NA,NA,NA,NA,NA,NA,NA,NA,NA,NA,NA,"VASENTA",NA,"ResponseHandList","",1,1,"Left","LeftHemiProc","HemiList",1,NA,NA,NA,2,1,1,"LeftColorProc",NA,NA,NA,"LeftColorList","Blue","SINISEN","sini",38,NA,NA,NA,0,4,300,1,1,1,1,38,"1",1,"LeftTrialProc",283,1,1,0,NA,NA,NA,"LeftTrialList",0,1,0
"80","1",1,41,NA,NA,5,NA,NA,NA,NA,NA,NA,NA,NA,NA,NA,NA,"VASENTA",NA,"ResponseHandList","",1,1,"Left","LeftHemiProc","HemiList",1,NA,NA,NA,2,1,1,"LeftColorProc",NA,NA,NA,"LeftColorList","Blue","SINISEN","sini",40,NA,NA,NA,0,4,341,1,1,1,1,40,"1",1,"LeftTrialProc",324,1,1,0,NA,NA,NA,"LeftTrialList",0,1,0
"82","1",1,41,NA,NA,5,NA,NA,NA,NA,NA,NA,NA,NA,NA,NA,NA,"VASENTA",NA,"ResponseHandList","",1,1,"Left","LeftHemiProc","HemiList",1,NA,NA,NA,2,1,1,"LeftColorProc",NA,NA,NA,"LeftColorList","Blue","SINISEN","sini",42,NA,NA,NA,0,4,325,1,1,1,1,42,"1",1,"LeftTrialProc",308,1,1,0,NA,NA,NA,"LeftTrialList",0,1,0
"85","1",1,41,NA,NA,5,NA,NA,NA,NA,NA,NA,NA,NA,NA,NA,NA,"VASENTA",NA,"ResponseHandList","",1,1,"Left","LeftHemiProc","HemiList",1,NA,NA,NA,2,1,1,"LeftColorProc",NA,NA,NA,"LeftColorList","Blue","SINISEN","sini",45,NA,NA,NA,0,4,378,1,1,1,1,45,"1",1,"LeftTrialProc",361,1,1,0,NA,NA,NA,"LeftTrialList",0,1,0
"89","1",1,41,NA,NA,5,NA,NA,NA,NA,NA,NA,NA,NA,NA,NA,NA,"VASENTA",NA,"ResponseHandList","",1,1,"Left","LeftHemiProc","HemiList",1,NA,NA,NA,2,1,1,"LeftColorProc",NA,NA,NA,"LeftColorList","Blue","SINISEN","sini",49,NA,NA,NA,0,4,343,1,1,1,1,49,"1",1,"LeftTrialProc",326,1,1,0,NA,NA,NA,"LeftTrialList",0,1,0
"94","1",1,41,NA,NA,5,NA,NA,NA,NA,NA,NA,NA,NA,NA,NA,NA,"VASENTA",NA,"ResponseHandList","",1,1,"Left","LeftHemiProc","HemiList",1,NA,NA,NA,2,1,1,"LeftColorProc",NA,NA,NA,"LeftColorList","Blue","SINISEN","sini",54,NA,NA,NA,1,4,386,0,1,3,1,54,"2",1,"LeftTrialProc",369,1,0,1,NA,NA,NA,"LeftTrialList",0,1,0
"98","1",1,41,NA,NA,5,NA,NA,NA,NA,NA,NA,NA,NA,NA,NA,NA,"VASENTA",NA,"ResponseHandList","",1,1,"Left","LeftHemiProc","HemiList",1,NA,NA,NA,2,1,1,"LeftColorProc",NA,NA,NA,"LeftColorList","Blue","SINISEN","sini",58,NA,NA,NA,1,4,338,0,1,3,1,58,"2",1,"LeftTrialProc",321,1,0,1,NA,NA,NA,"LeftTrialList",0,1,0
"99","1",1,41,NA,NA,5,NA,NA,NA,NA,NA,NA,NA,NA,NA,NA,NA,"VASENTA",NA,"ResponseHandList","",1,1,"Left","LeftHemiProc","HemiList",1,NA,NA,NA,2,1,1,"LeftColorProc",NA,NA,NA,"LeftColorList","Blue","SINISEN","sini",59,NA,NA,NA,1,4,431,0,1,3,1,59,"2",1,"LeftTrialProc",414,1,0,1,NA,NA,NA,"LeftTrialList",0,1,0
"101","1",1,41,NA,NA,5,NA,NA,NA,NA,NA,NA,NA,NA,NA,NA,NA,"VASENTA",NA,"ResponseHandList","",1,1,"Left","LeftHemiProc","HemiList",2,NA,NA,NA,1,1,2,"LeftColorProc",NA,NA,NA,"LeftColorList","Red","PUNAISEN","punai",1,NA,NA,NA,1,4,305,0,1,3,2,61,"2",1,"LeftTrialProc",288,1,0,1,NA,NA,NA,"LeftTrialList",0,1,NA
"102","1",1,41,NA,NA,5,NA,NA,NA,NA,NA,NA,NA,NA,NA,NA,NA,"VASENTA",NA,"ResponseHandList","",1,1,"Left","LeftHemiProc","HemiList",2,NA,NA,NA,1,1,2,"LeftColorProc",NA,NA,NA,"LeftColorList","Red","PUNAISEN","punai",2,NA,NA,NA,0,4,309,1,1,1,2,62,"1",1,"LeftTrialProc",292,1,1,0,NA,NA,NA,"LeftTrialList",0,1,0
"106","1",1,41,NA,NA,5,NA,NA,NA,NA,NA,NA,NA,NA,NA,NA,NA,"VASENTA",NA,"ResponseHandList","",1,1,"Left","LeftHemiProc","HemiList",2,NA,NA,NA,1,1,2,"LeftColorProc",NA,NA,NA,"LeftColorList","Red","PUNAISEN","punai",6,NA,NA,NA,0,4,348,1,1,1,2,66,"1",1,"LeftTrialProc",331,1,1,0,NA,NA,NA,"LeftTrialList",0,1,0
"110","1",1,41,NA,NA,5,NA,NA,NA,NA,NA,NA,NA,NA,NA,NA,NA,"VASENTA",NA,"ResponseHandList","",1,1,"Left","LeftHemiProc","HemiList",2,NA,NA,NA,1,1,2,"LeftColorProc",NA,NA,NA,"LeftColorList","Red","PUNAISEN","punai",10,NA,NA,NA,0,4,348,1,1,1,2,70,"1",1,"LeftTrialProc",332,1,1,0,NA,NA,NA,"LeftTrialList",0,1,0
"111","1",1,41,NA,NA,5,NA,NA,NA,NA,NA,NA,NA,NA,NA,NA,NA,"VASENTA",NA,"ResponseHandList","",1,1,"Left","LeftHemiProc","HemiList",2,NA,NA,NA,1,1,2,"LeftColorProc",NA,NA,NA,"LeftColorList","Red","PUNAISEN","punai",11,NA,NA,NA,0,4,301,1,1,1,2,71,"1",1,"LeftTrialProc",284,1,1,0,NA,NA,NA,"LeftTrialList",0,1,0
"112","1",1,41,NA,NA,5,NA,NA,NA,NA,NA,NA,NA,NA,NA,NA,NA,"VASENTA",NA,"ResponseHandList","",1,1,"Left","LeftHemiProc","HemiList",2,NA,NA,NA,1,1,2,"LeftColorProc",NA,NA,NA,"LeftColorList","Red","PUNAISEN","punai",12,NA,NA,NA,0,4,354,1,1,1,2,72,"1",1,"LeftTrialProc",337,1,1,0,NA,NA,NA,"LeftTrialList",0,1,0
"113","1",1,41,NA,NA,5,NA,NA,NA,NA,NA,NA,NA,NA,NA,NA,NA,"VASENTA",NA,"ResponseHandList","",1,1,"Left","LeftHemiProc","HemiList",2,NA,NA,NA,1,1,2,"LeftColorProc",NA,NA,NA,"LeftColorList","Red","PUNAISEN","punai",13,NA,NA,NA,1,4,330,0,1,3,2,73,"2",1,"LeftTrialProc",313,1,0,1,NA,NA,NA,"LeftTrialList",0,1,0
"114","1",1,41,NA,NA,5,NA,NA,NA,NA,NA,NA,NA,NA,NA,NA,NA,"VASENTA",NA,"ResponseHandList","",1,1,"Left","LeftHemiProc","HemiList",2,NA,NA,NA,1,1,2,"LeftColorProc",NA,NA,NA,"LeftColorList","Red","PUNAISEN","punai",14,NA,NA,NA,0,4,314,1,1,1,2,74,"1",1,"LeftTrialProc",297,1,1,0,NA,NA,NA,"LeftTrialList",0,1,0
"115","1",1,41,NA,NA,5,NA,NA,NA,NA,NA,NA,NA,NA,NA,NA,NA,"VASENTA",NA,"ResponseHandList","",1,1,"Left","LeftHemiProc","HemiList",2,NA,NA,NA,1,1,2,"LeftColorProc",NA,NA,NA,"LeftColorList","Red","PUNAISEN","punai",15,NA,NA,NA,0,4,359,1,1,1,2,75,"1",1,"LeftTrialProc",342,1,1,0,NA,NA,NA,"LeftTrialList",0,1,0
"116","1",1,41,NA,NA,5,NA,NA,NA,NA,NA,NA,NA,NA,NA,NA,NA,"VASENTA",NA,"ResponseHandList","",1,1,"Left","LeftHemiProc","HemiList",2,NA,NA,NA,1,1,2,"LeftColorProc",NA,NA,NA,"LeftColorList","Red","PUNAISEN","punai",16,NA,NA,NA,0,4,340,1,1,1,2,76,"1",1,"LeftTrialProc",324,1,1,0,NA,NA,NA,"LeftTrialList",0,1,0
"117","1",1,41,NA,NA,5,NA,NA,NA,NA,NA,NA,NA,NA,NA,NA,NA,"VASENTA",NA,"ResponseHandList","",1,1,"Left","LeftHemiProc","HemiList",2,NA,NA,NA,1,1,2,"LeftColorProc",NA,NA,NA,"LeftColorList","Red","PUNAISEN","punai",17,NA,NA,NA,0,4,413,1,1,1,2,77,"1",1,"LeftTrialProc",396,1,1,0,NA,NA,NA,"LeftTrialList",0,1,0
"122","1",1,41,NA,NA,5,NA,NA,NA,NA,NA,NA,NA,NA,NA,NA,NA,"VASENTA",NA,"ResponseHandList","",1,1,"Left","LeftHemiProc","HemiList",2,NA,NA,NA,1,1,2,"LeftColorProc",NA,NA,NA,"LeftColorList","Red","PUNAISEN","punai",22,NA,NA,NA,0,4,352,1,1,1,2,82,"1",1,"LeftTrialProc",335,1,1,0,NA,NA,NA,"LeftTrialList",0,1,0
"124","1",1,41,NA,NA,5,NA,NA,NA,NA,NA,NA,NA,NA,NA,NA,NA,"VASENTA",NA,"ResponseHandList","",1,1,"Left","LeftHemiProc","HemiList",2,NA,NA,NA,1,1,2,"LeftColorProc",NA,NA,NA,"LeftColorList","Red","PUNAISEN","punai",24,NA,NA,NA,1,4,336,0,1,3,2,84,"2",1,"LeftTrialProc",320,1,0,1,NA,NA,NA,"LeftTrialList",0,1,0
"125","1",1,41,NA,NA,5,NA,NA,NA,NA,NA,NA,NA,NA,NA,NA,NA,"VASENTA",NA,"ResponseHandList","",1,1,"Left","LeftHemiProc","HemiList",2,NA,NA,NA,1,1,2,"LeftColorProc",NA,NA,NA,"LeftColorList","Red","PUNAISEN","punai",25,NA,NA,NA,1,4,330,0,1,3,2,85,"2",1,"LeftTrialProc",313,1,0,1,NA,NA,NA,"LeftTrialList",0,1,0
"128","1",1,41,NA,NA,5,NA,NA,NA,NA,NA,NA,NA,NA,NA,NA,NA,"VASENTA",NA,"ResponseHandList","",1,1,"Left","LeftHemiProc","HemiList",2,NA,NA,NA,1,1,2,"LeftColorProc",NA,NA,NA,"LeftColorList","Red","PUNAISEN","punai",28,NA,NA,NA,0,4,398,1,1,1,2,88,"1",1,"LeftTrialProc",381,1,1,0,NA,NA,NA,"LeftTrialList",0,1,0
"132","1",1,41,NA,NA,5,NA,NA,NA,NA,NA,NA,NA,NA,NA,NA,NA,"VASENTA",NA,"ResponseHandList","",1,1,"Left","LeftHemiProc","HemiList",2,NA,NA,NA,1,1,2,"LeftColorProc",NA,NA,NA,"LeftColorList","Red","PUNAISEN","punai",32,NA,NA,NA,1,4,362,0,1,3,2,92,"2",1,"LeftTrialProc",345,1,0,1,NA,NA,NA,"LeftTrialList",0,1,0
"134","1",1,41,NA,NA,5,NA,NA,NA,NA,NA,NA,NA,NA,NA,NA,NA,"VASENTA",NA,"ResponseHandList","",1,1,"Left","LeftHemiProc","HemiList",2,NA,NA,NA,1,1,2,"LeftColorProc",NA,NA,NA,"LeftColorList","Red","PUNAISEN","punai",34,NA,NA,NA,0,4,370,1,1,1,2,94,"1",1,"LeftTrialProc",353,1,1,0,NA,NA,NA,"LeftTrialList",0,1,0
"136","1",1,41,NA,NA,5,NA,NA,NA,NA,NA,NA,NA,NA,NA,NA,NA,"VASENTA",NA,"ResponseHandList","",1,1,"Left","LeftHemiProc","HemiList",2,NA,NA,NA,1,1,2,"LeftColorProc",NA,NA,NA,"LeftColorList","Red","PUNAISEN","punai",36,NA,NA,NA,1,4,349,0,1,3,2,96,"2",1,"LeftTrialProc",332,1,0,1,NA,NA,NA,"LeftTrialList",0,1,0
"147","1",1,41,NA,NA,5,NA,NA,NA,NA,NA,NA,NA,NA,NA,NA,NA,"VASENTA",NA,"ResponseHandList","",1,1,"Left","LeftHemiProc","HemiList",2,NA,NA,NA,1,1,2,"LeftColorProc",NA,NA,NA,"LeftColorList","Red","PUNAISEN","punai",47,NA,NA,NA,0,4,306,1,1,1,2,107,"1",1,"LeftTrialProc",290,1,1,0,NA,NA,NA,"LeftTrialList",0,1,0
"148","1",1,41,NA,NA,5,NA,NA,NA,NA,NA,NA,NA,NA,NA,NA,NA,"VASENTA",NA,"ResponseHandList","",1,1,"Left","LeftHemiProc","HemiList",2,NA,NA,NA,1,1,2,"LeftColorProc",NA,NA,NA,"LeftColorList","Red","PUNAISEN","punai",48,NA,NA,NA,0,4,317,1,1,1,2,108,"1",1,"LeftTrialProc",300,1,1,0,NA,NA,NA,"LeftTrialList",0,1,0
"150","1",1,41,NA,NA,5,NA,NA,NA,NA,NA,NA,NA,NA,NA,NA,NA,"VASENTA",NA,"ResponseHandList","",1,1,"Left","LeftHemiProc","HemiList",2,NA,NA,NA,1,1,2,"LeftColorProc",NA,NA,NA,"LeftColorList","Red","PUNAISEN","punai",50,NA,NA,NA,1,4,345,0,1,3,2,110,"2",1,"LeftTrialProc",328,1,0,1,NA,NA,NA,"LeftTrialList",0,1,0
"152","1",1,41,NA,NA,5,NA,NA,NA,NA,NA,NA,NA,NA,NA,NA,NA,"VASENTA",NA,"ResponseHandList","",1,1,"Left","LeftHemiProc","HemiList",2,NA,NA,NA,1,1,2,"LeftColorProc",NA,NA,NA,"LeftColorList","Red","PUNAISEN","punai",52,NA,NA,NA,0,4,304,1,1,1,2,112,"1",1,"LeftTrialProc",287,1,1,0,NA,NA,NA,"LeftTrialList",0,1,0
"153","1",1,41,NA,NA,5,NA,NA,NA,NA,NA,NA,NA,NA,NA,NA,NA,"VASENTA",NA,"ResponseHandList","",1,1,"Left","LeftHemiProc","HemiList",2,NA,NA,NA,1,1,2,"LeftColorProc",NA,NA,NA,"LeftColorList","Red","PUNAISEN","punai",53,NA,NA,NA,1,4,297,0,1,3,2,113,"2",1,"LeftTrialProc",280,1,0,1,NA,NA,NA,"LeftTrialList",0,1,0
"155","1",1,41,NA,NA,5,NA,NA,NA,NA,NA,NA,NA,NA,NA,NA,NA,"VASENTA",NA,"ResponseHandList","",1,1,"Left","LeftHemiProc","HemiList",2,NA,NA,NA,1,1,2,"LeftColorProc",NA,NA,NA,"LeftColorList","Red","PUNAISEN","punai",55,NA,NA,NA,0,4,299,1,1,1,2,115,"1",1,"LeftTrialProc",282,1,1,0,NA,NA,NA,"LeftTrialList",0,1,0
"157","1",1,41,NA,NA,5,NA,NA,NA,NA,NA,NA,NA,NA,NA,NA,NA,"VASENTA",NA,"ResponseHandList","",1,1,"Left","LeftHemiProc","HemiList",2,NA,NA,NA,1,1,2,"LeftColorProc",NA,NA,NA,"LeftColorList","Red","PUNAISEN","punai",57,NA,NA,NA,0,4,329,1,1,1,2,117,"1",1,"LeftTrialProc",312,1,1,0,NA,NA,NA,"LeftTrialList",0,1,0
"158","1",1,41,NA,NA,5,NA,NA,NA,NA,NA,NA,NA,NA,NA,NA,NA,"VASENTA",NA,"ResponseHandList","",1,1,"Left","LeftHemiProc","HemiList",2,NA,NA,NA,1,1,2,"LeftColorProc",NA,NA,NA,"LeftColorList","Red","PUNAISEN","punai",58,NA,NA,NA,1,4,289,0,1,3,2,118,"2",1,"LeftTrialProc",272,1,0,1,NA,NA,NA,"LeftTrialList",0,1,0
"159","1",1,41,NA,NA,5,NA,NA,NA,NA,NA,NA,NA,NA,NA,NA,NA,"VASENTA",NA,"ResponseHandList","",1,1,"Left","LeftHemiProc","HemiList",2,NA,NA,NA,1,1,2,"LeftColorProc",NA,NA,NA,"LeftColorList","Red","PUNAISEN","punai",59,NA,NA,NA,1,4,308,0,1,3,2,119,"2",1,"LeftTrialProc",291,1,0,1,NA,NA,NA,"LeftTrialList",0,1,0
"287","1",1,41,NA,NA,5,NA,NA,NA,NA,NA,NA,NA,NA,NA,NA,NA,"VASENTA",NA,"ResponseHandList","",1,3,"Right","RightHemiProc","HemiList",1,NA,NA,NA,NA,NA,NA,"RightColorProc",2,1,1,"RightColorList","Blue","SINISEN","sini",7,NA,NA,NA,1,4,318,0,1,NA,NA,NA,"2",1,"RightTrialProc",301,1,0,1,3,1,7,"RightTrialList",0,1,0
"298","1",1,41,NA,NA,5,NA,NA,NA,NA,NA,NA,NA,NA,NA,NA,NA,"VASENTA",NA,"ResponseHandList","",1,3,"Right","RightHemiProc","HemiList",1,NA,NA,NA,NA,NA,NA,"RightColorProc",2,1,1,"RightColorList","Blue","SINISEN","sini",18,NA,NA,NA,0,4,393,1,0,NA,NA,NA,"1",1,"RightTrialProc",376,1,1,1,2,1,18,"RightTrialList",0,1,0
"303","1",1,41,NA,NA,5,NA,NA,NA,NA,NA,NA,NA,NA,NA,NA,NA,"VASENTA",NA,"ResponseHandList","",1,3,"Right","RightHemiProc","HemiList",1,NA,NA,NA,NA,NA,NA,"RightColorProc",2,1,1,"RightColorList","Blue","SINISEN","sini",23,NA,NA,NA,0,4,399,1,0,NA,NA,NA,"1",1,"RightTrialProc",383,1,1,1,2,1,23,"RightTrialList",0,1,0
"305","1",1,41,NA,NA,5,NA,NA,NA,NA,NA,NA,NA,NA,NA,NA,NA,"VASENTA",NA,"ResponseHandList","",1,3,"Right","RightHemiProc","HemiList",1,NA,NA,NA,NA,NA,NA,"RightColorProc",2,1,1,"RightColorList","Blue","SINISEN","sini",25,NA,NA,NA,1,4,304,0,1,NA,NA,NA,"2",1,"RightTrialProc",287,1,0,1,3,1,25,"RightTrialList",0,1,0
"306","1",1,41,NA,NA,5,NA,NA,NA,NA,NA,NA,NA,NA,NA,NA,NA,"VASENTA",NA,"ResponseHandList","",1,3,"Right","RightHemiProc","HemiList",1,NA,NA,NA,NA,NA,NA,"RightColorProc",2,1,1,"RightColorList","Blue","SINISEN","sini",26,NA,NA,NA,0,4,407,1,0,NA,NA,NA,"1",1,"RightTrialProc",390,1,1,1,2,1,26,"RightTrialList",0,1,0
"307","1",1,41,NA,NA,5,NA,NA,NA,NA,NA,NA,NA,NA,NA,NA,NA,"VASENTA",NA,"ResponseHandList","",1,3,"Right","RightHemiProc","HemiList",1,NA,NA,NA,NA,NA,NA,"RightColorProc",2,1,1,"RightColorList","Blue","SINISEN","sini",27,NA,NA,NA,0,4,403,1,0,NA,NA,NA,"1",1,"RightTrialProc",386,1,1,1,2,1,27,"RightTrialList",0,1,0
"314","1",1,41,NA,NA,5,NA,NA,NA,NA,NA,NA,NA,NA,NA,NA,NA,"VASENTA",NA,"ResponseHandList","",1,3,"Right","RightHemiProc","HemiList",1,NA,NA,NA,NA,NA,NA,"RightColorProc",2,1,1,"RightColorList","Blue","SINISEN","sini",34,NA,NA,NA,0,4,414,1,0,NA,NA,NA,"1",1,"RightTrialProc",397,1,1,1,2,1,34,"RightTrialList",0,1,0
"319","1",1,41,NA,NA,5,NA,NA,NA,NA,NA,NA,NA,NA,NA,NA,NA,"VASENTA",NA,"ResponseHandList","",1,3,"Right","RightHemiProc","HemiList",1,NA,NA,NA,NA,NA,NA,"RightColorProc",2,1,1,"RightColorList","Blue","SINISEN","sini",39,NA,NA,NA,1,4,439,0,1,NA,NA,NA,"2",1,"RightTrialProc",423,1,0,1,3,1,39,"RightTrialList",0,1,0
"322","1",1,41,NA,NA,5,NA,NA,NA,NA,NA,NA,NA,NA,NA,NA,NA,"VASENTA",NA,"ResponseHandList","",1,3,"Right","RightHemiProc","HemiList",1,NA,NA,NA,NA,NA,NA,"RightColorProc",2,1,1,"RightColorList","Blue","SINISEN","sini",42,NA,NA,NA,1,4,492,0,1,NA,NA,NA,"2",1,"RightTrialProc",475,1,0,1,3,1,42,"RightTrialList",0,1,0
"323","1",1,41,NA,NA,5,NA,NA,NA,NA,NA,NA,NA,NA,NA,NA,NA,"VASENTA",NA,"ResponseHandList","",1,3,"Right","RightHemiProc","HemiList",1,NA,NA,NA,NA,NA,NA,"RightColorProc",2,1,1,"RightColorList","Blue","SINISEN","sini",43,NA,NA,NA,0,4,371,1,0,NA,NA,NA,"1",1,"RightTrialProc",355,1,1,1,2,1,43,"RightTrialList",0,1,0
"326","1",1,41,NA,NA,5,NA,NA,NA,NA,NA,NA,NA,NA,NA,NA,NA,"VASENTA",NA,"ResponseHandList","",1,3,"Right","RightHemiProc","HemiList",1,NA,NA,NA,NA,NA,NA,"RightColorProc",2,1,1,"RightColorList","Blue","SINISEN","sini",46,NA,NA,NA,0,4,321,1,0,NA,NA,NA,"1",1,"RightTrialProc",304,1,1,1,2,1,46,"RightTrialList",0,1,0
"327","1",1,41,NA,NA,5,NA,NA,NA,NA,NA,NA,NA,NA,NA,NA,NA,"VASENTA",NA,"ResponseHandList","",1,3,"Right","RightHemiProc","HemiList",1,NA,NA,NA,NA,NA,NA,"RightColorProc",2,1,1,"RightColorList","Blue","SINISEN","sini",47,NA,NA,NA,1,4,432,0,1,NA,NA,NA,"2",1,"RightTrialProc",415,1,0,1,3,1,47,"RightTrialList",0,1,0
"329","1",1,41,NA,NA,5,NA,NA,NA,NA,NA,NA,NA,NA,NA,NA,NA,"VASENTA",NA,"ResponseHandList","",1,3,"Right","RightHemiProc","HemiList",1,NA,NA,NA,NA,NA,NA,"RightColorProc",2,1,1,"RightColorList","Blue","SINISEN","sini",49,NA,NA,NA,1,4,393,0,1,NA,NA,NA,"2",1,"RightTrialProc",377,1,0,1,3,1,49,"RightTrialList",0,1,0
"331","1",1,41,NA,NA,5,NA,NA,NA,NA,NA,NA,NA,NA,NA,NA,NA,"VASENTA",NA,"ResponseHandList","",1,3,"Right","RightHemiProc","HemiList",1,NA,NA,NA,NA,NA,NA,"RightColorProc",2,1,1,"RightColorList","Blue","SINISEN","sini",51,NA,NA,NA,0,4,317,1,0,NA,NA,NA,"1",1,"RightTrialProc",300,1,1,1,2,1,51,"RightTrialList",0,1,0
"333","1",1,41,NA,NA,5,NA,NA,NA,NA,NA,NA,NA,NA,NA,NA,NA,"VASENTA",NA,"ResponseHandList","",1,3,"Right","RightHemiProc","HemiList",1,NA,NA,NA,NA,NA,NA,"RightColorProc",2,1,1,"RightColorList","Blue","SINISEN","sini",53,NA,NA,NA,1,4,390,0,1,NA,NA,NA,"2",1,"RightTrialProc",373,1,0,1,3,1,53,"RightTrialList",0,1,0
"337","1",1,41,NA,NA,5,NA,NA,NA,NA,NA,NA,NA,NA,NA,NA,NA,"VASENTA",NA,"ResponseHandList","",1,3,"Right","RightHemiProc","HemiList",1,NA,NA,NA,NA,NA,NA,"RightColorProc",2,1,1,"RightColorList","Blue","SINISEN","sini",57,NA,NA,NA,0,4,508,1,0,NA,NA,NA,"1",1,"RightTrialProc",491,1,1,1,2,1,57,"RightTrialList",0,1,0
"339","1",1,41,NA,NA,5,NA,NA,NA,NA,NA,NA,NA,NA,NA,NA,NA,"VASENTA",NA,"ResponseHandList","",1,3,"Right","RightHemiProc","HemiList",1,NA,NA,NA,NA,NA,NA,"RightColorProc",2,1,1,"RightColorList","Blue","SINISEN","sini",59,NA,NA,NA,0,4,370,1,0,NA,NA,NA,"1",1,"RightTrialProc",353,1,1,1,2,1,59,"RightTrialList",0,1,0
"345","1",1,41,NA,NA,5,NA,NA,NA,NA,NA,NA,NA,NA,NA,NA,NA,"VASENTA",NA,"ResponseHandList","",1,3,"Right","RightHemiProc","HemiList",2,NA,NA,NA,NA,NA,NA,"RightColorProc",1,1,2,"RightColorList","Red","PUNAISEN","punai",5,NA,NA,NA,1,4,354,0,1,NA,NA,NA,"2",1,"RightTrialProc",338,1,0,1,3,2,65,"RightTrialList",0,1,0
"346","1",1,41,NA,NA,5,NA,NA,NA,NA,NA,NA,NA,NA,NA,NA,NA,"VASENTA",NA,"ResponseHandList","",1,3,"Right","RightHemiProc","HemiList",2,NA,NA,NA,NA,NA,NA,"RightColorProc",1,1,2,"RightColorList","Red","PUNAISEN","punai",6,NA,NA,NA,1,4,357,0,1,NA,NA,NA,"2",1,"RightTrialProc",340,1,0,1,3,2,66,"RightTrialList",0,1,0
"348","1",1,41,NA,NA,5,NA,NA,NA,NA,NA,NA,NA,NA,NA,NA,NA,"VASENTA",NA,"ResponseHandList","",1,3,"Right","RightHemiProc","HemiList",2,NA,NA,NA,NA,NA,NA,"RightColorProc",1,1,2,"RightColorList","Red","PUNAISEN","punai",8,NA,NA,NA,0,4,463,1,0,NA,NA,NA,"1",1,"RightTrialProc",446,1,1,1,2,2,68,"RightTrialList",0,1,0
"351","1",1,41,NA,NA,5,NA,NA,NA,NA,NA,NA,NA,NA,NA,NA,NA,"VASENTA",NA,"ResponseHandList","",1,3,"Right","RightHemiProc","HemiList",2,NA,NA,NA,NA,NA,NA,"RightColorProc",1,1,2,"RightColorList","Red","PUNAISEN","punai",11,NA,NA,NA,1,4,324,0,1,NA,NA,NA,"2",1,"RightTrialProc",307,1,0,1,3,2,71,"RightTrialList",0,1,0
"357","1",1,41,NA,NA,5,NA,NA,NA,NA,NA,NA,NA,NA,NA,NA,NA,"VASENTA",NA,"ResponseHandList","",1,3,"Right","RightHemiProc","HemiList",2,NA,NA,NA,NA,NA,NA,"RightColorProc",1,1,2,"RightColorList","Red","PUNAISEN","punai",17,NA,NA,NA,0,4,376,1,0,NA,NA,NA,"1",1,"RightTrialProc",360,1,1,1,2,2,77,"RightTrialList",0,1,0
"362","1",1,41,NA,NA,5,NA,NA,NA,NA,NA,NA,NA,NA,NA,NA,NA,"VASENTA",NA,"ResponseHandList","",1,3,"Right","RightHemiProc","HemiList",2,NA,NA,NA,NA,NA,NA,"RightColorProc",1,1,2,"RightColorList","Red","PUNAISEN","punai",22,NA,NA,NA,0,4,452,1,0,NA,NA,NA,"1",1,"RightTrialProc",436,1,1,1,2,2,82,"RightTrialList",0,1,0
"368","1",1,41,NA,NA,5,NA,NA,NA,NA,NA,NA,NA,NA,NA,NA,NA,"VASENTA",NA,"ResponseHandList","",1,3,"Right","RightHemiProc","HemiList",2,NA,NA,NA,NA,NA,NA,"RightColorProc",1,1,2,"RightColorList","Red","PUNAISEN","punai",28,NA,NA,NA,1,4,323,0,1,NA,NA,NA,"2",1,"RightTrialProc",307,1,0,1,3,2,88,"RightTrialList",0,1,0
"369","1",1,41,NA,NA,5,NA,NA,NA,NA,NA,NA,NA,NA,NA,NA,NA,"VASENTA",NA,"ResponseHandList","",1,3,"Right","RightHemiProc","HemiList",2,NA,NA,NA,NA,NA,NA,"RightColorProc",1,1,2,"RightColorList","Red","PUNAISEN","punai",29,NA,NA,NA,0,4,300,1,0,NA,NA,NA,"1",1,"RightTrialProc",283,1,1,1,2,2,89,"RightTrialList",0,1,0
"375","1",1,41,NA,NA,5,NA,NA,NA,NA,NA,NA,NA,NA,NA,NA,NA,"VASENTA",NA,"ResponseHandList","",1,3,"Right","RightHemiProc","HemiList",2,NA,NA,NA,NA,NA,NA,"RightColorProc",1,1,2,"RightColorList","Red","PUNAISEN","punai",35,NA,NA,NA,0,4,329,1,0,NA,NA,NA,"1",1,"RightTrialProc",312,1,1,1,2,2,95,"RightTrialList",0,1,0
"376","1",1,41,NA,NA,5,NA,NA,NA,NA,NA,NA,NA,NA,NA,NA,NA,"VASENTA",NA,"ResponseHandList","",1,3,"Right","RightHemiProc","HemiList",2,NA,NA,NA,NA,NA,NA,"RightColorProc",1,1,2,"RightColorList","Red","PUNAISEN","punai",36,NA,NA,NA,1,4,350,0,1,NA,NA,NA,"2",1,"RightTrialProc",333,1,0,1,3,2,96,"RightTrialList",0,1,0
"385","1",1,41,NA,NA,5,NA,NA,NA,NA,NA,NA,NA,NA,NA,NA,NA,"VASENTA",NA,"ResponseHandList","",1,3,"Right","RightHemiProc","HemiList",2,NA,NA,NA,NA,NA,NA,"RightColorProc",1,1,2,"RightColorList","Red","PUNAISEN","punai",45,NA,NA,NA,0,4,441,1,0,NA,NA,NA,"1",1,"RightTrialProc",424,1,1,1,2,2,105,"RightTrialList",0,1,0
"392","1",1,41,NA,NA,5,NA,NA,NA,NA,NA,NA,NA,NA,NA,NA,NA,"VASENTA",NA,"ResponseHandList","",1,3,"Right","RightHemiProc","HemiList",2,NA,NA,NA,NA,NA,NA,"RightColorProc",1,1,2,"RightColorList","Red","PUNAISEN","punai",52,NA,NA,NA,0,4,500,1,0,NA,NA,NA,"1",1,"RightTrialProc",483,1,1,1,2,2,112,"RightTrialList",0,1,0
"395","1",1,41,NA,NA,5,NA,NA,NA,NA,NA,NA,NA,NA,NA,NA,NA,"VASENTA",NA,"ResponseHandList","",1,3,"Right","RightHemiProc","HemiList",2,NA,NA,NA,NA,NA,NA,"RightColorProc",1,1,2,"RightColorList","Red","PUNAISEN","punai",55,NA,NA,NA,0,4,332,1,0,NA,NA,NA,"1",1,"RightTrialProc",315,1,1,1,2,2,115,"RightTrialList",0,1,0
"396","1",1,41,NA,NA,5,NA,NA,NA,NA,NA,NA,NA,NA,NA,NA,NA,"VASENTA",NA,"ResponseHandList","",1,3,"Right","RightHemiProc","HemiList",2,NA,NA,NA,NA,NA,NA,"RightColorProc",1,1,2,"RightColorList","Red","PUNAISEN","punai",56,NA,NA,NA,0,4,458,1,0,NA,NA,NA,"1",1,"RightTrialProc",441,1,1,1,2,2,116,"RightTrialList",0,1,0
"397","1",1,41,NA,NA,5,NA,NA,NA,NA,NA,NA,NA,NA,NA,NA,NA,"VASENTA",NA,"ResponseHandList","",1,3,"Right","RightHemiProc","HemiList",2,NA,NA,NA,NA,NA,NA,"RightColorProc",1,1,2,"RightColorList","Red","PUNAISEN","punai",57,NA,NA,NA,0,4,348,1,0,NA,NA,NA,"1",1,"RightTrialProc",331,1,1,1,2,2,117,"RightTrialList",0,1,0
"398","1",1,41,NA,NA,5,NA,NA,NA,NA,NA,NA,NA,NA,NA,NA,NA,"VASENTA",NA,"ResponseHandList","",1,3,"Right","RightHemiProc","HemiList",2,NA,NA,NA,NA,NA,NA,"RightColorProc",1,1,2,"RightColorList","Red","PUNAISEN","punai",58,NA,NA,NA,0,4,354,1,0,NA,NA,NA,"1",1,"RightTrialProc",338,1,1,1,2,2,118,"RightTrialList",0,1,0
"401","1",1,42,NA,NA,6,NA,NA,NA,NA,NA,NA,NA,NA,NA,NA,NA,"OIKEAA",NA,"ResponseHandList","",1,1,"Left","LeftHemiProc","HemiList",1,NA,NA,NA,2,2,3,"LeftColorProc",NA,NA,NA,"LeftColorList","Blue","SINISEN","sini",1,NA,NA,NA,1,4,362,0,1,3,3,121,"2",1,"LeftTrialProc",345,1,0,1,NA,NA,NA,"LeftTrialList",0,1,NA
"402","1",1,42,NA,NA,6,NA,NA,NA,NA,NA,NA,NA,NA,NA,NA,NA,"OIKEAA",NA,"ResponseHandList","",1,1,"Left","LeftHemiProc","HemiList",1,NA,NA,NA,2,2,3,"LeftColorProc",NA,NA,NA,"LeftColorList","Blue","SINISEN","sini",2,NA,NA,NA,0,4,292,1,1,1,3,122,"1",1,"LeftTrialProc",275,1,1,0,NA,NA,NA,"LeftTrialList",0,1,0
"403","1",1,42,NA,NA,6,NA,NA,NA,NA,NA,NA,NA,NA,NA,NA,NA,"OIKEAA",NA,"ResponseHandList","",1,1,"Left","LeftHemiProc","HemiList",1,NA,NA,NA,2,2,3,"LeftColorProc",NA,NA,NA,"LeftColorList","Blue","SINISEN","sini",3,NA,NA,NA,1,4,296,0,1,3,3,123,"2",1,"LeftTrialProc",279,1,0,1,NA,NA,NA,"LeftTrialList",0,1,0
"405","1",1,42,NA,NA,6,NA,NA,NA,NA,NA,NA,NA,NA,NA,NA,NA,"OIKEAA",NA,"ResponseHandList","",1,1,"Left","LeftHemiProc","HemiList",1,NA,NA,NA,2,2,3,"LeftColorProc",NA,NA,NA,"LeftColorList","Blue","SINISEN","sini",5,NA,NA,NA,0,4,290,1,1,1,3,125,"1",1,"LeftTrialProc",273,1,1,0,NA,NA,NA,"LeftTrialList",0,1,0
"406","1",1,42,NA,NA,6,NA,NA,NA,NA,NA,NA,NA,NA,NA,NA,NA,"OIKEAA",NA,"ResponseHandList","",1,1,"Left","LeftHemiProc","HemiList",1,NA,NA,NA,2,2,3,"LeftColorProc",NA,NA,NA,"LeftColorList","Blue","SINISEN","sini",6,NA,NA,NA,0,4,329,1,1,1,3,126,"1",1,"LeftTrialProc",313,1,1,0,NA,NA,NA,"LeftTrialList",0,1,0
"407","1",1,42,NA,NA,6,NA,NA,NA,NA,NA,NA,NA,NA,NA,NA,NA,"OIKEAA",NA,"ResponseHandList","",1,1,"Left","LeftHemiProc","HemiList",1,NA,NA,NA,2,2,3,"LeftColorProc",NA,NA,NA,"LeftColorList","Blue","SINISEN","sini",7,NA,NA,NA,1,4,264,0,1,3,3,127,"2",1,"LeftTrialProc",248,1,0,1,NA,NA,NA,"LeftTrialList",0,1,0
"408","1",1,42,NA,NA,6,NA,NA,NA,NA,NA,NA,NA,NA,NA,NA,NA,"OIKEAA",NA,"ResponseHandList","",1,1,"Left","LeftHemiProc","HemiList",1,NA,NA,NA,2,2,3,"LeftColorProc",NA,NA,NA,"LeftColorList","Blue","SINISEN","sini",8,NA,NA,NA,1,4,285,0,1,3,3,128,"2",1,"LeftTrialProc",269,1,0,1,NA,NA,NA,"LeftTrialList",0,1,0
"409","1",1,42,NA,NA,6,NA,NA,NA,NA,NA,NA,NA,NA,NA,NA,NA,"OIKEAA",NA,"ResponseHandList","",1,1,"Left","LeftHemiProc","HemiList",1,NA,NA,NA,2,2,3,"LeftColorProc",NA,NA,NA,"LeftColorList","Blue","SINISEN","sini",9,NA,NA,NA,0,4,294,1,1,1,3,129,"1",1,"LeftTrialProc",278,1,1,0,NA,NA,NA,"LeftTrialList",0,1,0
"410","1",1,42,NA,NA,6,NA,NA,NA,NA,NA,NA,NA,NA,NA,NA,NA,"OIKEAA",NA,"ResponseHandList","",1,1,"Left","LeftHemiProc","HemiList",1,NA,NA,NA,2,2,3,"LeftColorProc",NA,NA,NA,"LeftColorList","Blue","SINISEN","sini",10,NA,NA,NA,1,4,279,0,1,3,3,130,"2",1,"LeftTrialProc",262,1,0,1,NA,NA,NA,"LeftTrialList",0,1,0
"412","1",1,42,NA,NA,6,NA,NA,NA,NA,NA,NA,NA,NA,NA,NA,NA,"OIKEAA",NA,"ResponseHandList","",1,1,"Left","LeftHemiProc","HemiList",1,NA,NA,NA,2,2,3,"LeftColorProc",NA,NA,NA,"LeftColorList","Blue","SINISEN","sini",12,NA,NA,NA,1,4,310,0,1,3,3,132,"2",1,"LeftTrialProc",293,1,0,1,NA,NA,NA,"LeftTrialList",0,1,0
"413","1",1,42,NA,NA,6,NA,NA,NA,NA,NA,NA,NA,NA,NA,NA,NA,"OIKEAA",NA,"ResponseHandList","",1,1,"Left","LeftHemiProc","HemiList",1,NA,NA,NA,2,2,3,"LeftColorProc",NA,NA,NA,"LeftColorList","Blue","SINISEN","sini",13,NA,NA,NA,1,4,323,0,1,3,3,133,"2",1,"LeftTrialProc",306,1,0,1,NA,NA,NA,"LeftTrialList",0,1,0
"416","1",1,42,NA,NA,6,NA,NA,NA,NA,NA,NA,NA,NA,NA,NA,NA,"OIKEAA",NA,"ResponseHandList","",1,1,"Left","LeftHemiProc","HemiList",1,NA,NA,NA,2,2,3,"LeftColorProc",NA,NA,NA,"LeftColorList","Blue","SINISEN","sini",16,NA,NA,NA,0,4,306,1,1,1,3,136,"1",1,"LeftTrialProc",290,1,1,0,NA,NA,NA,"LeftTrialList",0,1,0
"418","1",1,42,NA,NA,6,NA,NA,NA,NA,NA,NA,NA,NA,NA,NA,NA,"OIKEAA",NA,"ResponseHandList","",1,1,"Left","LeftHemiProc","HemiList",1,NA,NA,NA,2,2,3,"LeftColorProc",NA,NA,NA,"LeftColorList","Blue","SINISEN","sini",18,NA,NA,NA,0,4,318,1,1,1,3,138,"1",1,"LeftTrialProc",301,1,1,0,NA,NA,NA,"LeftTrialList",0,1,0
"420","1",1,42,NA,NA,6,NA,NA,NA,NA,NA,NA,NA,NA,NA,NA,NA,"OIKEAA",NA,"ResponseHandList","",1,1,"Left","LeftHemiProc","HemiList",1,NA,NA,NA,2,2,3,"LeftColorProc",NA,NA,NA,"LeftColorList","Blue","SINISEN","sini",20,NA,NA,NA,1,4,326,0,1,3,3,140,"2",1,"LeftTrialProc",309,1,0,1,NA,NA,NA,"LeftTrialList",0,1,0
"422","1",1,42,NA,NA,6,NA,NA,NA,NA,NA,NA,NA,NA,NA,NA,NA,"OIKEAA",NA,"ResponseHandList","",1,1,"Left","LeftHemiProc","HemiList",1,NA,NA,NA,2,2,3,"LeftColorProc",NA,NA,NA,"LeftColorList","Blue","SINISEN","sini",22,NA,NA,NA,0,4,307,1,1,1,3,142,"1",1,"LeftTrialProc",290,1,1,0,NA,NA,NA,"LeftTrialList",0,1,0
"425","1",1,42,NA,NA,6,NA,NA,NA,NA,NA,NA,NA,NA,NA,NA,NA,"OIKEAA",NA,"ResponseHandList","",1,1,"Left","LeftHemiProc","HemiList",1,NA,NA,NA,2,2,3,"LeftColorProc",NA,NA,NA,"LeftColorList","Blue","SINISEN","sini",25,NA,NA,NA,1,4,284,0,1,3,3,145,"2",1,"LeftTrialProc",267,1,0,1,NA,NA,NA,"LeftTrialList",0,1,0
"426","1",1,42,NA,NA,6,NA,NA,NA,NA,NA,NA,NA,NA,NA,NA,NA,"OIKEAA",NA,"ResponseHandList","",1,1,"Left","LeftHemiProc","HemiList",1,NA,NA,NA,2,2,3,"LeftColorProc",NA,NA,NA,"LeftColorList","Blue","SINISEN","sini",26,NA,NA,NA,1,4,349,0,1,3,3,146,"2",1,"LeftTrialProc",332,1,0,1,NA,NA,NA,"LeftTrialList",0,1,0
"428","1",1,42,NA,NA,6,NA,NA,NA,NA,NA,NA,NA,NA,NA,NA,NA,"OIKEAA",NA,"ResponseHandList","",1,1,"Left","LeftHemiProc","HemiList",1,NA,NA,NA,2,2,3,"LeftColorProc",NA,NA,NA,"LeftColorList","Blue","SINISEN","sini",28,NA,NA,NA,0,4,328,1,1,1,3,148,"1",1,"LeftTrialProc",311,1,1,0,NA,NA,NA,"LeftTrialList",0,1,0
"430","1",1,42,NA,NA,6,NA,NA,NA,NA,NA,NA,NA,NA,NA,NA,NA,"OIKEAA",NA,"ResponseHandList","",1,1,"Left","LeftHemiProc","HemiList",1,NA,NA,NA,2,2,3,"LeftColorProc",NA,NA,NA,"LeftColorList","Blue","SINISEN","sini",30,NA,NA,NA,1,4,293,0,1,3,3,150,"2",1,"LeftTrialProc",276,1,0,1,NA,NA,NA,"LeftTrialList",0,1,0
"431","1",1,42,NA,NA,6,NA,NA,NA,NA,NA,NA,NA,NA,NA,NA,NA,"OIKEAA",NA,"ResponseHandList","",1,1,"Left","LeftHemiProc","HemiList",1,NA,NA,NA,2,2,3,"LeftColorProc",NA,NA,NA,"LeftColorList","Blue","SINISEN","sini",31,NA,NA,NA,0,4,324,1,1,1,3,151,"1",1,"LeftTrialProc",307,1,1,0,NA,NA,NA,"LeftTrialList",0,1,0
"433","1",1,42,NA,NA,6,NA,NA,NA,NA,NA,NA,NA,NA,NA,NA,NA,"OIKEAA",NA,"ResponseHandList","",1,1,"Left","LeftHemiProc","HemiList",1,NA,NA,NA,2,2,3,"LeftColorProc",NA,NA,NA,"LeftColorList","Blue","SINISEN","sini",33,NA,NA,NA,1,4,283,0,1,3,3,153,"2",1,"LeftTrialProc",266,1,0,1,NA,NA,NA,"LeftTrialList",0,1,0
"435","1",1,42,NA,NA,6,NA,NA,NA,NA,NA,NA,NA,NA,NA,NA,NA,"OIKEAA",NA,"ResponseHandList","",1,1,"Left","LeftHemiProc","HemiList",1,NA,NA,NA,2,2,3,"LeftColorProc",NA,NA,NA,"LeftColorList","Blue","SINISEN","sini",35,NA,NA,NA,0,4,335,1,1,1,3,155,"1",1,"LeftTrialProc",318,1,1,0,NA,NA,NA,"LeftTrialList",0,1,0
"436","1",1,42,NA,NA,6,NA,NA,NA,NA,NA,NA,NA,NA,NA,NA,NA,"OIKEAA",NA,"ResponseHandList","",1,1,"Left","LeftHemiProc","HemiList",1,NA,NA,NA,2,2,3,"LeftColorProc",NA,NA,NA,"LeftColorList","Blue","SINISEN","sini",36,NA,NA,NA,1,4,307,0,1,3,3,156,"2",1,"LeftTrialProc",290,1,0,1,NA,NA,NA,"LeftTrialList",0,1,0
"437","1",1,42,NA,NA,6,NA,NA,NA,NA,NA,NA,NA,NA,NA,NA,NA,"OIKEAA",NA,"ResponseHandList","",1,1,"Left","LeftHemiProc","HemiList",1,NA,NA,NA,2,2,3,"LeftColorProc",NA,NA,NA,"LeftColorList","Blue","SINISEN","sini",37,NA,NA,NA,1,4,289,0,1,3,3,157,"2",1,"LeftTrialProc",272,1,0,1,NA,NA,NA,"LeftTrialList",0,1,0
"439","1",1,42,NA,NA,6,NA,NA,NA,NA,NA,NA,NA,NA,NA,NA,NA,"OIKEAA",NA,"ResponseHandList","",1,1,"Left","LeftHemiProc","HemiList",1,NA,NA,NA,2,2,3,"LeftColorProc",NA,NA,NA,"LeftColorList","Blue","SINISEN","sini",39,NA,NA,NA,1,4,376,0,1,3,3,159,"2",1,"LeftTrialProc",360,1,0,1,NA,NA,NA,"LeftTrialList",0,1,0
"440","1",1,42,NA,NA,6,NA,NA,NA,NA,NA,NA,NA,NA,NA,NA,NA,"OIKEAA",NA,"ResponseHandList","",1,1,"Left","LeftHemiProc","HemiList",1,NA,NA,NA,2,2,3,"LeftColorProc",NA,NA,NA,"LeftColorList","Blue","SINISEN","sini",40,NA,NA,NA,0,4,302,1,1,1,3,160,"1",1,"LeftTrialProc",285,1,1,0,NA,NA,NA,"LeftTrialList",0,1,0
"442","1",1,42,NA,NA,6,NA,NA,NA,NA,NA,NA,NA,NA,NA,NA,NA,"OIKEAA",NA,"ResponseHandList","",1,1,"Left","LeftHemiProc","HemiList",1,NA,NA,NA,2,2,3,"LeftColorProc",NA,NA,NA,"LeftColorList","Blue","SINISEN","sini",42,NA,NA,NA,0,4,289,1,1,1,3,162,"1",1,"LeftTrialProc",272,1,1,0,NA,NA,NA,"LeftTrialList",0,1,0
"447","1",1,42,NA,NA,6,NA,NA,NA,NA,NA,NA,NA,NA,NA,NA,NA,"OIKEAA",NA,"ResponseHandList","",1,1,"Left","LeftHemiProc","HemiList",1,NA,NA,NA,2,2,3,"LeftColorProc",NA,NA,NA,"LeftColorList","Blue","SINISEN","sini",47,NA,NA,NA,0,4,272,1,1,1,3,167,"1",1,"LeftTrialProc",256,1,1,0,NA,NA,NA,"LeftTrialList",0,1,0
"450","1",1,42,NA,NA,6,NA,NA,NA,NA,NA,NA,NA,NA,NA,NA,NA,"OIKEAA",NA,"ResponseHandList","",1,1,"Left","LeftHemiProc","HemiList",1,NA,NA,NA,2,2,3,"LeftColorProc",NA,NA,NA,"LeftColorList","Blue","SINISEN","sini",50,NA,NA,NA,0,4,278,1,1,1,3,170,"1",1,"LeftTrialProc",261,1,1,0,NA,NA,NA,"LeftTrialList",0,1,0
"451","1",1,42,NA,NA,6,NA,NA,NA,NA,NA,NA,NA,NA,NA,NA,NA,"OIKEAA",NA,"ResponseHandList","",1,1,"Left","LeftHemiProc","HemiList",1,NA,NA,NA,2,2,3,"LeftColorProc",NA,NA,NA,"LeftColorList","Blue","SINISEN","sini",51,NA,NA,NA,1,4,371,0,1,3,3,171,"2",1,"LeftTrialProc",354,1,0,1,NA,NA,NA,"LeftTrialList",0,1,0
"452","1",1,42,NA,NA,6,NA,NA,NA,NA,NA,NA,NA,NA,NA,NA,NA,"OIKEAA",NA,"ResponseHandList","",1,1,"Left","LeftHemiProc","HemiList",1,NA,NA,NA,2,2,3,"LeftColorProc",NA,NA,NA,"LeftColorList","Blue","SINISEN","sini",52,NA,NA,NA,0,4,302,1,1,1,3,172,"1",1,"LeftTrialProc",285,1,1,0,NA,NA,NA,"LeftTrialList",0,1,0
"453","1",1,42,NA,NA,6,NA,NA,NA,NA,NA,NA,NA,NA,NA,NA,NA,"OIKEAA",NA,"ResponseHandList","",1,1,"Left","LeftHemiProc","HemiList",1,NA,NA,NA,2,2,3,"LeftColorProc",NA,NA,NA,"LeftColorList","Blue","SINISEN","sini",53,NA,NA,NA,0,4,279,1,1,1,3,173,"1",1,"LeftTrialProc",262,1,1,0,NA,NA,NA,"LeftTrialList",0,1,0
"454","1",1,42,NA,NA,6,NA,NA,NA,NA,NA,NA,NA,NA,NA,NA,NA,"OIKEAA",NA,"ResponseHandList","",1,1,"Left","LeftHemiProc","HemiList",1,NA,NA,NA,2,2,3,"LeftColorProc",NA,NA,NA,"LeftColorList","Blue","SINISEN","sini",54,NA,NA,NA,1,4,311,0,1,3,3,174,"2",1,"LeftTrialProc",294,1,0,1,NA,NA,NA,"LeftTrialList",0,1,0
"455","1",1,42,NA,NA,6,NA,NA,NA,NA,NA,NA,NA,NA,NA,NA,NA,"OIKEAA",NA,"ResponseHandList","",1,1,"Left","LeftHemiProc","HemiList",1,NA,NA,NA,2,2,3,"LeftColorProc",NA,NA,NA,"LeftColorList","Blue","SINISEN","sini",55,NA,NA,NA,0,4,318,1,1,1,3,175,"1",1,"LeftTrialProc",301,1,1,0,NA,NA,NA,"LeftTrialList",0,1,0
"461","1",1,42,NA,NA,6,NA,NA,NA,NA,NA,NA,NA,NA,NA,NA,NA,"OIKEAA",NA,"ResponseHandList","",1,1,"Left","LeftHemiProc","HemiList",2,NA,NA,NA,1,2,4,"LeftColorProc",NA,NA,NA,"LeftColorList","Red","PUNAISEN","punai",1,NA,NA,NA,0,4,326,1,1,1,4,181,"1",1,"LeftTrialProc",309,1,1,0,NA,NA,NA,"LeftTrialList",0,1,NA
"464","1",1,42,NA,NA,6,NA,NA,NA,NA,NA,NA,NA,NA,NA,NA,NA,"OIKEAA",NA,"ResponseHandList","",1,1,"Left","LeftHemiProc","HemiList",2,NA,NA,NA,1,2,4,"LeftColorProc",NA,NA,NA,"LeftColorList","Red","PUNAISEN","punai",4,NA,NA,NA,0,4,317,1,1,1,4,184,"1",1,"LeftTrialProc",300,1,1,0,NA,NA,NA,"LeftTrialList",0,1,0
"466","1",1,42,NA,NA,6,NA,NA,NA,NA,NA,NA,NA,NA,NA,NA,NA,"OIKEAA",NA,"ResponseHandList","",1,1,"Left","LeftHemiProc","HemiList",2,NA,NA,NA,1,2,4,"LeftColorProc",NA,NA,NA,"LeftColorList","Red","PUNAISEN","punai",6,NA,NA,NA,1,4,288,0,1,3,4,186,"2",1,"LeftTrialProc",271,1,0,1,NA,NA,NA,"LeftTrialList",0,1,0
"467","1",1,42,NA,NA,6,NA,NA,NA,NA,NA,NA,NA,NA,NA,NA,NA,"OIKEAA",NA,"ResponseHandList","",1,1,"Left","LeftHemiProc","HemiList",2,NA,NA,NA,1,2,4,"LeftColorProc",NA,NA,NA,"LeftColorList","Red","PUNAISEN","punai",7,NA,NA,NA,1,4,296,0,1,3,4,187,"2",1,"LeftTrialProc",280,1,0,1,NA,NA,NA,"LeftTrialList",0,1,0
"468","1",1,42,NA,NA,6,NA,NA,NA,NA,NA,NA,NA,NA,NA,NA,NA,"OIKEAA",NA,"ResponseHandList","",1,1,"Left","LeftHemiProc","HemiList",2,NA,NA,NA,1,2,4,"LeftColorProc",NA,NA,NA,"LeftColorList","Red","PUNAISEN","punai",8,NA,NA,NA,0,4,277,1,1,1,4,188,"1",1,"LeftTrialProc",260,1,1,0,NA,NA,NA,"LeftTrialList",0,1,0
"471","1",1,42,NA,NA,6,NA,NA,NA,NA,NA,NA,NA,NA,NA,NA,NA,"OIKEAA",NA,"ResponseHandList","",1,1,"Left","LeftHemiProc","HemiList",2,NA,NA,NA,1,2,4,"LeftColorProc",NA,NA,NA,"LeftColorList","Red","PUNAISEN","punai",11,NA,NA,NA,0,4,274,1,1,1,4,191,"1",1,"LeftTrialProc",257,1,1,0,NA,NA,NA,"LeftTrialList",0,1,0
"474","1",1,42,NA,NA,6,NA,NA,NA,NA,NA,NA,NA,NA,NA,NA,NA,"OIKEAA",NA,"ResponseHandList","",1,1,"Left","LeftHemiProc","HemiList",2,NA,NA,NA,1,2,4,"LeftColorProc",NA,NA,NA,"LeftColorList","Red","PUNAISEN","punai",14,NA,NA,NA,0,4,291,1,1,1,4,194,"1",1,"LeftTrialProc",274,1,1,0,NA,NA,NA,"LeftTrialList",0,1,0
"476","1",1,42,NA,NA,6,NA,NA,NA,NA,NA,NA,NA,NA,NA,NA,NA,"OIKEAA",NA,"ResponseHandList","",1,1,"Left","LeftHemiProc","HemiList",2,NA,NA,NA,1,2,4,"LeftColorProc",NA,NA,NA,"LeftColorList","Red","PUNAISEN","punai",16,NA,NA,NA,0,4,270,1,1,1,4,196,"1",1,"LeftTrialProc",253,1,1,0,NA,NA,NA,"LeftTrialList",0,1,0
"479","1",1,42,NA,NA,6,NA,NA,NA,NA,NA,NA,NA,NA,NA,NA,NA,"OIKEAA",NA,"ResponseHandList","",1,1,"Left","LeftHemiProc","HemiList",2,NA,NA,NA,1,2,4,"LeftColorProc",NA,NA,NA,"LeftColorList","Red","PUNAISEN","punai",19,NA,NA,NA,0,4,333,1,1,1,4,199,"1",1,"LeftTrialProc",316,1,1,0,NA,NA,NA,"LeftTrialList",0,1,0
"481","1",1,42,NA,NA,6,NA,NA,NA,NA,NA,NA,NA,NA,NA,NA,NA,"OIKEAA",NA,"ResponseHandList","",1,1,"Left","LeftHemiProc","HemiList",2,NA,NA,NA,1,2,4,"LeftColorProc",NA,NA,NA,"LeftColorList","Red","PUNAISEN","punai",21,NA,NA,NA,1,4,262,0,1,3,4,201,"2",1,"LeftTrialProc",246,1,0,1,NA,NA,NA,"LeftTrialList",0,1,0
"482","1",1,42,NA,NA,6,NA,NA,NA,NA,NA,NA,NA,NA,NA,NA,NA,"OIKEAA",NA,"ResponseHandList","",1,1,"Left","LeftHemiProc","HemiList",2,NA,NA,NA,1,2,4,"LeftColorProc",NA,NA,NA,"LeftColorList","Red","PUNAISEN","punai",22,NA,NA,NA,1,4,301,0,1,3,4,202,"2",1,"LeftTrialProc",284,1,0,1,NA,NA,NA,"LeftTrialList",0,1,0
"486","1",1,42,NA,NA,6,NA,NA,NA,NA,NA,NA,NA,NA,NA,NA,NA,"OIKEAA",NA,"ResponseHandList","",1,1,"Left","LeftHemiProc","HemiList",2,NA,NA,NA,1,2,4,"LeftColorProc",NA,NA,NA,"LeftColorList","Red","PUNAISEN","punai",26,NA,NA,NA,0,4,285,1,1,1,4,206,"1",1,"LeftTrialProc",268,1,1,0,NA,NA,NA,"LeftTrialList",0,1,0
"487","1",1,42,NA,NA,6,NA,NA,NA,NA,NA,NA,NA,NA,NA,NA,NA,"OIKEAA",NA,"ResponseHandList","",1,1,"Left","LeftHemiProc","HemiList",2,NA,NA,NA,1,2,4,"LeftColorProc",NA,NA,NA,"LeftColorList","Red","PUNAISEN","punai",27,NA,NA,NA,0,4,233,1,1,1,4,207,"1",1,"LeftTrialProc",215,1,1,0,NA,NA,NA,"LeftTrialList",0,1,0
"489","1",1,42,NA,NA,6,NA,NA,NA,NA,NA,NA,NA,NA,NA,NA,NA,"OIKEAA",NA,"ResponseHandList","",1,1,"Left","LeftHemiProc","HemiList",2,NA,NA,NA,1,2,4,"LeftColorProc",NA,NA,NA,"LeftColorList","Red","PUNAISEN","punai",29,NA,NA,NA,1,4,264,0,1,3,4,209,"2",1,"LeftTrialProc",247,1,0,1,NA,NA,NA,"LeftTrialList",0,1,0
"490","1",1,42,NA,NA,6,NA,NA,NA,NA,NA,NA,NA,NA,NA,NA,NA,"OIKEAA",NA,"ResponseHandList","",1,1,"Left","LeftHemiProc","HemiList",2,NA,NA,NA,1,2,4,"LeftColorProc",NA,NA,NA,"LeftColorList","Red","PUNAISEN","punai",30,NA,NA,NA,0,4,242,1,1,1,4,210,"1",1,"LeftTrialProc",225,1,1,0,NA,NA,NA,"LeftTrialList",0,1,0
"493","1",1,42,NA,NA,6,NA,NA,NA,NA,NA,NA,NA,NA,NA,NA,NA,"OIKEAA",NA,"ResponseHandList","",1,1,"Left","LeftHemiProc","HemiList",2,NA,NA,NA,1,2,4,"LeftColorProc",NA,NA,NA,"LeftColorList","Red","PUNAISEN","punai",33,NA,NA,NA,0,4,267,1,1,1,4,213,"1",1,"LeftTrialProc",250,1,1,0,NA,NA,NA,"LeftTrialList",0,1,0
"494","1",1,42,NA,NA,6,NA,NA,NA,NA,NA,NA,NA,NA,NA,NA,NA,"OIKEAA",NA,"ResponseHandList","",1,1,"Left","LeftHemiProc","HemiList",2,NA,NA,NA,1,2,4,"LeftColorProc",NA,NA,NA,"LeftColorList","Red","PUNAISEN","punai",34,NA,NA,NA,0,4,308,1,1,1,4,214,"1",1,"LeftTrialProc",292,1,1,0,NA,NA,NA,"LeftTrialList",0,1,0
"495","1",1,42,NA,NA,6,NA,NA,NA,NA,NA,NA,NA,NA,NA,NA,NA,"OIKEAA",NA,"ResponseHandList","",1,1,"Left","LeftHemiProc","HemiList",2,NA,NA,NA,1,2,4,"LeftColorProc",NA,NA,NA,"LeftColorList","Red","PUNAISEN","punai",35,NA,NA,NA,1,4,281,0,1,3,4,215,"2",1,"LeftTrialProc",264,1,0,1,NA,NA,NA,"LeftTrialList",0,1,0
"497","1",1,42,NA,NA,6,NA,NA,NA,NA,NA,NA,NA,NA,NA,NA,NA,"OIKEAA",NA,"ResponseHandList","",1,1,"Left","LeftHemiProc","HemiList",2,NA,NA,NA,1,2,4,"LeftColorProc",NA,NA,NA,"LeftColorList","Red","PUNAISEN","punai",37,NA,NA,NA,1,4,255,0,1,3,4,217,"2",1,"LeftTrialProc",238,1,0,1,NA,NA,NA,"LeftTrialList",0,1,0
"499","1",1,42,NA,NA,6,NA,NA,NA,NA,NA,NA,NA,NA,NA,NA,NA,"OIKEAA",NA,"ResponseHandList","",1,1,"Left","LeftHemiProc","HemiList",2,NA,NA,NA,1,2,4,"LeftColorProc",NA,NA,NA,"LeftColorList","Red","PUNAISEN","punai",39,NA,NA,NA,0,4,303,1,1,1,4,219,"1",1,"LeftTrialProc",286,1,1,0,NA,NA,NA,"LeftTrialList",0,1,0
"501","1",1,42,NA,NA,6,NA,NA,NA,NA,NA,NA,NA,NA,NA,NA,NA,"OIKEAA",NA,"ResponseHandList","",1,1,"Left","LeftHemiProc","HemiList",2,NA,NA,NA,1,2,4,"LeftColorProc",NA,NA,NA,"LeftColorList","Red","PUNAISEN","punai",41,NA,NA,NA,1,4,354,0,1,3,4,221,"2",1,"LeftTrialProc",337,1,0,1,NA,NA,NA,"LeftTrialList",0,1,0
"503","1",1,42,NA,NA,6,NA,NA,NA,NA,NA,NA,NA,NA,NA,NA,NA,"OIKEAA",NA,"ResponseHandList","",1,1,"Left","LeftHemiProc","HemiList",2,NA,NA,NA,1,2,4,"LeftColorProc",NA,NA,NA,"LeftColorList","Red","PUNAISEN","punai",43,NA,NA,NA,0,4,296,1,1,1,4,223,"1",1,"LeftTrialProc",279,1,1,0,NA,NA,NA,"LeftTrialList",0,1,0
"504","1",1,42,NA,NA,6,NA,NA,NA,NA,NA,NA,NA,NA,NA,NA,NA,"OIKEAA",NA,"ResponseHandList","",1,1,"Left","LeftHemiProc","HemiList",2,NA,NA,NA,1,2,4,"LeftColorProc",NA,NA,NA,"LeftColorList","Red","PUNAISEN","punai",44,NA,NA,NA,0,4,294,1,1,1,4,224,"1",1,"LeftTrialProc",277,1,1,0,NA,NA,NA,"LeftTrialList",0,1,0
"508","1",1,42,NA,NA,6,NA,NA,NA,NA,NA,NA,NA,NA,NA,NA,NA,"OIKEAA",NA,"ResponseHandList","",1,1,"Left","LeftHemiProc","HemiList",2,NA,NA,NA,1,2,4,"LeftColorProc",NA,NA,NA,"LeftColorList","Red","PUNAISEN","punai",48,NA,NA,NA,1,4,324,0,1,3,4,228,"2",1,"LeftTrialProc",307,1,0,1,NA,NA,NA,"LeftTrialList",0,1,0
"511","1",1,42,NA,NA,6,NA,NA,NA,NA,NA,NA,NA,NA,NA,NA,NA,"OIKEAA",NA,"ResponseHandList","",1,1,"Left","LeftHemiProc","HemiList",2,NA,NA,NA,1,2,4,"LeftColorProc",NA,NA,NA,"LeftColorList","Red","PUNAISEN","punai",51,NA,NA,NA,1,4,290,0,1,3,4,231,"2",1,"LeftTrialProc",273,1,0,1,NA,NA,NA,"LeftTrialList",0,1,0
"514","1",1,42,NA,NA,6,NA,NA,NA,NA,NA,NA,NA,NA,NA,NA,NA,"OIKEAA",NA,"ResponseHandList","",1,1,"Left","LeftHemiProc","HemiList",2,NA,NA,NA,1,2,4,"LeftColorProc",NA,NA,NA,"LeftColorList","Red","PUNAISEN","punai",54,NA,NA,NA,0,4,283,1,1,1,4,234,"1",1,"LeftTrialProc",267,1,1,0,NA,NA,NA,"LeftTrialList",0,1,0
"515","1",1,42,NA,NA,6,NA,NA,NA,NA,NA,NA,NA,NA,NA,NA,NA,"OIKEAA",NA,"ResponseHandList","",1,1,"Left","LeftHemiProc","HemiList",2,NA,NA,NA,1,2,4,"LeftColorProc",NA,NA,NA,"LeftColorList","Red","PUNAISEN","punai",55,NA,NA,NA,1,4,301,0,1,3,4,235,"2",1,"LeftTrialProc",285,1,0,1,NA,NA,NA,"LeftTrialList",0,1,0
"516","1",1,42,NA,NA,6,NA,NA,NA,NA,NA,NA,NA,NA,NA,NA,NA,"OIKEAA",NA,"ResponseHandList","",1,1,"Left","LeftHemiProc","HemiList",2,NA,NA,NA,1,2,4,"LeftColorProc",NA,NA,NA,"LeftColorList","Red","PUNAISEN","punai",56,NA,NA,NA,1,4,310,0,1,3,4,236,"2",1,"LeftTrialProc",293,1,0,1,NA,NA,NA,"LeftTrialList",0,1,0
"519","1",1,42,NA,NA,6,NA,NA,NA,NA,NA,NA,NA,NA,NA,NA,NA,"OIKEAA",NA,"ResponseHandList","",1,1,"Left","LeftHemiProc","HemiList",2,NA,NA,NA,1,2,4,"LeftColorProc",NA,NA,NA,"LeftColorList","Red","PUNAISEN","punai",59,NA,NA,NA,0,4,289,1,1,1,4,239,"1",1,"LeftTrialProc",272,1,1,0,NA,NA,NA,"LeftTrialList",0,1,0
"642","1",1,42,NA,NA,6,NA,NA,NA,NA,NA,NA,NA,NA,NA,NA,NA,"OIKEAA",NA,"ResponseHandList","",1,3,"Right","RightHemiProc","HemiList",1,NA,NA,NA,NA,NA,NA,"RightColorProc",2,2,3,"RightColorList","Blue","SINISEN","sini",2,NA,NA,NA,0,4,320,1,0,NA,NA,NA,"1",1,"RightTrialProc",303,1,1,1,2,3,122,"RightTrialList",0,1,0
"657","1",1,42,NA,NA,6,NA,NA,NA,NA,NA,NA,NA,NA,NA,NA,NA,"OIKEAA",NA,"ResponseHandList","",1,3,"Right","RightHemiProc","HemiList",1,NA,NA,NA,NA,NA,NA,"RightColorProc",2,2,3,"RightColorList","Blue","SINISEN","sini",17,NA,NA,NA,0,4,344,1,0,NA,NA,NA,"1",1,"RightTrialProc",327,1,1,1,2,3,137,"RightTrialList",0,1,0
"663","1",1,42,NA,NA,6,NA,NA,NA,NA,NA,NA,NA,NA,NA,NA,NA,"OIKEAA",NA,"ResponseHandList","",1,3,"Right","RightHemiProc","HemiList",1,NA,NA,NA,NA,NA,NA,"RightColorProc",2,2,3,"RightColorList","Blue","SINISEN","sini",23,NA,NA,NA,0,4,322,1,0,NA,NA,NA,"1",1,"RightTrialProc",305,1,1,1,2,3,143,"RightTrialList",0,1,0
"664","1",1,42,NA,NA,6,NA,NA,NA,NA,NA,NA,NA,NA,NA,NA,NA,"OIKEAA",NA,"ResponseHandList","",1,3,"Right","RightHemiProc","HemiList",1,NA,NA,NA,NA,NA,NA,"RightColorProc",2,2,3,"RightColorList","Blue","SINISEN","sini",24,NA,NA,NA,0,4,301,1,0,NA,NA,NA,"1",1,"RightTrialProc",284,1,1,1,2,3,144,"RightTrialList",0,1,0
"667","1",1,42,NA,NA,6,NA,NA,NA,NA,NA,NA,NA,NA,NA,NA,NA,"OIKEAA",NA,"ResponseHandList","",1,3,"Right","RightHemiProc","HemiList",1,NA,NA,NA,NA,NA,NA,"RightColorProc",2,2,3,"RightColorList","Blue","SINISEN","sini",27,NA,NA,NA,0,4,350,1,0,NA,NA,NA,"1",1,"RightTrialProc",333,1,1,1,2,3,147,"RightTrialList",0,1,0
"669","1",1,42,NA,NA,6,NA,NA,NA,NA,NA,NA,NA,NA,NA,NA,NA,"OIKEAA",NA,"ResponseHandList","",1,3,"Right","RightHemiProc","HemiList",1,NA,NA,NA,NA,NA,NA,"RightColorProc",2,2,3,"RightColorList","Blue","SINISEN","sini",29,NA,NA,NA,0,4,306,1,0,NA,NA,NA,"1",1,"RightTrialProc",289,1,1,1,2,3,149,"RightTrialList",0,1,0
"670","1",1,42,NA,NA,6,NA,NA,NA,NA,NA,NA,NA,NA,NA,NA,NA,"OIKEAA",NA,"ResponseHandList","",1,3,"Right","RightHemiProc","HemiList",1,NA,NA,NA,NA,NA,NA,"RightColorProc",2,2,3,"RightColorList","Blue","SINISEN","sini",30,NA,NA,NA,0,4,354,1,0,NA,NA,NA,"1",1,"RightTrialProc",338,1,1,1,2,3,150,"RightTrialList",0,1,0
"673","1",1,42,NA,NA,6,NA,NA,NA,NA,NA,NA,NA,NA,NA,NA,NA,"OIKEAA",NA,"ResponseHandList","",1,3,"Right","RightHemiProc","HemiList",1,NA,NA,NA,NA,NA,NA,"RightColorProc",2,2,3,"RightColorList","Blue","SINISEN","sini",33,NA,NA,NA,0,4,280,1,0,NA,NA,NA,"1",1,"RightTrialProc",264,1,1,1,2,3,153,"RightTrialList",0,1,0
"678","1",1,42,NA,NA,6,NA,NA,NA,NA,NA,NA,NA,NA,NA,NA,NA,"OIKEAA",NA,"ResponseHandList","",1,3,"Right","RightHemiProc","HemiList",1,NA,NA,NA,NA,NA,NA,"RightColorProc",2,2,3,"RightColorList","Blue","SINISEN","sini",38,NA,NA,NA,1,4,376,0,1,NA,NA,NA,"2",1,"RightTrialProc",359,1,0,1,3,3,158,"RightTrialList",0,1,0
"685","1",1,42,NA,NA,6,NA,NA,NA,NA,NA,NA,NA,NA,NA,NA,NA,"OIKEAA",NA,"ResponseHandList","",1,3,"Right","RightHemiProc","HemiList",1,NA,NA,NA,NA,NA,NA,"RightColorProc",2,2,3,"RightColorList","Blue","SINISEN","sini",45,NA,NA,NA,1,4,281,0,1,NA,NA,NA,"2",1,"RightTrialProc",264,1,0,1,3,3,165,"RightTrialList",0,1,0
"689","1",1,42,NA,NA,6,NA,NA,NA,NA,NA,NA,NA,NA,NA,NA,NA,"OIKEAA",NA,"ResponseHandList","",1,3,"Right","RightHemiProc","HemiList",1,NA,NA,NA,NA,NA,NA,"RightColorProc",2,2,3,"RightColorList","Blue","SINISEN","sini",49,NA,NA,NA,0,4,309,1,0,NA,NA,NA,"1",1,"RightTrialProc",292,1,1,1,2,3,169,"RightTrialList",0,1,0
"690","1",1,42,NA,NA,6,NA,NA,NA,NA,NA,NA,NA,NA,NA,NA,NA,"OIKEAA",NA,"ResponseHandList","",1,3,"Right","RightHemiProc","HemiList",1,NA,NA,NA,NA,NA,NA,"RightColorProc",2,2,3,"RightColorList","Blue","SINISEN","sini",50,NA,NA,NA,0,4,367,1,0,NA,NA,NA,"1",1,"RightTrialProc",350,1,1,1,2,3,170,"RightTrialList",0,1,0
"700","1",1,42,NA,NA,6,NA,NA,NA,NA,NA,NA,NA,NA,NA,NA,NA,"OIKEAA",NA,"ResponseHandList","",1,3,"Right","RightHemiProc","HemiList",1,NA,NA,NA,NA,NA,NA,"RightColorProc",2,2,3,"RightColorList","Blue","SINISEN","sini",60,NA,NA,NA,0,4,331,1,0,NA,NA,NA,"1",1,"RightTrialProc",314,1,1,1,2,3,180,"RightTrialList",0,1,0
"704","1",1,42,NA,NA,6,NA,NA,NA,NA,NA,NA,NA,NA,NA,NA,NA,"OIKEAA",NA,"ResponseHandList","",1,3,"Right","RightHemiProc","HemiList",2,NA,NA,NA,NA,NA,NA,"RightColorProc",1,2,4,"RightColorList","Red","PUNAISEN","punai",4,NA,NA,NA,1,4,428,0,1,NA,NA,NA,"2",1,"RightTrialProc",411,1,0,1,3,4,184,"RightTrialList",0,1,0
"707","1",1,42,NA,NA,6,NA,NA,NA,NA,NA,NA,NA,NA,NA,NA,NA,"OIKEAA",NA,"ResponseHandList","",1,3,"Right","RightHemiProc","HemiList",2,NA,NA,NA,NA,NA,NA,"RightColorProc",1,2,4,"RightColorList","Red","PUNAISEN","punai",7,NA,NA,NA,0,4,283,1,0,NA,NA,NA,"1",1,"RightTrialProc",266,1,1,1,2,4,187,"RightTrialList",0,1,0
"716","1",1,42,NA,NA,6,NA,NA,NA,NA,NA,NA,NA,NA,NA,NA,NA,"OIKEAA",NA,"ResponseHandList","",1,3,"Right","RightHemiProc","HemiList",2,NA,NA,NA,NA,NA,NA,"RightColorProc",1,2,4,"RightColorList","Red","PUNAISEN","punai",16,NA,NA,NA,0,4,350,1,0,NA,NA,NA,"1",1,"RightTrialProc",334,1,1,1,2,4,196,"RightTrialList",0,1,0
"718","1",1,42,NA,NA,6,NA,NA,NA,NA,NA,NA,NA,NA,NA,NA,NA,"OIKEAA",NA,"ResponseHandList","",1,3,"Right","RightHemiProc","HemiList",2,NA,NA,NA,NA,NA,NA,"RightColorProc",1,2,4,"RightColorList","Red","PUNAISEN","punai",18,NA,NA,NA,0,4,299,1,0,NA,NA,NA,"1",1,"RightTrialProc",282,1,1,1,2,4,198,"RightTrialList",0,1,0
"726","1",1,42,NA,NA,6,NA,NA,NA,NA,NA,NA,NA,NA,NA,NA,NA,"OIKEAA",NA,"ResponseHandList","",1,3,"Right","RightHemiProc","HemiList",2,NA,NA,NA,NA,NA,NA,"RightColorProc",1,2,4,"RightColorList","Red","PUNAISEN","punai",26,NA,NA,NA,0,4,359,1,0,NA,NA,NA,"1",1,"RightTrialProc",342,1,1,1,2,4,206,"RightTrialList",0,1,0
"727","1",1,42,NA,NA,6,NA,NA,NA,NA,NA,NA,NA,NA,NA,NA,NA,"OIKEAA",NA,"ResponseHandList","",1,3,"Right","RightHemiProc","HemiList",2,NA,NA,NA,NA,NA,NA,"RightColorProc",1,2,4,"RightColorList","Red","PUNAISEN","punai",27,NA,NA,NA,0,4,338,1,0,NA,NA,NA,"1",1,"RightTrialProc",321,1,1,1,2,4,207,"RightTrialList",0,1,0
"728","1",1,42,NA,NA,6,NA,NA,NA,NA,NA,NA,NA,NA,NA,NA,NA,"OIKEAA",NA,"ResponseHandList","",1,3,"Right","RightHemiProc","HemiList",2,NA,NA,NA,NA,NA,NA,"RightColorProc",1,2,4,"RightColorList","Red","PUNAISEN","punai",28,NA,NA,NA,0,4,278,1,0,NA,NA,NA,"1",1,"RightTrialProc",261,1,1,1,2,4,208,"RightTrialList",0,1,0
"729","1",1,42,NA,NA,6,NA,NA,NA,NA,NA,NA,NA,NA,NA,NA,NA,"OIKEAA",NA,"ResponseHandList","",1,3,"Right","RightHemiProc","HemiList",2,NA,NA,NA,NA,NA,NA,"RightColorProc",1,2,4,"RightColorList","Red","PUNAISEN","punai",29,NA,NA,NA,0,4,338,1,0,NA,NA,NA,"1",1,"RightTrialProc",321,1,1,1,2,4,209,"RightTrialList",0,1,0
"737","1",1,42,NA,NA,6,NA,NA,NA,NA,NA,NA,NA,NA,NA,NA,NA,"OIKEAA",NA,"ResponseHandList","",1,3,"Right","RightHemiProc","HemiList",2,NA,NA,NA,NA,NA,NA,"RightColorProc",1,2,4,"RightColorList","Red","PUNAISEN","punai",37,NA,NA,NA,0,4,304,1,0,NA,NA,NA,"1",1,"RightTrialProc",288,1,1,1,2,4,217,"RightTrialList",0,1,0
"749","1",1,42,NA,NA,6,NA,NA,NA,NA,NA,NA,NA,NA,NA,NA,NA,"OIKEAA",NA,"ResponseHandList","",1,3,"Right","RightHemiProc","HemiList",2,NA,NA,NA,NA,NA,NA,"RightColorProc",1,2,4,"RightColorList","Red","PUNAISEN","punai",49,NA,NA,NA,0,4,280,1,0,NA,NA,NA,"1",1,"RightTrialProc",263,1,1,1,2,4,229,"RightTrialList",0,1,0
"757","1",1,42,NA,NA,6,NA,NA,NA,NA,NA,NA,NA,NA,NA,NA,NA,"OIKEAA",NA,"ResponseHandList","",1,3,"Right","RightHemiProc","HemiList",2,NA,NA,NA,NA,NA,NA,"RightColorProc",1,2,4,"RightColorList","Red","PUNAISEN","punai",57,NA,NA,NA,0,4,284,1,0,NA,NA,NA,"1",1,"RightTrialProc",267,1,1,1,2,4,237,"RightTrialList",0,1,0
"803","2",1,41,NA,NA,5,NA,NA,NA,NA,NA,NA,NA,NA,NA,NA,NA,"VASENTA",NA,"ResponseHandList","",1,1,"Left","LeftHemiProc","HemiList",1,NA,NA,NA,2,1,1,"LeftColorProc",NA,NA,NA,"LeftColorList","Blue","SINISEN","sini",3,NA,NA,NA,0,4,213,1,1,1,1,3,"1",1,"LeftTrialProc",196,1,1,0,NA,NA,NA,"LeftTrialList",0,1,0
"805","2",1,41,NA,NA,5,NA,NA,NA,NA,NA,NA,NA,NA,NA,NA,NA,"VASENTA",NA,"ResponseHandList","",1,1,"Left","LeftHemiProc","HemiList",1,NA,NA,NA,2,1,1,"LeftColorProc",NA,NA,NA,"LeftColorList","Blue","SINISEN","sini",5,NA,NA,NA,0,4,224,1,1,1,1,5,"1",1,"LeftTrialProc",208,1,1,0,NA,NA,NA,"LeftTrialList",0,1,1
"806","2",1,41,NA,NA,5,NA,NA,NA,NA,NA,NA,NA,NA,NA,NA,NA,"VASENTA",NA,"ResponseHandList","",1,1,"Left","LeftHemiProc","HemiList",1,NA,NA,NA,2,1,1,"LeftColorProc",NA,NA,NA,"LeftColorList","Blue","SINISEN","sini",6,NA,NA,NA,0,4,221,1,1,1,1,6,"1",1,"LeftTrialProc",204,1,1,0,NA,NA,NA,"LeftTrialList",0,1,0
"808","2",1,41,NA,NA,5,NA,NA,NA,NA,NA,NA,NA,NA,NA,NA,NA,"VASENTA",NA,"ResponseHandList","",1,1,"Left","LeftHemiProc","HemiList",1,NA,NA,NA,2,1,1,"LeftColorProc",NA,NA,NA,"LeftColorList","Blue","SINISEN","sini",8,NA,NA,NA,0,4,289,1,1,1,1,8,"1",1,"LeftTrialProc",273,1,1,0,NA,NA,NA,"LeftTrialList",0,1,0
"815","2",1,41,NA,NA,5,NA,NA,NA,NA,NA,NA,NA,NA,NA,NA,NA,"VASENTA",NA,"ResponseHandList","",1,1,"Left","LeftHemiProc","HemiList",1,NA,NA,NA,2,1,1,"LeftColorProc",NA,NA,NA,"LeftColorList","Blue","SINISEN","sini",15,NA,NA,NA,0,4,198,1,1,1,1,15,"1",1,"LeftTrialProc",181,1,1,0,NA,NA,NA,"LeftTrialList",0,1,1
"820","2",1,41,NA,NA,5,NA,NA,NA,NA,NA,NA,NA,NA,NA,NA,NA,"VASENTA",NA,"ResponseHandList","",1,1,"Left","LeftHemiProc","HemiList",1,NA,NA,NA,2,1,1,"LeftColorProc",NA,NA,NA,"LeftColorList","Blue","SINISEN","sini",20,NA,NA,NA,0,4,277,1,1,1,1,20,"1",1,"LeftTrialProc",261,1,1,0,NA,NA,NA,"LeftTrialList",0,1,1
"821","2",1,41,NA,NA,5,NA,NA,NA,NA,NA,NA,NA,NA,NA,NA,NA,"VASENTA",NA,"ResponseHandList","",1,1,"Left","LeftHemiProc","HemiList",1,NA,NA,NA,2,1,1,"LeftColorProc",NA,NA,NA,"LeftColorList","Blue","SINISEN","sini",21,NA,NA,NA,0,4,238,1,1,1,1,21,"1",1,"LeftTrialProc",221,1,1,0,NA,NA,NA,"LeftTrialList",0,1,0
"822","2",1,41,NA,NA,5,NA,NA,NA,NA,NA,NA,NA,NA,NA,NA,NA,"VASENTA",NA,"ResponseHandList","",1,1,"Left","LeftHemiProc","HemiList",1,NA,NA,NA,2,1,1,"LeftColorProc",NA,NA,NA,"LeftColorList","Blue","SINISEN","sini",22,NA,NA,NA,1,4,199,0,1,3,1,22,"2",1,"LeftTrialProc",182,1,0,1,NA,NA,NA,"LeftTrialList",0,1,0
"823","2",1,41,NA,NA,5,NA,NA,NA,NA,NA,NA,NA,NA,NA,NA,NA,"VASENTA",NA,"ResponseHandList","",1,1,"Left","LeftHemiProc","HemiList",1,NA,NA,NA,2,1,1,"LeftColorProc",NA,NA,NA,"LeftColorList","Blue","SINISEN","sini",23,NA,NA,NA,0,4,205,1,1,1,1,23,"1",1,"LeftTrialProc",188,1,1,0,NA,NA,NA,"LeftTrialList",0,1,0
"824","2",1,41,NA,NA,5,NA,NA,NA,NA,NA,NA,NA,NA,NA,NA,NA,"VASENTA",NA,"ResponseHandList","",1,1,"Left","LeftHemiProc","HemiList",1,NA,NA,NA,2,1,1,"LeftColorProc",NA,NA,NA,"LeftColorList","Blue","SINISEN","sini",24,NA,NA,NA,0,4,336,1,1,1,1,24,"1",1,"LeftTrialProc",319,1,1,0,NA,NA,NA,"LeftTrialList",0,1,0
"825","2",1,41,NA,NA,5,NA,NA,NA,NA,NA,NA,NA,NA,NA,NA,NA,"VASENTA",NA,"ResponseHandList","",1,1,"Left","LeftHemiProc","HemiList",1,NA,NA,NA,2,1,1,"LeftColorProc",NA,NA,NA,"LeftColorList","Blue","SINISEN","sini",25,NA,NA,NA,0,4,292,1,1,1,1,25,"1",1,"LeftTrialProc",276,1,1,0,NA,NA,NA,"LeftTrialList",0,1,0
"827","2",1,41,NA,NA,5,NA,NA,NA,NA,NA,NA,NA,NA,NA,NA,NA,"VASENTA",NA,"ResponseHandList","",1,1,"Left","LeftHemiProc","HemiList",1,NA,NA,NA,2,1,1,"LeftColorProc",NA,NA,NA,"LeftColorList","Blue","SINISEN","sini",27,NA,NA,NA,1,4,225,0,1,3,1,27,"2",1,"LeftTrialProc",209,1,0,1,NA,NA,NA,"LeftTrialList",0,1,0
"829","2",1,41,NA,NA,5,NA,NA,NA,NA,NA,NA,NA,NA,NA,NA,NA,"VASENTA",NA,"ResponseHandList","",1,1,"Left","LeftHemiProc","HemiList",1,NA,NA,NA,2,1,1,"LeftColorProc",NA,NA,NA,"LeftColorList","Blue","SINISEN","sini",29,NA,NA,NA,1,4,227,0,1,3,1,29,"2",1,"LeftTrialProc",211,1,0,1,NA,NA,NA,"LeftTrialList",0,1,0
"831","2",1,41,NA,NA,5,NA,NA,NA,NA,NA,NA,NA,NA,NA,NA,NA,"VASENTA",NA,"ResponseHandList","",1,1,"Left","LeftHemiProc","HemiList",1,NA,NA,NA,2,1,1,"LeftColorProc",NA,NA,NA,"LeftColorList","Blue","SINISEN","sini",31,NA,NA,NA,1,4,224,0,1,3,1,31,"2",1,"LeftTrialProc",207,1,0,1,NA,NA,NA,"LeftTrialList",0,1,1
"832","2",1,41,NA,NA,5,NA,NA,NA,NA,NA,NA,NA,NA,NA,NA,NA,"VASENTA",NA,"ResponseHandList","",1,1,"Left","LeftHemiProc","HemiList",1,NA,NA,NA,2,1,1,"LeftColorProc",NA,NA,NA,"LeftColorList","Blue","SINISEN","sini",32,NA,NA,NA,1,4,218,0,1,3,1,32,"2",1,"LeftTrialProc",202,1,0,1,NA,NA,NA,"LeftTrialList",0,1,0
"834","2",1,41,NA,NA,5,NA,NA,NA,NA,NA,NA,NA,NA,NA,NA,NA,"VASENTA",NA,"ResponseHandList","",1,1,"Left","LeftHemiProc","HemiList",1,NA,NA,NA,2,1,1,"LeftColorProc",NA,NA,NA,"LeftColorList","Blue","SINISEN","sini",34,NA,NA,NA,0,4,241,1,1,1,1,34,"1",1,"LeftTrialProc",224,1,1,0,NA,NA,NA,"LeftTrialList",0,1,0
"835","2",1,41,NA,NA,5,NA,NA,NA,NA,NA,NA,NA,NA,NA,NA,NA,"VASENTA",NA,"ResponseHandList","",1,1,"Left","LeftHemiProc","HemiList",1,NA,NA,NA,2,1,1,"LeftColorProc",NA,NA,NA,"LeftColorList","Blue","SINISEN","sini",35,NA,NA,NA,1,4,223,0,1,3,1,35,"2",1,"LeftTrialProc",207,1,0,1,NA,NA,NA,"LeftTrialList",0,1,0
"837","2",1,41,NA,NA,5,NA,NA,NA,NA,NA,NA,NA,NA,NA,NA,NA,"VASENTA",NA,"ResponseHandList","",1,1,"Left","LeftHemiProc","HemiList",1,NA,NA,NA,2,1,1,"LeftColorProc",NA,NA,NA,"LeftColorList","Blue","SINISEN","sini",37,NA,NA,NA,0,4,247,1,1,1,1,37,"1",1,"LeftTrialProc",231,1,1,0,NA,NA,NA,"LeftTrialList",0,1,1
"841","2",1,41,NA,NA,5,NA,NA,NA,NA,NA,NA,NA,NA,NA,NA,NA,"VASENTA",NA,"ResponseHandList","",1,1,"Left","LeftHemiProc","HemiList",1,NA,NA,NA,2,1,1,"LeftColorProc",NA,NA,NA,"LeftColorList","Blue","SINISEN","sini",41,NA,NA,NA,0,4,345,1,1,1,1,41,"1",1,"LeftTrialProc",328,1,1,0,NA,NA,NA,"LeftTrialList",0,1,0
"842","2",1,41,NA,NA,5,NA,NA,NA,NA,NA,NA,NA,NA,NA,NA,NA,"VASENTA",NA,"ResponseHandList","",1,1,"Left","LeftHemiProc","HemiList",1,NA,NA,NA,2,1,1,"LeftColorProc",NA,NA,NA,"LeftColorList","Blue","SINISEN","sini",42,NA,NA,NA,0,4,226,1,1,1,1,42,"1",1,"LeftTrialProc",209,1,1,0,NA,NA,NA,"LeftTrialList",0,1,0
"843","2",1,41,NA,NA,5,NA,NA,NA,NA,NA,NA,NA,NA,NA,NA,NA,"VASENTA",NA,"ResponseHandList","",1,1,"Left","LeftHemiProc","HemiList",1,NA,NA,NA,2,1,1,"LeftColorProc",NA,NA,NA,"LeftColorList","Blue","SINISEN","sini",43,NA,NA,NA,1,4,220,0,1,3,1,43,"2",1,"LeftTrialProc",204,1,0,1,NA,NA,NA,"LeftTrialList",0,1,0
"845","2",1,41,NA,NA,5,NA,NA,NA,NA,NA,NA,NA,NA,NA,NA,NA,"VASENTA",NA,"ResponseHandList","",1,1,"Left","LeftHemiProc","HemiList",1,NA,NA,NA,2,1,1,"LeftColorProc",NA,NA,NA,"LeftColorList","Blue","SINISEN","sini",45,NA,NA,NA,0,4,237,1,1,1,1,45,"1",1,"LeftTrialProc",220,1,1,0,NA,NA,NA,"LeftTrialList",0,1,0
"846","2",1,41,NA,NA,5,NA,NA,NA,NA,NA,NA,NA,NA,NA,NA,NA,"VASENTA",NA,"ResponseHandList","",1,1,"Left","LeftHemiProc","HemiList",1,NA,NA,NA,2,1,1,"LeftColorProc",NA,NA,NA,"LeftColorList","Blue","SINISEN","sini",46,NA,NA,NA,0,4,213,1,1,1,1,46,"1",1,"LeftTrialProc",196,1,1,0,NA,NA,NA,"LeftTrialList",0,1,0
"848","2",1,41,NA,NA,5,NA,NA,NA,NA,NA,NA,NA,NA,NA,NA,NA,"VASENTA",NA,"ResponseHandList","",1,1,"Left","LeftHemiProc","HemiList",1,NA,NA,NA,2,1,1,"LeftColorProc",NA,NA,NA,"LeftColorList","Blue","SINISEN","sini",48,NA,NA,NA,1,4,234,0,1,3,1,48,"2",1,"LeftTrialProc",217,1,0,1,NA,NA,NA,"LeftTrialList",0,1,1
"850","2",1,41,NA,NA,5,NA,NA,NA,NA,NA,NA,NA,NA,NA,NA,NA,"VASENTA",NA,"ResponseHandList","",1,1,"Left","LeftHemiProc","HemiList",1,NA,NA,NA,2,1,1,"LeftColorProc",NA,NA,NA,"LeftColorList","Blue","SINISEN","sini",50,NA,NA,NA,1,4,383,0,1,3,1,50,"2",1,"LeftTrialProc",366,1,0,1,NA,NA,NA,"LeftTrialList",0,1,0
"851","2",1,41,NA,NA,5,NA,NA,NA,NA,NA,NA,NA,NA,NA,NA,NA,"VASENTA",NA,"ResponseHandList","",1,1,"Left","LeftHemiProc","HemiList",1,NA,NA,NA,2,1,1,"LeftColorProc",NA,NA,NA,"LeftColorList","Blue","SINISEN","sini",51,NA,NA,NA,1,4,238,0,1,3,1,51,"2",1,"LeftTrialProc",221,1,0,1,NA,NA,NA,"LeftTrialList",0,1,0
"852","2",1,41,NA,NA,5,NA,NA,NA,NA,NA,NA,NA,NA,NA,NA,NA,"VASENTA",NA,"ResponseHandList","",1,1,"Left","LeftHemiProc","HemiList",1,NA,NA,NA,2,1,1,"LeftColorProc",NA,NA,NA,"LeftColorList","Blue","SINISEN","sini",52,NA,NA,NA,0,4,247,1,1,1,1,52,"1",1,"LeftTrialProc",231,1,1,0,NA,NA,NA,"LeftTrialList",0,1,0
"853","2",1,41,NA,NA,5,NA,NA,NA,NA,NA,NA,NA,NA,NA,NA,NA,"VASENTA",NA,"ResponseHandList","",1,1,"Left","LeftHemiProc","HemiList",1,NA,NA,NA,2,1,1,"LeftColorProc",NA,NA,NA,"LeftColorList","Blue","SINISEN","sini",53,NA,NA,NA,0,4,314,1,1,1,1,53,"1",1,"LeftTrialProc",297,1,1,0,NA,NA,NA,"LeftTrialList",0,1,0
"855","2",1,41,NA,NA,5,NA,NA,NA,NA,NA,NA,NA,NA,NA,NA,NA,"VASENTA",NA,"ResponseHandList","",1,1,"Left","LeftHemiProc","HemiList",1,NA,NA,NA,2,1,1,"LeftColorProc",NA,NA,NA,"LeftColorList","Blue","SINISEN","sini",55,NA,NA,NA,1,4,427,0,1,3,1,55,"2",1,"LeftTrialProc",410,1,0,1,NA,NA,NA,"LeftTrialList",0,1,0
"856","2",1,41,NA,NA,5,NA,NA,NA,NA,NA,NA,NA,NA,NA,NA,NA,"VASENTA",NA,"ResponseHandList","",1,1,"Left","LeftHemiProc","HemiList",1,NA,NA,NA,2,1,1,"LeftColorProc",NA,NA,NA,"LeftColorList","Blue","SINISEN","sini",56,NA,NA,NA,0,4,238,1,1,1,1,56,"1",1,"LeftTrialProc",221,1,1,0,NA,NA,NA,"LeftTrialList",0,1,0
"857","2",1,41,NA,NA,5,NA,NA,NA,NA,NA,NA,NA,NA,NA,NA,NA,"VASENTA",NA,"ResponseHandList","",1,1,"Left","LeftHemiProc","HemiList",1,NA,NA,NA,2,1,1,"LeftColorProc",NA,NA,NA,"LeftColorList","Blue","SINISEN","sini",57,NA,NA,NA,1,4,255,0,1,3,1,57,"2",1,"LeftTrialProc",238,1,0,1,NA,NA,NA,"LeftTrialList",0,1,0
"858","2",1,41,NA,NA,5,NA,NA,NA,NA,NA,NA,NA,NA,NA,NA,NA,"VASENTA",NA,"ResponseHandList","",1,1,"Left","LeftHemiProc","HemiList",1,NA,NA,NA,2,1,1,"LeftColorProc",NA,NA,NA,"LeftColorList","Blue","SINISEN","sini",58,NA,NA,NA,0,4,238,1,1,1,1,58,"1",1,"LeftTrialProc",221,1,1,0,NA,NA,NA,"LeftTrialList",0,1,0
"859","2",1,41,NA,NA,5,NA,NA,NA,NA,NA,NA,NA,NA,NA,NA,NA,"VASENTA",NA,"ResponseHandList","",1,1,"Left","LeftHemiProc","HemiList",1,NA,NA,NA,2,1,1,"LeftColorProc",NA,NA,NA,"LeftColorList","Blue","SINISEN","sini",59,NA,NA,NA,1,4,276,0,1,3,1,59,"2",1,"LeftTrialProc",259,1,0,1,NA,NA,NA,"LeftTrialList",0,1,0
"860","2",1,41,NA,NA,5,NA,NA,NA,NA,NA,NA,NA,NA,NA,NA,NA,"VASENTA",NA,"ResponseHandList","",1,1,"Left","LeftHemiProc","HemiList",1,NA,NA,NA,2,1,1,"LeftColorProc",NA,NA,NA,"LeftColorList","Blue","SINISEN","sini",60,NA,NA,NA,1,4,223,0,1,3,1,60,"2",1,"LeftTrialProc",207,1,0,1,NA,NA,NA,"LeftTrialList",0,1,0
"863","2",1,41,NA,NA,5,NA,NA,NA,NA,NA,NA,NA,NA,NA,NA,NA,"VASENTA",NA,"ResponseHandList","",1,1,"Left","LeftHemiProc","HemiList",2,NA,NA,NA,1,1,2,"LeftColorProc",NA,NA,NA,"LeftColorList","Red","PUNAISEN","punai",3,NA,NA,NA,0,4,211,1,1,1,2,63,"1",1,"LeftTrialProc",194,1,1,0,NA,NA,NA,"LeftTrialList",0,1,0
"864","2",1,41,NA,NA,5,NA,NA,NA,NA,NA,NA,NA,NA,NA,NA,NA,"VASENTA",NA,"ResponseHandList","",1,1,"Left","LeftHemiProc","HemiList",2,NA,NA,NA,1,1,2,"LeftColorProc",NA,NA,NA,"LeftColorList","Red","PUNAISEN","punai",4,NA,NA,NA,0,4,213,1,1,1,2,64,"1",1,"LeftTrialProc",196,1,1,0,NA,NA,NA,"LeftTrialList",0,1,0
"866","2",1,41,NA,NA,5,NA,NA,NA,NA,NA,NA,NA,NA,NA,NA,NA,"VASENTA",NA,"ResponseHandList","",1,1,"Left","LeftHemiProc","HemiList",2,NA,NA,NA,1,1,2,"LeftColorProc",NA,NA,NA,"LeftColorList","Red","PUNAISEN","punai",6,NA,NA,NA,0,4,228,1,1,1,2,66,"1",1,"LeftTrialProc",211,1,1,0,NA,NA,NA,"LeftTrialList",0,1,0
"870","2",1,41,NA,NA,5,NA,NA,NA,NA,NA,NA,NA,NA,NA,NA,NA,"VASENTA",NA,"ResponseHandList","",1,1,"Left","LeftHemiProc","HemiList",2,NA,NA,NA,1,1,2,"LeftColorProc",NA,NA,NA,"LeftColorList","Red","PUNAISEN","punai",10,NA,NA,NA,0,4,264,1,1,1,2,70,"1",1,"LeftTrialProc",247,1,1,0,NA,NA,NA,"LeftTrialList",0,1,1
"872","2",1,41,NA,NA,5,NA,NA,NA,NA,NA,NA,NA,NA,NA,NA,NA,"VASENTA",NA,"ResponseHandList","",1,1,"Left","LeftHemiProc","HemiList",2,NA,NA,NA,1,1,2,"LeftColorProc",NA,NA,NA,"LeftColorList","Red","PUNAISEN","punai",12,NA,NA,NA,0,4,195,1,1,1,2,72,"1",1,"LeftTrialProc",178,1,1,0,NA,NA,NA,"LeftTrialList",0,1,1
"877","2",1,41,NA,NA,5,NA,NA,NA,NA,NA,NA,NA,NA,NA,NA,NA,"VASENTA",NA,"ResponseHandList","",1,1,"Left","LeftHemiProc","HemiList",2,NA,NA,NA,1,1,2,"LeftColorProc",NA,NA,NA,"LeftColorList","Red","PUNAISEN","punai",17,NA,NA,NA,0,4,408,1,1,1,2,77,"1",1,"LeftTrialProc",391,1,1,0,NA,NA,NA,"LeftTrialList",0,1,1
"879","2",1,41,NA,NA,5,NA,NA,NA,NA,NA,NA,NA,NA,NA,NA,NA,"VASENTA",NA,"ResponseHandList","",1,1,"Left","LeftHemiProc","HemiList",2,NA,NA,NA,1,1,2,"LeftColorProc",NA,NA,NA,"LeftColorList","Red","PUNAISEN","punai",19,NA,NA,NA,0,4,240,1,1,1,2,79,"1",1,"LeftTrialProc",223,1,1,0,NA,NA,NA,"LeftTrialList",0,1,0
"881","2",1,41,NA,NA,5,NA,NA,NA,NA,NA,NA,NA,NA,NA,NA,NA,"VASENTA",NA,"ResponseHandList","",1,1,"Left","LeftHemiProc","HemiList",2,NA,NA,NA,1,1,2,"LeftColorProc",NA,NA,NA,"LeftColorList","Red","PUNAISEN","punai",21,NA,NA,NA,0,4,415,1,1,1,2,81,"1",1,"LeftTrialProc",399,1,1,0,NA,NA,NA,"LeftTrialList",0,1,1
"883","2",1,41,NA,NA,5,NA,NA,NA,NA,NA,NA,NA,NA,NA,NA,NA,"VASENTA",NA,"ResponseHandList","",1,1,"Left","LeftHemiProc","HemiList",2,NA,NA,NA,1,1,2,"LeftColorProc",NA,NA,NA,"LeftColorList","Red","PUNAISEN","punai",23,NA,NA,NA,1,4,368,0,1,3,2,83,"2",1,"LeftTrialProc",351,1,0,1,NA,NA,NA,"LeftTrialList",0,1,0
"884","2",1,41,NA,NA,5,NA,NA,NA,NA,NA,NA,NA,NA,NA,NA,NA,"VASENTA",NA,"ResponseHandList","",1,1,"Left","LeftHemiProc","HemiList",2,NA,NA,NA,1,1,2,"LeftColorProc",NA,NA,NA,"LeftColorList","Red","PUNAISEN","punai",24,NA,NA,NA,0,4,267,1,1,1,2,84,"1",1,"LeftTrialProc",250,1,1,0,NA,NA,NA,"LeftTrialList",0,1,0
"885","2",1,41,NA,NA,5,NA,NA,NA,NA,NA,NA,NA,NA,NA,NA,NA,"VASENTA",NA,"ResponseHandList","",1,1,"Left","LeftHemiProc","HemiList",2,NA,NA,NA,1,1,2,"LeftColorProc",NA,NA,NA,"LeftColorList","Red","PUNAISEN","punai",25,NA,NA,NA,1,4,221,0,1,3,2,85,"2",1,"LeftTrialProc",204,1,0,1,NA,NA,NA,"LeftTrialList",0,1,0
"886","2",1,41,NA,NA,5,NA,NA,NA,NA,NA,NA,NA,NA,NA,NA,NA,"VASENTA",NA,"ResponseHandList","",1,1,"Left","LeftHemiProc","HemiList",2,NA,NA,NA,1,1,2,"LeftColorProc",NA,NA,NA,"LeftColorList","Red","PUNAISEN","punai",26,NA,NA,NA,0,4,315,1,1,1,2,86,"1",1,"LeftTrialProc",298,1,1,0,NA,NA,NA,"LeftTrialList",0,1,0
"891","2",1,41,NA,NA,5,NA,NA,NA,NA,NA,NA,NA,NA,NA,NA,NA,"VASENTA",NA,"ResponseHandList","",1,1,"Left","LeftHemiProc","HemiList",2,NA,NA,NA,1,1,2,"LeftColorProc",NA,NA,NA,"LeftColorList","Red","PUNAISEN","punai",31,NA,NA,NA,0,4,252,1,1,1,2,91,"1",1,"LeftTrialProc",235,1,1,0,NA,NA,NA,"LeftTrialList",0,1,0
"892","2",1,41,NA,NA,5,NA,NA,NA,NA,NA,NA,NA,NA,NA,NA,NA,"VASENTA",NA,"ResponseHandList","",1,1,"Left","LeftHemiProc","HemiList",2,NA,NA,NA,1,1,2,"LeftColorProc",NA,NA,NA,"LeftColorList","Red","PUNAISEN","punai",32,NA,NA,NA,0,4,313,1,1,1,2,92,"1",1,"LeftTrialProc",296,1,1,0,NA,NA,NA,"LeftTrialList",0,1,0
"897","2",1,41,NA,NA,5,NA,NA,NA,NA,NA,NA,NA,NA,NA,NA,NA,"VASENTA",NA,"ResponseHandList","",1,1,"Left","LeftHemiProc","HemiList",2,NA,NA,NA,1,1,2,"LeftColorProc",NA,NA,NA,"LeftColorList","Red","PUNAISEN","punai",37,NA,NA,NA,0,4,226,1,1,1,2,97,"1",1,"LeftTrialProc",209,1,1,0,NA,NA,NA,"LeftTrialList",0,1,0
"898","2",1,41,NA,NA,5,NA,NA,NA,NA,NA,NA,NA,NA,NA,NA,NA,"VASENTA",NA,"ResponseHandList","",1,1,"Left","LeftHemiProc","HemiList",2,NA,NA,NA,1,1,2,"LeftColorProc",NA,NA,NA,"LeftColorList","Red","PUNAISEN","punai",38,NA,NA,NA,1,4,256,0,1,3,2,98,"2",1,"LeftTrialProc",239,1,0,1,NA,NA,NA,"LeftTrialList",0,1,0
"901","2",1,41,NA,NA,5,NA,NA,NA,NA,NA,NA,NA,NA,NA,NA,NA,"VASENTA",NA,"ResponseHandList","",1,1,"Left","LeftHemiProc","HemiList",2,NA,NA,NA,1,1,2,"LeftColorProc",NA,NA,NA,"LeftColorList","Red","PUNAISEN","punai",41,NA,NA,NA,0,4,317,1,1,1,2,101,"1",1,"LeftTrialProc",300,1,1,0,NA,NA,NA,"LeftTrialList",0,1,1
"1042","2",1,41,NA,NA,5,NA,NA,NA,NA,NA,NA,NA,NA,NA,NA,NA,"VASENTA",NA,"ResponseHandList","",1,3,"Right","RightHemiProc","HemiList",1,NA,NA,NA,NA,NA,NA,"RightColorProc",2,1,1,"RightColorList","Blue","SINISEN","sini",2,NA,NA,NA,0,4,272,1,0,NA,NA,NA,"1",1,"RightTrialProc",256,1,1,1,2,1,2,"RightTrialList",0,1,0
"1049","2",1,41,NA,NA,5,NA,NA,NA,NA,NA,NA,NA,NA,NA,NA,NA,"VASENTA",NA,"ResponseHandList","",1,3,"Right","RightHemiProc","HemiList",1,NA,NA,NA,NA,NA,NA,"RightColorProc",2,1,1,"RightColorList","Blue","SINISEN","sini",9,NA,NA,NA,0,4,309,1,0,NA,NA,NA,"1",1,"RightTrialProc",293,1,1,1,2,1,9,"RightTrialList",0,1,0
"1055","2",1,41,NA,NA,5,NA,NA,NA,NA,NA,NA,NA,NA,NA,NA,NA,"VASENTA",NA,"ResponseHandList","",1,3,"Right","RightHemiProc","HemiList",1,NA,NA,NA,NA,NA,NA,"RightColorProc",2,1,1,"RightColorList","Blue","SINISEN","sini",15,NA,NA,NA,0,4,329,1,0,NA,NA,NA,"1",1,"RightTrialProc",312,1,1,1,2,1,15,"RightTrialList",0,1,0
"1056","2",1,41,NA,NA,5,NA,NA,NA,NA,NA,NA,NA,NA,NA,NA,NA,"VASENTA",NA,"ResponseHandList","",1,3,"Right","RightHemiProc","HemiList",1,NA,NA,NA,NA,NA,NA,"RightColorProc",2,1,1,"RightColorList","Blue","SINISEN","sini",16,NA,NA,NA,0,4,358,1,0,NA,NA,NA,"1",1,"RightTrialProc",341,1,1,1,2,1,16,"RightTrialList",0,1,0
"1057","2",1,41,NA,NA,5,NA,NA,NA,NA,NA,NA,NA,NA,NA,NA,NA,"VASENTA",NA,"ResponseHandList","",1,3,"Right","RightHemiProc","HemiList",1,NA,NA,NA,NA,NA,NA,"RightColorProc",2,1,1,"RightColorList","Blue","SINISEN","sini",17,NA,NA,NA,0,4,296,1,0,NA,NA,NA,"1",1,"RightTrialProc",279,1,1,1,2,1,17,"RightTrialList",0,1,0
"1065","2",1,41,NA,NA,5,NA,NA,NA,NA,NA,NA,NA,NA,NA,NA,NA,"VASENTA",NA,"ResponseHandList","",1,3,"Right","RightHemiProc","HemiList",1,NA,NA,NA,NA,NA,NA,"RightColorProc",2,1,1,"RightColorList","Blue","SINISEN","sini",25,NA,NA,NA,0,4,234,1,0,NA,NA,NA,"1",1,"RightTrialProc",217,1,1,1,2,1,25,"RightTrialList",0,1,0
"1067","2",1,41,NA,NA,5,NA,NA,NA,NA,NA,NA,NA,NA,NA,NA,NA,"VASENTA",NA,"ResponseHandList","",1,3,"Right","RightHemiProc","HemiList",1,NA,NA,NA,NA,NA,NA,"RightColorProc",2,1,1,"RightColorList","Blue","SINISEN","sini",27,NA,NA,NA,1,4,473,0,1,NA,NA,NA,"2",1,"RightTrialProc",456,1,0,1,3,1,27,"RightTrialList",0,1,1
"1070","2",1,41,NA,NA,5,NA,NA,NA,NA,NA,NA,NA,NA,NA,NA,NA,"VASENTA",NA,"ResponseHandList","",1,3,"Right","RightHemiProc","HemiList",1,NA,NA,NA,NA,NA,NA,"RightColorProc",2,1,1,"RightColorList","Blue","SINISEN","sini",30,NA,NA,NA,1,4,406,0,1,NA,NA,NA,"2",1,"RightTrialProc",389,1,0,1,3,1,30,"RightTrialList",0,1,0
"1073","2",1,41,NA,NA,5,NA,NA,NA,NA,NA,NA,NA,NA,NA,NA,NA,"VASENTA",NA,"ResponseHandList","",1,3,"Right","RightHemiProc","HemiList",1,NA,NA,NA,NA,NA,NA,"RightColorProc",2,1,1,"RightColorList","Blue","SINISEN","sini",33,NA,NA,NA,0,4,367,1,0,NA,NA,NA,"1",1,"RightTrialProc",350,1,1,1,2,1,33,"RightTrialList",0,1,0
"1074","2",1,41,NA,NA,5,NA,NA,NA,NA,NA,NA,NA,NA,NA,NA,NA,"VASENTA",NA,"ResponseHandList","",1,3,"Right","RightHemiProc","HemiList",1,NA,NA,NA,NA,NA,NA,"RightColorProc",2,1,1,"RightColorList","Blue","SINISEN","sini",34,NA,NA,NA,0,4,294,1,0,NA,NA,NA,"1",1,"RightTrialProc",277,1,1,1,2,1,34,"RightTrialList",0,1,0
"1086","2",1,41,NA,NA,5,NA,NA,NA,NA,NA,NA,NA,NA,NA,NA,NA,"VASENTA",NA,"ResponseHandList","",1,3,"Right","RightHemiProc","HemiList",1,NA,NA,NA,NA,NA,NA,"RightColorProc",2,1,1,"RightColorList","Blue","SINISEN","sini",46,NA,NA,NA,1,4,310,0,1,NA,NA,NA,"2",1,"RightTrialProc",293,1,0,1,3,1,46,"RightTrialList",0,1,0
"1087","2",1,41,NA,NA,5,NA,NA,NA,NA,NA,NA,NA,NA,NA,NA,NA,"VASENTA",NA,"ResponseHandList","",1,3,"Right","RightHemiProc","HemiList",1,NA,NA,NA,NA,NA,NA,"RightColorProc",2,1,1,"RightColorList","Blue","SINISEN","sini",47,NA,NA,NA,0,4,387,1,0,NA,NA,NA,"1",1,"RightTrialProc",370,1,1,1,2,1,47,"RightTrialList",0,1,0
"1097","2",1,41,NA,NA,5,NA,NA,NA,NA,NA,NA,NA,NA,NA,NA,NA,"VASENTA",NA,"ResponseHandList","",1,3,"Right","RightHemiProc","HemiList",1,NA,NA,NA,NA,NA,NA,"RightColorProc",2,1,1,"RightColorList","Blue","SINISEN","sini",57,NA,NA,NA,0,4,367,1,0,NA,NA,NA,"1",1,"RightTrialProc",350,1,1,1,2,1,57,"RightTrialList",0,1,0
"1099","2",1,41,NA,NA,5,NA,NA,NA,NA,NA,NA,NA,NA,NA,NA,NA,"VASENTA",NA,"ResponseHandList","",1,3,"Right","RightHemiProc","HemiList",1,NA,NA,NA,NA,NA,NA,"RightColorProc",2,1,1,"RightColorList","Blue","SINISEN","sini",59,NA,NA,NA,0,4,518,1,0,NA,NA,NA,"1",1,"RightTrialProc",501,1,1,1,2,1,59,"RightTrialList",0,1,0
"1103","2",1,41,NA,NA,5,NA,NA,NA,NA,NA,NA,NA,NA,NA,NA,NA,"VASENTA",NA,"ResponseHandList","",1,3,"Right","RightHemiProc","HemiList",2,NA,NA,NA,NA,NA,NA,"RightColorProc",1,1,2,"RightColorList","Red","PUNAISEN","punai",3,NA,NA,NA,0,4,197,1,0,NA,NA,NA,"1",1,"RightTrialProc",180,1,1,1,2,2,63,"RightTrialList",0,1,0
"1105","2",1,41,NA,NA,5,NA,NA,NA,NA,NA,NA,NA,NA,NA,NA,NA,"VASENTA",NA,"ResponseHandList","",1,3,"Right","RightHemiProc","HemiList",2,NA,NA,NA,NA,NA,NA,"RightColorProc",1,1,2,"RightColorList","Red","PUNAISEN","punai",5,NA,NA,NA,0,4,306,1,0,NA,NA,NA,"1",1,"RightTrialProc",289,1,1,1,2,2,65,"RightTrialList",0,1,0
"1106","2",1,41,NA,NA,5,NA,NA,NA,NA,NA,NA,NA,NA,NA,NA,NA,"VASENTA",NA,"ResponseHandList","",1,3,"Right","RightHemiProc","HemiList",2,NA,NA,NA,NA,NA,NA,"RightColorProc",1,1,2,"RightColorList","Red","PUNAISEN","punai",6,NA,NA,NA,0,4,202,1,0,NA,NA,NA,"1",1,"RightTrialProc",185,1,1,1,2,2,66,"RightTrialList",0,1,0
"1108","2",1,41,NA,NA,5,NA,NA,NA,NA,NA,NA,NA,NA,NA,NA,NA,"VASENTA",NA,"ResponseHandList","",1,3,"Right","RightHemiProc","HemiList",2,NA,NA,NA,NA,NA,NA,"RightColorProc",1,1,2,"RightColorList","Red","PUNAISEN","punai",8,NA,NA,NA,0,4,266,1,0,NA,NA,NA,"1",1,"RightTrialProc",250,1,1,1,2,2,68,"RightTrialList",0,1,0
"1111","2",1,41,NA,NA,5,NA,NA,NA,NA,NA,NA,NA,NA,NA,NA,NA,"VASENTA",NA,"ResponseHandList","",1,3,"Right","RightHemiProc","HemiList",2,NA,NA,NA,NA,NA,NA,"RightColorProc",1,1,2,"RightColorList","Red","PUNAISEN","punai",11,NA,NA,NA,1,4,400,0,1,NA,NA,NA,"2",1,"RightTrialProc",383,1,0,1,3,2,71,"RightTrialList",0,1,0
"1112","2",1,41,NA,NA,5,NA,NA,NA,NA,NA,NA,NA,NA,NA,NA,NA,"VASENTA",NA,"ResponseHandList","",1,3,"Right","RightHemiProc","HemiList",2,NA,NA,NA,NA,NA,NA,"RightColorProc",1,1,2,"RightColorList","Red","PUNAISEN","punai",12,NA,NA,NA,0,4,247,1,0,NA,NA,NA,"1",1,"RightTrialProc",230,1,1,1,2,2,72,"RightTrialList",0,1,0
"1114","2",1,41,NA,NA,5,NA,NA,NA,NA,NA,NA,NA,NA,NA,NA,NA,"VASENTA",NA,"ResponseHandList","",1,3,"Right","RightHemiProc","HemiList",2,NA,NA,NA,NA,NA,NA,"RightColorProc",1,1,2,"RightColorList","Red","PUNAISEN","punai",14,NA,NA,NA,0,4,308,1,0,NA,NA,NA,"1",1,"RightTrialProc",292,1,1,1,2,2,74,"RightTrialList",0,1,0
"1117","2",1,41,NA,NA,5,NA,NA,NA,NA,NA,NA,NA,NA,NA,NA,NA,"VASENTA",NA,"ResponseHandList","",1,3,"Right","RightHemiProc","HemiList",2,NA,NA,NA,NA,NA,NA,"RightColorProc",1,1,2,"RightColorList","Red","PUNAISEN","punai",17,NA,NA,NA,0,4,258,1,0,NA,NA,NA,"1",1,"RightTrialProc",241,1,1,1,2,2,77,"RightTrialList",0,1,0
"1126","2",1,41,NA,NA,5,NA,NA,NA,NA,NA,NA,NA,NA,NA,NA,NA,"VASENTA",NA,"ResponseHandList","",1,3,"Right","RightHemiProc","HemiList",2,NA,NA,NA,NA,NA,NA,"RightColorProc",1,1,2,"RightColorList","Red","PUNAISEN","punai",26,NA,NA,NA,0,4,492,1,0,NA,NA,NA,"1",1,"RightTrialProc",475,1,1,1,2,2,86,"RightTrialList",0,1,0
"1127","2",1,41,NA,NA,5,NA,NA,NA,NA,NA,NA,NA,NA,NA,NA,NA,"VASENTA",NA,"ResponseHandList","",1,3,"Right","RightHemiProc","HemiList",2,NA,NA,NA,NA,NA,NA,"RightColorProc",1,1,2,"RightColorList","Red","PUNAISEN","punai",27,NA,NA,NA,0,4,218,1,0,NA,NA,NA,"1",1,"RightTrialProc",201,1,1,1,2,2,87,"RightTrialList",0,1,0
"1128","2",1,41,NA,NA,5,NA,NA,NA,NA,NA,NA,NA,NA,NA,NA,NA,"VASENTA",NA,"ResponseHandList","",1,3,"Right","RightHemiProc","HemiList",2,NA,NA,NA,NA,NA,NA,"RightColorProc",1,1,2,"RightColorList","Red","PUNAISEN","punai",28,NA,NA,NA,0,4,263,1,0,NA,NA,NA,"1",1,"RightTrialProc",246,1,1,1,2,2,88,"RightTrialList",0,1,0
"1133","2",1,41,NA,NA,5,NA,NA,NA,NA,NA,NA,NA,NA,NA,NA,NA,"VASENTA",NA,"ResponseHandList","",1,3,"Right","RightHemiProc","HemiList",2,NA,NA,NA,NA,NA,NA,"RightColorProc",1,1,2,"RightColorList","Red","PUNAISEN","punai",33,NA,NA,NA,0,4,220,1,0,NA,NA,NA,"1",1,"RightTrialProc",204,1,1,1,2,2,93,"RightTrialList",0,1,0
"1139","2",1,41,NA,NA,5,NA,NA,NA,NA,NA,NA,NA,NA,NA,NA,NA,"VASENTA",NA,"ResponseHandList","",1,3,"Right","RightHemiProc","HemiList",2,NA,NA,NA,NA,NA,NA,"RightColorProc",1,1,2,"RightColorList","Red","PUNAISEN","punai",39,NA,NA,NA,0,4,275,1,0,NA,NA,NA,"1",1,"RightTrialProc",258,1,1,1,2,2,99,"RightTrialList",0,1,0
"1159","2",1,41,NA,NA,5,NA,NA,NA,NA,NA,NA,NA,NA,NA,NA,NA,"VASENTA",NA,"ResponseHandList","",1,3,"Right","RightHemiProc","HemiList",2,NA,NA,NA,NA,NA,NA,"RightColorProc",1,1,2,"RightColorList","Red","PUNAISEN","punai",59,NA,NA,NA,0,4,356,1,0,NA,NA,NA,"1",1,"RightTrialProc",339,1,1,1,2,2,119,"RightTrialList",0,1,0
"1161","2",1,42,NA,NA,6,NA,NA,NA,NA,NA,NA,NA,NA,NA,NA,NA,"OIKEAA",NA,"ResponseHandList","",1,1,"Left","LeftHemiProc","HemiList",1,NA,NA,NA,2,2,3,"LeftColorProc",NA,NA,NA,"LeftColorList","Blue","SINISEN","sini",1,NA,NA,NA,0,4,305,1,1,1,3,121,"1",1,"LeftTrialProc",288,1,1,0,NA,NA,NA,"LeftTrialList",0,1,NA
"1170","2",1,42,NA,NA,6,NA,NA,NA,NA,NA,NA,NA,NA,NA,NA,NA,"OIKEAA",NA,"ResponseHandList","",1,1,"Left","LeftHemiProc","HemiList",1,NA,NA,NA,2,2,3,"LeftColorProc",NA,NA,NA,"LeftColorList","Blue","SINISEN","sini",10,NA,NA,NA,0,4,224,1,1,1,3,130,"1",1,"LeftTrialProc",208,1,1,0,NA,NA,NA,"LeftTrialList",0,1,0
"1172","2",1,42,NA,NA,6,NA,NA,NA,NA,NA,NA,NA,NA,NA,NA,NA,"OIKEAA",NA,"ResponseHandList","",1,1,"Left","LeftHemiProc","HemiList",1,NA,NA,NA,2,2,3,"LeftColorProc",NA,NA,NA,"LeftColorList","Blue","SINISEN","sini",12,NA,NA,NA,0,4,223,1,1,1,3,132,"1",1,"LeftTrialProc",206,1,1,0,NA,NA,NA,"LeftTrialList",0,1,0
"1173","2",1,42,NA,NA,6,NA,NA,NA,NA,NA,NA,NA,NA,NA,NA,NA,"OIKEAA",NA,"ResponseHandList","",1,1,"Left","LeftHemiProc","HemiList",1,NA,NA,NA,2,2,3,"LeftColorProc",NA,NA,NA,"LeftColorList","Blue","SINISEN","sini",13,NA,NA,NA,0,4,213,1,1,1,3,133,"1",1,"LeftTrialProc",196,1,1,0,NA,NA,NA,"LeftTrialList",0,1,0
"1178","2",1,42,NA,NA,6,NA,NA,NA,NA,NA,NA,NA,NA,NA,NA,NA,"OIKEAA",NA,"ResponseHandList","",1,1,"Left","LeftHemiProc","HemiList",1,NA,NA,NA,2,2,3,"LeftColorProc",NA,NA,NA,"LeftColorList","Blue","SINISEN","sini",18,NA,NA,NA,1,4,249,0,1,3,3,138,"2",1,"LeftTrialProc",232,1,0,1,NA,NA,NA,"LeftTrialList",0,1,0
"1180","2",1,42,NA,NA,6,NA,NA,NA,NA,NA,NA,NA,NA,NA,NA,NA,"OIKEAA",NA,"ResponseHandList","",1,1,"Left","LeftHemiProc","HemiList",1,NA,NA,NA,2,2,3,"LeftColorProc",NA,NA,NA,"LeftColorList","Blue","SINISEN","sini",20,NA,NA,NA,0,4,321,1,1,1,3,140,"1",1,"LeftTrialProc",304,1,1,0,NA,NA,NA,"LeftTrialList",0,1,0
"1181","2",1,42,NA,NA,6,NA,NA,NA,NA,NA,NA,NA,NA,NA,NA,NA,"OIKEAA",NA,"ResponseHandList","",1,1,"Left","LeftHemiProc","HemiList",1,NA,NA,NA,2,2,3,"LeftColorProc",NA,NA,NA,"LeftColorList","Blue","SINISEN","sini",21,NA,NA,NA,0,4,286,1,1,1,3,141,"1",1,"LeftTrialProc",269,1,1,0,NA,NA,NA,"LeftTrialList",0,1,0
"1182","2",1,42,NA,NA,6,NA,NA,NA,NA,NA,NA,NA,NA,NA,NA,NA,"OIKEAA",NA,"ResponseHandList","",1,1,"Left","LeftHemiProc","HemiList",1,NA,NA,NA,2,2,3,"LeftColorProc",NA,NA,NA,"LeftColorList","Blue","SINISEN","sini",22,NA,NA,NA,1,4,285,0,1,3,3,142,"2",1,"LeftTrialProc",268,1,0,1,NA,NA,NA,"LeftTrialList",0,1,0
"1184","2",1,42,NA,NA,6,NA,NA,NA,NA,NA,NA,NA,NA,NA,NA,NA,"OIKEAA",NA,"ResponseHandList","",1,1,"Left","LeftHemiProc","HemiList",1,NA,NA,NA,2,2,3,"LeftColorProc",NA,NA,NA,"LeftColorList","Blue","SINISEN","sini",24,NA,NA,NA,0,4,224,1,1,1,3,144,"1",1,"LeftTrialProc",207,1,1,0,NA,NA,NA,"LeftTrialList",0,1,0
"1186","2",1,42,NA,NA,6,NA,NA,NA,NA,NA,NA,NA,NA,NA,NA,NA,"OIKEAA",NA,"ResponseHandList","",1,1,"Left","LeftHemiProc","HemiList",1,NA,NA,NA,2,2,3,"LeftColorProc",NA,NA,NA,"LeftColorList","Blue","SINISEN","sini",26,NA,NA,NA,0,4,361,1,1,1,3,146,"1",1,"LeftTrialProc",344,1,1,0,NA,NA,NA,"LeftTrialList",0,1,0
"1187","2",1,42,NA,NA,6,NA,NA,NA,NA,NA,NA,NA,NA,NA,NA,NA,"OIKEAA",NA,"ResponseHandList","",1,1,"Left","LeftHemiProc","HemiList",1,NA,NA,NA,2,2,3,"LeftColorProc",NA,NA,NA,"LeftColorList","Blue","SINISEN","sini",27,NA,NA,NA,0,4,320,1,1,1,3,147,"1",1,"LeftTrialProc",303,1,1,0,NA,NA,NA,"LeftTrialList",0,1,0
"1188","2",1,42,NA,NA,6,NA,NA,NA,NA,NA,NA,NA,NA,NA,NA,NA,"OIKEAA",NA,"ResponseHandList","",1,1,"Left","LeftHemiProc","HemiList",1,NA,NA,NA,2,2,3,"LeftColorProc",NA,NA,NA,"LeftColorList","Blue","SINISEN","sini",28,NA,NA,NA,0,4,241,1,1,1,3,148,"1",1,"LeftTrialProc",224,1,1,0,NA,NA,NA,"LeftTrialList",0,1,0
"1189","2",1,42,NA,NA,6,NA,NA,NA,NA,NA,NA,NA,NA,NA,NA,NA,"OIKEAA",NA,"ResponseHandList","",1,1,"Left","LeftHemiProc","HemiList",1,NA,NA,NA,2,2,3,"LeftColorProc",NA,NA,NA,"LeftColorList","Blue","SINISEN","sini",29,NA,NA,NA,0,4,216,1,1,1,3,149,"1",1,"LeftTrialProc",199,1,1,0,NA,NA,NA,"LeftTrialList",0,1,0
"1191","2",1,42,NA,NA,6,NA,NA,NA,NA,NA,NA,NA,NA,NA,NA,NA,"OIKEAA",NA,"ResponseHandList","",1,1,"Left","LeftHemiProc","HemiList",1,NA,NA,NA,2,2,3,"LeftColorProc",NA,NA,NA,"LeftColorList","Blue","SINISEN","sini",31,NA,NA,NA,0,4,235,1,1,1,3,151,"1",1,"LeftTrialProc",218,1,1,0,NA,NA,NA,"LeftTrialList",0,1,0
"1195","2",1,42,NA,NA,6,NA,NA,NA,NA,NA,NA,NA,NA,NA,NA,NA,"OIKEAA",NA,"ResponseHandList","",1,1,"Left","LeftHemiProc","HemiList",1,NA,NA,NA,2,2,3,"LeftColorProc",NA,NA,NA,"LeftColorList","Blue","SINISEN","sini",35,NA,NA,NA,0,4,403,1,1,1,3,155,"1",1,"LeftTrialProc",387,1,1,0,NA,NA,NA,"LeftTrialList",0,1,1
"1207","2",1,42,NA,NA,6,NA,NA,NA,NA,NA,NA,NA,NA,NA,NA,NA,"OIKEAA",NA,"ResponseHandList","",1,1,"Left","LeftHemiProc","HemiList",1,NA,NA,NA,2,2,3,"LeftColorProc",NA,NA,NA,"LeftColorList","Blue","SINISEN","sini",47,NA,NA,NA,1,4,294,0,1,3,3,167,"2",1,"LeftTrialProc",277,1,0,1,NA,NA,NA,"LeftTrialList",0,1,0
"1208","2",1,42,NA,NA,6,NA,NA,NA,NA,NA,NA,NA,NA,NA,NA,NA,"OIKEAA",NA,"ResponseHandList","",1,1,"Left","LeftHemiProc","HemiList",1,NA,NA,NA,2,2,3,"LeftColorProc",NA,NA,NA,"LeftColorList","Blue","SINISEN","sini",48,NA,NA,NA,0,4,251,1,1,1,3,168,"1",1,"LeftTrialProc",234,1,1,0,NA,NA,NA,"LeftTrialList",0,1,0
"1212","2",1,42,NA,NA,6,NA,NA,NA,NA,NA,NA,NA,NA,NA,NA,NA,"OIKEAA",NA,"ResponseHandList","",1,1,"Left","LeftHemiProc","HemiList",1,NA,NA,NA,2,2,3,"LeftColorProc",NA,NA,NA,"LeftColorList","Blue","SINISEN","sini",52,NA,NA,NA,0,4,226,1,1,1,3,172,"1",1,"LeftTrialProc",209,1,1,0,NA,NA,NA,"LeftTrialList",0,1,0
"1215","2",1,42,NA,NA,6,NA,NA,NA,NA,NA,NA,NA,NA,NA,NA,NA,"OIKEAA",NA,"ResponseHandList","",1,1,"Left","LeftHemiProc","HemiList",1,NA,NA,NA,2,2,3,"LeftColorProc",NA,NA,NA,"LeftColorList","Blue","SINISEN","sini",55,NA,NA,NA,0,4,209,1,1,1,3,175,"1",1,"LeftTrialProc",193,1,1,0,NA,NA,NA,"LeftTrialList",0,1,0
"1217","2",1,42,NA,NA,6,NA,NA,NA,NA,NA,NA,NA,NA,NA,NA,NA,"OIKEAA",NA,"ResponseHandList","",1,1,"Left","LeftHemiProc","HemiList",1,NA,NA,NA,2,2,3,"LeftColorProc",NA,NA,NA,"LeftColorList","Blue","SINISEN","sini",57,NA,NA,NA,0,4,226,1,1,1,3,177,"1",1,"LeftTrialProc",210,1,1,0,NA,NA,NA,"LeftTrialList",0,1,0
"1220","2",1,42,NA,NA,6,NA,NA,NA,NA,NA,NA,NA,NA,NA,NA,NA,"OIKEAA",NA,"ResponseHandList","",1,1,"Left","LeftHemiProc","HemiList",1,NA,NA,NA,2,2,3,"LeftColorProc",NA,NA,NA,"LeftColorList","Blue","SINISEN","sini",60,NA,NA,NA,0,4,254,1,1,1,3,180,"1",1,"LeftTrialProc",237,1,1,0,NA,NA,NA,"LeftTrialList",0,1,0
"1227","2",1,42,NA,NA,6,NA,NA,NA,NA,NA,NA,NA,NA,NA,NA,NA,"OIKEAA",NA,"ResponseHandList","",1,1,"Left","LeftHemiProc","HemiList",2,NA,NA,NA,1,2,4,"LeftColorProc",NA,NA,NA,"LeftColorList","Red","PUNAISEN","punai",7,NA,NA,NA,0,4,411,1,1,1,4,187,"1",1,"LeftTrialProc",395,1,1,0,NA,NA,NA,"LeftTrialList",0,1,0
"1228","2",1,42,NA,NA,6,NA,NA,NA,NA,NA,NA,NA,NA,NA,NA,NA,"OIKEAA",NA,"ResponseHandList","",1,1,"Left","LeftHemiProc","HemiList",2,NA,NA,NA,1,2,4,"LeftColorProc",NA,NA,NA,"LeftColorList","Red","PUNAISEN","punai",8,NA,NA,NA,0,4,247,1,1,1,4,188,"1",1,"LeftTrialProc",230,1,1,0,NA,NA,NA,"LeftTrialList",0,1,0
"1230","2",1,42,NA,NA,6,NA,NA,NA,NA,NA,NA,NA,NA,NA,NA,NA,"OIKEAA",NA,"ResponseHandList","",1,1,"Left","LeftHemiProc","HemiList",2,NA,NA,NA,1,2,4,"LeftColorProc",NA,NA,NA,"LeftColorList","Red","PUNAISEN","punai",10,NA,NA,NA,0,4,296,1,1,1,4,190,"1",1,"LeftTrialProc",279,1,1,0,NA,NA,NA,"LeftTrialList",0,1,0
"1231","2",1,42,NA,NA,6,NA,NA,NA,NA,NA,NA,NA,NA,NA,NA,NA,"OIKEAA",NA,"ResponseHandList","",1,1,"Left","LeftHemiProc","HemiList",2,NA,NA,NA,1,2,4,"LeftColorProc",NA,NA,NA,"LeftColorList","Red","PUNAISEN","punai",11,NA,NA,NA,1,4,246,0,1,3,4,191,"2",1,"LeftTrialProc",229,1,0,1,NA,NA,NA,"LeftTrialList",0,1,0
"1232","2",1,42,NA,NA,6,NA,NA,NA,NA,NA,NA,NA,NA,NA,NA,NA,"OIKEAA",NA,"ResponseHandList","",1,1,"Left","LeftHemiProc","HemiList",2,NA,NA,NA,1,2,4,"LeftColorProc",NA,NA,NA,"LeftColorList","Red","PUNAISEN","punai",12,NA,NA,NA,0,4,234,1,1,1,4,192,"1",1,"LeftTrialProc",218,1,1,0,NA,NA,NA,"LeftTrialList",0,1,0
"1234","2",1,42,NA,NA,6,NA,NA,NA,NA,NA,NA,NA,NA,NA,NA,NA,"OIKEAA",NA,"ResponseHandList","",1,1,"Left","LeftHemiProc","HemiList",2,NA,NA,NA,1,2,4,"LeftColorProc",NA,NA,NA,"LeftColorList","Red","PUNAISEN","punai",14,NA,NA,NA,1,4,258,0,1,3,4,194,"2",1,"LeftTrialProc",241,1,0,1,NA,NA,NA,"LeftTrialList",0,1,1
"1237","2",1,42,NA,NA,6,NA,NA,NA,NA,NA,NA,NA,NA,NA,NA,NA,"OIKEAA",NA,"ResponseHandList","",1,1,"Left","LeftHemiProc","HemiList",2,NA,NA,NA,1,2,4,"LeftColorProc",NA,NA,NA,"LeftColorList","Red","PUNAISEN","punai",17,NA,NA,NA,0,4,211,1,1,1,4,197,"1",1,"LeftTrialProc",194,1,1,0,NA,NA,NA,"LeftTrialList",0,1,0
"1238","2",1,42,NA,NA,6,NA,NA,NA,NA,NA,NA,NA,NA,NA,NA,NA,"OIKEAA",NA,"ResponseHandList","",1,1,"Left","LeftHemiProc","HemiList",2,NA,NA,NA,1,2,4,"LeftColorProc",NA,NA,NA,"LeftColorList","Red","PUNAISEN","punai",18,NA,NA,NA,0,4,229,1,1,1,4,198,"1",1,"LeftTrialProc",212,1,1,0,NA,NA,NA,"LeftTrialList",0,1,0
"1239","2",1,42,NA,NA,6,NA,NA,NA,NA,NA,NA,NA,NA,NA,NA,NA,"OIKEAA",NA,"ResponseHandList","",1,1,"Left","LeftHemiProc","HemiList",2,NA,NA,NA,1,2,4,"LeftColorProc",NA,NA,NA,"LeftColorList","Red","PUNAISEN","punai",19,NA,NA,NA,0,4,191,1,1,1,4,199,"1",1,"LeftTrialProc",174,1,1,0,NA,NA,NA,"LeftTrialList",0,1,0
"1243","2",1,42,NA,NA,6,NA,NA,NA,NA,NA,NA,NA,NA,NA,NA,NA,"OIKEAA",NA,"ResponseHandList","",1,1,"Left","LeftHemiProc","HemiList",2,NA,NA,NA,1,2,4,"LeftColorProc",NA,NA,NA,"LeftColorList","Red","PUNAISEN","punai",23,NA,NA,NA,0,4,244,1,1,1,4,203,"1",1,"LeftTrialProc",227,1,1,0,NA,NA,NA,"LeftTrialList",0,1,0
"1249","2",1,42,NA,NA,6,NA,NA,NA,NA,NA,NA,NA,NA,NA,NA,NA,"OIKEAA",NA,"ResponseHandList","",1,1,"Left","LeftHemiProc","HemiList",2,NA,NA,NA,1,2,4,"LeftColorProc",NA,NA,NA,"LeftColorList","Red","PUNAISEN","punai",29,NA,NA,NA,0,4,290,1,1,1,4,209,"1",1,"LeftTrialProc",273,1,1,0,NA,NA,NA,"LeftTrialList",0,1,0
"1250","2",1,42,NA,NA,6,NA,NA,NA,NA,NA,NA,NA,NA,NA,NA,NA,"OIKEAA",NA,"ResponseHandList","",1,1,"Left","LeftHemiProc","HemiList",2,NA,NA,NA,1,2,4,"LeftColorProc",NA,NA,NA,"LeftColorList","Red","PUNAISEN","punai",30,NA,NA,NA,0,4,218,1,1,1,4,210,"1",1,"LeftTrialProc",201,1,1,0,NA,NA,NA,"LeftTrialList",0,1,0
"1252","2",1,42,NA,NA,6,NA,NA,NA,NA,NA,NA,NA,NA,NA,NA,NA,"OIKEAA",NA,"ResponseHandList","",1,1,"Left","LeftHemiProc","HemiList",2,NA,NA,NA,1,2,4,"LeftColorProc",NA,NA,NA,"LeftColorList","Red","PUNAISEN","punai",32,NA,NA,NA,0,4,223,1,1,1,4,212,"1",1,"LeftTrialProc",206,1,1,0,NA,NA,NA,"LeftTrialList",0,1,0
"1254","2",1,42,NA,NA,6,NA,NA,NA,NA,NA,NA,NA,NA,NA,NA,NA,"OIKEAA",NA,"ResponseHandList","",1,1,"Left","LeftHemiProc","HemiList",2,NA,NA,NA,1,2,4,"LeftColorProc",NA,NA,NA,"LeftColorList","Red","PUNAISEN","punai",34,NA,NA,NA,0,4,215,1,1,1,4,214,"1",1,"LeftTrialProc",198,1,1,0,NA,NA,NA,"LeftTrialList",0,1,0
"1257","2",1,42,NA,NA,6,NA,NA,NA,NA,NA,NA,NA,NA,NA,NA,NA,"OIKEAA",NA,"ResponseHandList","",1,1,"Left","LeftHemiProc","HemiList",2,NA,NA,NA,1,2,4,"LeftColorProc",NA,NA,NA,"LeftColorList","Red","PUNAISEN","punai",37,NA,NA,NA,0,4,264,1,1,1,4,217,"1",1,"LeftTrialProc",247,1,1,0,NA,NA,NA,"LeftTrialList",0,1,0
"1258","2",1,42,NA,NA,6,NA,NA,NA,NA,NA,NA,NA,NA,NA,NA,NA,"OIKEAA",NA,"ResponseHandList","",1,1,"Left","LeftHemiProc","HemiList",2,NA,NA,NA,1,2,4,"LeftColorProc",NA,NA,NA,"LeftColorList","Red","PUNAISEN","punai",38,NA,NA,NA,1,4,274,0,1,3,4,218,"2",1,"LeftTrialProc",257,1,0,1,NA,NA,NA,"LeftTrialList",0,1,0
"1259","2",1,42,NA,NA,6,NA,NA,NA,NA,NA,NA,NA,NA,NA,NA,NA,"OIKEAA",NA,"ResponseHandList","",1,1,"Left","LeftHemiProc","HemiList",2,NA,NA,NA,1,2,4,"LeftColorProc",NA,NA,NA,"LeftColorList","Red","PUNAISEN","punai",39,NA,NA,NA,0,4,205,1,1,1,4,219,"1",1,"LeftTrialProc",188,1,1,0,NA,NA,NA,"LeftTrialList",0,1,0
"1260","2",1,42,NA,NA,6,NA,NA,NA,NA,NA,NA,NA,NA,NA,NA,NA,"OIKEAA",NA,"ResponseHandList","",1,1,"Left","LeftHemiProc","HemiList",2,NA,NA,NA,1,2,4,"LeftColorProc",NA,NA,NA,"LeftColorList","Red","PUNAISEN","punai",40,NA,NA,NA,1,4,349,0,1,3,4,220,"2",1,"LeftTrialProc",332,1,0,1,NA,NA,NA,"LeftTrialList",0,1,0
"1273","2",1,42,NA,NA,6,NA,NA,NA,NA,NA,NA,NA,NA,NA,NA,NA,"OIKEAA",NA,"ResponseHandList","",1,1,"Left","LeftHemiProc","HemiList",2,NA,NA,NA,1,2,4,"LeftColorProc",NA,NA,NA,"LeftColorList","Red","PUNAISEN","punai",53,NA,NA,NA,0,4,245,1,1,1,4,233,"1",1,"LeftTrialProc",228,1,1,0,NA,NA,NA,"LeftTrialList",0,1,0
"1278","2",1,42,NA,NA,6,NA,NA,NA,NA,NA,NA,NA,NA,NA,NA,NA,"OIKEAA",NA,"ResponseHandList","",1,1,"Left","LeftHemiProc","HemiList",2,NA,NA,NA,1,2,4,"LeftColorProc",NA,NA,NA,"LeftColorList","Red","PUNAISEN","punai",58,NA,NA,NA,1,4,183,0,1,3,4,238,"2",1,"LeftTrialProc",166,1,0,1,NA,NA,NA,"LeftTrialList",0,1,0
"1279","2",1,42,NA,NA,6,NA,NA,NA,NA,NA,NA,NA,NA,NA,NA,NA,"OIKEAA",NA,"ResponseHandList","",1,1,"Left","LeftHemiProc","HemiList",2,NA,NA,NA,1,2,4,"LeftColorProc",NA,NA,NA,"LeftColorList","Red","PUNAISEN","punai",59,NA,NA,NA,0,4,296,1,1,1,4,239,"1",1,"LeftTrialProc",279,1,1,0,NA,NA,NA,"LeftTrialList",0,1,0
"1407","2",1,42,NA,NA,6,NA,NA,NA,NA,NA,NA,NA,NA,NA,NA,NA,"OIKEAA",NA,"ResponseHandList","",1,3,"Right","RightHemiProc","HemiList",1,NA,NA,NA,NA,NA,NA,"RightColorProc",2,2,3,"RightColorList","Blue","SINISEN","sini",7,NA,NA,NA,0,4,296,1,0,NA,NA,NA,"1",1,"RightTrialProc",279,1,1,1,2,3,127,"RightTrialList",0,1,0
"1408","2",1,42,NA,NA,6,NA,NA,NA,NA,NA,NA,NA,NA,NA,NA,NA,"OIKEAA",NA,"ResponseHandList","",1,3,"Right","RightHemiProc","HemiList",1,NA,NA,NA,NA,NA,NA,"RightColorProc",2,2,3,"RightColorList","Blue","SINISEN","sini",8,NA,NA,NA,1,4,484,0,1,NA,NA,NA,"2",1,"RightTrialProc",467,1,0,1,3,3,128,"RightTrialList",0,1,0
"1409","2",1,42,NA,NA,6,NA,NA,NA,NA,NA,NA,NA,NA,NA,NA,NA,"OIKEAA",NA,"ResponseHandList","",1,3,"Right","RightHemiProc","HemiList",1,NA,NA,NA,NA,NA,NA,"RightColorProc",2,2,3,"RightColorList","Blue","SINISEN","sini",9,NA,NA,NA,1,4,217,0,1,NA,NA,NA,"2",1,"RightTrialProc",200,1,0,1,3,3,129,"RightTrialList",0,1,0
"1414","2",1,42,NA,NA,6,NA,NA,NA,NA,NA,NA,NA,NA,NA,NA,NA,"OIKEAA",NA,"ResponseHandList","",1,3,"Right","RightHemiProc","HemiList",1,NA,NA,NA,NA,NA,NA,"RightColorProc",2,2,3,"RightColorList","Blue","SINISEN","sini",14,NA,NA,NA,1,4,214,0,1,NA,NA,NA,"2",1,"RightTrialProc",198,1,0,1,3,3,134,"RightTrialList",0,1,0
"1415","2",1,42,NA,NA,6,NA,NA,NA,NA,NA,NA,NA,NA,NA,NA,NA,"OIKEAA",NA,"ResponseHandList","",1,3,"Right","RightHemiProc","HemiList",1,NA,NA,NA,NA,NA,NA,"RightColorProc",2,2,3,"RightColorList","Blue","SINISEN","sini",15,NA,NA,NA,0,4,221,1,0,NA,NA,NA,"1",1,"RightTrialProc",204,1,1,1,2,3,135,"RightTrialList",0,1,0
"1416","2",1,42,NA,NA,6,NA,NA,NA,NA,NA,NA,NA,NA,NA,NA,NA,"OIKEAA",NA,"ResponseHandList","",1,3,"Right","RightHemiProc","HemiList",1,NA,NA,NA,NA,NA,NA,"RightColorProc",2,2,3,"RightColorList","Blue","SINISEN","sini",16,NA,NA,NA,1,4,209,0,1,NA,NA,NA,"2",1,"RightTrialProc",192,1,0,1,3,3,136,"RightTrialList",0,1,0
"1418","2",1,42,NA,NA,6,NA,NA,NA,NA,NA,NA,NA,NA,NA,NA,NA,"OIKEAA",NA,"ResponseHandList","",1,3,"Right","RightHemiProc","HemiList",1,NA,NA,NA,NA,NA,NA,"RightColorProc",2,2,3,"RightColorList","Blue","SINISEN","sini",18,NA,NA,NA,0,4,231,1,0,NA,NA,NA,"1",1,"RightTrialProc",214,1,1,1,2,3,138,"RightTrialList",0,1,0
"1419","2",1,42,NA,NA,6,NA,NA,NA,NA,NA,NA,NA,NA,NA,NA,NA,"OIKEAA",NA,"ResponseHandList","",1,3,"Right","RightHemiProc","HemiList",1,NA,NA,NA,NA,NA,NA,"RightColorProc",2,2,3,"RightColorList","Blue","SINISEN","sini",19,NA,NA,NA,0,4,184,1,0,NA,NA,NA,"1",1,"RightTrialProc",167,1,1,1,2,3,139,"RightTrialList",0,1,0
"1420","2",1,42,NA,NA,6,NA,NA,NA,NA,NA,NA,NA,NA,NA,NA,NA,"OIKEAA",NA,"ResponseHandList","",1,3,"Right","RightHemiProc","HemiList",1,NA,NA,NA,NA,NA,NA,"RightColorProc",2,2,3,"RightColorList","Blue","SINISEN","sini",20,NA,NA,NA,0,4,231,1,0,NA,NA,NA,"1",1,"RightTrialProc",214,1,1,1,2,3,140,"RightTrialList",0,1,0
"1428","2",1,42,NA,NA,6,NA,NA,NA,NA,NA,NA,NA,NA,NA,NA,NA,"OIKEAA",NA,"ResponseHandList","",1,3,"Right","RightHemiProc","HemiList",1,NA,NA,NA,NA,NA,NA,"RightColorProc",2,2,3,"RightColorList","Blue","SINISEN","sini",28,NA,NA,NA,0,4,280,1,0,NA,NA,NA,"1",1,"RightTrialProc",263,1,1,1,2,3,148,"RightTrialList",0,1,0
"1434","2",1,42,NA,NA,6,NA,NA,NA,NA,NA,NA,NA,NA,NA,NA,NA,"OIKEAA",NA,"ResponseHandList","",1,3,"Right","RightHemiProc","HemiList",1,NA,NA,NA,NA,NA,NA,"RightColorProc",2,2,3,"RightColorList","Blue","SINISEN","sini",34,NA,NA,NA,1,4,327,0,1,NA,NA,NA,"2",1,"RightTrialProc",310,1,0,1,3,3,154,"RightTrialList",0,1,0
"1436","2",1,42,NA,NA,6,NA,NA,NA,NA,NA,NA,NA,NA,NA,NA,NA,"OIKEAA",NA,"ResponseHandList","",1,3,"Right","RightHemiProc","HemiList",1,NA,NA,NA,NA,NA,NA,"RightColorProc",2,2,3,"RightColorList","Blue","SINISEN","sini",36,NA,NA,NA,1,4,253,0,1,NA,NA,NA,"2",1,"RightTrialProc",237,1,0,1,3,3,156,"RightTrialList",0,1,0
"1437","2",1,42,NA,NA,6,NA,NA,NA,NA,NA,NA,NA,NA,NA,NA,NA,"OIKEAA",NA,"ResponseHandList","",1,3,"Right","RightHemiProc","HemiList",1,NA,NA,NA,NA,NA,NA,"RightColorProc",2,2,3,"RightColorList","Blue","SINISEN","sini",37,NA,NA,NA,1,4,230,0,1,NA,NA,NA,"2",1,"RightTrialProc",213,1,0,1,3,3,157,"RightTrialList",0,1,0
"1444","2",1,42,NA,NA,6,NA,NA,NA,NA,NA,NA,NA,NA,NA,NA,NA,"OIKEAA",NA,"ResponseHandList","",1,3,"Right","RightHemiProc","HemiList",1,NA,NA,NA,NA,NA,NA,"RightColorProc",2,2,3,"RightColorList","Blue","SINISEN","sini",44,NA,NA,NA,0,4,305,1,0,NA,NA,NA,"1",1,"RightTrialProc",288,1,1,1,2,3,164,"RightTrialList",0,1,0
"1455","2",1,42,NA,NA,6,NA,NA,NA,NA,NA,NA,NA,NA,NA,NA,NA,"OIKEAA",NA,"ResponseHandList","",1,3,"Right","RightHemiProc","HemiList",1,NA,NA,NA,NA,NA,NA,"RightColorProc",2,2,3,"RightColorList","Blue","SINISEN","sini",55,NA,NA,NA,1,4,460,0,1,NA,NA,NA,"2",1,"RightTrialProc",443,1,0,1,3,3,175,"RightTrialList",0,1,0
"1456","2",1,42,NA,NA,6,NA,NA,NA,NA,NA,NA,NA,NA,NA,NA,NA,"OIKEAA",NA,"ResponseHandList","",1,3,"Right","RightHemiProc","HemiList",1,NA,NA,NA,NA,NA,NA,"RightColorProc",2,2,3,"RightColorList","Blue","SINISEN","sini",56,NA,NA,NA,0,4,294,1,0,NA,NA,NA,"1",1,"RightTrialProc",277,1,1,1,2,3,176,"RightTrialList",0,1,0
"1457","2",1,42,NA,NA,6,NA,NA,NA,NA,NA,NA,NA,NA,NA,NA,NA,"OIKEAA",NA,"ResponseHandList","",1,3,"Right","RightHemiProc","HemiList",1,NA,NA,NA,NA,NA,NA,"RightColorProc",2,2,3,"RightColorList","Blue","SINISEN","sini",57,NA,NA,NA,1,4,329,0,1,NA,NA,NA,"2",1,"RightTrialProc",312,1,0,1,3,3,177,"RightTrialList",0,1,0
"1465","2",1,42,NA,NA,6,NA,NA,NA,NA,NA,NA,NA,NA,NA,NA,NA,"OIKEAA",NA,"ResponseHandList","",1,3,"Right","RightHemiProc","HemiList",2,NA,NA,NA,NA,NA,NA,"RightColorProc",1,2,4,"RightColorList","Red","PUNAISEN","punai",5,NA,NA,NA,1,4,491,0,1,NA,NA,NA,"2",1,"RightTrialProc",474,1,0,1,3,4,185,"RightTrialList",0,1,0
"1466","2",1,42,NA,NA,6,NA,NA,NA,NA,NA,NA,NA,NA,NA,NA,NA,"OIKEAA",NA,"ResponseHandList","",1,3,"Right","RightHemiProc","HemiList",2,NA,NA,NA,NA,NA,NA,"RightColorProc",1,2,4,"RightColorList","Red","PUNAISEN","punai",6,NA,NA,NA,0,4,229,1,0,NA,NA,NA,"1",1,"RightTrialProc",212,1,1,1,2,4,186,"RightTrialList",0,1,0
"1468","2",1,42,NA,NA,6,NA,NA,NA,NA,NA,NA,NA,NA,NA,NA,NA,"OIKEAA",NA,"ResponseHandList","",1,3,"Right","RightHemiProc","HemiList",2,NA,NA,NA,NA,NA,NA,"RightColorProc",1,2,4,"RightColorList","Red","PUNAISEN","punai",8,NA,NA,NA,0,4,233,1,0,NA,NA,NA,"1",1,"RightTrialProc",216,1,1,1,2,4,188,"RightTrialList",0,1,0
"1471","2",1,42,NA,NA,6,NA,NA,NA,NA,NA,NA,NA,NA,NA,NA,NA,"OIKEAA",NA,"ResponseHandList","",1,3,"Right","RightHemiProc","HemiList",2,NA,NA,NA,NA,NA,NA,"RightColorProc",1,2,4,"RightColorList","Red","PUNAISEN","punai",11,NA,NA,NA,0,4,219,1,0,NA,NA,NA,"1",1,"RightTrialProc",202,1,1,1,2,4,191,"RightTrialList",0,1,0
"1472","2",1,42,NA,NA,6,NA,NA,NA,NA,NA,NA,NA,NA,NA,NA,NA,"OIKEAA",NA,"ResponseHandList","",1,3,"Right","RightHemiProc","HemiList",2,NA,NA,NA,NA,NA,NA,"RightColorProc",1,2,4,"RightColorList","Red","PUNAISEN","punai",12,NA,NA,NA,0,4,238,1,0,NA,NA,NA,"1",1,"RightTrialProc",221,1,1,1,2,4,192,"RightTrialList",0,1,0
"1474","2",1,42,NA,NA,6,NA,NA,NA,NA,NA,NA,NA,NA,NA,NA,NA,"OIKEAA",NA,"ResponseHandList","",1,3,"Right","RightHemiProc","HemiList",2,NA,NA,NA,NA,NA,NA,"RightColorProc",1,2,4,"RightColorList","Red","PUNAISEN","punai",14,NA,NA,NA,0,4,299,1,0,NA,NA,NA,"1",1,"RightTrialProc",282,1,1,1,2,4,194,"RightTrialList",0,1,0
"1478","2",1,42,NA,NA,6,NA,NA,NA,NA,NA,NA,NA,NA,NA,NA,NA,"OIKEAA",NA,"ResponseHandList","",1,3,"Right","RightHemiProc","HemiList",2,NA,NA,NA,NA,NA,NA,"RightColorProc",1,2,4,"RightColorList","Red","PUNAISEN","punai",18,NA,NA,NA,0,4,183,1,0,NA,NA,NA,"1",1,"RightTrialProc",167,1,1,1,2,4,198,"RightTrialList",0,1,0
"1479","2",1,42,NA,NA,6,NA,NA,NA,NA,NA,NA,NA,NA,NA,NA,NA,"OIKEAA",NA,"ResponseHandList","",1,3,"Right","RightHemiProc","HemiList",2,NA,NA,NA,NA,NA,NA,"RightColorProc",1,2,4,"RightColorList","Red","PUNAISEN","punai",19,NA,NA,NA,0,4,223,1,0,NA,NA,NA,"1",1,"RightTrialProc",206,1,1,1,2,4,199,"RightTrialList",0,1,0
"1485","2",1,42,NA,NA,6,NA,NA,NA,NA,NA,NA,NA,NA,NA,NA,NA,"OIKEAA",NA,"ResponseHandList","",1,3,"Right","RightHemiProc","HemiList",2,NA,NA,NA,NA,NA,NA,"RightColorProc",1,2,4,"RightColorList","Red","PUNAISEN","punai",25,NA,NA,NA,0,4,236,1,0,NA,NA,NA,"1",1,"RightTrialProc",219,1,1,1,2,4,205,"RightTrialList",0,1,0
"1486","2",1,42,NA,NA,6,NA,NA,NA,NA,NA,NA,NA,NA,NA,NA,NA,"OIKEAA",NA,"ResponseHandList","",1,3,"Right","RightHemiProc","HemiList",2,NA,NA,NA,NA,NA,NA,"RightColorProc",1,2,4,"RightColorList","Red","PUNAISEN","punai",26,NA,NA,NA,0,4,300,1,0,NA,NA,NA,"1",1,"RightTrialProc",283,1,1,1,2,4,206,"RightTrialList",0,1,0
"1493","2",1,42,NA,NA,6,NA,NA,NA,NA,NA,NA,NA,NA,NA,NA,NA,"OIKEAA",NA,"ResponseHandList","",1,3,"Right","RightHemiProc","HemiList",2,NA,NA,NA,NA,NA,NA,"RightColorProc",1,2,4,"RightColorList","Red","PUNAISEN","punai",33,NA,NA,NA,1,4,457,0,1,NA,NA,NA,"2",1,"RightTrialProc",440,1,0,1,3,4,213,"RightTrialList",0,1,0
