sub trial_no group_type block_type prime target mask1 mask2 congruency key_press key_error time_error RT
100 19 LeftSmaller RTTaskExp Prime_4N Target_6A LJfFbgK GHiBIAb Incongruent right correct Normal 495
100 20 LeftSmaller RTTaskExp Prime_4N Target_4N BcjbgAD BamCEIA Congruent left correct Normal 552
100 21 LeftSmaller RTTaskExp Prime_4N Target_6N ejIDkFi hgamKHD Incongruent right correct Normal 435
100 22 LeftSmaller RTTaskExp Prime_1N Target_4A FLfIbde dMfaEIH Congruent left correct Normal 431
100 23 LeftSmaller RTTaskExp Prime_6A Target_1A HFeKacG DHcLECa Incongruent left correct Normal 425
100 24 LeftSmaller RTTaskExp Prime_9N Target_9A lFGgaKL cIhFEbJ Congruent right correct Normal 428
100 25 LeftSmaller RTTaskExp Prime_4N Target_1A LmgbGCJ JBMHjlD Congruent left correct Normal 385
100 26 LeftSmaller RTTaskExp Prime_1A Target_4A EAMeHlb gLajHhl Congruent left correct Normal 382
100 27 LeftSmaller RTTaskExp Prime_4A Target_1N McJdDjg IKlMHEi Congruent left correct Normal 468
100 28 LeftSmaller RTTaskExp Prime_4A Target_4N HLbdBDI MGhElAJ Congruent left correct Normal 482
100 29 LeftSmaller RTTaskExp Prime_6A Target_4A bKfHgIB jBHEGfd Incongruent left correct Normal 448
100 30 LeftSmaller RTTaskExp Prime_1N Target_6A KaHGAEd MCGJDeK Incongruent right correct Normal 481
100 31 LeftSmaller RTTaskExp Prime_4N Target_4A bdICEjk HkMbAEj Congruent left correct Normal 392
100 32 LeftSmaller RTTaskExp Prime_1N Target_4N jaeDMmG jcdLlim Congruent left correct Normal 430
100 33 LeftSmaller RTTaskExp Prime_1A Target_1A HmbMadJ dFLhkIJ Congruent left correct Normal 405
100 34 LeftSmaller RTTaskExp Prime_4A Target_9A IkElCLi bhldfDA Incongruent right correct Normal 441
100 35 LeftSmaller RTTaskExp Prime_9N Target_6A ifdJBGb KIgdHmh Congruent right correct Normal 545
100 36 LeftSmaller RTTaskExp Prime_1A Target_6N IlaGAMB mCiFhMG Incongruent right correct Normal 479
100 37 LeftSmaller RTTaskExp Prime_6A Target_9A HdJbIFh JMmAGIb Congruent right correct Normal 422
100 38 LeftSmaller RTTaskExp Prime_9N Target_4N FhEIgAm KgFBflh Incongruent left correct Normal 485
100 39 LeftSmaller RTTaskExp Prime_1A Target_4N FgjEabM mIDFMhd Congruent left correct Normal 448
100 40 LeftSmaller RTTaskExp Prime_6N Target_9A KJhLdbB lDBbFmL Congruent right correct Normal 464
100 41 LeftSmaller RTTaskExp Prime_9N Target_9N cjbIClJ EMDIAmF Congruent right correct Normal 656
100 42 LeftSmaller RTTaskExp Prime_9N Target_6N bjmAMGI cdDbEiL Congruent left error Normal 493
100 43 LeftSmaller RTTaskExp Prime_1A Target_9A DaHLAGe cLbCgmK Incongruent right correct Normal 643
100 44 LeftSmaller RTTaskExp Prime_9A Target_4N dKLIEaJ gFdicEB Incongruent left correct Normal 508
100 45 LeftSmaller RTTaskExp Prime_1A Target_9N DlGELIe IgMecGk Incongruent right correct Normal 540
100 46 LeftSmaller RTTaskExp Prime_4N Target_1N IiMcjAD albBfFE Congruent left correct Normal 468
100 47 LeftSmaller RTTaskExp Prime_6A Target_1N ElJMADh aClAKIg Incongruent left correct Normal 502
100 48 LeftSmaller RTTaskExp Prime_4N Target_9N KfjdCge DkadHjh Incongruent right correct Normal 510
100 49 LeftSmaller RTTaskExp Prime_9N Target_1N kmfheMj gIedaLj Incongruent left correct Normal 471
100 50 LeftSmaller RTTaskExp Prime_1N Target_9N egcCFdL cIGMFfL Incongruent right correct Normal 497
100 51 LeftSmaller RTTaskExp Prime_4N Target_9A BEedKkG FMhAIfd Incongruent right correct Normal 433
100 52 LeftSmaller RTTaskExp Prime_9A Target_6N BLKeHai EiKfeFG Congruent right correct Normal 542
100 53 LeftSmaller RTTaskExp Prime_6A Target_4N CIghcLf mFLaJEf Incongruent left correct Normal 472
100 54 LeftSmaller RTTaskExp Prime_1A Target_6A bcfFDlM ImLcJbj Incongruent right correct Normal 537
100 55 LeftSmaller RTTaskExp Prime_6N Target_4A djHgEFh LIAMHmi Incongruent left correct Normal 511
100 56 LeftSmaller RTTaskExp Prime_6A Target_6A IijgdEG DHjECdg Congruent right correct Normal 432
100 57 LeftSmaller RTTaskExp Prime_6N Target_6A bkcCDIg kMiHAjf Congruent right correct Normal 391
100 58 LeftSmaller RTTaskExp Prime_9N Target_4A gGHKikC kEmlBia Incongruent left correct Normal 496
100 59 LeftSmaller RTTaskExp Prime_6N Target_1N IDiMmgc dHFahLm Incongruent left correct Normal 490
100 60 LeftSmaller RTTaskExp Prime_9A Target_9N mbAEDBL HbDjfgL Congruent right correct Normal 366
100 61 LeftSmaller RTTaskExp Prime_6N Target_4N LBaFbCh bHlEDeg Incongruent left correct Normal 482
100 62 LeftSmaller RTTaskExp Prime_1N Target_1A bBKkHCa FJdCmIh Congruent left correct Normal 426
100 63 LeftSmaller RTTaskExp Prime_6N Target_6N mGkaelL ICHMEkK Congruent right correct Normal 422
100 64 LeftSmaller RTTaskExp Prime_9N Target_6N McaLCIl GAbfIFL Congruent right correct Normal 517
100 65 LeftSmaller RTTaskExp Prime_6N Target_1A bjlgcmJ ecImikj Incongruent left correct Normal 397
100 66 LeftSmaller RTTaskExp Prime_1N Target_9A KmCLeMh GmaAJiB Incongruent right correct Normal 466
100 67 LeftSmaller RTTaskExp Prime_9A Target_4A bAlgJLI jfHikGC Incongruent left correct Normal 470
100 68 LeftSmaller RTTaskExp Prime_1N Target_6N BebHICK HcIGaFe Incongruent right correct Normal 596
100 69 LeftSmaller RTTaskExp Prime_9A Target_1A kGfmCei amJdhCL Incongruent left correct Normal 416
100 70 LeftSmaller RTTaskExp Prime_9A Target_9A McgKLCF fbclkAa Congruent right correct Normal 376
100 71 LeftSmaller RTTaskExp Prime_4A Target_1A LIEclAg DMbcmdA Congruent left correct Normal 353
100 72 LeftSmaller RTTaskExp Prime_9A Target_6A DIciLAB eHFjLkd Congruent right correct Normal 344
100 73 LeftSmaller RTTaskExp Prime_4A Target_6N blCFIeD JeAkCdE Incongruent right correct Normal 381
100 74 LeftSmaller RTTaskExp Prime_9A Target_1N aeBIEDH MfBjHcL Incongruent right error Normal 351
100 75 LeftSmaller RTTaskExp Prime_9A Target_1N IHKBajL EeGbAiH Incongruent left correct Normal 343
100 76 LeftSmaller RTTaskExp Prime_6N Target_9N AmjLaGc dleBEDb Congruent right correct Normal 492
100 77 LeftSmaller RTTaskExp Prime_1A Target_1N fKAmEdj kegiEFd Congruent left correct Normal 329
100 78 LeftSmaller RTTaskExp Prime_6A Target_9N lhBmgDH mEAdaBM Congruent left error Normal 349
100 79 LeftSmaller RTTaskExp Prime_6A Target_9N BCfGLcb gHhKIca Congruent right correct Normal 601
100 80 LeftSmaller RTTaskExp Prime_9N Target_1A gGhJieF IJdDiAb Incongruent left correct Normal 410
100 81 LeftSmaller RTTaskExp Prime_4A Target_4A BKbdHme kgmFKEa Congruent left correct Normal 477
100 82 LeftSmaller RTTaskExp Prime_6A Target_6N BEDiKfG fMDAakg Congruent right correct Normal 505
100 83 LeftSmaller RTTaskExp Prime_4A Target_9N FBcCdlA iGeFDdh Incongruent right correct Normal 502
100 84 LeftSmaller RTTaskExp Prime_4A Target_6A DGhCMFI EGDaeML Incongruent right correct Normal 558
100 85 LeftSmaller RTTaskExp Prime_1N Target_1N mcFKJjI MaEJbIh Congruent left correct Normal 436
100 86 LeftSmaller RTTaskExp Prime_6N Target_9N KaClhib LkIaCgM Congruent right correct Normal 521
100 87 LeftSmaller RTTaskExp Prime_6N Target_1A algDGEK DjeafiM Incongruent left correct Normal 390
100 88 LeftSmaller RTTaskExp Prime_6A Target_4N kAIEeaB BkHfGIE Incongruent left correct Normal 451
100 89 LeftSmaller RTTaskExp Prime_9A Target_9N LJhfmdj dFfleKg Congruent right correct Normal 388
100 90 LeftSmaller RTTaskExp Prime_6A Target_9N CaMdGej GMfeBdl Congruent right correct Normal 391
100 91 LeftSmaller RTTaskExp Prime_1A Target_4N IAdEgbc jGDBCJl Congruent left correct Normal 480
100 92 LeftSmaller RTTaskExp Prime_4N Target_4A JAMFmke DKghdAG Congruent left correct Normal 452
100 93 LeftSmaller RTTaskExp Prime_6A Target_6N elkhcfa dDMKelA Congruent right correct Normal 409
100 94 LeftSmaller RTTaskExp Prime_4N Target_1A DCgMaIe FjLiKIk Congruent left correct Normal 442
100 95 LeftSmaller RTTaskExp Prime_1N Target_9A eMBAFkf EFbehdD Incongruent right correct Normal 430
100 96 LeftSmaller RTTaskExp Prime_1N Target_1N MJfmkhj ghjCAcH Congruent left correct Normal 414
100 97 LeftSmaller RTTaskExp Prime_9A Target_4N dJjkFeA HdGkKBl Incongruent right error Normal 341
100 98 LeftSmaller RTTaskExp Prime_9A Target_9A IFAajJG EghHjDF Congruent right correct Normal 465
100 99 LeftSmaller RTTaskExp Prime_4A Target_9N iAJEDfe BhKgMbl Incongruent right correct Normal 515
100 100 LeftSmaller RTTaskExp Prime_1A Target_9N ADMJEfF jaJbFLf Incongruent right correct Normal 402
100 101 LeftSmaller RTTaskExp Prime_9N Target_4A GHLeCJM JhKfeBb Incongruent left correct Normal 423
100 102 LeftSmaller RTTaskExp Prime_4A Target_1N LImGhCA emCbGjJ Congruent left correct Normal 389
100 103 LeftSmaller RTTaskExp Prime_9N Target_9A cCLHlAB GKFDjlJ Congruent right correct Normal 367
100 104 LeftSmaller RTTaskExp Prime_4N Target_6N hjkcHbE ejmBdIF Incongruent right correct Normal 554
100 105 LeftSmaller RTTaskExp Prime_1N Target_4N JieFBCE CemMdjc Congruent left correct Normal 480
100 106 LeftSmaller RTTaskExp Prime_6A Target_4A haLHbik gljEicB Incongruent left correct Normal 518
100 107 LeftSmaller RTTaskExp Prime_9A Target_1N aDeGFEl JgFeKGl Incongruent left correct Normal 488
100 108 LeftSmaller RTTaskExp Prime_4N Target_9A BMJHmCe aljLEMb Incongruent right correct Normal 439
100 109 LeftSmaller RTTaskExp Prime_4A Target_1A hMBEDIJ FhfJkdc Congruent left correct Normal 477
100 110 LeftSmaller RTTaskExp Prime_1A Target_4A FeLJkjc IecAFGC Congruent left correct Normal 428
100 111 LeftSmaller RTTaskExp Prime_6A Target_1N EKhJkDe GHiBeJI Incongruent left correct Normal 382
100 112 LeftSmaller RTTaskExp Prime_1A Target_1A KMfALFI bIEmAhL Congruent left correct Normal 377
100 113 LeftSmaller RTTaskExp Prime_4N Target_4N eMdkGfE gdfMDjH Congruent left correct Normal 366
100 114 LeftSmaller RTTaskExp Prime_6A Target_1A CkgIAKc FGHmBja Incongruent left correct Normal 379
100 115 LeftSmaller RTTaskExp Prime_9A Target_4A FmalGMe CEliLec Incongruent left correct Normal 384
100 116 LeftSmaller RTTaskExp Prime_1N Target_1A LDhdFiH GElmDeb Congruent left correct Normal 343
100 117 LeftSmaller RTTaskExp Prime_4A Target_9A kjECHMI kHifleM Incongruent right correct Normal 471
100 118 LeftSmaller RTTaskExp Prime_9N Target_4N EDMCfLB cJfImAb Incongruent left correct Normal 482
100 119 LeftSmaller RTTaskExp Prime_1N Target_6A JbcgMmj LCgKHdM Incongruent right correct Normal 434
100 120 LeftSmaller RTTaskExp Prime_1A Target_6N GMebhHD AIafEhM Incongruent right correct Normal 471
100 121 LeftSmaller RTTaskExp Prime_6N Target_1N dkGJgMc cefMJCm Incongruent left correct Normal 462
100 122 LeftSmaller RTTaskExp Prime_9A Target_6A CHcIDMl LfbMGhl Congruent right correct Normal 432
100 123 LeftSmaller RTTaskExp Prime_6A Target_6A AgfGlJd GDmaIKe Congruent right correct Normal 451
100 124 LeftSmaller RTTaskExp Prime_4A Target_4N EdAkmiB hAfkIcC Congruent left correct Normal 394
100 125 LeftSmaller RTTaskExp Prime_9N Target_1N ACghKak LgkidJa Incongruent left correct Normal 469
100 126 LeftSmaller RTTaskExp Prime_1N Target_9N cfLmegC fhBIFgb Incongruent right correct Normal 453
100 127 LeftSmaller RTTaskExp Prime_6A Target_9A BadKGgE jCFHEAi Congruent right correct Normal 432
100 128 LeftSmaller RTTaskExp Prime_1N Target_4A fLDkHGa BEFCIAM Congruent left correct Normal 394
100 129 LeftSmaller RTTaskExp Prime_1A Target_6A LMHebfh djaKhEB Incongruent right correct Normal 389
100 130 LeftSmaller RTTaskExp Prime_9N Target_6A amjcGdJ ImhCFAK Congruent right correct Normal 393
100 131 LeftSmaller RTTaskExp Prime_4N Target_1N hMIClLH kaJDlGc Congruent left correct Normal 440
100 132 LeftSmaller RTTaskExp Prime_1N Target_6N Fbklfea blmFaGe Incongruent right correct Normal 467
100 133 LeftSmaller RTTaskExp Prime_1A Target_1N HhGDFEL ImHMGFg Congruent right error Normal 401
100 134 LeftSmaller RTTaskExp Prime_4A Target_4A bJFkMDH ieDKCEk Congruent left correct Normal 427
100 135 LeftSmaller RTTaskExp Prime_9N Target_1A BLHCcib dlcjBAg Incongruent left correct Normal 400
100 136 LeftSmaller RTTaskExp Prime_4N Target_6A GjFCMDl ckMhKil Incongruent right correct Normal 487
100 137 LeftSmaller RTTaskExp Prime_6N Target_6A fJGBIaC bFKelmM Congruent right correct Normal 409
100 138 LeftSmaller RTTaskExp Prime_6N Target_4A EdemDAI KmdkcEa Incongruent left correct Normal 444
100 139 LeftSmaller RTTaskExp Prime_6N Target_6N cabhMDl beJDHLf Congruent right correct Normal 417
100 140 LeftSmaller RTTaskExp Prime_9A Target_1A GCblecJ gacDHfj Incongruent left correct Normal 435
100 141 LeftSmaller RTTaskExp Prime_9A Target_4N mIHGLKe fHEkJKj Incongruent left correct Normal 448
100 142 LeftSmaller RTTaskExp Prime_9A Target_6N cJGAKIe CBdDcgJ Congruent right correct Normal 442
100 143 LeftSmaller RTTaskExp Prime_9N Target_9N mKJlLjg GAgbacD Congruent right correct Normal 433
100 144 LeftSmaller RTTaskExp Prime_4A Target_6A FIdAaDE eDdLIaF Incongruent left error Normal 348
100 145 LeftSmaller RTTaskExp Prime_9N Target_6N mGMHdCl gcAlHCd Congruent right correct Normal 433
100 146 LeftSmaller RTTaskExp Prime_4N Target_9N BHIGEDd HeGKFmL Incongruent right correct Normal 526
100 147 LeftSmaller RTTaskExp Prime_6N Target_9A gjMklCF DAHBLlM Congruent right correct Normal 447
100 148 LeftSmaller RTTaskExp Prime_6N Target_4N agcjDbB HFjlIbE Incongruent left correct Normal 452
100 149 LeftSmaller RTTaskExp Prime_4A Target_6N IJCfMeH KDdlCjF Incongruent right correct Normal 503
100 150 LeftSmaller RTTaskExp Prime_1A Target_1N KBFjDcd MFKglAE Congruent left correct Normal 540
100 151 LeftSmaller RTTaskExp Prime_1A Target_9A elahKkE CbIfjKd Incongruent right correct Normal 417
100 152 LeftSmaller RTTaskExp Prime_4A Target_6A ldLMkAB HgeaMmC Incongruent right correct Normal 510
100 153 LeftSmaller RTTaskExp Prime_9A Target_4A eIkfEBA CgiHLdE Incongruent left correct Normal 435
100 154 LeftSmaller RTTaskExp Prime_6A Target_9N LKkDIeE KjkfDgF Congruent right correct Normal 385
100 155 LeftSmaller RTTaskExp Prime_9N Target_4A EgaJCDL FmBDAke Incongruent left correct Normal 435
100 156 LeftSmaller RTTaskExp Prime_6A Target_6N jEJFegI ADeMEJh Congruent right correct Normal 576
100 157 LeftSmaller RTTaskExp Prime_9A Target_1A DaleKkG iILFbjg Incongruent left correct Normal 392
100 158 LeftSmaller RTTaskExp Prime_1N Target_1A gmJcfjE EgcdAea Congruent left correct Normal 344
100 159 LeftSmaller RTTaskExp Prime_9N Target_9A cfGCbdJ MhjecbD Congruent right correct Normal 395
100 160 LeftSmaller RTTaskExp Prime_4A Target_4N FJmkBIi bGDijAm Congruent left correct Normal 430
100 161 LeftSmaller RTTaskExp Prime_4N Target_6A mlIeach eaiGcFA Incongruent right correct Normal 413
100 162 LeftSmaller RTTaskExp Prime_1A Target_9N KfEbmgF HdDfeKi Incongruent right correct Normal 446
100 163 LeftSmaller RTTaskExp Prime_6N Target_6A Dlhedjb abifLBD Congruent right correct Normal 466
100 164 LeftSmaller RTTaskExp Prime_6A Target_1A EcIMBgk EcDgKHh Incongruent left correct Normal 387
100 165 LeftSmaller RTTaskExp Prime_6N Target_1A FEGgmHf JDhbGBF Incongruent left correct Normal 436
100 166 LeftSmaller RTTaskExp Prime_4N Target_4N DGeJhEA hKAFgja Congruent left correct Normal 398
100 167 LeftSmaller RTTaskExp Prime_1A Target_6A FIBHjED JdfbGkE Incongruent right correct Normal 382
100 168 LeftSmaller RTTaskExp Prime_1A Target_9A acFiKjG AhFGjEb Incongruent right correct Normal 443
100 169 LeftSmaller RTTaskExp Prime_6A Target_4N JKFdAIk mjdGBiA Incongruent left correct Normal 475
100 170 LeftSmaller RTTaskExp Prime_6N Target_4N hcaFKBk EdChFbM Incongruent left correct Normal 476
100 171 LeftSmaller RTTaskExp Prime_1N Target_6A jGAiKaJ KMhFGkj Incongruent left error Normal 437
100 172 LeftSmaller RTTaskExp Prime_9N Target_6A hJmHADb DcklMfE Congruent right correct Normal 411
100 173 LeftSmaller RTTaskExp Prime_4N Target_9N kjeLGfB EBDJeiK Incongruent right correct Normal 632
100 174 LeftSmaller RTTaskExp Prime_1A Target_4A BdHijID edGLMJH Congruent left correct Normal 498
100 175 LeftSmaller RTTaskExp Prime_9N Target_4N bGEmMIB MkfLABe Incongruent left correct Normal 580
100 176 LeftSmaller RTTaskExp Prime_1A Target_1A higEaHm eAkmlib Congruent left correct Normal 435
100 177 LeftSmaller RTTaskExp Prime_4N Target_9A jMgcBEA adKDIGA Incongruent right correct Normal 427
100 178 LeftSmaller RTTaskExp Prime_6N Target_4A fbjJFHa fBIjmhK Incongruent left correct Normal 460
100 179 LeftSmaller RTTaskExp Prime_6N Target_9A lMDHmkI jMcJaDC Congruent right correct Normal 405
100 180 LeftSmaller RTTaskExp Prime_4A Target_1N eLCFDba EJlkcdM Congruent left correct Normal 401
100 181 LeftSmaller RTTaskExp Prime_9A Target_4N AfhBmaL haFmkGj Incongruent left correct Normal 455
100 182 LeftSmaller RTTaskExp Prime_4A Target_1A faAKMEj meFDfLJ Congruent left correct Normal 402
100 183 LeftSmaller RTTaskExp Prime_6N Target_1N iICcLAf LDbMfGC Incongruent left correct Normal 486
100 184 LeftSmaller RTTaskExp Prime_9A Target_9N lkFdHhJ JEdIHck Congruent right correct Normal 492
100 185 LeftSmaller RTTaskExp Prime_1N Target_4N EgliHkA EjdlAKc Congruent left correct Normal 467
100 186 LeftSmaller RTTaskExp Prime_6A Target_1N ADihHCe clmFdLC Incongruent left correct Normal 472
100 187 LeftSmaller RTTaskExp Prime_4N Target_1A EifKhMI DgGfchb Congruent left correct Normal 415
100 188 LeftSmaller RTTaskExp Prime_1A Target_4N HjDgmAb EHiKfAI Congruent left correct Normal 462
100 189 LeftSmaller RTTaskExp Prime_9A Target_6N aCkHJjf hgCMEiL Congruent right correct Normal 497
100 190 LeftSmaller RTTaskExp Prime_6A Target_6A LiMcBhg aJkdcjA Congruent right correct Normal 469
100 191 LeftSmaller RTTaskExp Prime_4N Target_1N MKkBcal MGbKchg Congruent left correct Normal 407
100 192 LeftSmaller RTTaskExp Prime_4N Target_6N ABGkfFm ecKDMGE Incongruent right correct Normal 402
100 193 LeftSmaller RTTaskExp Prime_1N Target_9A FHEIkgB JAFfkGI Incongruent right correct Normal 391
100 194 LeftSmaller RTTaskExp Prime_9A Target_6A mJjgflK gdiJfEh Congruent right correct Normal 435
100 195 LeftSmaller RTTaskExp Prime_1N Target_6A dfFaCbl HMlbFme Incongruent right correct Normal 359
100 196 LeftSmaller RTTaskExp Prime_9A Target_9A kCeGbFE iFEDAKd Congruent right correct Normal 477
100 197 LeftSmaller RTTaskExp Prime_9N Target_1A BEhGjIk egLCcHa Incongruent left correct Normal 421
100 198 LeftSmaller RTTaskExp Prime_1N Target_9N gMGLciB GFJLjed Incongruent right correct Normal 450
100 199 LeftSmaller RTTaskExp Prime_1A Target_6N BKIefJL ifaDKbh Incongruent right correct Normal 463
100 200 LeftSmaller RTTaskExp Prime_6A Target_4A ljFDMCB HfIbBGC Incongruent left correct Normal 411
100 201 LeftSmaller RTTaskExp Prime_9A Target_1N FMidmKC kFlJdIa Incongruent left correct Normal 550
100 202 LeftSmaller RTTaskExp Prime_6N Target_9N BEeflgG iAljJDf Congruent right correct Normal 395
100 203 LeftSmaller RTTaskExp Prime_4N Target_4A dIJkBjL fGCkmKg Congruent left correct Normal 424
100 204 LeftSmaller RTTaskExp Prime_4A Target_9N bKhHaJd fBcEIAF Incongruent right correct Normal 526
100 205 LeftSmaller RTTaskExp Prime_1N Target_6N AkaEBFf hjkgKeC Incongruent left error Normal 470
100 206 LeftSmaller RTTaskExp Prime_6A Target_9A FifLHMG cLJjFEi Congruent right correct Normal 473
100 207 LeftSmaller RTTaskExp Prime_9N Target_6N MAjCchk dIgELBi Congruent right correct Normal 361
100 208 LeftSmaller RTTaskExp Prime_9N Target_1N ihEJkgC jBFgCJe Incongruent right error Normal 430
100 209 LeftSmaller RTTaskExp Prime_1N Target_1N KfbJLCi EcBgDId Congruent left correct Normal 401
100 210 LeftSmaller RTTaskExp Prime_9N Target_9N FCheBmc hIemECb Congruent right correct Normal 448
100 211 LeftSmaller RTTaskExp Prime_4A Target_4A MjHEmBf gGdLaAe Congruent left correct Normal 435
100 212 LeftSmaller RTTaskExp Prime_9N Target_1N JICBGfm EkdaJAL Incongruent right error Normal 349
100 213 LeftSmaller RTTaskExp Prime_4A Target_6A hakiAHG lhHdkMG Incongruent right correct Normal 501
100 214 LeftSmaller RTTaskExp Prime_9N Target_1N ifgeFjH aMBjhEm Incongruent left correct Normal 469
100 215 LeftSmaller RTTaskExp Prime_1A Target_1N FhHGCjc eGmDhdf Congruent left correct Normal 455
100 216 LeftSmaller RTTaskExp Prime_1N Target_4A feGbBkd alEGiBC Congruent left correct Normal 433
100 217 LeftSmaller RTTaskExp Prime_6N Target_6N AHcIMmh IClbjBf Congruent right correct Normal 426
100 218 LeftSmaller RTTaskExp Prime_4A Target_9A JDkeaHf DhFcAgd Incongruent right correct Normal 458
100 219 LeftSmaller RTTaskExp Prime_1N Target_6N MAdciBl HgMlAmc Incongruent right correct Normal 469
100 220 LeftSmaller RTTaskExp Prime_4A Target_6N kjHlAMm daIbMCH Incongruent right correct Normal 342
100 221 LeftSmaller RTTaskExp Prime_9A Target_9A alLmhMJ gDkdFKB Congruent right correct Normal 422
100 222 LeftSmaller RTTaskExp Prime_9N Target_4N BMkDdcH efFHDjd Incongruent left correct Normal 441
100 223 LeftSmaller RTTaskExp Prime_1N Target_9N dCMcBAb kKaIciF Incongruent right correct Normal 470
100 224 LeftSmaller RTTaskExp Prime_6A Target_4A FjficHD MKHlBdL Incongruent left correct Normal 478
100 225 LeftSmaller RTTaskExp Prime_1N Target_1A jbclJed aKhbCLe Congruent left correct Normal 386
100 226 LeftSmaller RTTaskExp Prime_1N Target_1N lJdChbM FDfGchC Congruent right error Normal 401
100 227 LeftSmaller RTTaskExp Prime_9A Target_6N gBlkfbc BEaFgim Congruent right correct Normal 429
100 228 LeftSmaller RTTaskExp Prime_6N Target_1N laACFhe ajfHiDL Incongruent left correct Normal 394
100 229 LeftSmaller RTTaskExp Prime_6A Target_6A aehbfGM blCkAhM Congruent right correct Normal 486
100 230 LeftSmaller RTTaskExp Prime_1A Target_1N kJgiaMc iFfjgBI Congruent left correct Normal 499
100 231 LeftSmaller RTTaskExp Prime_1N Target_4N AFafCjl LkCMJKI Congruent left correct Normal 560
100 232 LeftSmaller RTTaskExp Prime_4A Target_1N lmMCHdF ibDkjal Congruent left correct Normal 474
100 233 LeftSmaller RTTaskExp Prime_4N Target_4A JAeaCGf GMKFmcb Congruent left correct Normal 425
100 234 LeftSmaller RTTaskExp Prime_6A Target_9N DgmbdMa CBcLbia Congruent right correct Normal 499
100 235 LeftSmaller RTTaskExp Prime_6A Target_1A lBeHKDJ FHCbJik Incongruent left correct Normal 421
100 236 LeftSmaller RTTaskExp Prime_4N Target_9A LhdHDkj JdHKgjB Incongruent right correct Normal 424
100 237 LeftSmaller RTTaskExp Prime_9A Target_1N KHLehcm FJadKmE Incongruent left correct Normal 508
100 238 LeftSmaller RTTaskExp Prime_6A Target_9A GAMgdKl aehcdfk Congruent right correct Normal 397
100 239 LeftSmaller RTTaskExp Prime_4A Target_1A kMCjAHg hckFfGC Congruent left correct Normal 393
100 240 LeftSmaller RTTaskExp Prime_1N Target_6N EjIHLil HFkMfKE Incongruent left error Normal 455
100 241 LeftSmaller RTTaskExp Prime_9A Target_4A MIiemDL EiKjHgd Incongruent left correct Normal 441
100 242 LeftSmaller RTTaskExp Prime_9N Target_9N eHLgMBK chjfMba Congruent right correct Normal 409
100 243 LeftSmaller RTTaskExp Prime_6N Target_6N GkcgJAi fCHjEgF Congruent right correct Normal 466
100 244 LeftSmaller RTTaskExp Prime_9N Target_4A dcKjLai emBfLcE Incongruent left correct Normal 485
100 245 LeftSmaller RTTaskExp Prime_1A Target_6N dlCBDEH DAjiefB Incongruent right correct Normal 359
100 246 LeftSmaller RTTaskExp Prime_1A Target_9A dCDmgBH lDbLaje Incongruent right correct Normal 425
100 247 LeftSmaller RTTaskExp Prime_6N Target_4A KFAGEbM fdLIDAb Incongruent left correct Normal 451
100 248 LeftSmaller RTTaskExp Prime_1N Target_6A mkDJieI GJCaMgK Incongruent right correct Normal 402
100 249 LeftSmaller RTTaskExp Prime_9A Target_1A LEaKFcH fbhFmBa Incongruent left correct Normal 355
100 250 LeftSmaller RTTaskExp Prime_6A Target_4N DCEjAHI lEgFemj Incongruent right error Normal 374
100 251 LeftSmaller RTTaskExp Prime_4A Target_4N lKEALek LehMIfE Congruent left correct Normal 479
100 252 LeftSmaller RTTaskExp Prime_6A Target_1N DFHjMJK KmCibHG Incongruent left correct Normal 465
100 253 LeftSmaller RTTaskExp Prime_6N Target_1A jdhCcGa IbfkKga Incongruent left correct Normal 369
100 254 LeftSmaller RTTaskExp Prime_4A Target_6A DahHLkm lbGfBeE Incongruent right correct Normal 436
100 255 LeftSmaller RTTaskExp Prime_4A Target_4A EHbJAhI GmghdfL Congruent left correct Normal 499
100 256 LeftSmaller RTTaskExp Prime_1A Target_6A jHKCGib gdeJcmK Incongruent right correct Normal 440
100 257 LeftSmaller RTTaskExp Prime_9A Target_6A FjlbBED HEFdaGD Congruent right correct Normal 400
100 258 LeftSmaller RTTaskExp Prime_9N Target_1N mMlehAF jGfgdeC Incongruent right error Normal 350
100 259 LeftSmaller RTTaskExp Prime_6A Target_4N hlBkHmc GbfkmhJ Incongruent left correct Normal 466
100 260 LeftSmaller RTTaskExp Prime_6N Target_9A MALHigk CedifJF Congruent right correct Normal 390
100 261 LeftSmaller RTTaskExp Prime_1A Target_1A EfAimFC lIhBcHD Congruent left correct Normal 314
100 262 LeftSmaller RTTaskExp Prime_6N Target_4N GElKfBL fEBmadc Incongruent left correct Normal 431
100 263 LeftSmaller RTTaskExp Prime_4N Target_9N AMEdGhF CEDgFhJ Incongruent right correct Normal 456
100 264 LeftSmaller RTTaskExp Prime_9N Target_1A IjkafBb mgeHAcL Incongruent left correct Normal 385
100 265 LeftSmaller RTTaskExp Prime_1A Target_4N fGcHMBb fEDaClJ Congruent left correct Normal 527
100 266 LeftSmaller RTTaskExp Prime_9A Target_9N JfidDkF BMCeciJ Congruent left error Normal 370
100 267 LeftSmaller RTTaskExp Prime_4A Target_9N BdAElMf KmfABLG Incongruent right correct Normal 417
100 268 LeftSmaller RTTaskExp Prime_9N Target_9A MigJcdD CGgdIib Congruent right correct Normal 391
100 269 LeftSmaller RTTaskExp Prime_1N Target_4A ekKdBjl EiCBFDA Congruent left correct Normal 338
100 270 LeftSmaller RTTaskExp Prime_9A Target_9N AheFHbk ImBAkaK Congruent right correct Normal 451
100 271 LeftSmaller RTTaskExp Prime_9A Target_4N BLCbMFH fiMAIKk Incongruent right error Normal 389
100 272 LeftSmaller RTTaskExp Prime_9A Target_4N kIJiLbg ALeDHbC Incongruent left correct Normal 406
100 273 LeftSmaller RTTaskExp Prime_1N Target_9A iMekhDg hKmLgBd Incongruent right correct Normal 412
100 274 LeftSmaller RTTaskExp Prime_6N Target_9N bgJmdiK iamMfBK Congruent right correct Normal 480
100 275 LeftSmaller RTTaskExp Prime_6N Target_6A ACegHjh lELgecM Congruent right correct Normal 444
100 276 LeftSmaller RTTaskExp Prime_9N Target_1N LfDHiJe cHGdJKm Incongruent left correct Normal 433
100 277 LeftSmaller RTTaskExp Prime_4A Target_9A LDcFlBC CkmBEKa Incongruent right correct Normal 484
100 278 LeftSmaller RTTaskExp Prime_1N Target_1N mdglCEG EKejkca Congruent left correct Normal 414
100 279 LeftSmaller RTTaskExp Prime_4N Target_1N DfBeFGE KlgBmDH Congruent left correct Normal 436
100 280 LeftSmaller RTTaskExp Prime_1A Target_9N ahELbAe eAfFchm Incongruent right correct Normal 422
100 281 LeftSmaller RTTaskExp Prime_4N Target_4N FBlMkdK LClAcmk Congruent right error Normal 324
100 282 LeftSmaller RTTaskExp Prime_4N Target_6A klLmMiJ BekDafH Incongruent right correct Normal 474
100 283 LeftSmaller RTTaskExp Prime_4N Target_1A jeLJgBI ibAcFJI Congruent left correct Normal 224
100 284 LeftSmaller RTTaskExp Prime_9N Target_6A jHLJfcg dJaiBhf Congruent right correct Normal 390
100 285 LeftSmaller RTTaskExp Prime_1N Target_6N GmgHeAh AFjIemE Incongruent right correct Normal 465
100 286 LeftSmaller RTTaskExp Prime_6A Target_6N KMhbLaI HMdmkfa Congruent right correct Normal 391
100 287 LeftSmaller RTTaskExp Prime_4A Target_6N KfmAcCe HidJelL Incongruent right correct Normal 447
100 288 LeftSmaller RTTaskExp Prime_4N Target_4N EJGHkeM AlgifLD Congruent left correct Normal 431
100 289 LeftSmaller RTTaskExp Prime_4N Target_6N DdlafEF iaHgKbk Incongruent right correct Normal 449
100 290 LeftSmaller RTTaskExp Prime_1A Target_4A hGbCcFa FmBgDCh Congruent left correct Normal 406
100 291 LeftSmaller RTTaskExp Prime_9N Target_6N gFLiJDh iFAKClb Congruent right correct Normal 380
101 26 LeftLarger RTTaskExp Prime_9N Target_6N GJdEHBc dcACfHk Congruent left correct Late 1039
101 27 LeftLarger RTTaskExp Prime_9A Target_9N KjACEFe hbdBHAF Congruent left correct Normal 720
101 28 LeftLarger RTTaskExp Prime_6A Target_9A EFmKfIB BCgjJHF Congruent left correct Normal 462
101 29 LeftLarger RTTaskExp Prime_1N Target_6A HFcgElk BIDHKif Incongruent left correct Normal 531
101 30 LeftLarger RTTaskExp Prime_9N Target_6N Adkgmlb geAkCmM Congruent left correct Normal 422
101 31 LeftLarger RTTaskExp Prime_6N Target_1A CHFKgAb fAhlIHB Incongruent right correct Normal 384
101 32 LeftLarger RTTaskExp Prime_4A Target_6N AHgDBdC AahEfiK Incongruent left correct Normal 475
101 33 LeftLarger RTTaskExp Prime_1N Target_9A EfMGgjm LkdjCGE Incongruent left correct Normal 627
101 34 LeftLarger RTTaskExp Prime_9A Target_4A cKmGkbE JhIkKFa Incongruent right correct Normal 578
101 35 LeftLarger RTTaskExp Prime_1A Target_9N CdjKcDa KfIFajk Incongruent left correct Normal 464
101 36 LeftLarger RTTaskExp Prime_9A Target_1N DdIJmeb dBmDegi Incongruent right correct Normal 646
101 37 LeftLarger RTTaskExp Prime_6N Target_1N mDGcJAI EKkJlFd Incongruent right correct Normal 531
101 38 LeftLarger RTTaskExp Prime_4A Target_4N HLjfKId KcHeGAE Congruent right correct Normal 732
101 39 LeftLarger RTTaskExp Prime_4A Target_9N mhAIjeE mjDHfeh Incongruent left correct Normal 629
101 40 LeftLarger RTTaskExp Prime_9A Target_4N aAdbifm LbeaGhc Incongruent right correct Normal 422
101 41 LeftLarger RTTaskExp Prime_6N Target_9N BaLCMdA JeHIKBi Congruent left correct Normal 528
101 42 LeftLarger RTTaskExp Prime_6N Target_4N kIiFJGL LHclBFg Incongruent right correct Normal 405
101 43 LeftLarger RTTaskExp Prime_4N Target_4A kabGIBH ghGbjMC Congruent right correct Normal 546
101 44 LeftLarger RTTaskExp Prime_1A Target_4N fEDCgAF MBfKdjg Congruent right correct Normal 387
101 45 LeftLarger RTTaskExp Prime_1N Target_9N iLKjkch eFmBdCI Incongruent left correct Normal 418
101 46 LeftLarger RTTaskExp Prime_9N Target_6A MegfaAh KkDfdba Congruent right error Normal 714
101 47 LeftLarger RTTaskExp Prime_9A Target_1A hCIeaLB fIHblkE Incongruent right correct Normal 654
101 48 LeftLarger RTTaskExp Prime_1N Target_4N lCfFaBh LhcjJDF Congruent right correct Normal 476
101 49 LeftLarger RTTaskExp Prime_6A Target_1N jDfbCek FAGIhbc Incongruent right correct Normal 531
101 50 LeftLarger RTTaskExp Prime_9A Target_9A gbAljKD LbGEKID Congruent right error Normal 343
101 51 LeftLarger RTTaskExp Prime_9N Target_6A dJAekhj aFjlgfm Congruent left correct Normal 607
101 52 LeftLarger RTTaskExp Prime_9A Target_6A HfdbBgk emfBIHh Congruent left correct Normal 348
101 53 LeftLarger RTTaskExp Prime_1A Target_4A HecIMjE lKabHmG Congruent right correct Normal 733
101 54 LeftLarger RTTaskExp Prime_6A Target_4A FfHaebl CAjMbfD Incongruent right correct Normal 423
101 55 LeftLarger RTTaskExp Prime_1A Target_6A imcdlFI EBLeMGh Incongruent left correct Normal 620
101 56 LeftLarger RTTaskExp Prime_4A Target_4A CgDGJEB aAIDbBc Congruent right correct Normal 538
101 57 LeftLarger RTTaskExp Prime_6N Target_4A mkdBleG GiHfdeC Incongruent right correct Normal 394
101 58 LeftLarger RTTaskExp Prime_4N Target_1N FELMbcD IEgFLAm Congruent left error Normal 525
101 59 LeftLarger RTTaskExp Prime_6N Target_6N eILkHJi eiEDmIA Congruent left correct Normal 579
101 60 LeftLarger RTTaskExp Prime_1A Target_1A JGIekai mKDadGH Congruent right correct Normal 365
101 61 LeftLarger RTTaskExp Prime_6A Target_1A JfljHaF DLEAmkd Incongruent right correct Normal 422
101 62 LeftLarger RTTaskExp Prime_1N Target_6N ClMkaBd iKfDchk Incongruent left correct Normal 553
101 63 LeftLarger RTTaskExp Prime_9N Target_9N KJECMFb cbfBMJA Congruent left correct Normal 524
101 64 LeftLarger RTTaskExp Prime_4N Target_9A EmiLMkK ChdkLjf Incongruent left correct Normal 519
101 65 LeftLarger RTTaskExp Prime_9N Target_4N EBAlHfg jJkaCel Incongruent right correct Normal 435
101 66 LeftLarger RTTaskExp Prime_1N Target_4A mCEDcLl gkFhHdc Congruent right correct Normal 449
101 67 LeftLarger RTTaskExp Prime_9N Target_1A FKDdImb dFeJDbK Incongruent right correct Normal 442
101 68 LeftLarger RTTaskExp Prime_1N Target_1N FHMgGib LDlKmAM Congruent right correct Normal 671
101 69 LeftLarger RTTaskExp Prime_4A Target_1N dmaMEiL CEcaHeA Congruent right correct Normal 413
101 70 LeftLarger RTTaskExp Prime_9A Target_6N DIAHfJm iAmfeda Congruent left correct Normal 606
101 71 LeftLarger RTTaskExp Prime_4A Target_1A GIljHdK dKHlCML Congruent right correct Normal 383
101 72 LeftLarger RTTaskExp Prime_1A Target_1N LegbfaF HfAMEBe Congruent right correct Normal 427
101 73 LeftLarger RTTaskExp Prime_4N Target_6A JmdHKjf clELFih Incongruent right error Normal 496
101 74 LeftLarger RTTaskExp Prime_4A Target_9A iFjkmDb iBHCdbK Incongruent left correct Late 2365
101 75 LeftLarger RTTaskExp Prime_4N Target_1A gLKCJMF mjJfKID Congruent right correct Normal 466
101 76 LeftLarger RTTaskExp Prime_1A Target_9A HICEDik lBHedfK Incongruent right error Normal 372
101 77 LeftLarger RTTaskExp Prime_1A Target_9A dAGmHlK bIAfMeL Incongruent left correct Normal 369
101 78 LeftLarger RTTaskExp Prime_4N Target_6N jfDEBMg fKEkamF Incongruent right error Normal 390
101 79 LeftLarger RTTaskExp Prime_6N Target_9A DhIHagl baLgFEh Congruent left correct Normal 382
101 80 LeftLarger RTTaskExp Prime_6A Target_6A hJkjlFm aDFBJkI Congruent left correct Normal 567
101 81 LeftLarger RTTaskExp Prime_1N Target_1A HmkdLhb hEJeAdC Congruent left error Normal 394
101 82 LeftLarger RTTaskExp Prime_9A Target_9A dlKcGbD KcbLChM Congruent left correct Normal 487
101 83 LeftLarger RTTaskExp Prime_4A Target_6A ajcehIb agMLebl Incongruent left correct Normal 440
101 84 LeftLarger RTTaskExp Prime_9N Target_4A bdLKIlJ iEjCblk Incongruent right correct Normal 533
101 85 LeftLarger RTTaskExp Prime_9N Target_9A ILgHkfj DKcbjMJ Congruent left correct Normal 440
101 86 LeftLarger RTTaskExp Prime_6A Target_6N mMFIDBJ kfbBlCj Congruent left correct Normal 566
101 87 LeftLarger RTTaskExp Prime_9N Target_1N cheIdiG mkDiFEh Incongruent right correct Normal 446
101 88 LeftLarger RTTaskExp Prime_1N Target_1A gjdaKGL kKDAimd Congruent right correct Normal 579
101 89 LeftLarger RTTaskExp Prime_1A Target_6N MBhgkJG EmFfcdG Incongruent left correct Normal 554
101 90 LeftLarger RTTaskExp Prime_4N Target_6N DeLbimI gFMGBLJ Incongruent left correct Normal 473
101 91 LeftLarger RTTaskExp Prime_6A Target_4N bJjgCGc JKkcjfG Incongruent left error Normal 611
101 92 LeftLarger RTTaskExp Prime_4A Target_9A KkfLEFd ILEeaAM Incongruent left correct Normal 526
101 93 LeftLarger RTTaskExp Prime_6A Target_4N gfkcJCb MBmgciC Incongruent right correct Normal 500
101 94 LeftLarger RTTaskExp Prime_4N Target_1N gdMKbDJ CgMcdhe Congruent right correct Normal 558
101 95 LeftLarger RTTaskExp Prime_6A Target_9N geFjbaE mGjlafi Congruent left correct Normal 446
101 96 LeftLarger RTTaskExp Prime_4N Target_9N hLDCKlE bHIlmJB Incongruent left correct Normal 476
101 97 LeftLarger RTTaskExp Prime_4N Target_4N mFjBGde iacAfDM Congruent right correct Normal 475
101 98 LeftLarger RTTaskExp Prime_4N Target_6A iIcEMBF mAjgBah Incongruent left correct Normal 422
101 99 LeftLarger RTTaskExp Prime_6N Target_6A AJaLHBg lidegIH Congruent left correct Normal 426
101 100 LeftLarger RTTaskExp Prime_4N Target_4N eHfkghG hKJgEFM Congruent right correct Normal 880
101 101 LeftLarger RTTaskExp Prime_4A Target_9A mHLgejE hFdJMil Incongruent left correct Normal 434
101 102 LeftLarger RTTaskExp Prime_6A Target_6A mdMfCAJ jbKGAiI Congruent left correct Normal 363
101 103 LeftLarger RTTaskExp Prime_4A Target_1N DIeJfjM LbAMhJF Congruent right correct Normal 431
101 104 LeftLarger RTTaskExp Prime_6A Target_9N CIBKfEm bemBkHA Congruent left correct Normal 403
101 105 LeftLarger RTTaskExp Prime_1N Target_9N ekKchdb JGdiAbM Incongruent left correct Normal 423
101 106 LeftLarger RTTaskExp Prime_9A Target_6N KmIHhDa GiHkjLl Congruent right error Normal 456
101 107 LeftLarger RTTaskExp Prime_1A Target_9A kDEHbcM CmMhFBG Incongruent left correct Normal 393
101 108 LeftLarger RTTaskExp Prime_9A Target_9A LCcjHEe IAcFHbd Congruent left correct Normal 333
101 109 LeftLarger RTTaskExp Prime_4A Target_1A jBCmlgd FlbkhdE Congruent right correct Normal 365
101 110 LeftLarger RTTaskExp Prime_4A Target_4N aAIikHg CmLcAIF Congruent right correct Normal 444
101 111 LeftLarger RTTaskExp Prime_1N Target_4N KeHAEIj bIcjGCJ Congruent right correct Normal 409
101 112 LeftLarger RTTaskExp Prime_1A Target_1N BLfGFHd kBMJemF Congruent left error Normal 396
101 113 LeftLarger RTTaskExp Prime_1A Target_1A cmgjkMG JkbdFCh Congruent right correct Normal 372
101 114 LeftLarger RTTaskExp Prime_6A Target_9A BjCKdcA HMgKACd Congruent left correct Normal 503
101 115 LeftLarger RTTaskExp Prime_4N Target_1N KLDikAh GdeAaFj Congruent right correct Normal 374
101 116 LeftLarger RTTaskExp Prime_9A Target_6N DjdgLMK aeEAFGh Congruent left correct Normal 334
101 117 LeftLarger RTTaskExp Prime_1A Target_9N GJflHDC MbkhGmE Incongruent left correct Normal 485
101 118 LeftLarger RTTaskExp Prime_1N Target_6A jHbAFLh mJFHfBL Incongruent left correct Normal 404
101 119 LeftLarger RTTaskExp Prime_9N Target_4A cMCehKF FgbjfdL Incongruent left error Normal 367
101 120 LeftLarger RTTaskExp Prime_1N Target_1N CemIHiM aLhCJel Congruent right correct Normal 570
101 121 LeftLarger RTTaskExp Prime_4A Target_9N CdDMhkb kIaLidC Incongruent left correct Normal 551
101 122 LeftLarger RTTaskExp Prime_4N Target_6N kGfLhIJ EFDJLHK Incongruent left correct Normal 473
101 123 LeftLarger RTTaskExp Prime_4N Target_9N bJcFjkC famDEbi Incongruent left correct Normal 355
101 124 LeftLarger RTTaskExp Prime_1N Target_4A LagGDMB gMemfbh Congruent right correct Normal 362
101 125 LeftLarger RTTaskExp Prime_4A Target_6N DLdakiA FCMLgKd Incongruent left correct Normal 475
101 126 LeftLarger RTTaskExp Prime_1N Target_1A ECebhMf aLFHMEm Congruent right correct Normal 396
101 127 LeftLarger RTTaskExp Prime_4A Target_6A cDJGIhM MFihfda Incongruent left correct Normal 515
101 128 LeftLarger RTTaskExp Prime_4A Target_4A CbGHDMk bdMFgeK Congruent right correct Normal 533
101 129 LeftLarger RTTaskExp Prime_6A Target_4N BkELlIb dfGFHeI Incongruent right correct Normal 376
101 130 LeftLarger RTTaskExp Prime_4N Target_4A IakdfKB HIkMFmb Congruent right correct Normal 344
101 131 LeftLarger RTTaskExp Prime_9A Target_1A bGJemah AfhEkaM Incongruent right correct Normal 461
101 132 LeftLarger RTTaskExp Prime_9A Target_4N djkHmeb CFIabmg Incongruent right correct Normal 410
101 133 LeftLarger RTTaskExp Prime_4N Target_6A bMcgGlj EeLMkFH Incongruent left correct Normal 400
101 134 LeftLarger RTTaskExp Prime_9N Target_4N DmleJaC iDjMkbg Incongruent right correct Normal 486
101 135 LeftLarger RTTaskExp Prime_1A Target_4A elaFgCJ JCHBKkI Congruent right correct Normal 417
101 136 LeftLarger RTTaskExp Prime_1A Target_6N jGEAIiJ efIDgFk Incongruent right error Normal 449
101 137 LeftLarger RTTaskExp Prime_1A Target_6N cAdCjLh KIckHml Incongruent left correct Normal 423
101 138 LeftLarger RTTaskExp Prime_1A Target_6A CchEHMf FdGfJKm Incongruent left correct Normal 427
101 139 LeftLarger RTTaskExp Prime_6A Target_4A jmlJGka GLiHmIa Incongruent right correct Normal 579
101 140 LeftLarger RTTaskExp Prime_6N Target_9A FhKkjDc eKFAidI Congruent left correct Normal 345
101 141 LeftLarger RTTaskExp Prime_6A Target_1N GHJmCfk LagIMFB Incongruent right correct Normal 457
101 142 LeftLarger RTTaskExp Prime_9N Target_4A FMKkAEG hjaJdiD Incongruent right correct Normal 455
101 143 LeftLarger RTTaskExp Prime_6N Target_4A bAmHjdl fJjgdHM Incongruent right correct Normal 433
101 144 LeftLarger RTTaskExp Prime_9A Target_1N BgACbmE CahFeMc Incongruent right correct Normal 430
101 145 LeftLarger RTTaskExp Prime_9A Target_4A mdheklC cfeBKLM Incongruent right correct Normal 396
101 146 LeftLarger RTTaskExp Prime_4N Target_9A EceBmCg IjGgAeK Incongruent left correct Normal 675
101 147 LeftLarger RTTaskExp Prime_9N Target_6A JMcgkla mCJgcMA Congruent right error Normal 588
101 148 LeftLarger RTTaskExp Prime_4N Target_1A fHeAcCB IeiHjbJ Congruent right correct Normal 503
101 149 LeftLarger RTTaskExp Prime_6A Target_1A egimMKF KhJbieA Incongruent right correct Normal 356
101 150 LeftLarger RTTaskExp Prime_9A Target_6A dgliJKI liceEdm Congruent left correct Normal 564
101 151 LeftLarger RTTaskExp Prime_1A Target_4N bMfAadD fhAkIDa Congruent right correct Normal 381
101 152 LeftLarger RTTaskExp Prime_6N Target_9N hiceDCb fBmCabK Congruent right error Normal 378
101 153 LeftLarger RTTaskExp Prime_9N Target_9A iHhIDKl dFklKjB Congruent left correct Normal 360
101 154 LeftLarger RTTaskExp Prime_6N Target_1A EdDIJjl IimJDhf Incongruent right correct Normal 451
101 155 LeftLarger RTTaskExp Prime_6A Target_6N kbafIhA DAMHBhk Congruent left correct Normal 483
101 156 LeftLarger RTTaskExp Prime_1N Target_6N mCfHBLK HJMgCkb Incongruent left correct Normal 401
101 157 LeftLarger RTTaskExp Prime_9N Target_1N aCiILhb JhcCFdf Incongruent right correct Normal 445
101 158 LeftLarger RTTaskExp Prime_9N Target_6N BeLIiFM abICBJd Congruent left correct Normal 356
101 159 LeftLarger RTTaskExp Prime_6N Target_6N hIMkLAj kBgDHhm Congruent left correct Normal 416
101 160 LeftLarger RTTaskExp Prime_6N Target_1N hcgFalC FBMibmh Incongruent right correct Normal 503
101 161 LeftLarger RTTaskExp Prime_1A Target_1N KGjfJMC hAeKELI Congruent right correct Normal 402
101 162 LeftLarger RTTaskExp Prime_6N Target_4N alCbGjE LhBHMbA Incongruent left error Normal 304
101 163 LeftLarger RTTaskExp Prime_9A Target_9N GJAklMc JFmEBCI Congruent right error Normal 367
101 164 LeftLarger RTTaskExp Prime_1N Target_9A ElBMJFI lhDdaeM Incongruent left correct Normal 424
101 165 LeftLarger RTTaskExp Prime_9A Target_9N fFlGeEh chLAmbJ Congruent left correct Normal 354
101 166 LeftLarger RTTaskExp Prime_9N Target_1A GciImME LKGBeCJ Incongruent right correct Normal 353
101 167 LeftLarger RTTaskExp Prime_9N Target_6A HAGidmJ BFGajHJ Congruent left correct Normal 412
101 168 LeftLarger RTTaskExp Prime_6N Target_9N deJKgMf MgBIjeK Congruent right error Normal 412
101 169 LeftLarger RTTaskExp Prime_6N Target_9N ECdIMeG EDecHMF Congruent left correct Normal 416
101 170 LeftLarger RTTaskExp Prime_9N Target_9N AmgFkHe FHLMEed Congruent left correct Normal 418
101 171 LeftLarger RTTaskExp Prime_6N Target_6A fmAaHlF AejbdDf Congruent left correct Normal 497
101 172 LeftLarger RTTaskExp Prime_6N Target_4N lcAbCid BKmEkcL Incongruent right correct Normal 494
101 173 LeftLarger RTTaskExp Prime_1N Target_1N gCJGifk BfCeGlm Congruent right correct Normal 548
101 174 LeftLarger RTTaskExp Prime_1A Target_1A aBELDMe mkhflgc Congruent right correct Normal 409
101 175 LeftLarger RTTaskExp Prime_4N Target_9N aiAHmdL acAhjbC Incongruent left correct Normal 430
101 176 LeftLarger RTTaskExp Prime_1A Target_6N hcEdlGe EAfiFdM Incongruent right error Normal 446
101 177 LeftLarger RTTaskExp Prime_1N Target_6A BHiLkFb IaKLgiC Incongruent left correct Normal 483
101 178 LeftLarger RTTaskExp Prime_1A Target_6A gIFMkeh AiDbHaF Incongruent left correct Normal 366
101 179 LeftLarger RTTaskExp Prime_9A Target_4A GbeKaBJ liJBGhC Incongruent left error Normal 395
101 180 LeftLarger RTTaskExp Prime_1A Target_4A hFaMLAB FMCImHi Congruent right correct Normal 732
101 181 LeftLarger RTTaskExp Prime_9A Target_4A dkbhlGL dbBaGKe Incongruent right correct Normal 413
101 182 LeftLarger RTTaskExp Prime_6A Target_4A IkjHlci fGLhlKF Incongruent right correct Normal 396
101 183 LeftLarger RTTaskExp Prime_9N Target_1A fkLjlAg kKEJfBH Incongruent right correct Normal 443
101 184 LeftLarger RTTaskExp Prime_4N Target_1N cmaifgB hBljdLJ Congruent left error Normal 504
101 185 LeftLarger RTTaskExp Prime_9A Target_1N KlEHchA JEifAMm Incongruent right correct Normal 431
101 186 LeftLarger RTTaskExp Prime_6A Target_6A HEgebdm mFhgECl Congruent left correct Normal 505
101 187 LeftLarger RTTaskExp Prime_6N Target_6A fJjMaGL eFGJmhI Congruent left correct Normal 358
101 188 LeftLarger RTTaskExp Prime_4N Target_6N ecGLJgI LMDgKbm Incongruent left correct Normal 390
101 189 LeftLarger RTTaskExp Prime_1N Target_9A FdlCafc hdLlMGI Incongruent left correct Normal 481
101 190 LeftLarger RTTaskExp Prime_9A Target_9A CcjBKHL iCJeaBl Congruent left correct Normal 374
101 191 LeftLarger RTTaskExp Prime_6A Target_4N GeHachF HJIglmL Incongruent right correct Normal 501
101 192 LeftLarger RTTaskExp Prime_4N Target_4N FkKfJmL LHjAJdc Congruent right correct Normal 347
101 193 LeftLarger RTTaskExp Prime_1A Target_4N MJaHFji BigflmH Congruent right correct Normal 392
101 194 LeftLarger RTTaskExp Prime_6A Target_9A aiEekbL AlkCdJD Congruent left correct Normal 428
101 195 LeftLarger RTTaskExp Prime_6N Target_1N laFeLci GbmDEAg Incongruent right correct Normal 434
101 196 LeftLarger RTTaskExp Prime_6N Target_4N FCHIEaM BcChblI Incongruent right correct Normal 384
101 197 LeftLarger RTTaskExp Prime_9N Target_6A MIJLmfE BCjGEFK Congruent left correct Normal 585
101 198 LeftLarger RTTaskExp Prime_1N Target_4N alihHMg gdhAJGk Congruent right correct Normal 478
101 199 LeftLarger RTTaskExp Prime_6N Target_9A ClAkiFD hgEJBFC Congruent left correct Normal 341
101 200 LeftLarger RTTaskExp Prime_9A Target_4N kALhcBg LBHgilK Incongruent right correct Normal 579
101 201 LeftLarger RTTaskExp Prime_9N Target_1N FafcDKM ldJLIgC Incongruent right correct Normal 444
101 202 LeftLarger RTTaskExp Prime_6A Target_6N EmgLFjb mklAHFC Congruent left correct Normal 513
101 203 LeftLarger RTTaskExp Prime_4A Target_1A bEiBklK haMkgCj Congruent right correct Normal 362
101 204 LeftLarger RTTaskExp Prime_6A Target_9N cGCAfiK heKkEmA Congruent left correct Normal 603
101 205 LeftLarger RTTaskExp Prime_9A Target_9N gKfmcei ALihKdH Congruent left correct Normal 378
101 206 LeftLarger RTTaskExp Prime_9A Target_1A aAjfMGB malILFM Incongruent right correct Normal 459
101 207 LeftLarger RTTaskExp Prime_9A Target_6N LbAmaMe adjEcDC Congruent right error Normal 494
101 208 LeftLarger RTTaskExp Prime_4A Target_9A gFmAClj kBDmJIf Incongruent left correct Normal 455
101 209 LeftLarger RTTaskExp Prime_9N Target_4A MigAhLa mkMdCFA Incongruent right correct Normal 459
101 210 LeftLarger RTTaskExp Prime_4N Target_6A AEjegID BibcfFL Incongruent left correct Normal 434
101 211 LeftLarger RTTaskExp Prime_4A Target_4A kKlaHij GhBidEa Congruent right correct Normal 579
101 212 LeftLarger RTTaskExp Prime_6N Target_1A jcheDgm HBdGiCK Incongruent right correct Normal 511
101 213 LeftLarger RTTaskExp Prime_1N Target_4A idKDekJ jBDeChk Congruent right correct Normal 493
101 214 LeftLarger RTTaskExp Prime_1N Target_6N eHmMGdb aMGJkEC Incongruent left correct Normal 692
101 215 LeftLarger RTTaskExp Prime_6A Target_1A bdJEaGh BjbAhdI Incongruent right correct Normal 443
101 216 LeftLarger RTTaskExp Prime_1A Target_9A ebgikJD faFMJBi Incongruent left correct Normal 652
101 217 LeftLarger RTTaskExp Prime_4A Target_9N BLdfCaM bDjkMEL Incongruent left correct Normal 557
101 218 LeftLarger RTTaskExp Prime_1A Target_9N FmELhij BkFEMhc Incongruent left correct Normal 351
101 219 LeftLarger RTTaskExp Prime_9N Target_9N LIadGFl EjkHGIc Congruent left correct Normal 367
101 220 LeftLarger RTTaskExp Prime_1A Target_1N MlidBJE dglAFLm Congruent right correct Normal 481
101 221 LeftLarger RTTaskExp Prime_1N Target_9N lDLdFgm mgaEefc Incongruent left correct Normal 554
101 222 LeftLarger RTTaskExp Prime_1N Target_1A FjhDeGK gCEfhBI Congruent right correct Normal 402
101 223 LeftLarger RTTaskExp Prime_4A Target_4N ALIhJEf kHmDlLE Congruent right correct Normal 701
101 224 LeftLarger RTTaskExp Prime_4N Target_1N leJDbdK abhcHAg Congruent left error Normal 413
101 225 LeftLarger RTTaskExp Prime_1A Target_6N ldEfDMA EDJhdij Incongruent left correct Normal 478
101 226 LeftLarger RTTaskExp Prime_9N Target_6N eJKghEB ILfcFaE Congruent left correct Normal 390
101 227 LeftLarger RTTaskExp Prime_6N Target_6N ecfGgkb efdHMLh Congruent left correct Normal 382
101 228 LeftLarger RTTaskExp Prime_4N Target_1A BldijmF BJkeHDE Congruent right correct Normal 442
101 229 LeftLarger RTTaskExp Prime_9A Target_6N GKHFkIj IkhJEeH Congruent left correct Normal 415
101 230 LeftLarger RTTaskExp Prime_4A Target_1N DBjAikg bGHAegF Congruent right correct Normal 430
101 231 LeftLarger RTTaskExp Prime_4N Target_4A eBFCjmM BMhbJgC Congruent right correct Normal 529
101 232 LeftLarger RTTaskExp Prime_6N Target_4A jJgcfMm ALjfHgK Incongruent right correct Normal 413
101 233 LeftLarger RTTaskExp Prime_4N Target_9A bEjLDFI CgELlDd Incongruent right error Normal 361
101 234 LeftLarger RTTaskExp Prime_9N Target_4N eFImjhB cHiDkeA Incongruent right correct Normal 468
101 235 LeftLarger RTTaskExp Prime_4A Target_6N MBjbHlF MBaDjig Incongruent left correct Normal 526
101 236 LeftLarger RTTaskExp Prime_4N Target_9A gMiBHcb JhLEIDB Incongruent left correct Normal 436
101 237 LeftLarger RTTaskExp Prime_9N Target_9A hDfmGKc HBkDGCI Congruent left correct Normal 338
101 238 LeftLarger RTTaskExp Prime_6N Target_9N helcdjM dkABbhj Congruent left correct Normal 428
101 239 LeftLarger RTTaskExp Prime_4A Target_6A cLgJaGD EIABFaj Incongruent right error Normal 349
101 240 LeftLarger RTTaskExp Prime_4N Target_1N LfBIKhE hKLcgMf Congruent right correct Normal 449
101 241 LeftLarger RTTaskExp Prime_4A Target_6A iBfdejK fdGBlDJ Incongruent left correct Normal 461
101 242 LeftLarger RTTaskExp Prime_6A Target_1N lbFLKEk fijGmkl Incongruent right correct Normal 536
101 243 LeftLarger RTTaskExp Prime_9A Target_6A aMeILCd lDLGJia Congruent left correct Normal 367
101 244 LeftLarger RTTaskExp Prime_9N Target_1N GDHMKAk HJcFbLA Incongruent left error Normal 512
101 245 LeftLarger RTTaskExp Prime_4N Target_9A aDHcLFf GCeKEIF Incongruent left correct Normal 477
101 246 LeftLarger RTTaskExp Prime_9N Target_1A KDjeFLc EcdeDmI Incongruent right correct Normal 419
101 247 LeftLarger RTTaskExp Prime_9N Target_9N HBFJAGk gcACkDK Congruent left correct Normal 473
101 248 LeftLarger RTTaskExp Prime_4N Target_1N LJEhimD AeBGLHi Congruent right correct Normal 561
101 249 LeftLarger RTTaskExp Prime_9A Target_1A bMIJHdA JeLjmCD Incongruent right correct Normal 485
101 250 LeftLarger RTTaskExp Prime_9A Target_4N ChgiHIl jaCgLDE Incongruent left error Normal 372
101 251 LeftLarger RTTaskExp Prime_4N Target_6A aABjKDm cCJafbI Incongruent left correct Normal 502
101 252 LeftLarger RTTaskExp Prime_6N Target_9N flJLEDj aKMhFed Congruent left correct Normal 460
101 253 LeftLarger RTTaskExp Prime_9A Target_1N jdlCAma HjgcJCB Incongruent right correct Normal 390
101 254 LeftLarger RTTaskExp Prime_9A Target_9A ILkFDfE FbkKfhJ Congruent left correct Normal 424
101 255 LeftLarger RTTaskExp Prime_1N Target_6A JDMGiLa IaAFKlM Incongruent left correct Normal 414
101 256 LeftLarger RTTaskExp Prime_6N Target_6A CgEfJIA bmDcLjK Congruent left correct Normal 355
101 257 LeftLarger RTTaskExp Prime_9A Target_4A mIKjGMD jlGBJDf Incongruent right correct Normal 597
101 258 LeftLarger RTTaskExp Prime_6A Target_6N eBIGmCa lgELKIa Congruent left correct Normal 447
101 259 LeftLarger RTTaskExp Prime_1N Target_1N hecDHAE JmFKHgD Congruent right correct Normal 503
101 260 LeftLarger RTTaskExp Prime_9N Target_1N dkKbGLl EbdiCIm Incongruent right correct Normal 534
101 261 LeftLarger RTTaskExp Prime_1N Target_1A DMefKbL FkhAbCG Congruent right correct Normal 364
101 262 LeftLarger RTTaskExp Prime_4A Target_4A ihFcIJG EAbIHKD Congruent right correct Normal 445
101 263 LeftLarger RTTaskExp Prime_9N Target_6A HALECFa GfKLAei Congruent left correct Normal 330
101 264 LeftLarger RTTaskExp Prime_6N Target_1N ehbIMiF kHgCjeB Incongruent right correct Normal 458
101 265 LeftLarger RTTaskExp Prime_6N Target_4A lICjMHd hgdckFJ Incongruent right correct Normal 442
101 266 LeftLarger RTTaskExp Prime_9A Target_6A MJbDHak MIielbG Congruent left correct Normal 487
101 267 LeftLarger RTTaskExp Prime_9N Target_6N CfMEJGL lGCEKMI Congruent left correct Normal 327
101 268 LeftLarger RTTaskExp Prime_4N Target_4N ehlJHFk DgikGBd Congruent right correct Normal 450
101 269 LeftLarger RTTaskExp Prime_6A Target_6A IBjcmJG EheHFmM Congruent left correct Normal 491
101 270 LeftLarger RTTaskExp Prime_9A Target_4N bdmGcAC BhaJljL Incongruent right correct Normal 705
101 271 LeftLarger RTTaskExp Prime_1A Target_9A dFjIDCE hledDag Incongruent left correct Normal 368
101 272 LeftLarger RTTaskExp Prime_1A Target_1N BKGfFhD lmMdaFJ Congruent right correct Normal 472
101 273 LeftLarger RTTaskExp Prime_4A Target_4N kJmIjaC cAbiJdj Congruent right correct Normal 398
101 274 LeftLarger RTTaskExp Prime_4N Target_1A bcLIHKk lgJKfAj Congruent right correct Normal 493
101 275 LeftLarger RTTaskExp Prime_6N Target_9A IDhlmMj DIHbldK Congruent left correct Normal 745
101 276 LeftLarger RTTaskExp Prime_6A Target_9A ibJhDfH GlFLiaD Congruent right error Normal 355
101 277 LeftLarger RTTaskExp Prime_1A Target_4A lKEmLGf eHcFkEa Congruent right correct Normal 414
101 278 LeftLarger RTTaskExp Prime_4N Target_6N EkGeCHj dBJKbma Incongruent left correct Normal 754
101 279 LeftLarger RTTaskExp Prime_1A Target_6N ahHjlgM gBKaIjL Incongruent left correct Normal 336
101 280 LeftLarger RTTaskExp Prime_6N Target_1A mbhiLHd IkGhfDC Incongruent right correct Normal 446
101 281 LeftLarger RTTaskExp Prime_6A Target_9A GCHaKfi DkJAemf Congruent left correct Normal 835
101 282 LeftLarger RTTaskExp Prime_6A Target_1A kGcImhF ciaACIL Incongruent right correct Normal 389
101 283 LeftLarger RTTaskExp Prime_1N Target_9N iEDblkC FCJMgaA Incongruent right error Normal 532
101 284 LeftLarger RTTaskExp Prime_4A Target_6A mDiIEjL bFAkGIK Incongruent left correct Normal 438
101 285 LeftLarger RTTaskExp Prime_4A Target_9N dKgLhCl eJfHiKB Incongruent left correct Normal 549
101 286 LeftLarger RTTaskExp Prime_6N Target_6N CaeJhBl BkDmIhM Congruent left correct Normal 368
101 287 LeftLarger RTTaskExp Prime_1A Target_6A kFAbgEe MlILJag Incongruent left correct Normal 417
101 288 LeftLarger RTTaskExp Prime_6N Target_4N IFMCGEH JhkEbLi Incongruent right correct Normal 523
101 289 LeftLarger RTTaskExp Prime_1N Target_6N imKhegb gfMicCI Incongruent left correct Normal 524
101 290 LeftLarger RTTaskExp Prime_4N Target_4A MfiAmaI BglHDih Congruent right correct Normal 382
101 291 LeftLarger RTTaskExp Prime_1A Target_9N IhEbadf GKAiCID Incongruent left correct Normal 466
101 292 LeftLarger RTTaskExp Prime_4A Target_1N LCaJgKj JHIkcFM Congruent right correct Normal 368
101 293 LeftLarger RTTaskExp Prime_4A Target_1A dFcmhkb IBeHaMi Congruent right correct Normal 425
101 294 LeftLarger RTTaskExp Prime_6A Target_4N IFHMCgi DdKhkJl Incongruent right correct Normal 526
101 295 LeftLarger RTTaskExp Prime_4A Target_6N aBmDeKF AglBCiL Incongruent right error Normal 479
101 296 LeftLarger RTTaskExp Prime_1N Target_4N GhLcEJA gfaLEhm Congruent right correct Normal 464
101 297 LeftLarger RTTaskExp Prime_9A Target_6N KBGkhDm HfihFdD Congruent left correct Normal 571
101 298 LeftLarger RTTaskExp Prime_6A Target_9N mdJaKhD mbHFhfI Congruent left correct Normal 453
101 299 LeftLarger RTTaskExp Prime_9N Target_4A cejhAEI HDGKEbg Incongruent right correct Normal 435
101 300 LeftLarger RTTaskExp Prime_4A Target_9A cBGCEJF gmFiEkL Incongruent left correct Normal 447
101 301 LeftLarger RTTaskExp Prime_9N Target_9A JMgEIDa bFJfGaB Congruent left correct Normal 409
101 302 LeftLarger RTTaskExp Prime_6A Target_4A jfhFdkc HLgkMDE Incongruent right correct Normal 627
101 303 LeftLarger RTTaskExp Prime_1A Target_1A EfkeGjM CEJeBiA Congruent right correct Normal 590
101 304 LeftLarger RTTaskExp Prime_9N Target_4N aEIfkgA AiLGEkD Incongruent left error Normal 863
101 305 LeftLarger RTTaskExp Prime_1A Target_4N gMJdKHI IdJijFH Congruent right correct Normal 640
101 306 LeftLarger RTTaskExp Prime_9N Target_4N GbImigE DMiJgmE Incongruent right correct Normal 358
101 307 LeftLarger RTTaskExp Prime_1N Target_9N cfHIKBm KGfBJhk Incongruent left correct Normal 457
101 308 LeftLarger RTTaskExp Prime_4A Target_6N ihclIJk jhCJmdE Incongruent left correct Normal 529
101 309 LeftLarger RTTaskExp Prime_9A Target_9N LceabmE ahdFLbe Congruent left correct Normal 347
101 310 LeftLarger RTTaskExp Prime_1N Target_9A kHMalKi gFAmKEM Incongruent left correct Normal 504
101 311 LeftLarger RTTaskExp Prime_6A Target_1N DJfChje JjFdMiL Incongruent left error Normal 482
101 312 LeftLarger RTTaskExp Prime_4N Target_9N mHDJIMC KGFLDie Incongruent left correct Normal 711
101 313 LeftLarger RTTaskExp Prime_6A Target_1N bijhmCM lfAMILb Incongruent right correct Normal 479
101 314 LeftLarger RTTaskExp Prime_1N Target_4A fCljmLD FmglEfC Congruent right correct Normal 508
102 24 LeftSmaller RTTaskExp Prime_4N Target_9A IjBhHbC BIDeKEA Incongruent right correct Normal 496
102 25 LeftSmaller RTTaskExp Prime_9A Target_4A BEClhcD fElIAhL Incongruent left correct Normal 464
102 26 LeftSmaller RTTaskExp Prime_4A Target_6N cBhailm jeAIHDE Incongruent right correct Normal 624
102 27 LeftSmaller RTTaskExp Prime_6A Target_4A FLBigjl FaABGfM Incongruent left correct Normal 515
102 28 LeftSmaller RTTaskExp Prime_9N Target_4N DbhJHkG GkIMBAm Incongruent left correct Normal 655
102 29 LeftSmaller RTTaskExp Prime_4N Target_6N lMcLEhK JBedDca Incongruent right correct Normal 516
102 30 LeftSmaller RTTaskExp Prime_6A Target_4N MbhcBkd IAcgDlG Incongruent left correct Normal 488
102 31 LeftSmaller RTTaskExp Prime_9A Target_1A JBMDjei HhAjLmc Incongruent left correct Normal 484
102 32 LeftSmaller RTTaskExp Prime_1N Target_1A mCFHgeL JcFLjaI Congruent left correct Normal 448
102 33 LeftSmaller RTTaskExp Prime_6N Target_1N KCfHcdI aFcEmfi Incongruent left correct Normal 523
102 34 LeftSmaller RTTaskExp Prime_4A Target_6A dlHDMgj BJGalMd Incongruent right correct Normal 567
102 35 LeftSmaller RTTaskExp Prime_1N Target_6A acAbihe HgdibEM Incongruent right correct Normal 718
102 36 LeftSmaller RTTaskExp Prime_4A Target_4A CdgfGbl djJLMKc Congruent left correct Normal 618
102 37 LeftSmaller RTTaskExp Prime_6N Target_4A FIclBbL blLKmMH Incongruent left correct Normal 506
102 38 LeftSmaller RTTaskExp Prime_1N Target_9N HAlCLfk mMEhfcB Incongruent right correct Normal 599
102 39 LeftSmaller RTTaskExp Prime_9A Target_6A gdDFLkl LEhHMDI Congruent right correct Normal 552
102 40 LeftSmaller RTTaskExp Prime_1N Target_4A mKaiFGJ AiJhefF Congruent left correct Normal 499
102 41 LeftSmaller RTTaskExp Prime_1A Target_1A MiEeFcG AIifaGH Congruent left correct Normal 508
102 42 LeftSmaller RTTaskExp Prime_6N Target_9N HFLcglE kejLFgA Congruent right correct Normal 693
102 43 LeftSmaller RTTaskExp Prime_1N Target_4N ECIAKLm klLefAJ Congruent left correct Normal 548
102 44 LeftSmaller RTTaskExp Prime_6A Target_1N aMGBdLm HIakKbG Incongruent left correct Normal 578
102 45 LeftSmaller RTTaskExp Prime_9N Target_6N hmEMDCc DBCkhKa Congruent left error Normal 595
102 46 LeftSmaller RTTaskExp Prime_9N Target_6N FlacBjC IhcCBlE Congruent right correct Normal 507
102 47 LeftSmaller RTTaskExp Prime_6N Target_6N cjFGDbl HCijMke Congruent right correct Normal 477
102 48 LeftSmaller RTTaskExp Prime_4A Target_1A lkBAIjJ KFJIjMf Congruent left correct Normal 474
102 49 LeftSmaller RTTaskExp Prime_9N Target_1A bADkdCe iDCMABI Incongruent left correct Normal 469
102 50 LeftSmaller RTTaskExp Prime_4N Target_9N EhcJiLm aBckGlh Incongruent right correct Normal 527
102 51 LeftSmaller RTTaskExp Prime_9A Target_9N jeMJDdf DeajLcE Congruent right correct Normal 526
102 52 LeftSmaller RTTaskExp Prime_9N Target_9N DAkheGa CbdFiBa Congruent right correct Normal 476
102 53 LeftSmaller RTTaskExp Prime_4A Target_4N IJEaHgC JaDmdhA Congruent left correct Normal 819
102 54 LeftSmaller RTTaskExp Prime_1A Target_9N agABcdF DkHaKAg Incongruent right correct Normal 740
102 55 LeftSmaller RTTaskExp Prime_9N Target_6A AlCFmjk HmFGAlE Congruent left error Normal 467
102 56 LeftSmaller RTTaskExp Prime_6N Target_1A lMjfHmA KAHhcIe Incongruent left correct Normal 573
102 57 LeftSmaller RTTaskExp Prime_9N Target_9A EiBAClJ lefACmH Congruent right correct Normal 491
102 58 LeftSmaller RTTaskExp Prime_4N Target_4A AghDaKL eBCljhd Congruent left correct Normal 535
102 59 LeftSmaller RTTaskExp Prime_1A Target_1N AcFfami jAgFHib Congruent left correct Normal 569
102 60 LeftSmaller RTTaskExp Prime_4A Target_9A FAmgEGL GjKhBmc Incongruent right correct Normal 554
102 61 LeftSmaller RTTaskExp Prime_6A Target_6A cHGhiCa fILBKGb Congruent left error Normal 526
102 62 LeftSmaller RTTaskExp Prime_1A Target_9A AJkIeFh HalCmhK Incongruent right correct Normal 517
102 63 LeftSmaller RTTaskExp Prime_9A Target_6N jLFMJbc JeafFAj Congruent right correct Normal 732
102 64 LeftSmaller RTTaskExp Prime_6A Target_6N DLjhCck djigmBM Congruent right correct Normal 505
102 65 LeftSmaller RTTaskExp Prime_6N Target_9A CkmiBMA fBlKdAE Congruent right correct Normal 483
102 66 LeftSmaller RTTaskExp Prime_9N Target_4A IFmCBgK jBClHhg Incongruent left correct Normal 623
102 67 LeftSmaller RTTaskExp Prime_1A Target_4N afdEDJj cMfIEbA Congruent left correct Normal 541
102 68 LeftSmaller RTTaskExp Prime_1N Target_6N hbBfIJi JbdDCBG Incongruent right correct Normal 505
102 69 LeftSmaller RTTaskExp Prime_1A Target_6N mFdDbkf ecmFEia Incongruent right correct Normal 530
102 70 LeftSmaller RTTaskExp Prime_4N Target_1N AFgekdl Bcefmkj Congruent left correct Normal 506
102 71 LeftSmaller RTTaskExp Prime_6N Target_6A FakhLDd LCHfgal Congruent right correct Normal 533
102 72 LeftSmaller RTTaskExp Prime_9A Target_9A gEjFacL hcCHlKG Congruent right correct Normal 730
102 73 LeftSmaller RTTaskExp Prime_9A Target_1N DdmicfE JbdlhLg Incongruent left correct Normal 620
102 74 LeftSmaller RTTaskExp Prime_1A Target_4A BKgHmGI jkDFclh Congruent left correct Normal 700
102 75 LeftSmaller RTTaskExp Prime_4A Target_1N LgGjehD ghKkcHG Congruent left correct Normal 578
102 76 LeftSmaller RTTaskExp Prime_1N Target_9A kDhEBgc IcfFGLm Incongruent right correct Normal 587
102 77 LeftSmaller RTTaskExp Prime_6A Target_6A eigJlKL fclGKdE Congruent left error Normal 511
102 78 LeftSmaller RTTaskExp Prime_9N Target_6A kIDKlAe GaAbhiF Congruent left error Normal 779
102 79 LeftSmaller RTTaskExp Prime_1N Target_1N FDflLAG lakbmFh Congruent left correct Normal 647
102 80 LeftSmaller RTTaskExp Prime_4N Target_1A EAacFIj LCJFake Congruent left correct Normal 610
102 81 LeftSmaller RTTaskExp Prime_6A Target_6A GkAhCJH dGEFIhM Congruent right correct Normal 771
102 82 LeftSmaller RTTaskExp Prime_9A Target_4N GcLefhb EhcjCKL Incongruent left correct Normal 735
102 83 LeftSmaller RTTaskExp Prime_9N Target_6A gdAcEbl EKcmlhf Congruent right correct Normal 687
102 84 LeftSmaller RTTaskExp Prime_9N Target_1N CaGcJdg LkGmlHC Incongruent left correct Normal 558
102 85 LeftSmaller RTTaskExp Prime_4N Target_4N FCDAcJG ABdflmC Congruent right error Normal 651
102 86 LeftSmaller RTTaskExp Prime_4N Target_6A BEAlCjF LHjhDlG Incongruent right correct Normal 501
102 87 LeftSmaller RTTaskExp Prime_6A Target_9N JEdlLhj LbhJeig Congruent right correct Normal 720
102 88 LeftSmaller RTTaskExp Prime_6N Target_4N dlAFGKE klEFmdi Incongruent left correct Normal 597
102 89 LeftSmaller RTTaskExp Prime_4A Target_9N MEaGefH jMKCEgF Incongruent right correct Normal 570
102 90 LeftSmaller RTTaskExp Prime_6A Target_9A AcFhIBH FAKEBMg Congruent right correct Normal 528
102 91 LeftSmaller RTTaskExp Prime_4N Target_4N HfhbkaI HIDbhiM Congruent left correct Normal 615
102 92 LeftSmaller RTTaskExp Prime_6A Target_1A EGehDBL MmDheKE Incongruent left correct Normal 473
102 93 LeftSmaller RTTaskExp Prime_1A Target_6A LImEekM lJdFcba Incongruent right correct Normal 834
102 94 LeftSmaller RTTaskExp Prime_6N Target_9N DaIcLfj bICGdik Congruent right correct Normal 701
102 95 LeftSmaller RTTaskExp Prime_9A Target_4N ebIKGmF begmhia Incongruent left correct Normal 542
102 96 LeftSmaller RTTaskExp Prime_9A Target_9A bEjkBfa aBgHFcK Congruent right correct Normal 462
102 97 LeftSmaller RTTaskExp Prime_9N Target_9A MhEgFmD dDjBEbH Congruent right correct Normal 359
102 98 LeftSmaller RTTaskExp Prime_6N Target_6N aDAdMjL CcDbGFk Congruent right correct Normal 760
102 99 LeftSmaller RTTaskExp Prime_6A Target_4N iMlGeAH aGHlDed Incongruent left correct Normal 471
102 100 LeftSmaller RTTaskExp Prime_1A Target_1N CHEiAjL gjiDklI Congruent right error Normal 483
102 101 LeftSmaller RTTaskExp Prime_4A Target_1N IBLdKEG HGJAKEM Congruent left correct Normal 494
102 102 LeftSmaller RTTaskExp Prime_1N Target_1N CKfAGaj kcjeJAE Congruent left correct Normal 478
102 103 LeftSmaller RTTaskExp Prime_9A Target_6N AlkBCFE DjGFKhI Congruent right correct Normal 527
102 104 LeftSmaller RTTaskExp Prime_9A Target_1N dFHcmbI gmblBAh Incongruent left correct Normal 525
102 105 LeftSmaller RTTaskExp Prime_4A Target_6N hiJdGfa HMhGEcl Incongruent right correct Normal 749
102 106 LeftSmaller RTTaskExp Prime_1N Target_9A lACcbHk fGAkILC Incongruent right correct Normal 542
102 107 LeftSmaller RTTaskExp Prime_6A Target_1N hLJDBik LEBFali Incongruent left correct Normal 489
102 108 LeftSmaller RTTaskExp Prime_9N Target_1A AbHaMmJ EgCAjDK Incongruent left correct Normal 447
102 109 LeftSmaller RTTaskExp Prime_9A Target_9N mfLGcli kCFiAaL Congruent right correct Normal 514
102 110 LeftSmaller RTTaskExp Prime_4A Target_4A ebFBach hAacKfd Congruent left correct Normal 575
102 111 LeftSmaller RTTaskExp Prime_4A Target_1A aEkBdlF khClKfb Congruent left correct Normal 664
102 112 LeftSmaller RTTaskExp Prime_4N Target_6A jJeDKEb CcjaAil Incongruent right correct Normal 582
102 113 LeftSmaller RTTaskExp Prime_1A Target_4N ilDMIcG HejAiGL Congruent left correct Normal 753
102 114 LeftSmaller RTTaskExp Prime_1A Target_1N IfjHmcJ AGdHcmF Congruent left correct Normal 580
102 115 LeftSmaller RTTaskExp Prime_4A Target_9A ECFkKHh KkGlAdb Incongruent right correct Normal 451
102 116 LeftSmaller RTTaskExp Prime_6N Target_1N bdjBChJ EgLFbHf Incongruent left correct Normal 508
102 117 LeftSmaller RTTaskExp Prime_9N Target_4N bcLCBAh KheAjBa Incongruent right error Late 1095
102 118 LeftSmaller RTTaskExp Prime_6N Target_4A ABGmhMk IEHcGfi Incongruent left correct Normal 686
102 119 LeftSmaller RTTaskExp Prime_6A Target_6N bHgCcLk EfGkCic Congruent right correct Normal 746
102 120 LeftSmaller RTTaskExp Prime_4N Target_1A dCEDJKf EiKGJme Congruent left correct Normal 665
102 121 LeftSmaller RTTaskExp Prime_9N Target_6N ClbABJD LGHhJEj Congruent right correct Normal 723
102 122 LeftSmaller RTTaskExp Prime_1A Target_1A dhGaILE BkaDdEF Congruent left correct Normal 501
102 123 LeftSmaller RTTaskExp Prime_9A Target_1A ifHCjJD iAdMfcJ Incongruent left correct Normal 471
102 124 LeftSmaller RTTaskExp Prime_1A Target_9A IEiDfCh CAgfGKe Incongruent right correct Normal 493
102 125 LeftSmaller RTTaskExp Prime_4N Target_9N iMaBjcL jmgIkeE Incongruent right correct Normal 551
102 126 LeftSmaller RTTaskExp Prime_6A Target_9A eFiAHMj iEaghfb Congruent right correct Normal 494
102 127 LeftSmaller RTTaskExp Prime_1N Target_4N cLhjkgM IbADdEC Congruent left correct Normal 559
102 128 LeftSmaller RTTaskExp Prime_4N Target_9A cjAkFCh CGmKAic Incongruent right correct Normal 640
102 129 LeftSmaller RTTaskExp Prime_4A Target_9N lBjHgFC LJkhcME Incongruent right correct Normal 542
102 130 LeftSmaller RTTaskExp Prime_9A Target_4A BIEFJAL chajAEi Incongruent left correct Normal 615
102 131 LeftSmaller RTTaskExp Prime_1A Target_6N hCiMaem dFImMie Incongruent right correct Normal 579
102 132 LeftSmaller RTTaskExp Prime_9A Target_6A aFiMLGd LlfHGAK Congruent right correct Normal 512
102 133 LeftSmaller RTTaskExp Prime_6A Target_6A FaIcGHd MHIFBba Congruent right correct Normal 433
102 134 LeftSmaller RTTaskExp Prime_9N Target_6A DdcACBG GhlDLmc Congruent right correct Normal 452
102 135 LeftSmaller RTTaskExp Prime_6N Target_1A fKFJjLk ehmKfbM Incongruent left correct Normal 456
102 136 LeftSmaller RTTaskExp Prime_4A Target_6A laCIdhG bDMgIlm Incongruent right correct Normal 508
102 137 LeftSmaller RTTaskExp Prime_6N Target_9A LFfCjha eClAgBf Congruent right correct Normal 685
102 138 LeftSmaller RTTaskExp Prime_1N Target_6A lFAMbLf jJcHDak Incongruent right correct Normal 559
102 139 LeftSmaller RTTaskExp Prime_1N Target_1A JmfbEMC BMjalAe Congruent left correct Normal 467
102 140 LeftSmaller RTTaskExp Prime_6A Target_1A dMGJhkE fCLHdkm Incongruent left correct Normal 477
102 141 LeftSmaller RTTaskExp Prime_1A Target_4A ifdGmIh iAIMLdc Congruent right error Normal 794
102 142 LeftSmaller RTTaskExp Prime_6A Target_4A GaAhMgD CigDjem Incongruent left correct Normal 551
102 143 LeftSmaller RTTaskExp Prime_6A Target_9N jHimcak akdiGhM Congruent right correct Normal 599
102 144 LeftSmaller RTTaskExp Prime_9N Target_9N alkFbgi dKjmHBg Congruent right correct Normal 555
102 145 LeftSmaller RTTaskExp Prime_1N Target_9N chEdimf AMLFHbl Incongruent right correct Normal 569
102 146 LeftSmaller RTTaskExp Prime_4N Target_4A ikMmHhA LbjIkCA Congruent left correct Normal 568
102 147 LeftSmaller RTTaskExp Prime_4N Target_4N DmcfCIH GmijaCh Congruent left correct Normal 548
102 148 LeftSmaller RTTaskExp Prime_4N Target_6N jfhledD DGmKFgc Incongruent right correct Normal 513
102 149 LeftSmaller RTTaskExp Prime_6N Target_4N fgehDlj glFDihJ Incongruent left correct Normal 559
102 150 LeftSmaller RTTaskExp Prime_4A Target_4N HaKjAJb ecaAghj Congruent left correct Normal 540
102 151 LeftSmaller RTTaskExp Prime_6N Target_6A bdmhHkA ABbDGeI Congruent right correct Normal 530
102 152 LeftSmaller RTTaskExp Prime_9N Target_4N EGHdamK gmjFLEM Incongruent left correct Normal 517
102 153 LeftSmaller RTTaskExp Prime_1N Target_6N LGimdeF gBbaCih Incongruent right correct Normal 546
102 154 LeftSmaller RTTaskExp Prime_4N Target_1N CiemghH jkFMice Congruent left correct Normal 676
102 155 LeftSmaller RTTaskExp Prime_9N Target_4A bFgjcaG JmCeLdE Incongruent right error Normal 512
102 156 LeftSmaller RTTaskExp Prime_9N Target_4A abijlhL gdKDMeL Incongruent left correct Normal 555
102 157 LeftSmaller RTTaskExp Prime_1N Target_4A IeKafhg DflAgLM Congruent left correct Normal 557
102 158 LeftSmaller RTTaskExp Prime_1A Target_9N baklgme ajcEBgI Incongruent right correct Normal 621
102 159 LeftSmaller RTTaskExp Prime_1A Target_4A MdLbjmD GBhbcjK Congruent left correct Normal 617
102 160 LeftSmaller RTTaskExp Prime_1A Target_6A MgHIfhD CcfgHLD Incongruent right correct Normal 529
102 161 LeftSmaller RTTaskExp Prime_9N Target_1N AfHCkFh dGaJDEH Incongruent left correct Normal 496
102 162 LeftSmaller RTTaskExp Prime_1A Target_6N JCLeAgD AKbGdcj Incongruent right correct Normal 843
102 163 LeftSmaller RTTaskExp Prime_6A Target_4A hFiLCHd jKBeFMc Incongruent left correct Normal 429
102 164 LeftSmaller RTTaskExp Prime_4A Target_4A hEdfFLe ecdJBlM Congruent left correct Normal 485
102 165 LeftSmaller RTTaskExp Prime_1N Target_4A mjhkFED BICKhlf Congruent left correct Normal 522
102 166 LeftSmaller RTTaskExp Prime_1N Target_1N EgBCJlL MIahbFm Congruent left correct Normal 546
102 167 LeftSmaller RTTaskExp Prime_4N Target_9N AmHdaGc hMAbeCj Incongruent right correct Normal 530
102 168 LeftSmaller RTTaskExp Prime_4A Target_1N alEAcfF idghEKB Congruent right error Normal 522
102 169 LeftSmaller RTTaskExp Prime_1A Target_6A CfLFKIH jicdGJB Incongruent right correct Normal 613
102 170 LeftSmaller RTTaskExp Prime_1A Target_1N CGMgjKi KhAGbeI Congruent left correct Normal 596
102 171 LeftSmaller RTTaskExp Prime_4A Target_1N cmgdlFI JADhmkf Congruent left correct Normal 525
102 172 LeftSmaller RTTaskExp Prime_1A Target_9A cbEBMaD jMJcBkL Incongruent right correct Normal 450
102 173 LeftSmaller RTTaskExp Prime_6A Target_6N gEMbeAB diDfKbF Congruent right correct Normal 675
102 174 LeftSmaller RTTaskExp Prime_4A Target_6N icLEIfF dHEDblM Incongruent right correct Normal 497
102 175 LeftSmaller RTTaskExp Prime_9N Target_9A fdmGDHl JkhAMFC Congruent right correct Normal 486
102 176 LeftSmaller RTTaskExp Prime_6A Target_4N iJgeMHF eFMBCbA Incongruent left correct Normal 657
102 177 LeftSmaller RTTaskExp Prime_1N Target_1A KDeFmMI GfBilJI Congruent left correct Normal 514
102 178 LeftSmaller RTTaskExp Prime_1N Target_9A IBlmKAc cmECFaA Incongruent right correct Normal 426
102 179 LeftSmaller RTTaskExp Prime_4A Target_1A FecjiLI gDajchm Congruent left correct Normal 460
102 180 LeftSmaller RTTaskExp Prime_4A Target_6A CjMmakK DLeJEdB Incongruent right correct Normal 564
102 181 LeftSmaller RTTaskExp Prime_1A Target_9N hkmBECG lfkjBLH Incongruent right correct Normal 530
102 182 LeftSmaller RTTaskExp Prime_4N Target_1A FBMhAGK FglIGbL Congruent left correct Normal 456
102 183 LeftSmaller RTTaskExp Prime_1N Target_9N emfCKLj fKkEimG Incongruent right correct Normal 631
102 184 LeftSmaller RTTaskExp Prime_6A Target_1N JLEFcKe MDcGHek Incongruent left correct Normal 600
102 185 LeftSmaller RTTaskExp Prime_9N Target_1N ElbIGCf hlKckIL Incongruent left correct Normal 498
102 186 LeftSmaller RTTaskExp Prime_1N Target_6A bjKBaEI AidKjBm Incongruent right correct Normal 470
102 187 LeftSmaller RTTaskExp Prime_6N Target_6A cHiIGJK bmCeJDl Congruent right correct Normal 420
102 188 LeftSmaller RTTaskExp Prime_9A Target_4N KjlAhLE abefJhg Incongruent left correct Normal 817
102 189 LeftSmaller RTTaskExp Prime_9N Target_1A eBhGHId HEdCmGK Incongruent left correct Normal 587
102 190 LeftSmaller RTTaskExp Prime_9A Target_9N dGEiHme jldiGgI Congruent right correct Normal 545
102 191 LeftSmaller RTTaskExp Prime_9N Target_6N dMLieEK GhbAajF Congruent right correct Normal 545
102 192 LeftSmaller RTTaskExp Prime_6N Target_9A EHkgeIh JDdHKlc Congruent right correct Normal 431
102 193 LeftSmaller RTTaskExp Prime_6A Target_6A CIheKdL KEeimIj Congruent right correct Normal 521
102 194 LeftSmaller RTTaskExp Prime_9N Target_9N FmJIdKj CDdBAim Congruent right correct Normal 475
102 195 LeftSmaller RTTaskExp Prime_4N Target_4N LjCJGkM JBejkfl Congruent left correct Normal 646
102 196 LeftSmaller RTTaskExp Prime_6A Target_1A IEBHCDA cLKamMl Incongruent left correct Normal 512
102 197 LeftSmaller RTTaskExp Prime_1N Target_6N FLEikmH LFBcGiK Incongruent right correct Normal 604
102 198 LeftSmaller RTTaskExp Prime_9A Target_6N KgDGbFA gcehdfG Congruent right correct Normal 552
102 199 LeftSmaller RTTaskExp Prime_4N Target_1N gJEDLkj kMAidLg Congruent left correct Normal 559
102 200 LeftSmaller RTTaskExp Prime_9A Target_6A jFBgIKE JBKGcIi Congruent right correct Normal 620
102 201 LeftSmaller RTTaskExp Prime_6N Target_9N iIakJCm MJdBLal Congruent right correct Normal 509
102 202 LeftSmaller RTTaskExp Prime_9N Target_4N ADfbdLj gGaIFmA Incongruent left correct Normal 588
102 203 LeftSmaller RTTaskExp Prime_6N Target_1A ImAbCfk laAjJGc Incongruent left correct Normal 516
102 204 LeftSmaller RTTaskExp Prime_6N Target_1N lckLHId eDkHmai Incongruent left correct Normal 576
102 205 LeftSmaller RTTaskExp Prime_9N Target_4A jfFehJl HBAalEk Incongruent right error Normal 518
102 206 LeftSmaller RTTaskExp Prime_9A Target_4A IecBflF caikgHL Incongruent left correct Normal 650
102 207 LeftSmaller RTTaskExp Prime_9A Target_1A mCfkIMi klLabFG Incongruent left correct Normal 452
102 208 LeftSmaller RTTaskExp Prime_1A Target_4N jAKIDMi AedEBkb Congruent left correct Normal 549
102 209 LeftSmaller RTTaskExp Prime_9A Target_9A AHJkGCh gelMihI Congruent right correct Normal 522
102 210 LeftSmaller RTTaskExp Prime_4A Target_4N iIFlJCm bamjhJc Congruent left correct Normal 641
102 211 LeftSmaller RTTaskExp Prime_1N Target_4N JakbFid kighDKe Congruent left correct Normal 551
102 212 LeftSmaller RTTaskExp Prime_4N Target_6A DlCBEec aFLIeEJ Incongruent right correct Normal 933
102 213 LeftSmaller RTTaskExp Prime_9N Target_6A ACacdkh FeacbDC Congruent right correct Normal 660
102 214 LeftSmaller RTTaskExp Prime_4N Target_6N kMhcHGd GHAifBh Incongruent right correct Normal 880
102 215 LeftSmaller RTTaskExp Prime_4A Target_9A JhEKjCl HMJGIgi Incongruent right correct Normal 733
102 216 LeftSmaller RTTaskExp Prime_9N Target_4A IckaFGj hIKcLFk Incongruent left correct Normal 523
102 217 LeftSmaller RTTaskExp Prime_6N Target_6N AMimHCa MaihKFH Congruent right correct Normal 668
102 218 LeftSmaller RTTaskExp Prime_6N Target_4A bLmaBHc dJEgIbk Incongruent left correct Normal 719
102 219 LeftSmaller RTTaskExp Prime_1A Target_1A hdmeFfB jeacIFb Congruent left correct Normal 505
102 220 LeftSmaller RTTaskExp Prime_4N Target_4A jKcIfCF KleMick Congruent left correct Normal 773
102 221 LeftSmaller RTTaskExp Prime_9A Target_1N CBjMEDG JLHiEjc Incongruent left correct Normal 562
102 222 LeftSmaller RTTaskExp Prime_4N Target_9A FBhiHeD mhGIdDg Incongruent right correct Normal 482
102 223 LeftSmaller RTTaskExp Prime_1A Target_4A CKEfDbk AHmgcMI Congruent left correct Normal 599
102 224 LeftSmaller RTTaskExp Prime_6A Target_9N DaCgfHb jcLaidM Congruent right correct Normal 547
102 225 LeftSmaller RTTaskExp Prime_4A Target_9N bgILfem bBcifeC Incongruent right correct Normal 514
102 226 LeftSmaller RTTaskExp Prime_6A Target_9A GHcIjaF HJiCBjm Congruent right correct Normal 529
102 227 LeftSmaller RTTaskExp Prime_6N Target_4N MCaGcgI jdiAbhE Incongruent left correct Normal 681
102 228 LeftSmaller RTTaskExp Prime_9A Target_1N FDBbghk eAhbjJE Incongruent left correct Normal 749
102 229 LeftSmaller RTTaskExp Prime_6N Target_9N jgAemfl gHfjMka Congruent right correct Normal 462
102 230 LeftSmaller RTTaskExp Prime_6A Target_1A CmaJkAG eklbEHI Incongruent left correct Normal 443
102 231 LeftSmaller RTTaskExp Prime_9N Target_1N DBmKGJE lDcMfgE Incongruent left correct Normal 448
102 232 LeftSmaller RTTaskExp Prime_1N Target_4N kmIbGLl aAgfGid Congruent right error Normal 482
102 233 LeftSmaller RTTaskExp Prime_1N Target_9N EcKBfgG lcEedIA Incongruent right correct Normal 600
102 234 LeftSmaller RTTaskExp Prime_9A Target_6N CbkhKBd EKmjBLf Congruent right correct Normal 656
102 235 LeftSmaller RTTaskExp Prime_6A Target_6N MLhmbKi fiAchkm Congruent right correct Normal 518
102 236 LeftSmaller RTTaskExp Prime_6A Target_4N KgHFIcB jgdhBHa Incongruent left correct Normal 652
102 237 LeftSmaller RTTaskExp Prime_4N Target_1A LGJMjlD fciCHDE Congruent left correct Normal 528
102 238 LeftSmaller RTTaskExp Prime_6A Target_1N eiJKlgm idjegFm Incongruent left correct Normal 500
102 239 LeftSmaller RTTaskExp Prime_1N Target_1A fkjHMgc MHAhaDb Congruent left correct Normal 374
102 240 LeftSmaller RTTaskExp Prime_9A Target_9A jbKeMLC caMiAGe Congruent right correct Normal 565
102 241 LeftSmaller RTTaskExp Prime_4N Target_9A JgCILbK EbIkcdl Incongruent right correct Normal 449
102 242 LeftSmaller RTTaskExp Prime_6N Target_4A fhcjKim HcEadDC Incongruent left correct Normal 883
102 243 LeftSmaller RTTaskExp Prime_6A Target_9A EgbIkDj kAMaKdb Congruent right correct Normal 848
102 244 LeftSmaller RTTaskExp Prime_4A Target_4A LMICEiB ebFklIB Congruent right error Normal 656
102 245 LeftSmaller RTTaskExp Prime_1A Target_6N BabEjfk IGKBeLd Incongruent right correct Late 1353
102 246 LeftSmaller RTTaskExp Prime_6N Target_4N GlhfLde MgKeLIk Incongruent left correct Normal 673
102 247 LeftSmaller RTTaskExp Prime_1A Target_1A KHGdfim iJBflLE Congruent left correct Normal 479
102 248 LeftSmaller RTTaskExp Prime_9A Target_4N DElLICj lkLKGgm Incongruent right error Normal 406
102 249 LeftSmaller RTTaskExp Prime_9A Target_4A kfBLagl IEfdGDi Incongruent left correct Normal 811
102 250 LeftSmaller RTTaskExp Prime_1A Target_4A JeGcagl cjBHfkg Congruent left correct Normal 799
102 251 LeftSmaller RTTaskExp Prime_1N Target_1N KDLhjJl maFlJLG Congruent left correct Normal 740
102 252 LeftSmaller RTTaskExp Prime_4N Target_6A EMkgliB IhAJLiK Incongruent right correct Normal 861
102 253 LeftSmaller RTTaskExp Prime_1N Target_4N DdiHMJA AKHmLle Congruent right error Normal 653
102 254 LeftSmaller RTTaskExp Prime_9A Target_6A eFdigfC lafDibk Congruent left error Late 1103
102 255 LeftSmaller RTTaskExp Prime_1N Target_6N DBjgfml gDldCHM Incongruent right correct Normal 958
102 256 LeftSmaller RTTaskExp Prime_9N Target_1A lLEbkiD eAdLica Incongruent left correct Normal 490
102 257 LeftSmaller RTTaskExp Prime_1A Target_9A lKkamGF hIJbcAa Incongruent right correct Normal 812
102 258 LeftSmaller RTTaskExp Prime_6N Target_6N fkKHAMc AMafjLE Congruent left error Normal 664
102 259 LeftSmaller RTTaskExp Prime_1A Target_6A HaDBCld gbhAcLB Incongruent right correct Normal 508
102 260 LeftSmaller RTTaskExp Prime_9N Target_6A filkMIj gkLJlIB Congruent right correct Normal 460
102 261 LeftSmaller RTTaskExp Prime_4N Target_6N aBhFGlL CjbIHLG Incongruent right correct Normal 507
102 262 LeftSmaller RTTaskExp Prime_9A Target_6A bdcCEHl mgMeiad Congruent right correct Normal 478
102 263 LeftSmaller RTTaskExp Prime_4A Target_4N bclhDkE EgkGjIa Congruent left correct Normal 950
102 264 LeftSmaller RTTaskExp Prime_4A Target_1A lGHAbgk lEbBGiJ Congruent left correct Normal 548
102 265 LeftSmaller RTTaskExp Prime_9N Target_6N EKCAcHd MBmahAH Congruent right correct Normal 651
102 266 LeftSmaller RTTaskExp Prime_9A Target_1A jmHFlkK dGgIcmf Incongruent left correct Normal 550
102 267 LeftSmaller RTTaskExp Prime_4A Target_4A FGfBJeE iIJgaEf Congruent right error Normal 621
102 268 LeftSmaller RTTaskExp Prime_9N Target_9A LDhJClg GIkbfME Congruent right correct Normal 541
102 269 LeftSmaller RTTaskExp Prime_1A Target_6N AFEHBeC hbMeLlj Incongruent right correct Normal 741
102 270 LeftSmaller RTTaskExp Prime_6N Target_1N fHBKLic gKbFBAM Incongruent left correct Normal 740
102 271 LeftSmaller RTTaskExp Prime_1A Target_4N gMldima mhgLIFD Congruent right error Normal 690
102 272 LeftSmaller RTTaskExp Prime_1N Target_6A MGCJBKe MfmLagK Incongruent right correct Normal 544
102 273 LeftSmaller RTTaskExp Prime_4A Target_9N gHfMKDF elckGHC Incongruent right correct Normal 565
102 274 LeftSmaller RTTaskExp Prime_9N Target_9N ilFkHbL EaFkejD Congruent right correct Normal 546
102 275 LeftSmaller RTTaskExp Prime_6A Target_4A GgMdehb MBKLHCF Incongruent left correct Normal 617
102 276 LeftSmaller RTTaskExp Prime_1N Target_4N EjebMJl hHEiGcm Congruent left correct Normal 567
102 277 LeftSmaller RTTaskExp Prime_4A Target_4A mhBADIF afEhbDH Congruent left correct Normal 478
102 278 LeftSmaller RTTaskExp Prime_1A Target_9N FmikBag HlmkIgF Incongruent right correct Normal 650
102 279 LeftSmaller RTTaskExp Prime_4A Target_6A jgEFdBl iKJaelE Incongruent right correct Normal 529
102 280 LeftSmaller RTTaskExp Prime_9N Target_4N mafjdAE AJMfhkb Incongruent left correct Normal 678
102 281 LeftSmaller RTTaskExp Prime_4A Target_1N ceLKgdD kLfbjBE Congruent left correct Normal 538
102 282 LeftSmaller RTTaskExp Prime_6A Target_9N AdLjaJF MkEiedL Congruent right correct Normal 520
102 283 LeftSmaller RTTaskExp Prime_1A Target_1N lbJEmgA FLKDhmd Congruent left correct Normal 588
102 284 LeftSmaller RTTaskExp Prime_4N Target_4A eElfKFh ibcFjlE Congruent left correct Normal 631
102 285 LeftSmaller RTTaskExp Prime_4N Target_9N CBidFkE aDHblEi Incongruent right correct Normal 635
102 286 LeftSmaller RTTaskExp Prime_6A Target_6A jAkbldF lGjKiBc Congruent left error Normal 551
102 287 LeftSmaller RTTaskExp Prime_1N Target_4A AjbmiIa HjaJkIG Congruent left correct Normal 692
102 288 LeftSmaller RTTaskExp Prime_1N Target_9A akEBGeL KBikgcH Incongruent right correct Normal 459
102 289 LeftSmaller RTTaskExp Prime_6N Target_6A Edbjkhf mMFIgEi Congruent right correct Normal 515
102 290 LeftSmaller RTTaskExp Prime_9A Target_4N JBMfDlg cfleBda Incongruent left correct Normal 715
102 291 LeftSmaller RTTaskExp Prime_6N Target_1A lchgMbf dcBGeFE Incongruent left correct Normal 462
102 292 LeftSmaller RTTaskExp Prime_4A Target_9A bDHGefj IejMEKG Incongruent right correct Normal 445
102 293 LeftSmaller RTTaskExp Prime_4A Target_6N leJHFEA eaAbckl Incongruent left error Normal 605
102 294 LeftSmaller RTTaskExp Prime_6N Target_6N hEDkbCg BFJDdem Congruent right correct Normal 761
102 295 LeftSmaller RTTaskExp Prime_6N Target_9A IaAfLMB hKdILaH Congruent right correct Normal 405
102 296 LeftSmaller RTTaskExp Prime_1A Target_4N fahLblI ICbmjdF Congruent right error Normal 871
102 297 LeftSmaller RTTaskExp Prime_4N Target_4N kaJdGEM LclHMef Congruent left correct Normal 589
102 298 LeftSmaller RTTaskExp Prime_6A Target_6A EILcFHf HmdhKEa Congruent right correct Normal 514
102 299 LeftSmaller RTTaskExp Prime_4N Target_1N LBhckIM EhcKAkJ Congruent left correct Normal 899
102 300 LeftSmaller RTTaskExp Prime_9N Target_4A dhaMgJD GgLEfbm Incongruent left correct Normal 800
102 301 LeftSmaller RTTaskExp Prime_4A Target_6N MbhiafD iEHcCjb Incongruent right correct Normal 866
102 302 LeftSmaller RTTaskExp Prime_1A Target_4N hDKdMBJ lIbcCeE Congruent left correct Normal 686
102 303 LeftSmaller RTTaskExp Prime_9A Target_9N jKmCikB khGgbCa Congruent right correct Normal 563
103 18 LeftSmaller RTTaskExp Prime_9A Target_4A KCHgJlE KBFLAGk Incongruent left correct Normal 506
103 19 LeftSmaller RTTaskExp Prime_9N Target_6A cLMDeHm ifCKcdk Congruent left error Normal 443
103 20 LeftSmaller RTTaskExp Prime_9A Target_6N KLaeDEj GfegmEF Congruent left error Normal 439
103 21 LeftSmaller RTTaskExp Prime_9N Target_1A mhjFiab LBCchai Incongruent left correct Normal 415
103 22 LeftSmaller RTTaskExp Prime_9N Target_1N bdBMLDk fcDdKkb Incongruent left correct Normal 461
103 23 LeftSmaller RTTaskExp Prime_9A Target_6A BCMDdfg LhIfJcH Congruent right correct Normal 515
103 24 LeftSmaller RTTaskExp Prime_4A Target_6N dgLhjHm djKEJaC Incongruent right correct Normal 485
103 25 LeftSmaller RTTaskExp Prime_9N Target_6N fiIdcJm lIiKMhG Congruent right correct Normal 424
103 26 LeftSmaller RTTaskExp Prime_1N Target_6N jgFLKAk CkbGAfi Incongruent right correct Normal 400
103 27 LeftSmaller RTTaskExp Prime_4A Target_1N clekHGa LlcmEFf Congruent left correct Normal 436
103 28 LeftSmaller RTTaskExp Prime_9N Target_6A HLIhbeK mhgIGBl Congruent left error Normal 496
103 29 LeftSmaller RTTaskExp Prime_9A Target_6N LbKfcaC adcfMgF Congruent right correct Normal 503
103 30 LeftSmaller RTTaskExp Prime_6N Target_9A MdGLegf fhbcDFE Congruent right correct Normal 492
103 31 LeftSmaller RTTaskExp Prime_1N Target_1N akJBhmL bKlJFLh Congruent left correct Normal 450
103 32 LeftSmaller RTTaskExp Prime_1A Target_6N CmIeJca IcdJaCb Incongruent right correct Normal 657
103 33 LeftSmaller RTTaskExp Prime_1N Target_4A fLJikje EFbdhgj Congruent left correct Normal 615
103 34 LeftSmaller RTTaskExp Prime_6N Target_6A mgDEfec ieKGMfF Congruent right correct Normal 428
103 35 LeftSmaller RTTaskExp Prime_1N Target_9N glLHmJC LCFmAlB Incongruent right correct Normal 438
103 36 LeftSmaller RTTaskExp Prime_6N Target_4N LmAEDGl CgiIAbM Incongruent left correct Normal 594
103 37 LeftSmaller RTTaskExp Prime_1A Target_6A bhjgliI JGfALID Incongruent right correct Normal 424
103 38 LeftSmaller RTTaskExp Prime_4A Target_4A MGFeKaD dLAElGD Congruent left correct Normal 510
103 39 LeftSmaller RTTaskExp Prime_6N Target_6N hgblkDa IbMDJek Congruent right correct Normal 405
103 40 LeftSmaller RTTaskExp Prime_1N Target_6A cEADmhC FmEcLMJ Incongruent right correct Normal 481
103 41 LeftSmaller RTTaskExp Prime_6N Target_1N IhgDfbA IeLMmbF Incongruent left correct Normal 494
103 42 LeftSmaller RTTaskExp Prime_6N Target_4A IlfkABb lDgJCLG Incongruent left correct Normal 670
103 43 LeftSmaller RTTaskExp Prime_4N Target_1N dbHkIiM ghIDCjd Congruent left correct Normal 473
103 44 LeftSmaller RTTaskExp Prime_6A Target_9N AlEkdja aEjbGel Congruent right correct Normal 469
103 45 LeftSmaller RTTaskExp Prime_4N Target_1A fGJiClD LAKDgHE Congruent left correct Normal 409
103 46 LeftSmaller RTTaskExp Prime_4A Target_4N lIjECaL eHAjFId Congruent left correct Late 1170
103 47 LeftSmaller RTTaskExp Prime_6N Target_9N CjihcDB aKMFiAb Congruent right correct Normal 500
103 48 LeftSmaller RTTaskExp Prime_6A Target_9A LCMgAhH IMlEjgi Congruent right correct Normal 436
103 49 LeftSmaller RTTaskExp Prime_4N Target_6N bhBidCm cEbJAmD Incongruent left error Normal 445
103 50 LeftSmaller RTTaskExp Prime_6A Target_1N bfKLdal gMladED Incongruent left correct Normal 456
103 51 LeftSmaller RTTaskExp Prime_1N Target_9A fHlGIkd ABFGfmH Incongruent right correct Normal 458
103 52 LeftSmaller RTTaskExp Prime_4A Target_9N KMbgIiA DjFLfBk Incongruent right correct Normal 401
103 53 LeftSmaller RTTaskExp Prime_9N Target_4A kEKHCag GLICJbm Incongruent left correct Normal 533
103 54 LeftSmaller RTTaskExp Prime_6A Target_6N dMDGaFE bCFBkDM Congruent right correct Normal 457
103 55 LeftSmaller RTTaskExp Prime_6A Target_4A ACfkFLe almeEGD Incongruent left correct Normal 407
103 56 LeftSmaller RTTaskExp Prime_4A Target_6A MEGhekA jlGmJMH Incongruent right correct Normal 537
103 57 LeftSmaller RTTaskExp Prime_1A Target_9N CaGflkJ blEejiL Incongruent left error Normal 430
103 58 LeftSmaller RTTaskExp Prime_9A Target_1N lMeBHij iFBcIHE Incongruent left correct Normal 473
103 59 LeftSmaller RTTaskExp Prime_4A Target_1A dIBJHkf GkfejDF Congruent left correct Normal 470
103 60 LeftSmaller RTTaskExp Prime_1N Target_1A LefgmIb eClcBFG Congruent left correct Normal 393
103 61 LeftSmaller RTTaskExp Prime_1A Target_4N lfJFKHk dBJmGCk Congruent left correct Normal 605
103 62 LeftSmaller RTTaskExp Prime_4N Target_9N DBKhEjb cmEMbFi Incongruent right correct Normal 511
103 63 LeftSmaller RTTaskExp Prime_1A Target_9A limacjA FKdEijG Incongruent right correct Normal 409
103 64 LeftSmaller RTTaskExp Prime_6N Target_1A dLhGCIl haBAKCl Incongruent left correct Normal 449
103 65 LeftSmaller RTTaskExp Prime_6A Target_1A CAbjhLf maJFjBM Incongruent left correct Normal 454
103 66 LeftSmaller RTTaskExp Prime_4A Target_9A ljMfebG dkgGDbH Incongruent right correct Normal 465
103 67 LeftSmaller RTTaskExp Prime_6A Target_6A gKjAiCM gCeFmED Congruent right correct Normal 769
103 68 LeftSmaller RTTaskExp Prime_9A Target_1A fhAJKIE mFlAhjL Incongruent left correct Normal 431
103 69 LeftSmaller RTTaskExp Prime_1N Target_4N cgDKbHG cDLjIFG Congruent left correct Normal 607
103 70 LeftSmaller RTTaskExp Prime_9N Target_9N dgCMKeE CaAFcLe Congruent right correct Normal 458
103 71 LeftSmaller RTTaskExp Prime_4A Target_4N JmkjBCL BhmDHia Congruent left correct Normal 565
103 72 LeftSmaller RTTaskExp Prime_1A Target_1N FdLKbCl EhIHBlg Congruent left correct Normal 497
103 73 LeftSmaller RTTaskExp Prime_4N Target_6A kaiBJlI jAMdagH Incongruent right correct Normal 721
103 74 LeftSmaller RTTaskExp Prime_1A Target_9N heiBmLK dkDfilL Incongruent right correct Normal 499
103 75 LeftSmaller RTTaskExp Prime_4N Target_4N FdMDCaB ILAJlik Congruent left correct Normal 461
103 76 LeftSmaller RTTaskExp Prime_9A Target_9A ceBIHJG dcFAlbC Congruent right correct Normal 503
103 77 LeftSmaller RTTaskExp Prime_4N Target_4A dICFblc IgBmHKa Congruent left correct Normal 459
103 78 LeftSmaller RTTaskExp Prime_6A Target_4N eHjDCbI FahEBGm Incongruent left correct Normal 642
103 79 LeftSmaller RTTaskExp Prime_9N Target_9A IDMGAeJ LKJHldg Congruent right correct Normal 411
103 80 LeftSmaller RTTaskExp Prime_4N Target_6N lGLBDCe FhHLEjd Incongruent right correct Normal 642
103 81 LeftSmaller RTTaskExp Prime_9N Target_6A FDAlBiE kmCIlig Congruent right correct Normal 587
103 82 LeftSmaller RTTaskExp Prime_9A Target_9N CKlGkjf eCibKIa Congruent right correct Normal 500
103 83 LeftSmaller RTTaskExp Prime_4N Target_9A EIBdMDc MgGLEBi Incongruent right correct Normal 423
103 84 LeftSmaller RTTaskExp Prime_9N Target_4N jJblImg BiCEMmK Incongruent left correct Normal 472
103 85 LeftSmaller RTTaskExp Prime_1A Target_1A LbAIihe EeDBHam Congruent left correct Normal 454
103 86 LeftSmaller RTTaskExp Prime_1A Target_4A ciEdIkH GLECjmI Congruent left correct Normal 505
103 87 LeftSmaller RTTaskExp Prime_9A Target_4N BbHcALM AfEHmCj Incongruent left correct Normal 448
103 88 LeftSmaller RTTaskExp Prime_9N Target_9N FEDKILG IdlcHbA Congruent right correct Normal 455
103 89 LeftSmaller RTTaskExp Prime_6A Target_9N LHKEadk HEakCiG Congruent right correct Normal 368
103 90 LeftSmaller RTTaskExp Prime_6A Target_9A ELmjAeG bhjkGac Congruent right correct Normal 366
103 91 LeftSmaller RTTaskExp Prime_9A Target_6A fMkLjBH dlibfkm Congruent left error Normal 409
103 92 LeftSmaller RTTaskExp Prime_9A Target_1N LbJgDmB iMcdLJe Incongruent left correct Normal 497
103 93 LeftSmaller RTTaskExp Prime_6A Target_4N FGCIKLH KehCBIi Incongruent left correct Normal 520
103 94 LeftSmaller RTTaskExp Prime_6N Target_6A laEefhB AilJImk Congruent left error Normal 552
103 95 LeftSmaller RTTaskExp Prime_4N Target_4A EkgLdeJ kLEmFAG Congruent left correct Normal 497
103 96 LeftSmaller RTTaskExp Prime_9A Target_4N EgldJMm EcLlmJD Incongruent left correct Normal 615
103 97 LeftSmaller RTTaskExp Prime_1A Target_6A aifJFBG kaJBhCj Incongruent right correct Normal 470
103 98 LeftSmaller RTTaskExp Prime_9A Target_1A meLJBAi KjEibac Incongruent left correct Normal 467
103 99 LeftSmaller RTTaskExp Prime_6N Target_4N aicBbjh CDeFbBd Incongruent left correct Normal 498
103 100 LeftSmaller RTTaskExp Prime_4N Target_6N JCGjgAK ChdmDaH Incongruent right correct Normal 465
103 101 LeftSmaller RTTaskExp Prime_4N Target_1A CihbeDK DACckFh Congruent left correct Normal 401
103 102 LeftSmaller RTTaskExp Prime_6N Target_1A DGbgABH JblikgI Incongruent left correct Normal 471
103 103 LeftSmaller RTTaskExp Prime_9A Target_6A JbIchDd ldEcDma Congruent right correct Normal 588
103 104 LeftSmaller RTTaskExp Prime_1A Target_4A AkCGlgL dciJaDH Congruent left correct Normal 545
103 105 LeftSmaller RTTaskExp Prime_9A Target_6N KmMdJjD LfmJijA Congruent right correct Normal 573
103 106 LeftSmaller RTTaskExp Prime_6N Target_6A HdBKFmf DdamHKe Congruent right correct Normal 441
103 107 LeftSmaller RTTaskExp Prime_1A Target_9N CEFBIJA mdFbGcK Incongruent right correct Normal 567
103 108 LeftSmaller RTTaskExp Prime_1N Target_6N FKbAhkd MjgaeGi Incongruent right correct Normal 580
103 109 LeftSmaller RTTaskExp Prime_9N Target_6A dhekAml gdCkfLj Congruent right correct Normal 459
103 110 LeftSmaller RTTaskExp Prime_9N Target_4N LKJdehB kcEbdMC Incongruent left correct Normal 598
103 111 LeftSmaller RTTaskExp Prime_4N Target_9A ilIckEj jiHglMk Incongruent right correct Normal 498
103 112 LeftSmaller RTTaskExp Prime_1A Target_6N elhImfb kMbEdfF Incongruent right correct Normal 877
103 113 LeftSmaller RTTaskExp Prime_1N Target_1N fAaLMig EBleabC Congruent left correct Normal 444
103 114 LeftSmaller RTTaskExp Prime_6N Target_9A aecDHjm LmjfkBF Congruent right correct Normal 454
103 115 LeftSmaller RTTaskExp Prime_9N Target_6N JGfbEIK aEblKAH Congruent right correct Normal 511
103 116 LeftSmaller RTTaskExp Prime_1N Target_6A MAFKEeC JIHchmC Incongruent right correct Normal 451
103 117 LeftSmaller RTTaskExp Prime_6N Target_4A deIACDj mGIheKB Incongruent left correct Normal 433
103 118 LeftSmaller RTTaskExp Prime_1N Target_9A BaCKHmd lDJBEeM Incongruent right correct Normal 404
103 119 LeftSmaller RTTaskExp Prime_6A Target_6A BkMeLHI medfKlG Congruent right correct Normal 362
103 120 LeftSmaller RTTaskExp Prime_4N Target_4N cDlELfj jCDgMHb Congruent left correct Normal 448
103 121 LeftSmaller RTTaskExp Prime_4A Target_9N cFbIBfe FbmKdEe Incongruent right correct Normal 416
103 122 LeftSmaller RTTaskExp Prime_1A Target_4N FDgKdic jcECkMI Congruent left correct Normal 486
103 123 LeftSmaller RTTaskExp Prime_1A Target_9A JljaDKF HikgJfE Incongruent right correct Normal 406
103 124 LeftSmaller RTTaskExp Prime_1N Target_1A IDMgcdf eBhCmbE Congruent left correct Normal 389
103 125 LeftSmaller RTTaskExp Prime_1N Target_4A HbjcBKJ iIgMClh Congruent left correct Normal 448
103 126 LeftSmaller RTTaskExp Prime_4A Target_1N eKJjEBl FIiMGbc Congruent right error Normal 447
103 127 LeftSmaller RTTaskExp Prime_4A Target_1N CmaGdIj lgkmKAc Congruent left correct Normal 517
103 128 LeftSmaller RTTaskExp Prime_1A Target_1N ebiEGkh bLBldMj Congruent left correct Normal 401
103 129 LeftSmaller RTTaskExp Prime_6A Target_6N MijAFEk eJHFElb Congruent right correct Normal 550
103 130 LeftSmaller RTTaskExp Prime_6N Target_1N gfMeBma bcGIBDL Incongruent left correct Normal 446
103 131 LeftSmaller RTTaskExp Prime_4A Target_4A HLeBCbA DkjGFfI Congruent left correct Normal 474
103 132 LeftSmaller RTTaskExp Prime_6N Target_9N dHcmkaM gdaiKhB Congruent right correct Normal 495
103 133 LeftSmaller RTTaskExp Prime_1N Target_9N cDlAmJd mjCIlDb Incongruent right correct Normal 389
103 134 LeftSmaller RTTaskExp Prime_4N Target_6A BaLAjhb LmIidCb Incongruent left error Normal 463
103 135 LeftSmaller RTTaskExp Prime_9N Target_4A MFhdlfa JbMhAcB Incongruent left correct Normal 917
103 136 LeftSmaller RTTaskExp Prime_9A Target_9N egIkLaf GkgcmbK Congruent right correct Normal 517
103 137 LeftSmaller RTTaskExp Prime_4A Target_9A mKLIgFl ADdMjCJ Incongruent right correct Normal 482
103 138 LeftSmaller RTTaskExp Prime_6A Target_1A gGLKJMC mLglifh Incongruent left correct Normal 408
103 139 LeftSmaller RTTaskExp Prime_4N Target_6A fLmCagA ihldEbf Incongruent right correct Normal 519
103 140 LeftSmaller RTTaskExp Prime_4A Target_6N mjEBiGa MhFmgjD Incongruent right correct Normal 483
103 141 LeftSmaller RTTaskExp Prime_9N Target_1N cilFmhk jheFGDC Incongruent left correct Normal 620
103 142 LeftSmaller RTTaskExp Prime_4A Target_4N eBcHACE afjLAeM Congruent left correct Normal 534
103 143 LeftSmaller RTTaskExp Prime_4N Target_1N cilBMhA heCbdBG Congruent left correct Normal 529
103 144 LeftSmaller RTTaskExp Prime_9N Target_9A KHaJgGB hjlCkcb Congruent right correct Normal 490
103 145 LeftSmaller RTTaskExp Prime_1N Target_4N LMKdFDb mdabBIE Congruent left correct Normal 673
103 146 LeftSmaller RTTaskExp Prime_4N Target_9N KaHifbJ lDiagdb Incongruent right correct Normal 479
103 147 LeftSmaller RTTaskExp Prime_4A Target_1A BAcLFhi FkClKhj Congruent left correct Normal 458
103 148 LeftSmaller RTTaskExp Prime_9A Target_4A mkIJcjD bdfAFgc Incongruent left correct Normal 435
103 149 LeftSmaller RTTaskExp Prime_6A Target_4A dMHEkfG bFemgkI Incongruent left correct Normal 461
103 150 LeftSmaller RTTaskExp Prime_1A Target_1A GDJHfbA DJCHlAh Congruent left correct Normal 357
103 151 LeftSmaller RTTaskExp Prime_6A Target_1N ihLHJMl lAdGJEi Incongruent left correct Normal 454
103 152 LeftSmaller RTTaskExp Prime_4A Target_6A HKLCIJF kCleBdh Incongruent right correct Normal 542
103 153 LeftSmaller RTTaskExp Prime_9A Target_9A gCKeJcm LileEbc Congruent right correct Normal 431
103 154 LeftSmaller RTTaskExp Prime_6N Target_6N EclLKFI jMEeBIG Congruent right correct Normal 609
103 155 LeftSmaller RTTaskExp Prime_9N Target_1A IAcMFJh GlhLFkc Incongruent left correct Normal 529
103 156 LeftSmaller RTTaskExp Prime_1N Target_4A BChiAme cMJkCmb Congruent left correct Normal 527
103 157 LeftSmaller RTTaskExp Prime_9N Target_9A JHhCDfj EkbGcga Congruent right correct Normal 385
103 158 LeftSmaller RTTaskExp Prime_1N Target_4N ELmGkCh CdKcebg Congruent left correct Normal 524
103 159 LeftSmaller RTTaskExp Prime_1A Target_9N ihMlLEf GeidLDH Incongruent right correct Normal 492
103 160 LeftSmaller RTTaskExp Prime_1N Target_9N aGAfFLh aDJIEeg Incongruent left error Normal 389
103 161 LeftSmaller RTTaskExp Prime_6A Target_9N FDBgjIl kLFAlaM Congruent right correct Normal 412
103 162 LeftSmaller RTTaskExp Prime_4N Target_4A aikclGm GgBedbf Congruent left correct Normal 444
103 163 LeftSmaller RTTaskExp Prime_9A Target_4A BlcDekK cEgeIfh Incongruent left correct Normal 453
103 164 LeftSmaller RTTaskExp Prime_6N Target_1A lCJibLF AekBmLM Incongruent left correct Normal 476
103 165 LeftSmaller RTTaskExp Prime_6N Target_6A JCHiDbF cAbkKfC Congruent right correct Normal 493
103 166 LeftSmaller RTTaskExp Prime_4A Target_9N fmEagKG kEmBeji Incongruent right correct Normal 454
103 167 LeftSmaller RTTaskExp Prime_1N Target_1A HcjIFgE CGFHcmh Congruent left correct Normal 432
103 168 LeftSmaller RTTaskExp Prime_1N Target_9N bEfcImi leKLdGc Incongruent right correct Normal 556
103 169 LeftSmaller RTTaskExp Prime_4N Target_9N FecKlBm jEhlGeI Incongruent right correct Normal 495
103 170 LeftSmaller RTTaskExp Prime_9N Target_1A mejKHDh jCFiEBl Incongruent left correct Normal 414
103 171 LeftSmaller RTTaskExp Prime_6N Target_4N jdDfiLC gacKBbL Incongruent left correct Normal 574
103 172 LeftSmaller RTTaskExp Prime_6A Target_4A dMGBCbD eAHJaKG Incongruent left correct Normal 456
103 173 LeftSmaller RTTaskExp Prime_4A Target_1N eHEabfj LEcAGem Congruent left correct Normal 484
103 174 LeftSmaller RTTaskExp Prime_1A Target_9A KhCldAJ Clmkcdg Incongruent right correct Normal 408
103 175 LeftSmaller RTTaskExp Prime_4N Target_4N JmdejbF AcikLIE Congruent left correct Normal 613
103 176 LeftSmaller RTTaskExp Prime_4A Target_4N MjIGEaf MdblLfJ Congruent left correct Normal 519
