subject,pair,soc_condition,stim,trial_n,target,beeps,response,rt,correct,order,pos,h1,h2,h3,h4,age
S1,P1,I,1F1B,1,1,1,1,0.6631181779998769,1,B1,L,5,5,4,3,28
S1,P1,I,2F2B,2,2,2,2,1.4288620999996056,1,B1,L,5,5,4,3,28
S1,P1,I,2F1B,3,2,1,1,1.1373274990000937,0,B1,L,5,5,4,3,28
S1,P1,I,1F2B,4,1,2,2,1.4559067039999718,0,B1,L,5,5,4,3,28
S1,P1,I,2F1B,5,2,1,1,0.8581515250002667,0,B1,L,5,5,4,3,28
S1,P1,I,1F1B,6,1,1,1,0.812356961000205,1,B1,L,5,5,4,3,28
S1,P1,I,2F2B,7,2,2,2,2.3643943689999105,1,B1,L,5,5,4,3,28
S1,P1,I,2F2B,8,2,2,2,1.1712474199998724,1,B1,L,5,5,4,3,28
S1,P1,I,1F1B,9,1,1,1,0.8235729610000817,1,B1,L,5,5,4,3,28
S1,P1,I,2F1B,10,2,1,1,1.0630683579997822,0,B1,L,5,5,4,3,28
S1,P1,I,1F2B,11,1,2,2,1.0356568309998693,0,B1,L,5,5,4,3,28
S1,P1,I,1F2B,12,1,2,1,2.098225025999909,1,B1,L,5,5,4,3,28
S1,P1,I,2F2B,13,2,2,2,1.8506215329998668,1,B1,L,5,5,4,3,28
S1,P1,I,1F2B,14,1,2,2,2.6410618479999357,0,B1,L,5,5,4,3,28
S1,P1,I,2F1B,15,2,1,1,0.9067064119999486,0,B1,L,5,5,4,3,28
S1,P1,I,1F1B,16,1,1,1,0.8191962900000362,1,B1,L,5,5,4,3,28
S1,P1,I,1F1B,17,1,1,1,0.5224086430002899,1,B1,L,5,5,4,3,28
S1,P1,I,1F1B,18,1,1,1,0.6183547119999275,1,B1,L,5,5,4,3,28
S1,P1,I,2F1B,19,2,1,2,1.3234037080001144,1,B1,L,5,5,4,3,28
S1,P1,I,1F2B,20,1,2,2,0.7323501750001924,0,B1,L,5,5,4,3,28
S1,P1,I,2F2B,21,2,2,2,0.5220815190000394,1,B1,L,5,5,4,3,28
S1,P1,I,1F2B,22,1,2,2,0.6063523170000735,0,B1,L,5,5,4,3,28
S1,P1,I,2F1B,23,2,1,1,0.6145407500002875,0,B1,L,5,5,4,3,28
S1,P1,I,2F2B,24,2,2,2,0.7004040020001412,1,B1,L,5,5,4,3,28
S1,P1,I,2F1B,25,2,1,2,0.6275050590002138,1,B1,L,5,5,4,3,28
S1,P1,I,2F2B,26,2,2,2,1.0733345570001802,1,B1,L,5,5,4,3,28
S1,P1,I,2F1B,27,2,1,1,0.6989274069997009,0,B1,L,5,5,4,3,28
S1,P1,I,1F2B,28,1,2,2,0.6358176089997869,0,B1,L,5,5,4,3,28
S1,P1,I,1F2B,29,1,2,2,0.8052670030001536,0,B1,L,5,5,4,3,28
S1,P1,I,2F2B,30,2,2,2,0.6326770679997935,1,B1,L,5,5,4,3,28
S1,P1,I,1F2B,31,1,2,1,0.7343605669998396,1,B1,L,5,5,4,3,28
S1,P1,I,1F1B,32,1,1,1,0.7958856430000196,1,B1,L,5,5,4,3,28
S1,P1,I,1F2B,33,1,2,2,0.6246788490002473,0,B1,L,5,5,4,3,28
S1,P1,I,1F2B,34,1,2,2,1.6212218979999307,0,B1,L,5,5,4,3,28
S1,P1,I,1F2B,35,1,2,1,1.2973906699999134,1,B1,L,5,5,4,3,28
S1,P1,I,1F1B,36,1,1,1,0.674753611000142,1,B1,L,5,5,4,3,28
S1,P1,I,2F2B,37,2,2,2,1.0435206380002455,1,B1,L,5,5,4,3,28
S1,P1,I,1F2B,38,1,2,2,1.9565948909998951,0,B1,L,5,5,4,3,28
S1,P1,I,2F2B,39,2,2,1,8.174077840999871,0,B1,L,5,5,4,3,28
S1,P1,I,2F2B,40,2,2,1,1.3347643379997862,0,B1,L,5,5,4,3,28
S1,P1,I,2F1B,41,2,1,2,0.9918206900001678,1,B1,L,5,5,4,3,28
S1,P1,I,1F2B,42,1,2,1,1.4994009229999392,1,B1,L,5,5,4,3,28
S1,P1,I,2F2B,43,2,2,2,0.8019148800003677,1,B1,L,5,5,4,3,28
S1,P1,I,1F2B,44,1,2,1,0.896864810000352,1,B1,L,5,5,4,3,28
S1,P1,I,2F2B,45,2,2,2,0.5962484560000121,1,B1,L,5,5,4,3,28
S1,P1,I,1F2B,46,1,2,2,1.5311801439997907,0,B1,L,5,5,4,3,28
S1,P1,I,1F2B,47,1,2,2,0.57346247400028,0,B1,L,5,5,4,3,28
S1,P1,I,1F2B,48,1,2,2,0.5284959900000104,0,B1,L,5,5,4,3,28
S1,P1,I,2F2B,49,2,2,2,0.5142982809998102,1,B1,L,5,5,4,3,28
S1,P1,I,1F1B,50,1,1,2,1.2790034490003563,0,B1,L,5,5,4,3,28
S1,P1,I,1F1B,51,1,1,2,1.0149290339995787,0,B1,L,5,5,4,3,28
S1,P1,I,2F1B,52,2,1,2,0.5425489889998971,1,B1,L,5,5,4,3,28
S1,P1,I,2F2B,53,2,2,1,1.9195508319999135,0,B1,L,5,5,4,3,28
S1,P1,I,1F1B,54,1,1,1,1.0874511000001803,1,B1,L,5,5,4,3,28
S1,P1,I,2F1B,55,2,1,1,0.75382563400035,0,B1,L,5,5,4,3,28
S1,P1,I,2F2B,56,2,2,1,0.6606466299999738,0,B1,L,5,5,4,3,28
S1,P1,I,2F1B,57,2,1,1,0.6689873499999521,0,B1,L,5,5,4,3,28
S1,P1,I,1F2B,58,1,2,1,0.8025217610002073,1,B1,L,5,5,4,3,28
S1,P1,I,2F1B,59,2,1,2,5.587090921000254,1,B1,L,5,5,4,3,28
S1,P1,I,1F2B,60,1,2,1,0.617470897000203,1,B1,L,5,5,4,3,28
S1,P1,I,1F1B,61,1,1,1,0.6530059030001212,1,B1,L,5,5,4,3,28
S1,P1,I,1F2B,62,1,2,2,0.506294662000073,0,B1,L,5,5,4,3,28
S1,P1,I,1F1B,63,1,1,1,0.6121896730001026,1,B1,L,5,5,4,3,28
S1,P1,I,2F1B,64,2,1,1,0.725252938000267,0,B1,L,5,5,4,3,28
S1,P1,I,1F1B,65,1,1,1,0.47865262499999517,1,B1,L,5,5,4,3,28
S1,P1,I,1F2B,66,1,2,1,1.1303870599999755,1,B1,L,5,5,4,3,28
S1,P1,I,2F1B,67,2,1,1,0.6764976569997998,0,B1,L,5,5,4,3,28
S1,P1,I,2F2B,68,2,2,2,0.7240702960002636,1,B1,L,5,5,4,3,28
S1,P1,I,2F1B,69,2,1,1,0.8862738070001797,0,B1,L,5,5,4,3,28
S1,P1,I,1F2B,70,1,2,1,2.552755715999865,1,B1,L,5,5,4,3,28
S1,P1,I,2F2B,71,2,2,2,3.3109043879999263,1,B1,L,5,5,4,3,28
S1,P1,I,1F1B,72,1,1,1,1.1939254869998877,1,B1,L,5,5,4,3,28
S1,P1,I,2F2B,73,2,2,2,0.751347947999875,1,B1,L,5,5,4,3,28
S1,P1,I,2F2B,74,2,2,2,0.5263892889997805,1,B1,L,5,5,4,3,28
S1,P1,I,2F2B,75,2,2,2,1.5699832209998021,1,B1,L,5,5,4,3,28
S1,P1,I,1F1B,76,1,1,1,0.7658976610000536,1,B1,L,5,5,4,3,28
S1,P1,I,1F1B,77,1,1,1,0.5002707140001803,1,B1,L,5,5,4,3,28
S1,P1,I,1F1B,78,1,1,1,0.5434547109998675,1,B1,L,5,5,4,3,28
S1,P1,I,2F1B,79,2,1,1,0.4621188290002465,0,B1,L,5,5,4,3,28
S1,P1,I,2F2B,80,2,2,1,0.5771880009997403,0,B1,L,5,5,4,3,28
S1,P1,I,2F2B,81,2,2,1,0.47355651899988516,0,B1,L,5,5,4,3,28
S1,P1,I,1F1B,82,1,1,1,0.5516978529999506,1,B1,L,5,5,4,3,28
S1,P1,I,1F1B,83,1,1,1,0.4157849709999937,1,B1,L,5,5,4,3,28
S1,P1,I,2F2B,84,2,2,1,0.6939894000001914,0,B1,L,5,5,4,3,28
S1,P1,I,2F1B,85,2,1,1,1.0261521569996148,0,B1,L,5,5,4,3,28
S1,P1,I,1F1B,86,1,1,1,1.0436963940001078,1,B1,L,5,5,4,3,28
S1,P1,I,1F1B,87,1,1,1,0.6165992339997501,1,B1,L,5,5,4,3,28
S1,P1,I,2F1B,88,2,1,1,1.0001694669999779,0,B1,L,5,5,4,3,28
S1,P1,I,2F1B,89,2,1,1,0.5981157890000759,0,B1,L,5,5,4,3,28
S1,P1,I,2F1B,90,2,1,1,0.6587356009999894,0,B1,L,5,5,4,3,28
S1,P1,I,2F1B,91,2,1,1,0.7091424610002832,0,B1,L,5,5,4,3,28
S1,P1,I,2F1B,92,2,1,1,0.7876432050002222,0,B1,L,5,5,4,3,28
S1,P1,I,2F2B,93,2,2,2,1.3693458749999081,1,B1,L,5,5,4,3,28
S1,P1,I,2F1B,94,2,1,1,0.5531783940000423,0,B1,L,5,5,4,3,28
S1,P1,I,2F1B,95,2,1,1,0.660354610000013,0,B1,L,5,5,4,3,28
S1,P1,I,1F2B,96,1,2,1,1.9568501369999467,1,B1,L,5,5,4,3,28
S1,P1,I,2F2B,97,2,2,2,0.7108010189999732,1,B1,L,5,5,4,3,28
S1,P1,I,1F1B,98,1,1,1,0.7138002880001295,1,B1,L,5,5,4,3,28
S1,P1,I,1F1B,99,1,1,1,0.8735672980001254,1,B1,L,5,5,4,3,28
S1,P1,I,1F1B,100,1,1,1,0.4496965509997608,1,B1,L,5,5,4,3,28
S1,P1,I,2F2B,101,2,2,2,1.042122285000005,1,B1,L,5,5,4,3,28
S1,P1,I,2F2B,102,2,2,2,0.6303839289998905,1,B1,L,5,5,4,3,28
S1,P1,I,1F2B,103,1,2,2,0.7215568640003767,0,B1,L,5,5,4,3,28
S1,P1,I,2F2B,104,2,2,2,0.7603522620001968,1,B1,L,5,5,4,3,28
S1,P1,I,1F1B,105,1,1,1,0.5987927209998816,1,B1,L,5,5,4,3,28
S1,P1,I,1F1B,106,1,1,1,0.512207263000164,1,B1,L,5,5,4,3,28
S1,P1,I,2F2B,107,2,2,2,1.0734142189999147,1,B1,L,5,5,4,3,28
S1,P1,I,1F2B,108,1,2,2,0.7493797189999896,0,B1,L,5,5,4,3,28
S1,P1,I,1F1B,109,1,1,1,0.4566772369998944,1,B1,L,5,5,4,3,28
S1,P1,I,2F1B,110,2,1,1,0.47833642099976714,0,B1,L,5,5,4,3,28
S1,P1,I,1F1B,111,1,1,1,0.49916604600002756,1,B1,L,5,5,4,3,28
S1,P1,I,2F1B,112,2,1,1,0.7316382530002556,0,B1,L,5,5,4,3,28
S1,P1,I,1F1B,113,1,1,1,0.4841253099998539,1,B1,L,5,5,4,3,28
S1,P1,I,1F2B,114,1,2,2,0.5393235759997879,0,B1,L,5,5,4,3,28
S1,P1,I,2F1B,115,2,1,1,0.7168788310000309,0,B1,L,5,5,4,3,28
S1,P1,I,1F2B,116,1,2,2,0.8100101439999889,0,B1,L,5,5,4,3,28
S1,P1,I,2F1B,117,2,1,1,0.5809539570000197,0,B1,L,5,5,4,3,28
S1,P1,I,2F1B,118,2,1,1,1.173617381999975,0,B1,L,5,5,4,3,28
S1,P1,I,1F2B,119,1,2,2,0.8628853990003336,0,B1,L,5,5,4,3,28
S1,P1,I,1F2B,120,1,2,2,0.6787036050000097,0,B1,L,5,5,4,3,28
S1,P1,JA,1F2B,1,1,2,2,0.6774333969997315,0,B2,L,5,5,4,3,28
S1,P1,JA,1F1B,2,1,1,1,0.678790342999946,1,B2,L,5,5,4,3,28
S1,P1,JA,1F1B,3,1,1,1,0.44183129700013524,1,B2,L,5,5,4,3,28
S1,P1,JA,2F1B,4,2,1,1,0.56348284600017,0,B2,L,5,5,4,3,28
S1,P1,JA,2F1B,5,2,1,2,0.9801683390001017,1,B2,L,5,5,4,3,28
S1,P1,JA,2F1B,6,2,1,2,0.7558994720002374,1,B2,L,5,5,4,3,28
S1,P1,JA,1F2B,7,1,2,2,0.648886479000339,0,B2,L,5,5,4,3,28
S1,P1,JA,1F2B,8,1,2,2,0.4809206639997683,0,B2,L,5,5,4,3,28
S1,P1,JA,1F1B,9,1,1,1,0.8860633289996258,1,B2,L,5,5,4,3,28
S1,P1,JA,1F1B,10,1,1,1,1.035103581000385,1,B2,L,5,5,4,3,28
S1,P1,JA,2F2B,11,2,2,2,0.45633140900008584,1,B2,L,5,5,4,3,28
S1,P1,JA,2F2B,12,2,2,2,0.5941243749998648,1,B2,L,5,5,4,3,28
S1,P1,JA,2F2B,13,2,2,2,0.5704443720001109,1,B2,L,5,5,4,3,28
S1,P1,JA,2F1B,14,2,1,1,1.0454467670001577,0,B2,L,5,5,4,3,28
S1,P1,JA,2F1B,15,2,1,1,0.6716182899999694,0,B2,L,5,5,4,3,28
S1,P1,JA,2F2B,16,2,2,2,0.7248053710000022,1,B2,L,5,5,4,3,28
S1,P1,JA,2F1B,17,2,1,2,0.7997308849999172,1,B2,L,5,5,4,3,28
S1,P1,JA,1F2B,18,1,2,2,0.7436952190000738,0,B2,L,5,5,4,3,28
S1,P1,JA,2F1B,19,2,1,1,0.8387025329998323,0,B2,L,5,5,4,3,28
S1,P1,JA,1F2B,20,1,2,2,0.57090340199965794,0,B2,L,5,5,4,3,28
S1,P1,JA,1F2B,21,1,2,2,0.6956972010002573,0,B2,L,5,5,4,3,28
S1,P1,JA,2F1B,22,2,1,1,0.6942281579999872,0,B2,L,5,5,4,3,28
S1,P1,JA,2F1B,23,2,1,1,0.9761274970001068,0,B2,L,5,5,4,3,28
S1,P1,JA,1F2B,24,1,2,2,0.8223522000002959,0,B2,L,5,5,4,3,28
S1,P1,JA,2F1B,25,2,1,1,0.8358074339998893,0,B2,L,5,5,4,3,28
S1,P1,JA,1F2B,26,1,2,2,0.6662437509999108,0,B2,L,5,5,4,3,28
S1,P1,JA,1F1B,27,1,1,1,0.7622812030003843,1,B2,L,5,5,4,3,28
S1,P1,JA,1F2B,28,1,2,2,0.6883144210000864,0,B2,L,5,5,4,3,28
S1,P1,JA,1F1B,29,1,1,1,1.4985993499999495,1,B2,L,5,5,4,3,28
S1,P1,JA,2F1B,30,2,1,1,0.6538695389999702,0,B2,L,5,5,4,3,28
S1,P1,JA,2F2B,31,2,2,2,0.7359651689998827,1,B2,L,5,5,4,3,28
S1,P1,JA,2F2B,32,2,2,2,0.52681268599963,1,B2,L,5,5,4,3,28
S1,P1,JA,2F1B,33,2,1,1,1.2724650969998947,0,B2,L,5,5,4,3,28
S1,P1,JA,1F2B,34,1,2,2,0.8312568460000875,0,B2,L,5,5,4,3,28
S1,P1,JA,1F2B,35,1,2,2,0.5616890650007917,0,B2,L,5,5,4,3,28
S1,P1,JA,2F1B,36,2,1,2,0.9257380669996564,1,B2,L,5,5,4,3,28
S1,P1,JA,2F2B,37,2,2,2,1.2031723270001748,1,B2,L,5,5,4,3,28
S1,P1,JA,2F2B,38,2,2,2,1.1426588659996924,1,B2,L,5,5,4,3,28
S1,P1,JA,1F1B,39,1,1,1,0.5577023160003591,1,B2,L,5,5,4,3,28
S1,P1,JA,2F2B,40,2,2,2,0.7550759949999701,1,B2,L,5,5,4,3,28
S1,P1,JA,2F2B,41,2,2,2,0.7985709350004981,1,B2,L,5,5,4,3,28
S1,P1,JA,1F2B,42,1,2,2,0.5341289809994123,0,B2,L,5,5,4,3,28
S1,P1,JA,1F2B,43,1,2,2,0.8179453780003314,0,B2,L,5,5,4,3,28
S1,P1,JA,1F2B,44,1,2,2,0.5802695140000651,0,B2,L,5,5,4,3,28
S1,P1,JA,2F1B,45,2,1,1,0.5389565729992682,0,B2,L,5,5,4,3,28
S1,P1,JA,2F2B,46,2,2,2,0.627507856000193,1,B2,L,5,5,4,3,28
S1,P1,JA,1F2B,47,1,2,2,0.4434231680006633,0,B2,L,5,5,4,3,28
S1,P1,JA,2F1B,48,2,1,1,0.8166824419995464,0,B2,L,5,5,4,3,28
S1,P1,JA,1F2B,49,1,2,2,0.855200469999545,0,B2,L,5,5,4,3,28
S1,P1,JA,2F2B,50,2,2,2,1.0922742289994858,1,B2,L,5,5,4,3,28
S1,P1,JA,2F2B,51,2,2,2,0.740687624000202,1,B2,L,5,5,4,3,28
S1,P1,JA,1F2B,52,1,2,2,0.9094270039995536,0,B2,L,5,5,4,3,28
S1,P1,JA,1F1B,53,1,1,1,0.8437868959999832,1,B2,L,5,5,4,3,28
S1,P1,JA,2F2B,54,2,2,2,0.5748898949996146,1,B2,L,5,5,4,3,28
S1,P1,JA,2F1B,55,2,1,1,0.7526864940000451,0,B2,L,5,5,4,3,28
S1,P1,JA,1F1B,56,1,1,1,0.5763524579997465,1,B2,L,5,5,4,3,28
S1,P1,JA,1F1B,57,1,1,1,0.6168275639993226,1,B2,L,5,5,4,3,28
S1,P1,JA,2F2B,58,2,2,2,0.7569235119999576,1,B2,L,5,5,4,3,28
S1,P1,JA,1F1B,59,1,1,1,1.098744985999474,1,B2,L,5,5,4,3,28
S1,P1,JA,1F1B,60,1,1,1,1.3126587910001035,1,B2,L,5,5,4,3,28
S1,P1,JA,1F2B,61,1,2,2,0.7221115889997236,0,B2,L,5,5,4,3,28
S1,P1,JA,2F2B,62,2,2,2,0.42282942500060017,1,B2,L,5,5,4,3,28
S1,P1,JA,1F1B,63,1,1,1,0.5487081530000069,1,B2,L,5,5,4,3,28
S1,P1,JA,1F2B,64,1,2,2,0.8735946229999172,0,B2,L,5,5,4,3,28
S1,P1,JA,2F2B,65,2,2,2,2.201140498999848,1,B2,L,5,5,4,3,28
S1,P1,JA,2F1B,66,2,1,1,0.9049080509994383,0,B2,L,5,5,4,3,28
S1,P1,JA,2F2B,67,2,2,2,0.5403778399995645,1,B2,L,5,5,4,3,28
S1,P1,JA,2F1B,68,2,1,1,0.8090327519994389,0,B2,L,5,5,4,3,28
S1,P1,JA,1F1B,69,1,1,1,0.586760563000098,1,B2,L,5,5,4,3,28
S1,P1,JA,2F2B,70,2,2,2,0.6454538640000465,1,B2,L,5,5,4,3,28
S1,P1,JA,2F1B,71,2,1,1,0.5601915860006557,0,B2,L,5,5,4,3,28
S1,P1,JA,2F2B,72,2,2,2,1.013922198999353,1,B2,L,5,5,4,3,28
S1,P1,JA,1F1B,73,1,1,1,0.5522269729999607,1,B2,L,5,5,4,3,28
S1,P1,JA,1F1B,74,1,1,1,0.6073589850002463,1,B2,L,5,5,4,3,28
S1,P1,JA,1F1B,75,1,1,1,0.478952376000052,1,B2,L,5,5,4,3,28
S1,P1,JA,1F2B,76,1,2,2,0.5878116470003079,0,B2,L,5,5,4,3,28
S1,P1,JA,2F2B,77,2,2,2,1.1229858229999081,1,B2,L,5,5,4,3,28
S1,P1,JA,1F1B,78,1,1,1,1.1864958670003034,1,B2,L,5,5,4,3,28
S1,P1,JA,1F2B,79,1,2,2,1.0377611670000988,0,B2,L,5,5,4,3,28
S1,P1,JA,2F1B,80,2,1,1,1.0658009019998644,0,B2,L,5,5,4,3,28
S1,P1,JA,1F1B,81,1,1,1,0.6693006989999049,1,B2,L,5,5,4,3,28
S1,P1,JA,2F1B,82,2,1,1,0.5236485759996867,0,B2,L,5,5,4,3,28
S1,P1,JA,2F1B,83,2,1,1,1.5462908299996343,0,B2,L,5,5,4,3,28
S1,P1,JA,2F1B,84,2,1,1,0.9372898739993616,0,B2,L,5,5,4,3,28
S1,P1,JA,2F2B,85,2,2,2,1.1902731179998227,1,B2,L,5,5,4,3,28
S1,P1,JA,2F1B,86,2,1,1,1.1350706640005228,0,B2,L,5,5,4,3,28
S1,P1,JA,1F2B,87,1,2,2,0.5965126080000118,0,B2,L,5,5,4,3,28
S1,P1,JA,1F1B,88,1,1,1,1.248047459999725,1,B2,L,5,5,4,3,28
S1,P1,JA,1F2B,89,1,2,2,0.9488802509995367,0,B2,L,5,5,4,3,28
S1,P1,JA,2F2B,90,2,2,2,0.8617830599996523,1,B2,L,5,5,4,3,28
S1,P1,JA,2F1B,91,2,1,2,0.7292461840006581,1,B2,L,5,5,4,3,28
S1,P1,JA,2F2B,92,2,2,2,0.6679375270005039,1,B2,L,5,5,4,3,28
S1,P1,JA,1F1B,93,1,1,1,1.2730717519998507,1,B2,L,5,5,4,3,28
S1,P1,JA,1F2B,94,1,2,2,0.7585413040005733,0,B2,L,5,5,4,3,28
S1,P1,JA,1F1B,95,1,1,1,0.8802384849996088,1,B2,L,5,5,4,3,28
S1,P1,JA,1F2B,96,1,2,2,0.47589061399958155,0,B2,L,5,5,4,3,28
S1,P1,JA,1F2B,97,1,2,2,0.3104975860005652,0,B2,L,5,5,4,3,28
S1,P1,JA,2F1B,98,2,1,1,0.6459694760005732,0,B2,L,5,5,4,3,28
S1,P1,JA,1F1B,99,1,1,1,0.6108374310006184,1,B2,L,5,5,4,3,28
S1,P1,JA,1F1B,100,1,1,1,0.8869909650002228,1,B2,L,5,5,4,3,28
S1,P1,JA,2F2B,101,2,2,2,1.3195679459995517,1,B2,L,5,5,4,3,28
S1,P1,JA,1F2B,102,1,2,2,0.7380138070002431,0,B2,L,5,5,4,3,28
S1,P1,JA,1F1B,103,1,1,1,0.653476292999585,1,B2,L,5,5,4,3,28
S1,P1,JA,1F1B,104,1,1,1,0.8778421060005712,1,B2,L,5,5,4,3,28
S1,P1,JA,2F2B,105,2,2,2,0.9199734829999215,1,B2,L,5,5,4,3,28
S1,P1,JA,2F1B,106,2,1,1,1.2077633310000238,0,B2,L,5,5,4,3,28
S1,P1,JA,2F1B,107,2,1,1,1.058601644999726,0,B2,L,5,5,4,3,28
S1,P1,JA,1F1B,108,1,1,1,0.7728791789995739,1,B2,L,5,5,4,3,28
S1,P1,JA,1F1B,109,1,1,1,0.7989190490006877,1,B2,L,5,5,4,3,28
S1,P1,JA,1F1B,110,1,1,1,0.9453546309996455,1,B2,L,5,5,4,3,28
S1,P1,JA,2F2B,111,2,2,2,0.5932984459996078,1,B2,L,5,5,4,3,28
S1,P1,JA,1F2B,112,1,2,2,0.7742036889994779,0,B2,L,5,5,4,3,28
S1,P1,JA,2F2B,113,2,2,2,1.1017111829996793,1,B2,L,5,5,4,3,28
S1,P1,JA,2F2B,114,2,2,2,0.6402572460001466,1,B2,L,5,5,4,3,28
S1,P1,JA,1F2B,115,1,2,2,0.7508643780001876,0,B2,L,5,5,4,3,28
S1,P1,JA,1F2B,116,1,2,2,0.9219608069997776,0,B2,L,5,5,4,3,28
S1,P1,JA,1F1B,117,1,1,1,1.2583456740003385,1,B2,L,5,5,4,3,28
S1,P1,JA,2F1B,118,2,1,1,0.9069955369996023,0,B2,L,5,5,4,3,28
S1,P1,JA,2F1B,119,2,1,1,0.7042684909993113,0,B2,L,5,5,4,3,28
S1,P1,JA,2F2B,120,2,2,2,0.8241015989997322,1,B2,L,5,5,4,3,28
S1,P1,C,2F1B,1,2,1,1,0.8312270870001157,0,B3,L,5,5,4,3,28
S1,P1,C,2F1B,2,2,1,1,0.6352780739998707,0,B3,L,5,5,4,3,28
S1,P1,C,1F1B,3,1,1,1,0.7261280049997367,1,B3,L,5,5,4,3,28
S1,P1,C,2F2B,4,2,2,2,0.5060424009998314,1,B3,L,5,5,4,3,28
S1,P1,C,2F2B,5,2,2,2,0.49046877899945684,1,B3,L,5,5,4,3,28
S1,P1,C,2F1B,6,2,1,1,0.5959700470002645,0,B3,L,5,5,4,3,28
S1,P1,C,1F1B,7,1,1,1,0.5573121079996781,1,B3,L,5,5,4,3,28
S1,P1,C,1F1B,8,1,1,1,0.5177449229995545,1,B3,L,5,5,4,3,28
S1,P1,C,1F2B,9,1,2,2,0.5716675569992731,0,B3,L,5,5,4,3,28
S1,P1,C,1F2B,10,1,2,2,0.5439028049995613,0,B3,L,5,5,4,3,28
S1,P1,C,1F2B,11,1,2,2,0.5775139739998849,0,B3,L,5,5,4,3,28
S1,P1,C,2F2B,12,2,2,2,0.5786480510005276,1,B3,L,5,5,4,3,28
S1,P1,C,2F1B,13,2,1,1,0.7155995760003862,0,B3,L,5,5,4,3,28
S1,P1,C,2F2B,14,2,2,2,0.39774160100023437,1,B3,L,5,5,4,3,28
S1,P1,C,2F1B,15,2,1,2,0.6653805719997763,1,B3,L,5,5,4,3,28
S1,P1,C,2F2B,16,2,2,2,0.4797286539997003,1,B3,L,5,5,4,3,28
S1,P1,C,1F2B,17,1,2,2,0.5334271919991806,0,B3,L,5,5,4,3,28
S1,P1,C,1F1B,18,1,1,1,0.5399477829996613,1,B3,L,5,5,4,3,28
S1,P1,C,1F1B,19,1,1,1,0.45375827600037155,1,B3,L,5,5,4,3,28
S1,P1,C,1F2B,20,1,2,1,1.085286601000007,1,B3,L,5,5,4,3,28
S1,P1,C,2F2B,21,2,2,2,0.4102226770000925,1,B3,L,5,5,4,3,28
S1,P1,C,1F2B,22,1,2,2,0.44235662700066314,0,B3,L,5,5,4,3,28
S1,P1,C,2F1B,23,2,1,1,0.47965737899994565,0,B3,L,5,5,4,3,28
S1,P1,C,2F1B,24,2,1,1,1.1447750869992888,0,B3,L,5,5,4,3,28
S1,P1,C,1F1B,25,1,1,1,0.40819455000018934,1,B3,L,5,5,4,3,28
S1,P1,C,1F2B,26,1,2,2,0.9013187119999202,0,B3,L,5,5,4,3,28
S1,P1,C,1F1B,27,1,1,1,0.6101812699998845,1,B3,L,5,5,4,3,28
S1,P1,C,2F1B,28,2,1,1,0.4182638759994006,0,B3,L,5,5,4,3,28
S1,P1,C,2F2B,29,2,2,2,0.5917193000004772,1,B3,L,5,5,4,3,28
S1,P1,C,1F1B,30,1,1,1,0.5517089929999202,1,B3,L,5,5,4,3,28
S1,P1,C,1F1B,31,1,1,1,0.7830058119998284,1,B3,L,5,5,4,3,28
S1,P1,C,1F1B,32,1,1,1,0.4136025770003471,1,B3,L,5,5,4,3,28
S1,P1,C,2F1B,33,2,1,1,0.6710125830004472,0,B3,L,5,5,4,3,28
S1,P1,C,1F2B,34,1,2,2,0.6598163059998114,0,B3,L,5,5,4,3,28
S1,P1,C,1F1B,35,1,1,1,0.8287791069997184,1,B3,L,5,5,4,3,28
S1,P1,C,1F2B,36,1,2,2,0.4778791889993954,0,B3,L,5,5,4,3,28
S1,P1,C,2F1B,37,2,1,1,1.0011197490002814,0,B3,L,5,5,4,3,28
S1,P1,C,1F2B,38,1,2,2,0.865068006999536,0,B3,L,5,5,4,3,28
S1,P1,C,2F1B,39,2,1,1,1.0952996779997193,0,B3,L,5,5,4,3,28
S1,P1,C,2F1B,40,2,1,1,0.6500254239999776,0,B3,L,5,5,4,3,28
S1,P1,C,2F1B,41,2,1,1,0.6097535720000451,0,B3,L,5,5,4,3,28
S1,P1,C,1F2B,42,1,2,2,0.5117186739998942,0,B3,L,5,5,4,3,28
S1,P1,C,2F2B,43,2,2,2,0.45189131799997995,1,B3,L,5,5,4,3,28
S1,P1,C,1F1B,44,1,1,1,0.5196101430001363,1,B3,L,5,5,4,3,28
S1,P1,C,2F2B,45,2,2,2,0.6140074759996423,1,B3,L,5,5,4,3,28
S1,P1,C,1F1B,46,1,1,1,0.7556131319997803,1,B3,L,5,5,4,3,28
S1,P1,C,2F2B,47,2,2,2,0.714078033000078,1,B3,L,5,5,4,3,28
S1,P1,C,1F2B,48,1,2,2,0.46282111599975906,0,B3,L,5,5,4,3,28
S1,P1,C,2F1B,49,2,1,1,0.6825015779995738,0,B3,L,5,5,4,3,28
S1,P1,C,1F1B,50,1,1,1,0.4345153919994118,1,B3,L,5,5,4,3,28
S1,P1,C,2F1B,51,2,1,1,0.5081959379995169,0,B3,L,5,5,4,3,28
S1,P1,C,2F1B,52,2,1,1,0.4639007940004376,0,B3,L,5,5,4,3,28
S1,P1,C,2F1B,53,2,1,1,0.6596169590002319,0,B3,L,5,5,4,3,28
S1,P1,C,1F1B,54,1,1,1,0.5068053929999223,1,B3,L,5,5,4,3,28
S1,P1,C,2F1B,55,2,1,1,0.6488083610001922,0,B3,L,5,5,4,3,28
S1,P1,C,1F1B,56,1,1,1,0.6037226159996862,1,B3,L,5,5,4,3,28
S1,P1,C,1F2B,57,1,2,2,0.8737716449995787,0,B3,L,5,5,4,3,28
S1,P1,C,1F2B,58,1,2,2,0.4929146199992829,0,B3,L,5,5,4,3,28
S1,P1,C,1F1B,59,1,1,1,0.7352446920003786,1,B3,L,5,5,4,3,28
S1,P1,C,2F2B,60,2,2,2,1.6150473329998931,1,B3,L,5,5,4,3,28
S1,P1,C,1F2B,61,1,2,2,0.46015279200037185,0,B3,L,5,5,4,3,28
S1,P1,C,2F2B,62,2,2,2,0.3413684340002874,1,B3,L,5,5,4,3,28
S1,P1,C,2F2B,63,2,2,2,0.36454326500006573,1,B3,L,5,5,4,3,28
S1,P1,C,1F1B,64,1,1,1,0.72537776099943585,1,B3,L,5,5,4,3,28
S1,P1,C,2F2B,65,2,2,2,0.5244833380002092,1,B3,L,5,5,4,3,28
S1,P1,C,2F1B,66,2,1,1,0.5410196630000428,0,B3,L,5,5,4,3,28
S1,P1,C,2F2B,67,2,2,2,0.5217458870001792,1,B3,L,5,5,4,3,28
S1,P1,C,2F1B,68,2,1,1,0.5457168299999466,0,B3,L,5,5,4,3,28
S1,P1,C,1F2B,69,1,2,2,0.6152194569995117,0,B3,L,5,5,4,3,28
S1,P1,C,2F1B,70,2,1,2,1.0447308949997023,1,B3,L,5,5,4,3,28
S1,P1,C,2F2B,71,2,2,2,0.5593775179995646,1,B3,L,5,5,4,3,28
S1,P1,C,2F2B,72,2,2,2,0.45700678499997593,1,B3,L,5,5,4,3,28
S1,P1,C,1F2B,73,1,2,2,0.5351057099996979,0,B3,L,5,5,4,3,28
S1,P1,C,1F2B,74,1,2,2,0.47540529200068704,0,B3,L,5,5,4,3,28
S1,P1,C,1F1B,75,1,1,2,1.183177169999908,0,B3,L,5,5,4,3,28
S1,P1,C,1F2B,76,1,2,2,0.5204909200001566,0,B3,L,5,5,4,3,28
S1,P1,C,1F1B,77,1,1,2,0.5685537350000232,0,B3,L,5,5,4,3,28
S1,P1,C,2F1B,78,2,1,2,0.7352556280002318,1,B3,L,5,5,4,3,28
S1,P1,C,1F2B,79,1,2,2,0.379619391000233,0,B3,L,5,5,4,3,28
S1,P1,C,2F1B,80,2,1,1,0.9311113570001908,0,B3,L,5,5,4,3,28
S1,P1,C,1F2B,81,1,2,1,0.6950025750002169,1,B3,L,5,5,4,3,28
S1,P1,C,2F2B,82,2,2,2,0.4868114210003114,1,B3,L,5,5,4,3,28
S1,P1,C,1F2B,83,1,2,2,0.469665251999686,0,B3,L,5,5,4,3,28
S1,P1,C,2F2B,84,2,2,2,0.5522462910003014,1,B3,L,5,5,4,3,28
S1,P1,C,1F1B,85,1,1,1,0.5651382420001028,1,B3,L,5,5,4,3,28
S1,P1,C,1F2B,86,1,2,2,0.3433893680003166,0,B3,L,5,5,4,3,28
S1,P1,C,2F2B,87,2,2,2,0.39978960899952654,1,B3,L,5,5,4,3,28
S1,P1,C,1F1B,88,1,1,1,0.6971795629997359,1,B3,L,5,5,4,3,28
S1,P1,C,2F2B,89,2,2,2,1.285960416999842,1,B3,L,5,5,4,3,28
S1,P1,C,2F2B,90,2,2,2,0.4254112759999771,1,B3,L,5,5,4,3,28
S1,P1,C,1F1B,91,1,1,1,0.9380860400005986,1,B3,L,5,5,4,3,28
S1,P1,C,1F1B,92,1,1,1,0.41654913000002125,1,B3,L,5,5,4,3,28
S1,P1,C,2F1B,93,2,1,1,0.44670311599929846,0,B3,L,5,5,4,3,28
S1,P1,C,2F2B,94,2,2,2,0.6459208559999752,1,B3,L,5,5,4,3,28
S1,P1,C,2F1B,95,2,1,1,0.8681668680001167,0,B3,L,5,5,4,3,28
S1,P1,C,1F2B,96,1,2,2,0.47621247099959874,0,B3,L,5,5,4,3,28
S1,P1,C,2F1B,97,2,1,1,0.6603050300000177,0,B3,L,5,5,4,3,28
S1,P1,C,1F2B,98,1,2,2,0.4401891050001723,0,B3,L,5,5,4,3,28
S1,P1,C,2F1B,99,2,1,1,0.6570377429998189,0,B3,L,5,5,4,3,28
S1,P1,C,2F2B,100,2,2,2,0.42119549499966524,1,B3,L,5,5,4,3,28
S1,P1,C,1F1B,101,1,1,1,0.5447509109999373,1,B3,L,5,5,4,3,28
S1,P1,C,1F2B,102,1,2,2,0.6994367819997933,0,B3,L,5,5,4,3,28
S1,P1,C,2F2B,103,2,2,2,0.6432769089997237,1,B3,L,5,5,4,3,28
S1,P1,C,2F1B,104,2,1,1,0.7371488179996959,0,B3,L,5,5,4,3,28
S1,P1,C,2F2B,105,2,2,2,0.43137941200075147,1,B3,L,5,5,4,3,28
S1,P1,C,2F2B,106,2,2,2,0.4626044329997967,1,B3,L,5,5,4,3,28
S1,P1,C,1F2B,107,1,2,2,0.4450441849994604,0,B3,L,5,5,4,3,28
S1,P1,C,2F1B,108,2,1,1,0.6117450619994997,0,B3,L,5,5,4,3,28
S1,P1,C,1F2B,109,1,2,2,0.5267044599995643,0,B3,L,5,5,4,3,28
S1,P1,C,1F2B,110,1,2,2,0.4502322260004803,0,B3,L,5,5,4,3,28
S1,P1,C,1F1B,111,1,1,1,0.672290442999838,1,B3,L,5,5,4,3,28
S1,P1,C,1F2B,112,1,2,2,0.5325834619998204,0,B3,L,5,5,4,3,28
S1,P1,C,2F2B,113,2,2,2,1.3427590559995224,1,B3,L,5,5,4,3,28
S1,P1,C,2F1B,114,2,1,1,0.6953880999999456,0,B3,L,5,5,4,3,28
S1,P1,C,2F2B,115,2,2,2,0.6473436739997851,1,B3,L,5,5,4,3,28
S1,P1,C,1F1B,116,1,1,1,0.7166773079998165,1,B3,L,5,5,4,3,28
S1,P1,C,1F1B,117,1,1,1,0.4455840040000112,1,B3,L,5,5,4,3,28
S1,P1,C,1F1B,118,1,1,1,0.6123191950000546,1,B3,L,5,5,4,3,28
S1,P1,C,1F1B,119,1,1,1,0.5643893819997174,1,B3,L,5,5,4,3,28
S1,P1,C,2F2B,120,2,2,2,0.9703984259995195,1,B3,L,5,5,4,3,28
S2,P1,JA,1F2B,1,1,2,1,0.6014294040001005,1,B1,R,5,5,4,4,24
S2,P1,JA,1F1B,2,1,1,1,0.42075638500000423,1,B1,R,5,5,4,4,24
S2,P1,JA,1F1B,3,1,1,1,0.49583325899993724,1,B1,R,5,5,4,4,24
S2,P1,JA,2F1B,4,2,1,2,0.43447474300000977,1,B1,R,5,5,4,4,24
S2,P1,JA,2F1B,5,2,1,2,0.5221746439997332,1,B1,R,5,5,4,4,24
S2,P1,JA,2F1B,6,2,1,2,0.4169038250001904,1,B1,R,5,5,4,4,24
S2,P1,JA,1F2B,7,1,2,2,0.426900243000091,0,B1,R,5,5,4,4,24
S2,P1,JA,1F2B,8,1,2,2,0.446928545999981,0,B1,R,5,5,4,4,24
S2,P1,JA,1F1B,9,1,1,1,0.3420690719999584,1,B1,R,5,5,4,4,24
S2,P1,JA,1F1B,10,1,1,1,0.4331120900001224,1,B1,R,5,5,4,4,24
S2,P1,JA,2F2B,11,2,2,2,0.3553427780002494,1,B1,R,5,5,4,4,24
S2,P1,JA,2F2B,12,2,2,2,0.40709895400004825,1,B1,R,5,5,4,4,24
S2,P1,JA,2F2B,13,2,2,2,0.38547250300007363,1,B1,R,5,5,4,4,24
S2,P1,JA,2F1B,14,2,1,1,0.5234768209998037,0,B1,R,5,5,4,4,24
S2,P1,JA,2F1B,15,2,1,2,0.5846053329996721,1,B1,R,5,5,4,4,24
S2,P1,JA,2F2B,16,2,2,2,0.4738330719997066,1,B1,R,5,5,4,4,24
S2,P1,JA,2F1B,17,2,1,2,0.5457132420001471,1,B1,R,5,5,4,4,24
S2,P1,JA,1F2B,18,1,2,2,0.40168087700021715,0,B1,R,5,5,4,4,24
S2,P1,JA,2F1B,19,2,1,2,0.4677145539999401,1,B1,R,5,5,4,4,24
S2,P1,JA,1F2B,20,1,2,2,0.4109048709997296,0,B1,R,5,5,4,4,24
S2,P1,JA,1F2B,21,1,2,2,0.6057039300003453,0,B1,R,5,5,4,4,24
S2,P1,JA,2F1B,22,2,1,2,0.8312097510001877,1,B1,R,5,5,4,4,24
S2,P1,JA,2F1B,23,2,1,2,0.49516056700031186,1,B1,R,5,5,4,4,24
S2,P1,JA,1F2B,24,1,2,2,1.0243447610000658,0,B1,R,5,5,4,4,24
S2,P1,JA,2F1B,25,2,1,2,0.538812685999801,1,B1,R,5,5,4,4,24
S2,P1,JA,1F2B,26,1,2,2,0.4832514969998556,0,B1,R,5,5,4,4,24
S2,P1,JA,1F1B,27,1,1,1,0.4472843360003935,1,B1,R,5,5,4,4,24
S2,P1,JA,1F2B,28,1,2,2,0.5643059500002892,0,B1,R,5,5,4,4,24
S2,P1,JA,1F1B,29,1,1,1,0.5056340689998251,1,B1,R,5,5,4,4,24
S2,P1,JA,2F1B,30,2,1,2,0.6908640639999248,1,B1,R,5,5,4,4,24
S2,P1,JA,2F2B,31,2,2,2,0.6639302690000477,1,B1,R,5,5,4,4,24
S2,P1,JA,2F2B,32,2,2,2,0.4858256919997075,1,B1,R,5,5,4,4,24
S2,P1,JA,2F1B,33,2,1,2,0.5344718209998973,1,B1,R,5,5,4,4,24
S2,P1,JA,1F2B,34,1,2,2,0.6323088869999083,0,B1,R,5,5,4,4,24
S2,P1,JA,1F2B,35,1,2,2,0.5106945290008298,0,B1,R,5,5,4,4,24
S2,P1,JA,2F1B,36,2,1,2,0.7447753149999699,1,B1,R,5,5,4,4,24
S2,P1,JA,2F2B,37,2,2,2,0.477175017999798,1,B1,R,5,5,4,4,24
S2,P1,JA,2F2B,38,2,2,2,0.48765806399933354,1,B1,R,5,5,4,4,24
S2,P1,JA,1F1B,39,1,1,1,0.4076894830004676,1,B1,R,5,5,4,4,24
S2,P1,JA,2F2B,40,2,2,2,0.5010713540004872,1,B1,R,5,5,4,4,24
S2,P1,JA,2F2B,41,2,2,2,0.666573599000003,1,B1,R,5,5,4,4,24
S2,P1,JA,1F2B,42,1,2,2,0.8671201950000977,0,B1,R,5,5,4,4,24
S2,P1,JA,1F2B,43,1,2,2,0.596942164000211,0,B1,R,5,5,4,4,24
S2,P1,JA,1F2B,44,1,2,1,0.6412670649997381,1,B1,R,5,5,4,4,24
S2,P1,JA,2F1B,45,2,1,2,0.7049467629994979,1,B1,R,5,5,4,4,24
S2,P1,JA,2F2B,46,2,2,1,0.7535054230002061,0,B1,R,5,5,4,4,24
S2,P1,JA,1F2B,47,1,2,1,0.8514163320005537,1,B1,R,5,5,4,4,24
S2,P1,JA,2F1B,48,2,1,1,0.5496772989999954,0,B1,R,5,5,4,4,24
S2,P1,JA,1F2B,49,1,2,1,0.844203703999483,1,B1,R,5,5,4,4,24
S2,P1,JA,2F2B,50,2,2,2,0.628294573999483,1,B1,R,5,5,4,4,24
S2,P1,JA,2F2B,51,2,2,1,0.8047181109996018,0,B1,R,5,5,4,4,24
S2,P1,JA,1F2B,52,1,2,1,0.8564384689998406,1,B1,R,5,5,4,4,24
S2,P1,JA,1F1B,53,1,1,1,0.5857853219995377,1,B1,R,5,5,4,4,24
S2,P1,JA,2F2B,54,2,2,2,0.49091278400010196,1,B1,R,5,5,4,4,24
S2,P1,JA,2F1B,55,2,1,2,0.9056905830002506,1,B1,R,5,5,4,4,24
S2,P1,JA,1F1B,56,1,1,1,0.4203632369999468,1,B1,R,5,5,4,4,24
S2,P1,JA,1F1B,57,1,1,1,0.38982869499977824,1,B1,R,5,5,4,4,24
S2,P1,JA,2F2B,58,2,2,2,0.5109160060001159,1,B1,R,5,5,4,4,24
S2,P1,JA,1F1B,59,1,1,1,0.55076500999985,1,B1,R,5,5,4,4,24
S2,P1,JA,1F1B,60,1,1,1,0.47062832299980073,1,B1,R,5,5,4,4,24
S2,P1,JA,1F2B,61,1,2,1,0.7081208009994953,1,B1,R,5,5,4,4,24
S2,P1,JA,2F2B,62,2,2,2,0.5518482200004655,1,B1,R,5,5,4,4,24
S2,P1,JA,1F1B,63,1,1,1,0.4256889560001582,1,B1,R,5,5,4,4,24
S2,P1,JA,1F2B,64,1,2,2,0.6066028830000505,0,B1,R,5,5,4,4,24
S2,P1,JA,2F2B,65,2,2,2,0.8961877800002185,1,B1,R,5,5,4,4,24
S2,P1,JA,2F1B,66,2,1,1,0.9629086830000233,0,B1,R,5,5,4,4,24
S2,P1,JA,2F2B,67,2,2,2,0.5653826099996877,1,B1,R,5,5,4,4,24
S2,P1,JA,2F1B,68,2,1,2,0.5470651690002342,1,B1,R,5,5,4,4,24
S2,P1,JA,1F1B,69,1,1,1,0.4797897580001518,1,B1,R,5,5,4,4,24
S2,P1,JA,2F2B,70,2,2,2,0.5024509869999747,1,B1,R,5,5,4,4,24
S2,P1,JA,2F1B,71,2,1,2,0.6151977350000379,1,B1,R,5,5,4,4,24
S2,P1,JA,2F2B,72,2,2,2,0.6239482040000439,1,B1,R,5,5,4,4,24
S2,P1,JA,1F1B,73,1,1,1,0.4102522000002864,1,B1,R,5,5,4,4,24
S2,P1,JA,1F1B,74,1,1,1,0.5003517300001477,1,B1,R,5,5,4,4,24
S2,P1,JA,1F1B,75,1,1,1,0.4709322999997312,1,B1,R,5,5,4,4,24
S2,P1,JA,1F2B,76,1,2,2,0.47282424199966044,0,B1,R,5,5,4,4,24
S2,P1,JA,2F2B,77,2,2,2,0.4889873960000841,1,B1,R,5,5,4,4,24
S2,P1,JA,1F1B,78,1,1,1,0.43252739700074017,1,B1,R,5,5,4,4,24
S2,P1,JA,1F2B,79,1,2,2,0.5117742700003873,0,B1,R,5,5,4,4,24
S2,P1,JA,2F1B,80,2,1,2,0.6128014559999428,1,B1,R,5,5,4,4,24
S2,P1,JA,1F1B,81,1,1,1,0.5472805150002387,1,B1,R,5,5,4,4,24
S2,P1,JA,2F1B,82,2,1,2,0.5376122709994888,1,B1,R,5,5,4,4,24
S2,P1,JA,2F1B,83,2,1,2,0.5212741499999538,1,B1,R,5,5,4,4,24
S2,P1,JA,2F1B,84,2,1,2,0.5312718619998122,1,B1,R,5,5,4,4,24
S2,P1,JA,2F2B,85,2,2,2,0.4162724829993749,1,B1,R,5,5,4,4,24
S2,P1,JA,2F1B,86,2,1,2,0.44906565500059514,1,B1,R,5,5,4,4,24
S2,P1,JA,1F2B,87,1,2,2,0.41353855799934536,0,B1,R,5,5,4,4,24
S2,P1,JA,1F1B,88,1,1,2,0.6220739789996514,0,B1,R,5,5,4,4,24
S2,P1,JA,1F2B,89,1,2,2,0.39787247799995384,0,B1,R,5,5,4,4,24
S2,P1,JA,2F2B,90,2,2,2,0.43380900000011025,1,B1,R,5,5,4,4,24
S2,P1,JA,2F1B,91,2,1,2,0.6082585490003112,1,B1,R,5,5,4,4,24
S2,P1,JA,2F2B,92,2,2,2,0.4169320350001726,1,B1,R,5,5,4,4,24
S2,P1,JA,1F1B,93,1,1,2,0.47108282200042595,0,B1,R,5,5,4,4,24
S2,P1,JA,1F2B,94,1,2,2,0.39552663100039354,0,B1,R,5,5,4,4,24
S2,P1,JA,1F1B,95,1,1,1,0.3952601490000234,1,B1,R,5,5,4,4,24
S2,P1,JA,1F2B,96,1,2,2,0.3778677880000032,0,B1,R,5,5,4,4,24
S2,P1,JA,1F2B,97,1,2,2,0.46049730100003217,0,B1,R,5,5,4,4,24
S2,P1,JA,2F1B,98,2,1,2,0.5759736650006744,1,B1,R,5,5,4,4,24
S2,P1,JA,1F1B,99,1,1,1,0.5068250280000939,1,B1,R,5,5,4,4,24
S2,P1,JA,1F1B,100,1,1,1,0.42300232900015544,1,B1,R,5,5,4,4,24
S2,P1,JA,2F2B,101,2,2,2,0.4615747640000336,1,B1,R,5,5,4,4,24
S2,P1,JA,1F2B,102,1,2,2,0.46301646099982463,0,B1,R,5,5,4,4,24
S2,P1,JA,1F1B,103,1,1,1,0.45546639599979244,1,B1,R,5,5,4,4,24
S2,P1,JA,1F1B,104,1,1,1,0.43582943600085855,1,B1,R,5,5,4,4,24
S2,P1,JA,2F2B,105,2,2,2,0.49798302999988664,1,B1,R,5,5,4,4,24
S2,P1,JA,2F1B,106,2,1,2,0.9697896210000181,1,B1,R,5,5,4,4,24
S2,P1,JA,2F1B,107,2,1,2,0.6676196159996834,1,B1,R,5,5,4,4,24
S2,P1,JA,1F1B,108,1,1,1,0.5649005080003917,1,B1,R,5,5,4,4,24
S2,P1,JA,1F1B,109,1,1,1,0.47490047800056345,1,B1,R,5,5,4,4,24
S2,P1,JA,1F1B,110,1,1,1,0.4753318209995996,1,B1,R,5,5,4,4,24
S2,P1,JA,2F2B,111,2,2,2,0.7862935579996702,1,B1,R,5,5,4,4,24
S2,P1,JA,1F2B,112,1,2,2,0.6652161579995663,0,B1,R,5,5,4,4,24
S2,P1,JA,2F2B,113,2,2,2,0.4557132809995892,1,B1,R,5,5,4,4,24
S2,P1,JA,2F2B,114,2,2,2,0.46028135000051407,1,B1,R,5,5,4,4,24
S2,P1,JA,1F2B,115,1,2,2,0.4028748260006978,0,B1,R,5,5,4,4,24
S2,P1,JA,1F2B,116,1,2,2,0.4999472279996553,0,B1,R,5,5,4,4,24
S2,P1,JA,1F1B,117,1,1,1,0.3853478900000482,1,B1,R,5,5,4,4,24
S2,P1,JA,2F1B,118,2,1,2,0.5329697139995915,1,B1,R,5,5,4,4,24
S2,P1,JA,2F1B,119,2,1,2,0.4502672659991731,1,B1,R,5,5,4,4,24
S2,P1,JA,2F2B,120,2,2,2,0.43807627899968793,1,B1,R,5,5,4,4,24
S2,P1,I,2F1B,1,2,1,2,0.4577392430001055,1,B2,R,5,5,4,4,24
S2,P1,I,1F2B,2,1,2,2,0.41119417899972177,0,B2,R,5,5,4,4,24
S2,P1,I,2F1B,3,2,1,2,0.4996870380000473,1,B2,R,5,5,4,4,24
S2,P1,I,1F1B,4,1,1,1,0.595458914000119,1,B2,R,5,5,4,4,24
S2,P1,I,2F2B,5,2,2,2,0.35430041999916284,1,B2,R,5,5,4,4,24
S2,P1,I,1F2B,6,1,2,2,0.38021817699973326,0,B2,R,5,5,4,4,24
S2,P1,I,2F1B,7,2,1,2,0.6739642709999316,1,B2,R,5,5,4,4,24
S2,P1,I,1F2B,8,1,2,2,0.39011234899953706,0,B2,R,5,5,4,4,24
S2,P1,I,1F1B,9,1,1,1,0.6806477989994164,1,B2,R,5,5,4,4,24
S2,P1,I,2F2B,10,2,2,2,0.40750455200031865,1,B2,R,5,5,4,4,24
S2,P1,I,1F1B,11,1,1,1,0.5273123560000386,1,B2,R,5,5,4,4,24
S2,P1,I,1F1B,12,1,1,1,0.49019514200062986,1,B2,R,5,5,4,4,24
S2,P1,I,1F1B,13,1,1,1,0.5378526589993271,1,B2,R,5,5,4,4,24
S2,P1,I,2F1B,14,2,1,2,0.6466138980003961,1,B2,R,5,5,4,4,24
S2,P1,I,2F1B,15,2,1,2,0.5165762109991192,1,B2,R,5,5,4,4,24
S2,P1,I,1F1B,16,1,1,1,0.5676849110004696,1,B2,R,5,5,4,4,24
S2,P1,I,2F2B,17,2,2,2,0.4944446870003958,1,B2,R,5,5,4,4,24
S2,P1,I,1F2B,18,1,2,2,0.5485390499998175,0,B2,R,5,5,4,4,24
S2,P1,I,2F2B,19,2,2,2,0.4252849990007235,1,B2,R,5,5,4,4,24
S2,P1,I,2F2B,20,2,2,2,0.46503157900042424,1,B2,R,5,5,4,4,24
S2,P1,I,1F2B,21,1,2,2,0.45364505299949087,0,B2,R,5,5,4,4,24
S2,P1,I,1F2B,22,1,2,2,0.38848986300035904,0,B2,R,5,5,4,4,24
S2,P1,I,2F1B,23,2,1,2,0.6081766609995611,1,B2,R,5,5,4,4,24
S2,P1,I,2F1B,24,2,1,2,1.4564460769997822,1,B2,R,5,5,4,4,24
S2,P1,I,1F2B,25,1,2,2,0.45031228300013026,0,B2,R,5,5,4,4,24
S2,P1,I,1F2B,26,1,2,2,0.4451248539999142,0,B2,R,5,5,4,4,24
S2,P1,I,2F2B,27,2,2,2,0.40329695000036736,1,B2,R,5,5,4,4,24
S2,P1,I,2F1B,28,2,1,2,0.600521659000151,1,B2,R,5,5,4,4,24
S2,P1,I,1F1B,29,1,1,1,0.8485661140002776,1,B2,R,5,5,4,4,24
S2,P1,I,2F1B,30,2,1,2,0.6305635250000705,1,B2,R,5,5,4,4,24
S2,P1,I,1F1B,31,1,1,2,0.5431426280001688,0,B2,R,5,5,4,4,24
S2,P1,I,1F1B,32,1,1,2,0.42858309599978384,0,B2,R,5,5,4,4,24
S2,P1,I,2F1B,33,2,1,2,0.44683843100028753,1,B2,R,5,5,4,4,24
S2,P1,I,2F1B,34,2,1,2,0.39850509600000805,1,B2,R,5,5,4,4,24
S2,P1,I,2F2B,35,2,2,2,0.3936012300000584,1,B2,R,5,5,4,4,24
S2,P1,I,1F2B,36,1,2,2,0.38613295599952835,0,B2,R,5,5,4,4,24
S2,P1,I,1F2B,37,1,2,2,0.41786163600045256,0,B2,R,5,5,4,4,24
S2,P1,I,2F2B,38,2,2,2,0.38985977500033187,1,B2,R,5,5,4,4,24
S2,P1,I,1F2B,39,1,2,2,0.4652558739999222,0,B2,R,5,5,4,4,24
S2,P1,I,2F1B,40,2,1,2,1.1473708989997249,1,B2,R,5,5,4,4,24
S2,P1,I,2F1B,41,2,1,2,0.485502381000515,1,B2,R,5,5,4,4,24
S2,P1,I,2F2B,42,2,2,2,0.400730434000252,1,B2,R,5,5,4,4,24
S2,P1,I,1F1B,43,1,1,1,0.9346403780000401,1,B2,R,5,5,4,4,24
S2,P1,I,2F2B,44,2,2,2,0.39642144900062704,1,B2,R,5,5,4,4,24
S2,P1,I,1F1B,45,1,1,1,0.5263815829994201,1,B2,R,5,5,4,4,24
S2,P1,I,1F2B,46,1,2,2,0.4627492469999197,0,B2,R,5,5,4,4,24
S2,P1,I,1F2B,47,1,2,2,0.45658063599967136,0,B2,R,5,5,4,4,24
S2,P1,I,1F1B,48,1,1,1,0.849385120000079,1,B2,R,5,5,4,4,24
S2,P1,I,1F1B,49,1,1,1,0.5574581679993571,1,B2,R,5,5,4,4,24
S2,P1,I,2F1B,50,2,1,2,0.6256717100004607,1,B2,R,5,5,4,4,24
S2,P1,I,2F2B,51,2,2,2,0.6093197579994012,1,B2,R,5,5,4,4,24
S2,P1,I,2F1B,52,2,1,2,1.1655044940007429,1,B2,R,5,5,4,4,24
S2,P1,I,1F2B,53,1,2,1,1.4159896380006103,1,B2,R,5,5,4,4,24
S2,P1,I,2F2B,54,2,2,2,0.46449471399955655,1,B2,R,5,5,4,4,24
S2,P1,I,1F2B,55,1,2,2,0.4843782959997043,0,B2,R,5,5,4,4,24
S2,P1,I,2F2B,56,2,2,2,0.46444097199946555,1,B2,R,5,5,4,4,24
S2,P1,I,1F2B,57,1,2,2,0.42156071399949724,0,B2,R,5,5,4,4,24
S2,P1,I,2F1B,58,2,1,2,0.6874929049999992,1,B2,R,5,5,4,4,24
S2,P1,I,2F2B,59,2,2,2,0.5174641889998384,1,B2,R,5,5,4,4,24
S2,P1,I,1F2B,60,1,2,2,0.46651769599975523,0,B2,R,5,5,4,4,24
S2,P1,I,2F2B,61,2,2,2,0.9053062189996126,1,B2,R,5,5,4,4,24
S2,P1,I,2F2B,62,2,2,2,0.5525283379993198,1,B2,R,5,5,4,4,24
S2,P1,I,1F1B,63,1,1,1,1.810403996999412,1,B2,R,5,5,4,4,24
S2,P1,I,2F2B,64,2,2,2,0.8515967619996445,1,B2,R,5,5,4,4,24
S2,P1,I,2F2B,65,2,2,2,0.5593396419999408,1,B2,R,5,5,4,4,24
S2,P1,I,1F1B,66,1,1,1,0.8674455579994174,1,B2,R,5,5,4,4,24
S2,P1,I,2F1B,67,2,1,2,0.5988997129998097,1,B2,R,5,5,4,4,24
S2,P1,I,2F1B,68,2,1,2,0.48805956300020625,1,B2,R,5,5,4,4,24
S2,P1,I,1F1B,69,1,1,1,0.6888127100000929,1,B2,R,5,5,4,4,24
S2,P1,I,2F2B,70,2,2,2,0.42556744899957266,1,B2,R,5,5,4,4,24
S2,P1,I,1F1B,71,1,1,1,0.5428825690005397,1,B2,R,5,5,4,4,24
S2,P1,I,1F2B,72,1,2,1,2.5966927670006044,1,B2,R,5,5,4,4,24
S2,P1,I,1F2B,73,1,2,2,0.7022700309998982,0,B2,R,5,5,4,4,24
S2,P1,I,1F2B,74,1,2,1,0.7858930400007011,1,B2,R,5,5,4,4,24
S2,P1,I,2F1B,75,2,1,2,0.569826459000069,1,B2,R,5,5,4,4,24
S2,P1,I,2F1B,76,2,1,1,0.7792901020002319,0,B2,R,5,5,4,4,24
S2,P1,I,1F1B,77,1,1,1,0.5370510499997181,1,B2,R,5,5,4,4,24
S2,P1,I,1F1B,78,1,1,1,0.59439250000014,1,B2,R,5,5,4,4,24
S2,P1,I,2F1B,79,2,1,2,0.6254249840003467,1,B2,R,5,5,4,4,24
S2,P1,I,2F2B,80,2,2,2,0.4642018169997755,1,B2,R,5,5,4,4,24
S2,P1,I,2F1B,81,2,1,2,0.5866123400001015,1,B2,R,5,5,4,4,24
S2,P1,I,2F1B,82,2,1,2,0.7241922590001195,1,B2,R,5,5,4,4,24
S2,P1,I,1F2B,83,1,2,1,0.890802437000275,1,B2,R,5,5,4,4,24
S2,P1,I,1F2B,84,1,2,1,1.1256080450002628,1,B2,R,5,5,4,4,24
S2,P1,I,2F2B,85,2,2,2,0.5158998630004135,1,B2,R,5,5,4,4,24
S2,P1,I,2F1B,86,2,1,2,1.235904152999865,1,B2,R,5,5,4,4,24
S2,P1,I,2F2B,87,2,2,2,0.6157201930000156,1,B2,R,5,5,4,4,24
S2,P1,I,1F1B,88,1,1,1,0.5458587060002174,1,B2,R,5,5,4,4,24
S2,P1,I,1F2B,89,1,2,2,1.2898352629999863,0,B2,R,5,5,4,4,24
S2,P1,I,1F1B,90,1,1,2,2.2509294869996666,0,B2,R,5,5,4,4,24
S2,P1,I,2F1B,91,2,1,2,1.021904490000452,1,B2,R,5,5,4,4,24
S2,P1,I,2F2B,92,2,2,2,0.472411448999992,1,B2,R,5,5,4,4,24
S2,P1,I,2F1B,93,2,1,2,0.482908230999783,1,B2,R,5,5,4,4,24
S2,P1,I,1F2B,94,1,2,1,1.763935878000666,1,B2,R,5,5,4,4,24
S2,P1,I,1F2B,95,1,2,1,1.2721822920002523,1,B2,R,5,5,4,4,24
S2,P1,I,2F1B,96,2,1,2,0.6551090980001391,1,B2,R,5,5,4,4,24
S2,P1,I,1F1B,97,1,1,1,0.4895078250001461,1,B2,R,5,5,4,4,24
S2,P1,I,2F1B,98,2,1,2,0.557829282000057,1,B2,R,5,5,4,4,24
S2,P1,I,2F2B,99,2,2,2,0.6030301589998999,1,B2,R,5,5,4,4,24
S2,P1,I,2F1B,100,2,1,1,1.5109378280003511,0,B2,R,5,5,4,4,24
S2,P1,I,1F2B,101,1,2,2,0.9973473489999378,0,B2,R,5,5,4,4,24
S2,P1,I,2F1B,102,2,1,2,0.8843765029996575,1,B2,R,5,5,4,4,24
S2,P1,I,1F2B,103,1,2,1,0.7295018710001386,1,B2,R,5,5,4,4,24
S2,P1,I,1F1B,104,1,1,2,0.555327946000034,0,B2,R,5,5,4,4,24
S2,P1,I,2F2B,105,2,2,2,1.0270044549997692,1,B2,R,5,5,4,4,24
S2,P1,I,2F2B,106,2,2,2,0.4765055069992741,1,B2,R,5,5,4,4,24
S2,P1,I,1F1B,107,1,1,1,0.5216725109994513,1,B2,R,5,5,4,4,24
S2,P1,I,2F2B,108,2,2,2,0.5765125609996176,1,B2,R,5,5,4,4,24
S2,P1,I,1F2B,109,1,2,2,0.7602591819995723,0,B2,R,5,5,4,4,24
S2,P1,I,1F1B,110,1,1,1,0.4478480709994983,1,B2,R,5,5,4,4,24
S2,P1,I,1F1B,111,1,1,1,0.4159857570002714,1,B2,R,5,5,4,4,24
S2,P1,I,1F1B,112,1,1,1,0.36727878599958785,1,B2,R,5,5,4,4,24
S2,P1,I,1F1B,113,1,1,1,0.4392864430001282,1,B2,R,5,5,4,4,24
S2,P1,I,1F2B,114,1,2,2,0.42516218700075115,0,B2,R,5,5,4,4,24
S2,P1,I,1F2B,115,1,2,2,0.9882641129997864,0,B2,R,5,5,4,4,24
S2,P1,I,1F1B,116,1,1,2,0.5651978329997291,0,B2,R,5,5,4,4,24
S2,P1,I,2F2B,117,2,2,2,0.6280734539996047,1,B2,R,5,5,4,4,24
S2,P1,I,2F2B,118,2,2,2,0.4244789459999083,1,B2,R,5,5,4,4,24
S2,P1,I,2F2B,119,2,2,2,0.47619613999995636,1,B2,R,5,5,4,4,24
S2,P1,I,1F1B,120,1,1,1,0.6371955410004375,1,B2,R,5,5,4,4,24
S2,P1,C,2F2B,1,2,2,2,0.4369999860000462,1,B3,R,5,5,4,4,24
S2,P1,C,2F2B,2,2,2,2,0.4173580890001176,1,B3,R,5,5,4,4,24
S2,P1,C,2F1B,3,2,1,2,0.46389769000052183,1,B3,R,5,5,4,4,24
S2,P1,C,2F1B,4,2,1,2,0.46080594600061886,1,B3,R,5,5,4,4,24
S2,P1,C,1F1B,5,1,1,1,0.41615316400020674,1,B3,R,5,5,4,4,24
S2,P1,C,2F2B,6,2,2,2,0.4649609439993583,1,B3,R,5,5,4,4,24
S2,P1,C,2F2B,7,2,2,2,0.5700504770002226,1,B3,R,5,5,4,4,24
S2,P1,C,2F2B,8,2,2,2,0.533666856000309,1,B3,R,5,5,4,4,24
S2,P1,C,2F2B,9,2,2,2,0.49106795999978203,1,B3,R,5,5,4,4,24
S2,P1,C,1F2B,10,1,2,2,0.48248114099988015,0,B3,R,5,5,4,4,24
S2,P1,C,2F2B,11,2,2,2,0.47252103299979353,1,B3,R,5,5,4,4,24
S2,P1,C,1F1B,12,1,1,1,0.6393977679999807,1,B3,R,5,5,4,4,24
S2,P1,C,2F2B,13,2,2,2,0.41731212899958336,1,B3,R,5,5,4,4,24
S2,P1,C,1F1B,14,1,1,1,1.430441346000407,1,B3,R,5,5,4,4,24
S2,P1,C,2F1B,15,2,1,2,0.5204055379999772,1,B3,R,5,5,4,4,24
S2,P1,C,1F1B,16,1,1,1,0.7078587420000986,1,B3,R,5,5,4,4,24
S2,P1,C,1F1B,17,1,1,1,0.4927519659995596,1,B3,R,5,5,4,4,24
S2,P1,C,1F1B,18,1,1,1,0.6506455560001996,1,B3,R,5,5,4,4,24
S2,P1,C,2F2B,19,2,2,2,0.4456650300007823,1,B3,R,5,5,4,4,24
S2,P1,C,2F2B,20,2,2,2,0.40328780300023936,1,B3,R,5,5,4,4,24
S2,P1,C,2F1B,21,2,1,2,0.41212567500042496,1,B3,R,5,5,4,4,24
S2,P1,C,2F2B,22,2,2,2,0.4595200580006349,1,B3,R,5,5,4,4,24
S2,P1,C,1F1B,23,1,1,2,0.6072223809997013,0,B3,R,5,5,4,4,24
S2,P1,C,1F1B,24,1,1,1,1.3910328640004082,1,B3,R,5,5,4,4,24
S2,P1,C,2F1B,25,2,1,2,0.5237771980000616,1,B3,R,5,5,4,4,24
S2,P1,C,2F1B,26,2,1,2,0.4630573300000833,1,B3,R,5,5,4,4,24
S2,P1,C,1F2B,27,1,2,1,0.7071050000004107,1,B3,R,5,5,4,4,24
S2,P1,C,2F2B,28,2,2,2,0.5814271730005203,1,B3,R,5,5,4,4,24
S2,P1,C,2F1B,29,2,1,2,0.6535108479993141,1,B3,R,5,5,4,4,24
S2,P1,C,2F1B,30,2,1,2,0.6186246839997693,1,B3,R,5,5,4,4,24
S2,P1,C,1F1B,31,1,1,1,1.4734684879995257,1,B3,R,5,5,4,4,24
S2,P1,C,2F2B,32,2,2,2,0.42229379499985953,1,B3,R,5,5,4,4,24
S2,P1,C,2F2B,33,2,2,2,0.36377710699980526,1,B3,R,5,5,4,4,24
S2,P1,C,1F2B,34,1,2,2,0.37873886000033963,0,B3,R,5,5,4,4,24
S2,P1,C,1F1B,35,1,1,1,0.6105653900003745,1,B3,R,5,5,4,4,24
S2,P1,C,1F1B,36,1,1,2,0.5836052210006528,0,B3,R,5,5,4,4,24
S2,P1,C,2F2B,37,2,2,2,0.3974905700006275,1,B3,R,5,5,4,4,24
S2,P1,C,2F1B,38,2,1,2,0.4024285059995236,1,B3,R,5,5,4,4,24
S2,P1,C,2F1B,39,2,1,2,0.4026218839999274,1,B3,R,5,5,4,4,24
S2,P1,C,1F2B,40,1,2,1,0.6669689200007269,1,B3,R,5,5,4,4,24
S2,P1,C,1F1B,41,1,1,2,0.5230357200007347,0,B3,R,5,5,4,4,24
S2,P1,C,2F1B,42,2,1,2,0.6439447080001628,1,B3,R,5,5,4,4,24
S2,P1,C,1F1B,43,1,1,1,0.5291381959996215,1,B3,R,5,5,4,4,24
S2,P1,C,2F2B,44,2,2,2,0.4488278610006091,1,B3,R,5,5,4,4,24
S2,P1,C,1F2B,45,1,2,1,2.0257604490006997,1,B3,R,5,5,4,4,24
S2,P1,C,2F2B,46,2,2,2,0.7594525479998993,1,B3,R,5,5,4,4,24
S2,P1,C,2F2B,47,2,2,2,0.4760100319999765,1,B3,R,5,5,4,4,24
S2,P1,C,2F1B,48,2,1,2,0.5380679479994797,1,B3,R,5,5,4,4,24
S2,P1,C,1F2B,49,1,2,2,0.5218793940002797,0,B3,R,5,5,4,4,24
S2,P1,C,1F2B,50,1,2,2,0.5270317090007666,0,B3,R,5,5,4,4,24
S2,P1,C,1F2B,51,1,2,2,0.45821849799995107,0,B3,R,5,5,4,4,24
S2,P1,C,2F1B,52,2,1,1,1.8348911459997908,0,B3,R,5,5,4,4,24
S2,P1,C,1F1B,53,1,1,1,0.810874471999341,1,B3,R,5,5,4,4,24
S2,P1,C,2F1B,54,2,1,2,0.4479367129997627,1,B3,R,5,5,4,4,24
S2,P1,C,1F1B,55,1,1,1,0.43331950300034805,1,B3,R,5,5,4,4,24
S2,P1,C,1F1B,56,1,1,1,0.4725366019993089,1,B3,R,5,5,4,4,24
S2,P1,C,1F1B,57,1,1,1,0.40407257700007904,1,B3,R,5,5,4,4,24
S2,P1,C,1F2B,58,1,2,1,1.2024092400006339,1,B3,R,5,5,4,4,24
S2,P1,C,2F2B,59,2,2,2,0.45999986300012097,1,B3,R,5,5,4,4,24
S2,P1,C,2F2B,60,2,2,2,0.436593215999892,1,B3,R,5,5,4,4,24
S2,P1,C,1F2B,61,1,2,1,0.6746289359998627,1,B3,R,5,5,4,4,24
S2,P1,C,1F1B,62,1,1,1,0.4573164010007531,1,B3,R,5,5,4,4,24
S2,P1,C,2F1B,63,2,1,2,0.657571321999967,1,B3,R,5,5,4,4,24
S2,P1,C,2F2B,64,2,2,2,0.42280380400006834,1,B3,R,5,5,4,4,24
S2,P1,C,1F1B,65,1,1,1,0.40334700900075404,1,B3,R,5,5,4,4,24
S2,P1,C,1F2B,66,1,2,1,0.8831684639999366,1,B3,R,5,5,4,4,24
S2,P1,C,1F2B,67,1,2,1,0.6630704859999241,1,B3,R,5,5,4,4,24
S2,P1,C,1F1B,68,1,1,1,0.49225858299996617,1,B3,R,5,5,4,4,24
S2,P1,C,2F1B,69,2,1,2,0.554228198000601,1,B3,R,5,5,4,4,24
S2,P1,C,2F2B,70,2,2,2,0.7044660279998425,1,B3,R,5,5,4,4,24
S2,P1,C,1F2B,71,1,2,1,0.7024904029995014,1,B3,R,5,5,4,4,24
S2,P1,C,2F1B,72,2,1,2,0.5155852770003548,1,B3,R,5,5,4,4,24
S2,P1,C,2F2B,73,2,2,2,0.5455957209996996,1,B3,R,5,5,4,4,24
S2,P1,C,2F2B,74,2,2,2,0.40316273600001296,1,B3,R,5,5,4,4,24
S2,P1,C,1F2B,75,1,2,1,0.6448767120000412,1,B3,R,5,5,4,4,24
S2,P1,C,2F1B,76,2,1,2,0.6443087609995928,1,B3,R,5,5,4,4,24
S2,P1,C,1F1B,77,1,1,2,0.4643371580004896,0,B3,R,5,5,4,4,24
S2,P1,C,2F1B,78,2,1,2,0.4528897419995701,1,B3,R,5,5,4,4,24
S2,P1,C,1F1B,79,1,1,1,0.44609397600015654,1,B3,R,5,5,4,4,24
S2,P1,C,1F2B,80,1,2,1,1.857101407999835,1,B3,R,5,5,4,4,24
S2,P1,C,1F2B,81,1,2,1,2.7703066640006,1,B3,R,5,5,4,4,24
S2,P1,C,1F2B,82,1,2,2,1.4010847589997866,0,B3,R,5,5,4,4,24
S2,P1,C,1F1B,83,1,1,2,3.8980233039992527,0,B3,R,5,5,4,4,24
S2,P1,C,1F1B,84,1,1,1,1.3992457080003078,1,B3,R,5,5,4,4,24
S2,P1,C,1F2B,85,1,2,2,1.5415889460000471,0,B3,R,5,5,4,4,24
S2,P1,C,1F2B,86,1,2,2,0.9972795889998451,0,B3,R,5,5,4,4,24
S2,P1,C,2F1B,87,2,1,2,0.7093495740000435,1,B3,R,5,5,4,4,24
S2,P1,C,1F2B,88,1,2,2,0.4191668590001427,0,B3,R,5,5,4,4,24
S2,P1,C,1F2B,89,1,2,2,0.39074549799988745,0,B3,R,5,5,4,4,24
S2,P1,C,1F2B,90,1,2,1,2.4048956010001348,1,B3,R,5,5,4,4,24
S2,P1,C,2F1B,91,2,1,2,1.1579003349997947,1,B3,R,5,5,4,4,24
S2,P1,C,1F2B,92,1,2,1,-1.5577320190004684,1,B3,R,5,5,4,4,24
S2,P1,C,2F1B,93,2,1,2,0.6088847030005127,1,B3,R,5,5,4,4,24
S2,P1,C,1F2B,94,1,2,1,0.8447771520004608,1,B3,R,5,5,4,4,24
S2,P1,C,2F2B,95,2,2,2,0.6875884150003913,1,B3,R,5,5,4,4,24
S2,P1,C,1F2B,96,1,2,1,0.5407814769996548,1,B3,R,5,5,4,4,24
S2,P1,C,2F2B,97,2,2,2,0.4837334379999447,1,B3,R,5,5,4,4,24
S2,P1,C,1F1B,98,1,1,1,0.4738597679997838,1,B3,R,5,5,4,4,24
S2,P1,C,2F1B,99,2,1,2,1.4583100209993063,1,B3,R,5,5,4,4,24
S2,P1,C,2F2B,100,2,2,2,1.039846450999903,1,B3,R,5,5,4,4,24
S2,P1,C,1F2B,101,1,2,1,0.4761097880000307,1,B3,R,5,5,4,4,24
S2,P1,C,1F1B,102,1,1,2,0.5740894509999634,0,B3,R,5,5,4,4,24
S2,P1,C,2F1B,103,2,1,2,0.5943283670003439,1,B3,R,5,5,4,4,24
S2,P1,C,2F2B,104,2,2,2,0.7095885559992894,1,B3,R,5,5,4,4,24
S2,P1,C,1F1B,105,1,1,1,0.5984421359999033,1,B3,R,5,5,4,4,24
S2,P1,C,1F2B,106,1,2,1,1.563514056000713,1,B3,R,5,5,4,4,24
S2,P1,C,2F1B,107,2,1,2,0.6125527960002728,1,B3,R,5,5,4,4,24
S2,P1,C,1F2B,108,1,2,1,0.8866685120001421,1,B3,R,5,5,4,4,24
S2,P1,C,2F1B,109,2,1,2,0.5820023030000812,1,B3,R,5,5,4,4,24
S2,P1,C,1F2B,110,1,2,1,0.6862211229999957,1,B3,R,5,5,4,4,24
S2,P1,C,1F1B,111,1,1,1,0.6205015100003948,1,B3,R,5,5,4,4,24
S2,P1,C,2F2B,112,2,2,2,0.5756963139992877,1,B3,R,5,5,4,4,24
S2,P1,C,2F1B,113,2,1,2,0.6128660119993583,1,B3,R,5,5,4,4,24
S2,P1,C,1F2B,114,1,2,1,0.6515090980001332,1,B3,R,5,5,4,4,24
S2,P1,C,2F1B,115,2,1,2,0.5137984129996767,1,B3,R,5,5,4,4,24
S2,P1,C,2F2B,116,2,2,2,0.6994305469997926,1,B3,R,5,5,4,4,24
S2,P1,C,1F1B,117,1,1,1,0.5419010099994921,1,B3,R,5,5,4,4,24
S2,P1,C,1F1B,118,1,1,1,0.6066931100003785,1,B3,R,5,5,4,4,24
S2,P1,C,2F1B,119,2,1,2,0.5481848190001983,1,B3,R,5,5,4,4,24
S2,P1,C,2F1B,120,2,1,2,0.4845724520000658,1,B3,R,5,5,4,4,24
S3,P2,JA,2F2B,1,2,2,2,0.5901907320003374,1,B1,L,5,5,5,4,33
S3,P2,JA,2F1B,2,2,1,1,0.5705809179999051,0,B1,L,5,5,5,4,33
S3,P2,JA,1F1B,3,1,1,1,0.5253491059993394,1,B1,L,5,5,5,4,33
S3,P2,JA,1F2B,4,1,2,2,0.5199018929997692,0,B1,L,5,5,5,4,33
S3,P2,JA,1F1B,5,1,1,1,0.5740876890013169,1,B1,L,5,5,5,4,33
S3,P2,JA,2F1B,6,2,1,1,1.0427846780003165,0,B1,L,5,5,5,4,33
S3,P2,JA,2F1B,7,2,1,1,0.5742248319984355,0,B1,L,5,5,5,4,33
S3,P2,JA,1F1B,8,1,1,1,0.3976200870001776,1,B1,L,5,5,5,4,33
S3,P2,JA,1F2B,9,1,2,2,0.6199104040006205,0,B1,L,5,5,5,4,33
S3,P2,JA,2F2B,10,2,2,2,0.5220837940014462,1,B1,L,5,5,5,4,33
S3,P2,JA,2F1B,11,2,1,2,0.7141398900002969,1,B1,L,5,5,5,4,33
S3,P2,JA,2F2B,12,2,2,2,0.5471714610011986,1,B1,L,5,5,5,4,33
S3,P2,JA,1F2B,13,1,2,2,0.4724202019988297,0,B1,L,5,5,5,4,33
S3,P2,JA,1F1B,14,1,1,1,0.4953426590000163,1,B1,L,5,5,5,4,33
S3,P2,JA,1F2B,15,1,2,2,0.6002178640010243,0,B1,L,5,5,5,4,33
S3,P2,JA,2F1B,16,2,1,1,0.6527534970009583,0,B1,L,5,5,5,4,33
S3,P2,JA,1F2B,17,1,2,2,0.5529523630011681,0,B1,L,5,5,5,4,33
S3,P2,JA,1F2B,18,1,2,2,0.5895431410008314,0,B1,L,5,5,5,4,33
S3,P2,JA,1F1B,19,1,1,1,0.5691672110006039,1,B1,L,5,5,5,4,33
S3,P2,JA,1F1B,20,1,1,1,0.5174063609993027,1,B1,L,5,5,5,4,33
S3,P2,JA,1F1B,21,1,1,1,0.4770318959999713,1,B1,L,5,5,5,4,33
S3,P2,JA,2F1B,22,2,1,1,0.6265011659997981,0,B1,L,5,5,5,4,33
S3,P2,JA,1F1B,23,1,1,1,0.47407322999970347,1,B1,L,5,5,5,4,33
S3,P2,JA,1F1B,24,1,1,1,0.4060665830002108,1,B1,L,5,5,5,4,33
S3,P2,JA,2F2B,25,2,2,2,0.4765379629989184,1,B1,L,5,5,5,4,33
S3,P2,JA,2F1B,26,2,1,1,0.8811075189987605,0,B1,L,5,5,5,4,33
S3,P2,JA,2F2B,27,2,2,2,0.48220142500031216,1,B1,L,5,5,5,4,33
S3,P2,JA,2F1B,28,2,1,2,0.765092353,1,B1,L,5,5,5,4,33
S3,P2,JA,2F1B,29,2,1,2,0.6948077759989246,1,B1,L,5,5,5,4,33
S3,P2,JA,2F2B,30,2,2,2,0.40674490300079924,1,B1,L,5,5,5,4,33
S3,P2,JA,1F1B,31,1,1,1,0.7082201989996975,1,B1,L,5,5,5,4,33
S3,P2,JA,1F2B,32,1,2,2,0.45558131500001764,0,B1,L,5,5,5,4,33
S3,P2,JA,2F2B,33,2,2,2,0.46066403399890987,1,B1,L,5,5,5,4,33
S3,P2,JA,1F2B,34,1,2,2,0.4201947290002863,0,B1,L,5,5,5,4,33
S3,P2,JA,1F1B,35,1,1,1,0.5320654260012816,1,B1,L,5,5,5,4,33
S3,P2,JA,2F2B,36,2,2,2,0.39554053299980296,1,B1,L,5,5,5,4,33
S3,P2,JA,2F2B,37,2,2,2,0.43546514399895386,1,B1,L,5,5,5,4,33
S3,P2,JA,2F1B,38,2,1,1,0.8230312020004931,0,B1,L,5,5,5,4,33
S3,P2,JA,1F2B,39,1,2,2,0.48941814600038924,0,B1,L,5,5,5,4,33
S3,P2,JA,2F1B,40,2,1,1,0.7216429189993505,0,B1,L,5,5,5,4,33
S3,P2,JA,2F1B,41,2,1,1,0.8556523190000007,0,B1,L,5,5,5,4,33
S3,P2,JA,1F1B,42,1,1,1,0.4662191650004388,1,B1,L,5,5,5,4,33
S3,P2,JA,2F2B,43,2,2,2,0.4626109520013415,1,B1,L,5,5,5,4,33
S3,P2,JA,1F2B,44,1,2,2,0.42791723499976797,0,B1,L,5,5,5,4,33
S3,P2,JA,2F2B,45,2,2,2,0.3891093689999252,1,B1,L,5,5,5,4,33
S3,P2,JA,1F1B,46,1,1,2,0.943068292001044,0,B1,L,5,5,5,4,33
S3,P2,JA,2F2B,47,2,2,2,0.48411090499939746,1,B1,L,5,5,5,4,33
S3,P2,JA,2F2B,48,2,2,2,0.37420147500051826,1,B1,L,5,5,5,4,33
S3,P2,JA,2F2B,49,2,2,2,0.349600883999301,1,B1,L,5,5,5,4,33
S3,P2,JA,1F2B,50,1,2,2,0.38326661700011755,0,B1,L,5,5,5,4,33
S3,P2,JA,1F1B,51,1,1,1,0.6192236059996503,1,B1,L,5,5,5,4,33
S3,P2,JA,1F1B,52,1,1,1,0.5695594399985566,1,B1,L,5,5,5,4,33
S3,P2,JA,1F2B,53,1,2,2,0.47005095100030303,0,B1,L,5,5,5,4,33
S3,P2,JA,1F2B,54,1,2,2,0.4492062450008234,0,B1,L,5,5,5,4,33
S3,P2,JA,2F2B,55,2,2,2,0.48752086800050165,1,B1,L,5,5,5,4,33
S3,P2,JA,1F1B,56,1,1,1,0.48907429100108857,1,B1,L,5,5,5,4,33
S3,P2,JA,2F1B,57,2,1,1,0.4629617659993528,0,B1,L,5,5,5,4,33
S3,P2,JA,1F1B,58,1,1,1,0.44945991300119204,1,B1,L,5,5,5,4,33
S3,P2,JA,2F2B,59,2,2,2,0.39964598400001705,1,B1,L,5,5,5,4,33
S3,P2,JA,1F2B,60,1,2,2,0.4887598760014953,0,B1,L,5,5,5,4,33
S3,P2,JA,1F2B,61,1,2,2,0.618273224999939,0,B1,L,5,5,5,4,33
S3,P2,JA,1F2B,62,1,2,2,0.5290910269995948,0,B1,L,5,5,5,4,33
S3,P2,JA,1F1B,63,1,1,1,1.1462316139986797,1,B1,L,5,5,5,4,33
S3,P2,JA,2F2B,64,2,2,2,0.5470569510016503,1,B1,L,5,5,5,4,33
S3,P2,JA,2F2B,65,2,2,2,0.42976503200043226,1,B1,L,5,5,5,4,33
S3,P2,JA,2F2B,66,2,2,2,0.4308188679988234,1,B1,L,5,5,5,4,33
S3,P2,JA,1F2B,67,1,2,2,0.4087242129990045,0,B1,L,5,5,5,4,33
S3,P2,JA,2F2B,68,2,2,2,0.39502692599853617,1,B1,L,5,5,5,4,33
S3,P2,JA,2F2B,69,2,2,2,0.3057788829992205,1,B1,L,5,5,5,4,33
S3,P2,JA,1F2B,70,1,2,2,0.4411464730001171,0,B1,L,5,5,5,4,33
S3,P2,JA,1F1B,71,1,1,1,0.3983049029993708,1,B1,L,5,5,5,4,33
S3,P2,JA,2F2B,72,2,2,2,0.30774515199846064,1,B1,L,5,5,5,4,33
S3,P2,JA,2F1B,73,2,1,1,0.5325905329991656,0,B1,L,5,5,5,4,33
S3,P2,JA,1F2B,74,1,2,2,0.41027407399997173,0,B1,L,5,5,5,4,33
S3,P2,JA,2F1B,75,2,1,1,0.6446543590009242,0,B1,L,5,5,5,4,33
S3,P2,JA,2F1B,76,2,1,1,0.5828193149991421,0,B1,L,5,5,5,4,33
S3,P2,JA,2F2B,77,2,2,2,0.4983525540010305,1,B1,L,5,5,5,4,33
S3,P2,JA,1F1B,78,1,1,1,0.519755889001317,1,B1,L,5,5,5,4,33
S3,P2,JA,2F1B,79,2,1,1,0.6059974630006764,0,B1,L,5,5,5,4,33
S3,P2,JA,1F1B,80,1,1,1,0.4837537519997568,1,B1,L,5,5,5,4,33
S3,P2,JA,2F1B,81,2,1,2,0.7879913359993225,1,B1,L,5,5,5,4,33
S3,P2,JA,2F1B,82,2,1,1,0.5928068319990416,0,B1,L,5,5,5,4,33
S3,P2,JA,1F1B,83,1,1,1,0.4132365320001554,1,B1,L,5,5,5,4,33
S3,P2,JA,2F1B,84,2,1,1,0.6699515029995382,0,B1,L,5,5,5,4,33
S3,P2,JA,1F2B,85,1,2,2,0.45666336199974467,0,B1,L,5,5,5,4,33
S3,P2,JA,1F2B,86,1,2,2,0.37512856899957114,0,B1,L,5,5,5,4,33
S3,P2,JA,1F2B,87,1,2,2,0.3770467619997362,0,B1,L,5,5,5,4,33
S3,P2,JA,1F2B,88,1,2,2,0.6343639509996137,0,B1,L,5,5,5,4,33
S3,P2,JA,1F1B,89,1,1,1,0.44913447900034953,1,B1,L,5,5,5,4,33
S3,P2,JA,1F2B,90,1,2,2,0.39270407399999385,0,B1,L,5,5,5,4,33
S3,P2,JA,2F1B,91,2,1,1,0.5798201729994616,0,B1,L,5,5,5,4,33
S3,P2,JA,1F1B,92,1,1,1,0.35875490099897434,1,B1,L,5,5,5,4,33
S3,P2,JA,2F2B,93,2,2,2,0.4014298719994258,1,B1,L,5,5,5,4,33
S3,P2,JA,2F2B,94,2,2,2,0.30897058800110244,1,B1,L,5,5,5,4,33
S3,P2,JA,2F2B,95,2,2,2,0.3732963629990991,1,B1,L,5,5,5,4,33
S3,P2,JA,2F1B,96,2,1,2,0.6808306720013206,1,B1,L,5,5,5,4,33
S3,P2,JA,1F2B,97,1,2,2,0.3716274530015653,0,B1,L,5,5,5,4,33
S3,P2,JA,2F1B,98,2,1,1,0.48523493299944676,0,B1,L,5,5,5,4,33
S3,P2,JA,1F2B,99,1,2,2,0.36770688599972345,0,B1,L,5,5,5,4,33
S3,P2,JA,2F1B,100,2,1,2,0.6207234740013519,1,B1,L,5,5,5,4,33
S3,P2,JA,2F2B,101,2,2,2,0.29332827700091,1,B1,L,5,5,5,4,33
S3,P2,JA,2F1B,102,2,1,1,0.6855013679996773,0,B1,L,5,5,5,4,33
S3,P2,JA,1F2B,103,1,2,2,0.35590348499863467,0,B1,L,5,5,5,4,33
S3,P2,JA,2F1B,104,2,1,1,0.6422338929987745,0,B1,L,5,5,5,4,33
S3,P2,JA,2F1B,105,2,1,1,0.73430111900052,0,B1,L,5,5,5,4,33
S3,P2,JA,1F1B,106,1,1,1,0.4470361170006072,1,B1,L,5,5,5,4,33
S3,P2,JA,1F2B,107,1,2,2,0.35027075200014224,0,B1,L,5,5,5,4,33
S3,P2,JA,2F2B,108,2,2,2,0.6904568889985967,1,B1,L,5,5,5,4,33
S3,P2,JA,1F2B,109,1,2,2,0.4010802920001879,0,B1,L,5,5,5,4,33
S3,P2,JA,1F1B,110,1,1,1,0.46176987000035297,1,B1,L,5,5,5,4,33
S3,P2,JA,1F1B,111,1,1,1,0.3729821870001615,1,B1,L,5,5,5,4,33
S3,P2,JA,2F2B,112,2,2,2,0.377562042000136,1,B1,L,5,5,5,4,33
S3,P2,JA,2F2B,113,2,2,2,0.3655230969998229,1,B1,L,5,5,5,4,33
S3,P2,JA,1F1B,114,1,1,1,0.4517483839990746,1,B1,L,5,5,5,4,33
S3,P2,JA,2F1B,115,2,1,1,0.2913047540005209,0,B1,L,5,5,5,4,33
S3,P2,JA,1F1B,116,1,1,1,0.44539006299964967,1,B1,L,5,5,5,4,33
S3,P2,JA,2F1B,117,2,1,1,0.5003719699998328,0,B1,L,5,5,5,4,33
S3,P2,JA,1F1B,118,1,1,1,0.45610482600022806,1,B1,L,5,5,5,4,33
S3,P2,JA,2F1B,119,2,1,1,0.5457900340006745,0,B1,L,5,5,5,4,33
S3,P2,JA,1F2B,120,1,2,2,0.41799658899981296,0,B1,L,5,5,5,4,33
S3,P2,I,2F2B,1,2,2,2,0.4165560000001278,1,B2,L,5,5,5,4,33
S3,P2,I,1F1B,2,1,1,1,0.3594075900000462,1,B2,L,5,5,5,4,33
S3,P2,I,2F2B,3,2,2,2,0.41638569699898653,1,B2,L,5,5,5,4,33
S3,P2,I,1F1B,4,1,1,1,0.30520643499949074,1,B2,L,5,5,5,4,33
S3,P2,I,1F2B,5,1,2,2,0.3457541099996888,0,B2,L,5,5,5,4,33
S3,P2,I,1F1B,6,1,1,1,0.38405500300177664,1,B2,L,5,5,5,4,33
S3,P2,I,2F1B,7,2,1,2,0.43579125400174235,1,B2,L,5,5,5,4,33
S3,P2,I,1F2B,8,1,2,2,0.4872582779989898,0,B2,L,5,5,5,4,33
S3,P2,I,2F1B,9,2,1,2,0.47504612099874066,1,B2,L,5,5,5,4,33
S3,P2,I,2F1B,10,2,1,2,0.4468454500001826,1,B2,L,5,5,5,4,33
S3,P2,I,2F2B,11,2,2,2,0.3856915319993277,1,B2,L,5,5,5,4,33
S3,P2,I,2F1B,12,2,1,2,0.693764531000852,1,B2,L,5,5,5,4,33
S3,P2,I,1F2B,13,1,2,2,0.4449388769990037,0,B2,L,5,5,5,4,33
S3,P2,I,1F1B,14,1,1,1,0.4054822719990625,1,B2,L,5,5,5,4,33
S3,P2,I,1F1B,15,1,1,1,0.4380899630014028,1,B2,L,5,5,5,4,33
S3,P2,I,2F2B,16,2,2,2,0.3940649640007905,1,B2,L,5,5,5,4,33
S3,P2,I,1F1B,17,1,1,1,0.5168169090011361,1,B2,L,5,5,5,4,33
S3,P2,I,2F1B,18,2,1,2,1.0384483130001172,1,B2,L,5,5,5,4,33
S3,P2,I,1F1B,19,1,1,1,0.5182364169995708,1,B2,L,5,5,5,4,33
S3,P2,I,1F1B,20,1,1,1,0.37261284600026556,1,B2,L,5,5,5,4,33
S3,P2,I,1F1B,21,1,1,1,0.38504805199954717,1,B2,L,5,5,5,4,33
S3,P2,I,1F2B,22,1,2,2,0.4190662010005326,0,B2,L,5,5,5,4,33
S3,P2,I,1F1B,23,1,1,1,0.3838524940001662,1,B2,L,5,5,5,4,33
S3,P2,I,1F2B,24,1,2,2,0.395222940000167,0,B2,L,5,5,5,4,33
S3,P2,I,2F2B,25,2,2,2,0.3395523590006633,1,B2,L,5,5,5,4,33
S3,P2,I,1F2B,26,1,2,2,0.30539235299875145,0,B2,L,5,5,5,4,33
S3,P2,I,2F2B,27,2,2,2,0.7874324320000596,1,B2,L,5,5,5,4,33
S3,P2,I,2F2B,28,2,2,2,0.345387158999074,1,B2,L,5,5,5,4,33
S3,P2,I,1F2B,29,1,2,2,0.30236922199947003,0,B2,L,5,5,5,4,33
S3,P2,I,1F1B,30,1,1,1,0.4396382100003393,1,B2,L,5,5,5,4,33
S3,P2,I,2F1B,31,2,1,2,0.5764136010002403,1,B2,L,5,5,5,4,33
S3,P2,I,2F2B,32,2,2,2,0.34055230699959793,1,B2,L,5,5,5,4,33
S3,P2,I,2F1B,33,2,1,1,0.419120776001364,0,B2,L,5,5,5,4,33
S3,P2,I,1F2B,34,1,2,2,0.33529496300070605,0,B2,L,5,5,5,4,33
S3,P2,I,1F2B,35,1,2,2,0.3486979130011605,0,B2,L,5,5,5,4,33
S3,P2,I,1F1B,36,1,1,1,0.2754039940009534,1,B2,L,5,5,5,4,33
S3,P2,I,1F1B,37,1,1,1,0.35889514200061967,1,B2,L,5,5,5,4,33
S3,P2,I,1F1B,38,1,1,1,0.42782245600028546,1,B2,L,5,5,5,4,33
S3,P2,I,2F2B,39,2,2,2,0.7938781680004467,1,B2,L,5,5,5,4,33
S3,P2,I,1F2B,40,1,2,1,-1.6401130859994737,1,B2,L,5,5,5,4,33
S3,P2,I,2F1B,41,2,1,2,0.8074818910008617,1,B2,L,5,5,5,4,33
S3,P2,I,1F2B,42,1,2,2,0.4431671260008443,0,B2,L,5,5,5,4,33
S3,P2,I,2F2B,43,2,2,2,0.4449248119999538,1,B2,L,5,5,5,4,33
S3,P2,I,2F2B,44,2,2,2,0.35468460700030846,1,B2,L,5,5,5,4,33
S3,P2,I,2F1B,45,2,1,1,0.36212892299954547,0,B2,L,5,5,5,4,33
S3,P2,I,2F2B,46,2,2,2,0.42568391999884625,1,B2,L,5,5,5,4,33
S3,P2,I,1F2B,47,1,2,2,0.3913213800005906,0,B2,L,5,5,5,4,33
S3,P2,I,2F1B,48,2,1,2,0.5691290039994783,1,B2,L,5,5,5,4,33
S3,P2,I,1F1B,49,1,1,1,0.40400820299873885,1,B2,L,5,5,5,4,33
S3,P2,I,2F2B,50,2,2,2,0.348772254999858,1,B2,L,5,5,5,4,33
S3,P2,I,2F1B,51,2,1,2,0.765813796000657,1,B2,L,5,5,5,4,33
S3,P2,I,1F1B,52,1,1,1,1.4032037580000178,1,B2,L,5,5,5,4,33
S3,P2,I,2F1B,53,2,1,2,0.5813030389999767,1,B2,L,5,5,5,4,33
S3,P2,I,1F1B,54,1,1,1,0.4625424790010584,1,B2,L,5,5,5,4,33
S3,P2,I,1F1B,55,1,1,1,0.36148437399970135,1,B2,L,5,5,5,4,33
S3,P2,I,1F2B,56,1,2,2,0.3782555569996475,0,B2,L,5,5,5,4,33
S3,P2,I,1F1B,57,1,1,1,0.36603694099903805,1,B2,L,5,5,5,4,33
S3,P2,I,2F1B,58,2,1,1,0.4826706989988452,0,B2,L,5,5,5,4,33
S3,P2,I,1F1B,59,1,1,1,0.3510198219992162,1,B2,L,5,5,5,4,33
S3,P2,I,2F2B,60,2,2,2,0.36828851500104065,1,B2,L,5,5,5,4,33
S3,P2,I,1F1B,61,1,1,1,0.6921358139989024,1,B2,L,5,5,5,4,33
S3,P2,I,2F1B,62,2,1,2,0.6330857619996095,1,B2,L,5,5,5,4,33
S3,P2,I,2F1B,63,2,1,2,0.5091065910000907,1,B2,L,5,5,5,4,33
S3,P2,I,1F2B,64,1,2,2,0.3718144720005512,0,B2,L,5,5,5,4,33
S3,P2,I,2F1B,65,2,1,2,0.6299097830014944,1,B2,L,5,5,5,4,33
S3,P2,I,2F2B,66,2,2,2,0.3039973459999601,1,B2,L,5,5,5,4,33
S3,P2,I,2F1B,67,2,1,2,0.3732683939997514,1,B2,L,5,5,5,4,33
S3,P2,I,1F2B,68,1,2,2,0.3505761969990999,0,B2,L,5,5,5,4,33
S3,P2,I,2F1B,69,2,1,1,0.7481227019998187,0,B2,L,5,5,5,4,33
S3,P2,I,1F2B,70,1,2,2,0.40430865899907076,0,B2,L,5,5,5,4,33
S3,P2,I,1F1B,71,1,1,1,0.4768388259999483,1,B2,L,5,5,5,4,33
S3,P2,I,2F1B,72,2,1,1,0.5415189739997004,0,B2,L,5,5,5,4,33
S3,P2,I,2F1B,73,2,1,1,0.45182184699842765,0,B2,L,5,5,5,4,33
S3,P2,I,2F1B,74,2,1,1,0.7779048219999822,0,B2,L,5,5,5,4,33
S3,P2,I,2F2B,75,2,2,2,0.5122244640006102,1,B2,L,5,5,5,4,33
S3,P2,I,2F2B,76,2,2,2,0.49658901799921296,1,B2,L,5,5,5,4,33
S3,P2,I,1F2B,77,1,2,2,0.3003866230010317,0,B2,L,5,5,5,4,33
S3,P2,I,2F2B,78,2,2,2,0.42402699800004484,1,B2,L,5,5,5,4,33
S3,P2,I,1F2B,79,1,2,2,0.37345504099903337,0,B2,L,5,5,5,4,33
S3,P2,I,1F2B,80,1,2,2,0.2973526440000569,0,B2,L,5,5,5,4,33
S3,P2,I,2F2B,81,2,2,2,0.3545894809994934,1,B2,L,5,5,5,4,33
S3,P2,I,1F2B,82,1,2,2,0.2776205089994619,0,B2,L,5,5,5,4,33
S3,P2,I,2F1B,83,2,1,1,0.3937893339989387,0,B2,L,5,5,5,4,33
S3,P2,I,1F2B,84,1,2,2,0.35081421100039734,0,B2,L,5,5,5,4,33
S3,P2,I,1F1B,85,1,1,1,0.41862019800100825,1,B2,L,5,5,5,4,33
S3,P2,I,1F2B,86,1,2,2,0.4218507320001663,0,B2,L,5,5,5,4,33
S3,P2,I,1F2B,87,1,2,1,0.7491825479992258,1,B2,L,5,5,5,4,33
S3,P2,I,2F2B,88,2,2,2,0.43494585000007646,1,B2,L,5,5,5,4,33
S3,P2,I,1F1B,89,1,1,1,0.4595585219994973,1,B2,L,5,5,5,4,33
S3,P2,I,2F2B,90,2,2,2,0.39708151900049415,1,B2,L,5,5,5,4,33
S3,P2,I,2F1B,91,2,1,2,0.6345005630009837,1,B2,L,5,5,5,4,33
S3,P2,I,2F1B,92,2,1,1,0.41178688400032115,0,B2,L,5,5,5,4,33
S3,P2,I,2F1B,93,2,1,2,0.4598553699997865,1,B2,L,5,5,5,4,33
S3,P2,I,1F2B,94,1,2,2,0.6894228700002714,0,B2,L,5,5,5,4,33
S3,P2,I,1F2B,95,1,2,1,0.877003057001275,1,B2,L,5,5,5,4,33
S3,P2,I,2F2B,96,2,2,2,0.4741415369990136,1,B2,L,5,5,5,4,33
S3,P2,I,2F2B,97,2,2,2,0.3985879150004621,1,B2,L,5,5,5,4,33
S3,P2,I,2F2B,98,2,2,2,0.30370777099960833,1,B2,L,5,5,5,4,33
S3,P2,I,1F2B,99,1,2,2,0.35788353999851097,0,B2,L,5,5,5,4,33
S3,P2,I,2F2B,100,2,2,2,0.28906972100048733,1,B2,L,5,5,5,4,33
S3,P2,I,2F2B,101,2,2,2,0.24859147799907078,1,B2,L,5,5,5,4,33
S3,P2,I,1F2B,102,1,2,1,0.5567548430008173,1,B2,L,5,5,5,4,33
S3,P2,I,1F1B,103,1,1,1,0.39516220199948293,1,B2,L,5,5,5,4,33
S3,P2,I,2F1B,104,2,1,2,0.6706781369994133,1,B2,L,5,5,5,4,33
S3,P2,I,2F1B,105,2,1,1,0.6883880220011633,0,B2,L,5,5,5,4,33
S3,P2,I,2F2B,106,2,2,2,0.44086541999968176,1,B2,L,5,5,5,4,33
S3,P2,I,1F2B,107,1,2,2,0.5090079670007981,0,B2,L,5,5,5,4,33
S3,P2,I,2F1B,108,2,1,2,0.67627630999959365,1,B2,L,5,5,5,4,33
S3,P2,I,1F1B,109,1,1,1,0.508362261000002,1,B2,L,5,5,5,4,33
S3,P2,I,1F1B,110,1,1,1,0.40483203400071943,1,B2,L,5,5,5,4,33
S3,P2,I,1F1B,111,1,1,1,0.27212745799988625,1,B2,L,5,5,5,4,33
S3,P2,I,2F2B,112,2,2,2,0.3842934959993727,1,B2,L,5,5,5,4,33
S3,P2,I,1F2B,113,1,2,2,0.32621621699945536,0,B2,L,5,5,5,4,33
S3,P2,I,2F2B,114,2,2,2,0.2948985890016047,1,B2,L,5,5,5,4,33
S3,P2,I,2F1B,115,2,1,2,0.41056636800021806,1,B2,L,5,5,5,4,33
S3,P2,I,2F2B,116,2,2,2,0.2973679839997203,1,B2,L,5,5,5,4,33
S3,P2,I,1F1B,117,1,1,1,0.3665270749988849,1,B2,L,5,5,5,4,33
S3,P2,I,1F1B,118,1,1,1,0.2915940530001535,1,B2,L,5,5,5,4,33
S3,P2,I,1F2B,119,1,2,2,0.3315676120000717,0,B2,L,5,5,5,4,33
S3,P2,I,2F1B,120,2,1,2,0.5339390899989667,1,B2,L,5,5,5,4,33
S3,P2,C,2F1B,1,2,1,2,0.5161447469999985,1,B3,L,5,5,5,4,33
S3,P2,C,1F2B,2,1,2,2,0.3789175649999379,0,B3,L,5,5,5,4,33
S3,P2,C,1F1B,3,1,1,1,0.44223203799992916,1,B3,L,5,5,5,4,33
S3,P2,C,2F2B,4,2,2,2,0.3977320889989642,1,B3,L,5,5,5,4,33
S3,P2,C,1F2B,5,1,2,2,0.39502191599967773,0,B3,L,5,5,5,4,33
S3,P2,C,1F1B,6,1,1,1,0.4114429410001321,1,B3,L,5,5,5,4,33
S3,P2,C,1F1B,7,1,1,1,0.4400586669999029,1,B3,L,5,5,5,4,33
S3,P2,C,2F1B,8,2,1,1,0.669626449000134,0,B3,L,5,5,5,4,33
S3,P2,C,2F2B,9,2,2,2,0.46259011499932967,1,B3,L,5,5,5,4,33
S3,P2,C,1F1B,10,1,1,1,0.41374195400021563,1,B3,L,5,5,5,4,33
S3,P2,C,1F1B,11,1,1,1,0.43180051099989214,1,B3,L,5,5,5,4,33
S3,P2,C,2F1B,12,2,1,1,0.6124536190000072,0,B3,L,5,5,5,4,33
S3,P2,C,2F2B,13,2,2,2,0.3066249709991098,1,B3,L,5,5,5,4,33
S3,P2,C,1F1B,14,1,1,1,0.8754058159993292,1,B3,L,5,5,5,4,33
S3,P2,C,1F2B,15,1,2,2,0.44354958300027647,0,B3,L,5,5,5,4,33
S3,P2,C,2F1B,16,2,1,2,1.1985230640002555,1,B3,L,5,5,5,4,33
S3,P2,C,1F1B,17,1,1,1,0.3943561750002118,1,B3,L,5,5,5,4,33
S3,P2,C,2F1B,18,2,1,2,0.5851556739999069,1,B3,L,5,5,5,4,33
S3,P2,C,2F1B,19,2,1,2,0.42042021799898066,1,B3,L,5,5,5,4,33
S3,P2,C,2F1B,20,2,1,2,0.4104066090003471,1,B3,L,5,5,5,4,33
S3,P2,C,1F1B,21,1,1,1,0.4209076780007308,1,B3,L,5,5,5,4,33
S3,P2,C,1F1B,22,1,1,1,0.46229835099984484,1,B3,L,5,5,5,4,33
S3,P2,C,2F1B,23,2,1,2,0.501505095999164,1,B3,L,5,5,5,4,33
S3,P2,C,1F2B,24,1,2,2,0.37292418600009114,0,B3,L,5,5,5,4,33
S3,P2,C,2F2B,25,2,2,2,0.29971671200109995,1,B3,L,5,5,5,4,33
S3,P2,C,2F1B,26,2,1,2,0.40679161800107977,1,B3,L,5,5,5,4,33
S3,P2,C,1F2B,27,1,2,2,0.3371268089995283,0,B3,L,5,5,5,4,33
S3,P2,C,2F1B,28,2,1,2,0.5622485329986375,1,B3,L,5,5,5,4,33
S3,P2,C,1F2B,29,1,2,2,0.3144336340010341,0,B3,L,5,5,5,4,33
S3,P2,C,1F2B,30,1,2,2,0.29895289900014177,0,B3,L,5,5,5,4,33
S3,P2,C,2F1B,31,2,1,2,0.5711181409988058,1,B3,L,5,5,5,4,33
S3,P2,C,2F2B,32,2,2,2,0.31380120500034536,1,B3,L,5,5,5,4,33
S3,P2,C,1F2B,33,1,2,2,0.3156533550009044,0,B3,L,5,5,5,4,33
S3,P2,C,1F2B,34,1,2,2,0.38791765899986785,0,B3,L,5,5,5,4,33
S3,P2,C,1F1B,35,1,1,2,0.4500406719998864,0,B3,L,5,5,5,4,33
S3,P2,C,2F1B,36,2,1,2,0.4438388720009243,1,B3,L,5,5,5,4,33
S3,P2,C,2F2B,37,2,2,2,0.3728706019992387,1,B3,L,5,5,5,4,33
S3,P2,C,2F2B,38,2,2,2,0.36380769399875135,1,B3,L,5,5,5,4,33
S3,P2,C,1F1B,39,1,1,1,0.4727254789995641,1,B3,L,5,5,5,4,33
S3,P2,C,1F2B,40,1,2,2,0.40812755199840467,0,B3,L,5,5,5,4,33
S3,P2,C,1F1B,41,1,1,1,0.4916912549997505,1,B3,L,5,5,5,4,33
S3,P2,C,1F2B,42,1,2,2,0.3978226500003075,0,B3,L,5,5,5,4,33
S3,P2,C,2F2B,43,2,2,2,0.4084335410007043,1,B3,L,5,5,5,4,33
S3,P2,C,1F1B,44,1,1,1,1.4470999959994515,1,B3,L,5,5,5,4,33
S3,P2,C,2F1B,45,2,1,2,0.5202888869989692,1,B3,L,5,5,5,4,33
S3,P2,C,1F1B,46,1,1,1,0.5356759559999773,1,B3,L,5,5,5,4,33
S3,P2,C,2F1B,47,2,1,2,0.6125492970004416,1,B3,L,5,5,5,4,33
S3,P2,C,1F2B,48,1,2,2,0.4038515379997989,0,B3,L,5,5,5,4,33
S3,P2,C,2F1B,49,2,1,2,0.5337235389997659,1,B3,L,5,5,5,4,33
S3,P2,C,2F2B,50,2,2,2,0.34443375899900275,1,B3,L,5,5,5,4,33
S3,P2,C,2F2B,51,2,2,2,0.2964090050008963,1,B3,L,5,5,5,4,33
S3,P2,C,1F2B,52,1,2,2,0.2909545940001408,0,B3,L,5,5,5,4,33
S3,P2,C,2F1B,53,2,1,2,0.43888868099929823,1,B3,L,5,5,5,4,33
S3,P2,C,1F2B,54,1,2,2,0.32416972300052294,0,B3,L,5,5,5,4,33
S3,P2,C,1F1B,55,1,1,1,0.49172923200057994,1,B3,L,5,5,5,4,33
S3,P2,C,2F2B,56,2,2,2,0.3501859730004071,1,B3,L,5,5,5,4,33
S3,P2,C,2F2B,57,2,2,2,0.3910223650000262,1,B3,L,5,5,5,4,33
S3,P2,C,2F2B,58,2,2,2,0.2777636490009172,1,B3,L,5,5,5,4,33
S3,P2,C,2F2B,59,2,2,2,0.27254746399921714,1,B3,L,5,5,5,4,33
S3,P2,C,1F2B,60,1,2,2,0.24211947100047837,0,B3,L,5,5,5,4,33
S3,P2,C,2F2B,61,2,2,2,0.3300549369996588,1,B3,L,5,5,5,4,33
S3,P2,C,1F2B,62,1,2,2,0.2541158730000461,0,B3,L,5,5,5,4,33
S3,P2,C,1F2B,63,1,2,2,0.20780315499905555,0,B3,L,5,5,5,4,33
S3,P2,C,1F1B,64,1,1,2,0.41155554100078007,0,B3,L,5,5,5,4,33
S3,P2,C,2F2B,65,2,2,2,0.5471179600008327,1,B3,L,5,5,5,4,33
S3,P2,C,2F1B,66,2,1,1,0.39827213599892275,0,B3,L,5,5,5,4,33
S3,P2,C,2F1B,67,2,1,1,1.2372698210001545,0,B3,L,5,5,5,4,33
S3,P2,C,2F1B,68,2,1,2,0.414773378000973,1,B3,L,5,5,5,4,33
S3,P2,C,2F2B,69,2,2,2,0.26881263900031627,1,B3,L,5,5,5,4,33
S3,P2,C,1F1B,70,1,1,2,0.3340271039996878,0,B3,L,5,5,5,4,33
S3,P2,C,1F1B,71,1,1,1,0.5381028989995684,1,B3,L,5,5,5,4,33
S3,P2,C,1F1B,72,1,1,1,0.3602970259998983,1,B3,L,5,5,5,4,33
S3,P2,C,1F2B,73,1,2,2,0.3509840080005233,0,B3,L,5,5,5,4,33
S3,P2,C,2F1B,74,2,1,2,0.5289085630010959,1,B3,L,5,5,5,4,33
S3,P2,C,1F2B,75,1,2,2,0.3077033650006342,0,B3,L,5,5,5,4,33
S3,P2,C,2F1B,76,2,1,2,0.4487070989998756,1,B3,L,5,5,5,4,33
S3,P2,C,1F2B,77,1,2,2,0.3290134559993021,0,B3,L,5,5,5,4,33
S3,P2,C,2F2B,78,2,2,2,0.2678430199994182,1,B3,L,5,5,5,4,33
S3,P2,C,2F2B,79,2,2,2,0.25149827399945934,1,B3,L,5,5,5,4,33
S3,P2,C,1F1B,80,1,1,1,0.4499872989999858,1,B3,L,5,5,5,4,33
S3,P2,C,1F2B,81,1,2,2,0.3277137449986185,0,B3,L,5,5,5,4,33
S3,P2,C,2F2B,82,2,2,2,0.2504122850004933,1,B3,L,5,5,5,4,33
S3,P2,C,1F1B,83,1,1,1,0.5105200839989266,1,B3,L,5,5,5,4,33
S3,P2,C,2F2B,84,2,2,2,0.28228760700039857,1,B3,L,5,5,5,4,33
S3,P2,C,1F1B,85,1,1,1,0.4912179039984039,1,B3,L,5,5,5,4,33
S3,P2,C,1F2B,86,1,2,2,0.5057273189995612,0,B3,L,5,5,5,4,33
S3,P2,C,2F1B,87,2,1,2,0.4750182259995199,1,B3,L,5,5,5,4,33
S3,P2,C,2F2B,88,2,2,2,0.3147952350009291,1,B3,L,5,5,5,4,33
S3,P2,C,2F2B,89,2,2,2,0.4338499140012573,1,B3,L,5,5,5,4,33
S3,P2,C,2F2B,90,2,2,2,0.41457849200014607,1,B3,L,5,5,5,4,33
S3,P2,C,2F1B,91,2,1,2,0.5950494129992876,1,B3,L,5,5,5,4,33
S3,P2,C,2F2B,92,2,2,2,0.26899585899991507,1,B3,L,5,5,5,4,33
S3,P2,C,1F1B,93,1,1,1,0.47407741799906944,1,B3,L,5,5,5,4,33
S3,P2,C,2F1B,94,2,1,2,0.4054257299994788,1,B3,L,5,5,5,4,33
S3,P2,C,1F2B,95,1,2,2,0.35084652899968205,0,B3,L,5,5,5,4,33
S3,P2,C,1F1B,96,1,1,1,0.3990854580006271,1,B3,L,5,5,5,4,33
S3,P2,C,1F2B,97,1,2,2,0.45098266799868725,0,B3,L,5,5,5,4,33
S3,P2,C,1F1B,98,1,1,1,0.40778932899957,1,B3,L,5,5,5,4,33
S3,P2,C,2F1B,99,2,1,2,0.7104077170006349,1,B3,L,5,5,5,4,33
S3,P2,C,1F1B,100,1,1,1,0.4208920159999252,1,B3,L,5,5,5,4,33
S3,P2,C,1F1B,101,1,1,1,0.36794638599894824,1,B3,L,5,5,5,4,33
S3,P2,C,1F2B,102,1,2,2,0.3451504299991939,0,B3,L,5,5,5,4,33
S3,P2,C,2F1B,103,2,1,2,0.49131954000040423,1,B3,L,5,5,5,4,33
S3,P2,C,2F1B,104,2,1,2,0.7797643750000134,1,B3,L,5,5,5,4,33
S3,P2,C,2F1B,105,2,1,2,0.4214810329995089,1,B3,L,5,5,5,4,33
S3,P2,C,1F2B,106,1,2,2,0.36158410600000934,0,B3,L,5,5,5,4,33
S3,P2,C,1F1B,107,1,1,1,0.8820998439987306,1,B3,L,5,5,5,4,33
S3,P2,C,1F2B,108,1,2,2,0.33597923100023763,0,B3,L,5,5,5,4,33
S3,P2,C,2F2B,109,2,2,2,0.3592657980007061,1,B3,L,5,5,5,4,33
S3,P2,C,2F2B,110,2,2,2,0.3083685980000155,1,B3,L,5,5,5,4,33
S3,P2,C,1F2B,111,1,2,2,0.2916944910011807,0,B3,L,5,5,5,4,33
S3,P2,C,2F2B,112,2,2,2,0.3124318689988286,1,B3,L,5,5,5,4,33
S3,P2,C,1F2B,113,1,2,2,0.30287382700043963,0,B3,L,5,5,5,4,33
S3,P2,C,2F2B,114,2,2,2,0.3643875680008932,1,B3,L,5,5,5,4,33
S3,P2,C,1F2B,115,1,2,2,0.35062669800026924,0,B3,L,5,5,5,4,33
S3,P2,C,1F1B,116,1,1,1,0.5335771879999811,1,B3,L,5,5,5,4,33
S3,P2,C,1F1B,117,1,1,1,0.5157327249999071,1,B3,L,5,5,5,4,33
S3,P2,C,2F1B,118,2,1,1,0.4258440210014669,0,B3,L,5,5,5,4,33
S3,P2,C,2F1B,119,2,1,2,0.45244588700006716,1,B3,L,5,5,5,4,33
S3,P2,C,2F2B,120,2,2,2,0.3799579440001253,1,B3,L,5,5,5,4,33
S4,P2,JA,2F2B,1,2,2,2,0.5151830410013645,1,B1,R,5,5,5,5,24
S4,P2,JA,2F1B,2,2,1,1,0.5145862919998763,0,B1,R,5,5,5,5,24
S4,P2,JA,1F1B,3,1,1,1,0.45834982699852844,1,B1,R,5,5,5,5,24
S4,P2,JA,1F2B,4,1,2,2,0.6549156969995238,0,B1,R,5,5,5,5,24
S4,P2,JA,1F1B,5,1,1,1,0.6171009190002223,1,B1,R,5,5,5,5,24
S4,P2,JA,2F1B,6,2,1,1,1.7047696280005766,0,B1,R,5,5,5,5,24
S4,P2,JA,2F1B,7,2,1,1,0.6042271229998732,0,B1,R,5,5,5,5,24
S4,P2,JA,1F1B,8,1,1,1,0.519593373999669,1,B1,R,5,5,5,5,24
S4,P2,JA,1F2B,9,1,2,2,0.49190242199983913,0,B1,R,5,5,5,5,24
S4,P2,JA,2F2B,10,2,2,2,0.6010654560013791,1,B1,R,5,5,5,5,24
S4,P2,JA,2F1B,11,2,1,1,0.4761661890006508,0,B1,R,5,5,5,5,24
S4,P2,JA,2F2B,12,2,2,2,0.37819287400088797,1,B1,R,5,5,5,5,24
S4,P2,JA,1F2B,13,1,2,2,0.5134244179989764,0,B1,R,5,5,5,5,24
S4,P2,JA,1F1B,14,1,1,1,0.3783709239996824,1,B1,R,5,5,5,5,24
S4,P2,JA,1F2B,15,1,2,2,0.39925148700058344,0,B1,R,5,5,5,5,24
S4,P2,JA,2F1B,16,2,1,1,0.5137545489997137,0,B1,R,5,5,5,5,24
S4,P2,JA,1F2B,17,1,2,2,0.3939371979995485,0,B1,R,5,5,5,5,24
S4,P2,JA,1F2B,18,1,2,2,0.594548028000645,0,B1,R,5,5,5,5,24
S4,P2,JA,1F1B,19,1,1,1,0.45317388200055575,1,B1,R,5,5,5,5,24
S4,P2,JA,1F1B,20,1,1,1,0.4294085849996918,1,B1,R,5,5,5,5,24
S4,P2,JA,1F1B,21,1,1,1,0.40801531199940655,1,B1,R,5,5,5,5,24
S4,P2,JA,2F1B,22,2,1,1,0.3855197840002802,0,B1,R,5,5,5,5,24
S4,P2,JA,1F1B,23,1,1,1,0.20407757199973275,1,B1,R,5,5,5,5,24
S4,P2,JA,1F1B,24,1,1,1,0.3490750519995345,1,B1,R,5,5,5,5,24
S4,P2,JA,2F2B,25,2,2,2,0.5155187279997335,1,B1,R,5,5,5,5,24
S4,P2,JA,2F1B,26,2,1,1,0.39110499799971876,0,B1,R,5,5,5,5,24
S4,P2,JA,2F2B,27,2,2,2,0.32720426300147665,1,B1,R,5,5,5,5,24
S4,P2,JA,2F1B,28,2,1,1,0.543114912999954,0,B1,R,5,5,5,5,24
S4,P2,JA,2F1B,29,2,1,1,0.3938107489993854,0,B1,R,5,5,5,5,24
S4,P2,JA,2F2B,30,2,2,2,0.48074962700047763,1,B1,R,5,5,5,5,24
S4,P2,JA,1F1B,31,1,1,1,0.5652216020007472,1,B1,R,5,5,5,5,24
S4,P2,JA,1F2B,32,1,2,2,0.36457782999968913,0,B1,R,5,5,5,5,24
S4,P2,JA,2F2B,33,2,2,2,0.29966671699912695,1,B1,R,5,5,5,5,24
S4,P2,JA,1F2B,34,1,2,2,0.4572024010012683,0,B1,R,5,5,5,5,24
S4,P2,JA,1F1B,35,1,1,1,0.41807482700096443,1,B1,R,5,5,5,5,24
S4,P2,JA,2F2B,36,2,2,2,0.2815722219984309,1,B1,R,5,5,5,5,24
S4,P2,JA,2F2B,37,2,2,2,0.28946059299960325,1,B1,R,5,5,5,5,24
S4,P2,JA,2F1B,38,2,1,2,0.4700381290003861,1,B1,R,5,5,5,5,24
S4,P2,JA,1F2B,39,1,2,2,0.7124421539992909,0,B1,R,5,5,5,5,24
S4,P2,JA,2F1B,40,2,1,1,0.32865860399942903,0,B1,R,5,5,5,5,24
S4,P2,JA,2F1B,41,2,1,1,0.3746737020010187,0,B1,R,5,5,5,5,24
S4,P2,JA,1F1B,42,1,1,1,0.34718573600002856,1,B1,R,5,5,5,5,24
S4,P2,JA,2F2B,43,2,2,2,0.47559304000060365,1,B1,R,5,5,5,5,24
S4,P2,JA,1F2B,44,1,2,2,0.5179235329997027,0,B1,R,5,5,5,5,24
S4,P2,JA,2F2B,45,2,2,1,0.36413862699919264,0,B1,R,5,5,5,5,24
S4,P2,JA,1F1B,46,1,1,1,0.6020563450001646,1,B1,R,5,5,5,5,24
S4,P2,JA,2F2B,47,2,2,2,0.38211629100078426,1,B1,R,5,5,5,5,24
S4,P2,JA,2F2B,48,2,2,2,0.42122734999975364,1,B1,R,5,5,5,5,24
S4,P2,JA,2F2B,49,2,2,2,0.35957603200040467,1,B1,R,5,5,5,5,24
S4,P2,JA,1F2B,50,1,2,2,0.2132759830001305,0,B1,R,5,5,5,5,24
S4,P2,JA,1F1B,51,1,1,1,0.4932281700002932,1,B1,R,5,5,5,5,24
S4,P2,JA,1F1B,52,1,1,1,0.38456873999894015,1,B1,R,5,5,5,5,24
S4,P2,JA,1F2B,53,1,2,2,0.7320858399998542,0,B1,R,5,5,5,5,24
S4,P2,JA,1F2B,54,1,2,2,0.4752137089999451,0,B1,R,5,5,5,5,24
S4,P2,JA,2F2B,55,2,2,2,0.6535214060004364,1,B1,R,5,5,5,5,24
S4,P2,JA,1F1B,56,1,1,1,0.7431066450008075,1,B1,R,5,5,5,5,24
S4,P2,JA,2F1B,57,2,1,1,0.473970641998676,0,B1,R,5,5,5,5,24
S4,P2,JA,1F1B,58,1,1,1,0.36748216200066963,1,B1,R,5,5,5,5,24
S4,P2,JA,2F2B,59,2,2,2,0.6006465880000178,1,B1,R,5,5,5,5,24
S4,P2,JA,1F2B,60,1,2,2,0.4977381230000901,0,B1,R,5,5,5,5,24
S4,P2,JA,1F2B,61,1,2,2,0.7372801589990559,0,B1,R,5,5,5,5,24
S4,P2,JA,1F2B,62,1,2,2,1.9980666430001293,0,B1,R,5,5,5,5,24
S4,P2,JA,1F1B,63,1,1,1,1.0732595559984475,1,B1,R,5,5,5,5,24
S4,P2,JA,2F2B,64,2,2,2,0.4090595690013288,1,B1,R,5,5,5,5,24
S4,P2,JA,2F2B,65,2,2,2,0.42474503700032074,1,B1,R,5,5,5,5,24
S4,P2,JA,2F2B,66,2,2,2,0.37984783299907576,1,B1,R,5,5,5,5,24
S4,P2,JA,1F2B,67,1,2,2,0.33170558599886135,0,B1,R,5,5,5,5,24
S4,P2,JA,2F2B,68,2,2,2,0.23803960499935783,1,B1,R,5,5,5,5,24
S4,P2,JA,2F2B,69,2,2,2,0.35078122499908204,1,B1,R,5,5,5,5,24
S4,P2,JA,1F2B,70,1,2,2,0.3341464740005904,0,B1,R,5,5,5,5,24
S4,P2,JA,1F1B,71,1,1,1,0.5633054749996518,1,B1,R,5,5,5,5,24
S4,P2,JA,2F2B,72,2,2,2,0.31171725799868,1,B1,R,5,5,5,5,24
S4,P2,JA,2F1B,73,2,1,1,0.32259140799942543,0,B1,R,5,5,5,5,24
S4,P2,JA,1F2B,74,1,2,2,0.38026755600003526,0,B1,R,5,5,5,5,24
S4,P2,JA,2F1B,75,2,1,1,0.3606337960009114,0,B1,R,5,5,5,5,24
S4,P2,JA,2F1B,76,2,1,1,0.4968303939986072,0,B1,R,5,5,5,5,24
S4,P2,JA,2F2B,77,2,2,2,1.5213283749999391,1,B1,R,5,5,5,5,24
S4,P2,JA,1F1B,78,1,1,1,0.5157245299997157,1,B1,R,5,5,5,5,24
S4,P2,JA,2F1B,79,2,1,1,0.39602799599924765,0,B1,R,5,5,5,5,24
S4,P2,JA,1F1B,80,1,1,1,0.43472097999983816,1,B1,R,5,5,5,5,24
S4,P2,JA,2F1B,81,2,1,1,0.3550266300007934,0,B1,R,5,5,5,5,24
S4,P2,JA,2F1B,82,2,1,1,0.4948117189996992,0,B1,R,5,5,5,5,24
S4,P2,JA,1F1B,83,1,1,1,0.3192165320015192,1,B1,R,5,5,5,5,24
S4,P2,JA,2F1B,84,2,1,1,0.6249550150005234,0,B1,R,5,5,5,5,24
S4,P2,JA,1F2B,85,1,2,2,0.3866593290003948,0,B1,R,5,5,5,5,24
S4,P2,JA,1F2B,86,1,2,2,0.4041098369998508,0,B1,R,5,5,5,5,24
S4,P2,JA,1F2B,87,1,2,2,0.8100823259992467,0,B1,R,5,5,5,5,24
S4,P2,JA,1F2B,88,1,2,2,0.42136795000078564,0,B1,R,5,5,5,5,24
S4,P2,JA,1F1B,89,1,1,1,0.41216442699987965,1,B1,R,5,5,5,5,24
S4,P2,JA,1F2B,90,1,2,2,0.5507166719999077,0,B1,R,5,5,5,5,24
S4,P2,JA,2F1B,91,2,1,1,0.4028513630000816,0,B1,R,5,5,5,5,24
S4,P2,JA,1F1B,92,1,1,1,0.6547331089986983,1,B1,R,5,5,5,5,24
S4,P2,JA,2F2B,93,2,2,2,0.43446929700076,1,B1,R,5,5,5,5,24
S4,P2,JA,2F2B,94,2,2,2,0.40899722700123675,1,B1,R,5,5,5,5,24
S4,P2,JA,2F2B,95,2,2,2,0.47432894699886674,1,B1,R,5,5,5,5,24
S4,P2,JA,2F1B,96,2,1,2,0.34584257999995316,1,B1,R,5,5,5,5,24
S4,P2,JA,1F2B,97,1,2,2,0.7196484260002762,0,B1,R,5,5,5,5,24
S4,P2,JA,2F1B,98,2,1,1,0.42020934599895554,0,B1,R,5,5,5,5,24
S4,P2,JA,1F2B,99,1,2,2,0.44073539599958167,0,B1,R,5,5,5,5,24
S4,P2,JA,2F1B,100,2,1,1,0.36972470600085217,0,B1,R,5,5,5,5,24
S4,P2,JA,2F2B,101,2,2,2,0.6403687800011539,1,B1,R,5,5,5,5,24
S4,P2,JA,2F1B,102,2,1,1,0.49449932300012733,0,B1,R,5,5,5,5,24
S4,P2,JA,1F2B,103,1,2,2,0.5038744549983676,0,B1,R,5,5,5,5,24
S4,P2,JA,2F1B,104,2,1,1,0.46326483499979076,0,B1,R,5,5,5,5,24
S4,P2,JA,2F1B,105,2,1,1,0.5753054900014831,0,B1,R,5,5,5,5,24
S4,P2,JA,1F1B,106,1,1,1,1.0860371390008368,1,B1,R,5,5,5,5,24
S4,P2,JA,1F2B,107,1,2,2,1.138244637999378,0,B1,R,5,5,5,5,24
S4,P2,JA,2F2B,108,2,2,2,0.6584825579993776,1,B1,R,5,5,5,5,24
S4,P2,JA,1F2B,109,1,2,2,0.5660830169999826,0,B1,R,5,5,5,5,24
S4,P2,JA,1F1B,110,1,1,1,0.4517975999988266,1,B1,R,5,5,5,5,24
S4,P2,JA,1F1B,111,1,1,1,0.43198572599976615,1,B1,R,5,5,5,5,24
S4,P2,JA,2F2B,112,2,2,1,0.6415612210003019,0,B1,R,5,5,5,5,24
S4,P2,JA,2F2B,113,2,2,2,0.5245491839996248,1,B1,R,5,5,5,5,24
S4,P2,JA,1F1B,114,1,1,1,0.6197516049996921,1,B1,R,5,5,5,5,24
S4,P2,JA,2F1B,115,2,1,1,0.3953118329991412,0,B1,R,5,5,5,5,24
S4,P2,JA,1F1B,116,1,1,1,0.4124290589988959,1,B1,R,5,5,5,5,24
S4,P2,JA,2F1B,117,2,1,1,0.44134715700056404,0,B1,R,5,5,5,5,24
S4,P2,JA,1F1B,118,1,1,1,0.36510649400042894,1,B1,R,5,5,5,5,24
S4,P2,JA,2F1B,119,2,1,1,0.32475270999930217,0,B1,R,5,5,5,5,24
S4,P2,JA,1F2B,120,1,2,2,0.5459663660003571,0,B1,R,5,5,5,5,24
S4,P2,I,2F1B,1,2,1,1,0.3388236290011264,0,B2,R,5,5,5,5,24
S4,P2,I,2F2B,2,2,2,2,0.41562994699961564,1,B2,R,5,5,5,5,24
S4,P2,I,1F2B,3,1,2,2,0.5551127990001987,0,B2,R,5,5,5,5,24
S4,P2,I,2F2B,4,2,2,2,0.40758549500060326,1,B2,R,5,5,5,5,24
S4,P2,I,1F1B,5,1,1,1,0.43804630399972666,1,B2,R,5,5,5,5,24
S4,P2,I,2F1B,6,2,1,1,0.38645434599857253,0,B2,R,5,5,5,5,24
S4,P2,I,2F2B,7,2,2,2,0.415403551000054,1,B2,R,5,5,5,5,24
S4,P2,I,2F1B,8,2,1,1,0.5238996740008588,0,B2,R,5,5,5,5,24
S4,P2,I,2F1B,9,2,1,1,0.3976929079999536,0,B2,R,5,5,5,5,24
S4,P2,I,1F1B,10,1,1,1,0.38996447099998477,1,B2,R,5,5,5,5,24
S4,P2,I,1F2B,11,1,2,2,0.7574636550016294,0,B2,R,5,5,5,5,24
S4,P2,I,1F2B,12,1,2,2,0.5489629399999103,0,B2,R,5,5,5,5,24
S4,P2,I,2F1B,13,2,1,1,0.2756592900004762,0,B2,R,5,5,5,5,24
S4,P2,I,1F1B,14,1,1,1,0.4368920920005621,1,B2,R,5,5,5,5,24
S4,P2,I,2F1B,15,2,1,1,0.6361460849984724,0,B2,R,5,5,5,5,24
S4,P2,I,1F1B,16,1,1,1,0.463318142999924,1,B2,R,5,5,5,5,24
S4,P2,I,2F2B,17,2,2,2,0.42830823300027987,1,B2,R,5,5,5,5,24
S4,P2,I,1F1B,18,1,1,1,0.3339950059998955,1,B2,R,5,5,5,5,24
S4,P2,I,2F1B,19,2,1,1,0.3648675099993852,0,B2,R,5,5,5,5,24
S4,P2,I,1F1B,20,1,1,1,0.46820741100054875,1,B2,R,5,5,5,5,24
S4,P2,I,1F1B,21,1,1,1,0.24782843100001628,1,B2,R,5,5,5,5,24
S4,P2,I,1F2B,22,1,2,2,0.6674870740007464,0,B2,R,5,5,5,5,24
S4,P2,I,1F2B,23,1,2,2,0.4573815099993226,0,B2,R,5,5,5,5,24
S4,P2,I,2F2B,24,2,2,2,0.42998340699887194,1,B2,R,5,5,5,5,24
S4,P2,I,1F2B,25,1,2,2,0.3852671830009058,0,B2,R,5,5,5,5,24
S4,P2,I,2F2B,26,2,2,2,0.7812203909998061,1,B2,R,5,5,5,5,24
S4,P2,I,1F1B,27,1,1,1,0.6793029759992351,1,B2,R,5,5,5,5,24
S4,P2,I,2F2B,28,2,2,2,0.36205386400069983,1,B2,R,5,5,5,5,24
S4,P2,I,1F2B,29,1,2,2,0.5825591850007186,0,B2,R,5,5,5,5,24
S4,P2,I,1F1B,30,1,1,1,1.1757631239997863,1,B2,R,5,5,5,5,24
S4,P2,I,1F1B,31,1,1,1,0.47637014999963867,1,B2,R,5,5,5,5,24
S4,P2,I,1F1B,32,1,1,1,0.4658665130009467,1,B2,R,5,5,5,5,24
S4,P2,I,2F2B,33,2,2,2,0.5622967379986221,1,B2,R,5,5,5,5,24
S4,P2,I,2F1B,34,2,1,1,0.38253271599933214,0,B2,R,5,5,5,5,24
S4,P2,I,2F2B,35,2,2,2,0.27919757700146874,1,B2,R,5,5,5,5,24
S4,P2,I,1F1B,36,1,1,1,0.3927998340004706,1,B2,R,5,5,5,5,24
S4,P2,I,2F2B,37,2,2,2,1.0480626720000146,1,B2,R,5,5,5,5,24
S4,P2,I,1F2B,38,1,2,2,0.6633694560005097,0,B2,R,5,5,5,5,24
S4,P2,I,2F2B,39,2,2,2,0.3794899450003868,1,B2,R,5,5,5,5,24
S4,P2,I,1F1B,40,1,1,1,0.28489074500066636,1,B2,R,5,5,5,5,24
S4,P2,I,2F2B,41,2,2,2,0.38603505799983395,1,B2,R,5,5,5,5,24
S4,P2,I,2F1B,42,2,1,1,0.44950211600007606,0,B2,R,5,5,5,5,24
S4,P2,I,1F1B,43,1,1,1,0.3986625350007671,1,B2,R,5,5,5,5,24
S4,P2,I,2F2B,44,2,2,2,0.724375517000226,1,B2,R,5,5,5,5,24
S4,P2,I,1F1B,45,1,1,1,0.3430925170014234,1,B2,R,5,5,5,5,24
S4,P2,I,1F1B,46,1,1,2,0.6288467859994853,0,B2,R,5,5,5,5,24
S4,P2,I,2F2B,47,2,2,1,0.34709848900092766,0,B2,R,5,5,5,5,24
S4,P2,I,1F2B,48,1,2,2,0.3519944600011513,0,B2,R,5,5,5,5,24
S4,P2,I,2F1B,49,2,1,1,0.4179587399994489,0,B2,R,5,5,5,5,24
S4,P2,I,2F1B,50,2,1,1,0.34432715399998415,0,B2,R,5,5,5,5,24
S4,P2,I,1F2B,51,1,2,2,0.5498888000001898,0,B2,R,5,5,5,5,24
S4,P2,I,2F1B,52,2,1,1,0.34497144099987054,0,B2,R,5,5,5,5,24
S4,P2,I,1F2B,53,1,2,2,0.19134246499925212,0,B2,R,5,5,5,5,24
S4,P2,I,1F1B,54,1,1,1,0.23183973199957109,1,B2,R,5,5,5,5,24
S4,P2,I,2F2B,55,2,2,2,0.41611448699950415,1,B2,R,5,5,5,5,24
S4,P2,I,2F1B,56,2,1,1,0.4338860179996118,0,B2,R,5,5,5,5,24
S4,P2,I,1F1B,57,1,1,1,0.6509316339997895,1,B2,R,5,5,5,5,24
S4,P2,I,1F1B,58,1,1,1,0.4192391310007224,1,B2,R,5,5,5,5,24
S4,P2,I,2F2B,59,2,2,2,0.6662381309997727,1,B2,R,5,5,5,5,24
S4,P2,I,1F1B,60,1,1,1,0.540066826999464,1,B2,R,5,5,5,5,24
S4,P2,I,1F2B,61,1,2,2,0.744373485998949,0,B2,R,5,5,5,5,24
S4,P2,I,1F2B,62,1,2,2,0.41290723600104684,0,B2,R,5,5,5,5,24
S4,P2,I,2F1B,63,2,1,1,0.3375174140001036,0,B2,R,5,5,5,5,24
S4,P2,I,2F2B,64,2,2,2,0.4255452809993585,1,B2,R,5,5,5,5,24
S4,P2,I,1F2B,65,1,2,1,0.3579914869987988,1,B2,R,5,5,5,5,24
S4,P2,I,2F1B,66,2,1,1,0.7335643810001784,0,B2,R,5,5,5,5,24
S4,P2,I,2F1B,67,2,1,1,0.4932092810013273,0,B2,R,5,5,5,5,24
S4,P2,I,1F2B,68,1,2,2,1.1510921879998932,0,B2,R,5,5,5,5,24
S4,P2,I,2F1B,69,2,1,1,3.128750116999072,0,B2,R,5,5,5,5,24
S4,P2,I,2F2B,70,2,2,2,0.5785582160006015,1,B2,R,5,5,5,5,24
S4,P2,I,1F1B,71,1,1,1,0.45277018600063457,1,B2,R,5,5,5,5,24
S4,P2,I,2F1B,72,2,1,1,1.0316198239997902,0,B2,R,5,5,5,5,24
S4,P2,I,2F2B,73,2,2,2,0.7124088359996676,1,B2,R,5,5,5,5,24
S4,P2,I,1F2B,74,1,2,2,1.0223626589995547,0,B2,R,5,5,5,5,24
S4,P2,I,1F1B,75,1,1,1,0.4301568680002674,1,B2,R,5,5,5,5,24
S4,P2,I,2F2B,76,2,2,2,0.82877858899883,1,B2,R,5,5,5,5,24
S4,P2,I,1F1B,77,1,1,1,0.43079701399983605,1,B2,R,5,5,5,5,24
S4,P2,I,2F2B,78,2,2,2,1.0097888660002354,1,B2,R,5,5,5,5,24
S4,P2,I,2F1B,79,2,1,1,0.9604790610010241,0,B2,R,5,5,5,5,24
S4,P2,I,2F1B,80,2,1,2,0.8844240720009111,1,B2,R,5,5,5,5,24
S4,P2,I,2F1B,81,2,1,1,0.47240598400094314,0,B2,R,5,5,5,5,24
S4,P2,I,2F2B,82,2,2,2,0.4292840550006076,1,B2,R,5,5,5,5,24
S4,P2,I,2F1B,83,2,1,1,0.5165486930000043,0,B2,R,5,5,5,5,24
S4,P2,I,1F2B,84,1,2,2,0.3926082239995594,0,B2,R,5,5,5,5,24
S4,P2,I,1F2B,85,1,2,2,0.7482241840007191,0,B2,R,5,5,5,5,24
S4,P2,I,2F2B,86,2,2,2,1.1346045119989867,1,B2,R,5,5,5,5,24
S4,P2,I,1F2B,87,1,2,2,0.7395159940006124,0,B2,R,5,5,5,5,24
S4,P2,I,2F1B,88,2,1,2,1.4873175680004351,1,B2,R,5,5,5,5,24
S4,P2,I,2F1B,89,2,1,1,0.599688858999798,0,B2,R,5,5,5,5,24
S4,P2,I,2F1B,90,2,1,1,0.5062116429999151,0,B2,R,5,5,5,5,24
S4,P2,I,1F1B,91,1,1,1,0.3071376339994458,1,B2,R,5,5,5,5,24
S4,P2,I,1F2B,92,1,2,2,0.47935870100081956,0,B2,R,5,5,5,5,24
S4,P2,I,2F2B,93,2,2,2,0.9689962110005581,1,B2,R,5,5,5,5,24
S4,P2,I,2F1B,94,2,1,1,0.6033993250002823,0,B2,R,5,5,5,5,24
S4,P2,I,1F2B,95,1,2,2,0.41761690900057147,0,B2,R,5,5,5,5,24
S4,P2,I,1F1B,96,1,1,1,0.5399616169997898,1,B2,R,5,5,5,5,24
S4,P2,I,1F2B,97,1,2,2,3.296636322998893,0,B2,R,5,5,5,5,24
S4,P2,I,2F2B,98,2,2,2,0.7668634159999783,1,B2,R,5,5,5,5,24
S4,P2,I,1F2B,99,1,2,2,0.4969032150002022,0,B2,R,5,5,5,5,24
S4,P2,I,2F2B,100,2,2,2,0.36895840000033786,1,B2,R,5,5,5,5,24
S4,P2,I,1F2B,101,1,2,2,0.30103443400003016,0,B2,R,5,5,5,5,24
S4,P2,I,2F2B,102,2,2,2,0.937237202999313,1,B2,R,5,5,5,5,24
S4,P2,I,2F1B,103,2,1,1,0.8834905689982406,0,B2,R,5,5,5,5,24
S4,P2,I,1F1B,104,1,1,1,0.36802143000022625,1,B2,R,5,5,5,5,24
S4,P2,I,1F2B,105,1,2,2,0.633011396999791,0,B2,R,5,5,5,5,24
S4,P2,I,2F1B,106,2,1,1,0.7500997509996523,0,B2,R,5,5,5,5,24
S4,P2,I,1F1B,107,1,1,1,1.425792525000361,1,B2,R,5,5,5,5,24
S4,P2,I,1F1B,108,1,1,1,0.4303765160002513,1,B2,R,5,5,5,5,24
S4,P2,I,2F2B,109,2,2,2,0.7781740310001624,1,B2,R,5,5,5,5,24
S4,P2,I,1F1B,110,1,1,1,0.6332184650000272,1,B2,R,5,5,5,5,24
S4,P2,I,1F1B,111,1,1,1,0.3406732050007122,1,B2,R,5,5,5,5,24
S4,P2,I,2F1B,112,2,1,1,0.4034252550009114,0,B2,R,5,5,5,5,24
S4,P2,I,1F2B,113,1,2,2,0.4337826800001494,0,B2,R,5,5,5,5,24
S4,P2,I,2F1B,114,2,1,1,0.5260363119996327,0,B2,R,5,5,5,5,24
S4,P2,I,2F2B,115,2,2,2,0.7251464159999159,1,B2,R,5,5,5,5,24
S4,P2,I,1F2B,116,1,2,1,0.49405423699863604,1,B2,R,5,5,5,5,24
S4,P2,I,1F2B,117,1,2,2,0.4286630149999837,0,B2,R,5,5,5,5,24
S4,P2,I,2F2B,118,2,2,2,0.46257753600002616,1,B2,R,5,5,5,5,24
S4,P2,I,1F2B,119,1,2,2,0.5696522750004078,0,B2,R,5,5,5,5,24
S4,P2,I,1F2B,120,1,2,2,0.3978146839999681,0,B2,R,5,5,5,5,24
S4,P2,C,1F1B,1,1,1,1,1.1721892860005028,1,B3,R,5,5,5,5,24
S4,P2,C,1F1B,2,1,1,1,0.4379875360009464,1,B3,R,5,5,5,5,24
S4,P2,C,2F1B,3,2,1,1,0.28536947700013116,0,B3,R,5,5,5,5,24
S4,P2,C,2F1B,4,2,1,1,0.2813237160007702,0,B3,R,5,5,5,5,24
S4,P2,C,2F2B,5,2,2,2,0.6729088770007365,1,B3,R,5,5,5,5,24
S4,P2,C,1F2B,6,1,2,2,0.43940927699986787,0,B3,R,5,5,5,5,24
S4,P2,C,1F1B,7,1,1,1,0.33454031700057385,1,B3,R,5,5,5,5,24
S4,P2,C,2F2B,8,2,2,2,0.2755984730010823,1,B3,R,5,5,5,5,24
S4,P2,C,1F1B,9,1,1,1,0.407476456999575,1,B3,R,5,5,5,5,24
S4,P2,C,1F1B,10,1,1,1,0.3956875599997147,1,B3,R,5,5,5,5,24
S4,P2,C,1F2B,11,1,2,2,0.3700043970002298,0,B3,R,5,5,5,5,24
S4,P2,C,1F2B,12,1,2,2,0.355164787000831,0,B3,R,5,5,5,5,24
S4,P2,C,1F2B,13,1,2,2,0.6354214469993167,0,B3,R,5,5,5,5,24
S4,P2,C,1F1B,14,1,1,1,0.4560582290014281,1,B3,R,5,5,5,5,24
S4,P2,C,1F2B,15,1,2,2,2.1042366469991975,0,B3,R,5,5,5,5,24
S4,P2,C,1F2B,16,1,2,2,0.36280179700042936,0,B3,R,5,5,5,5,24
S4,P2,C,1F2B,17,1,2,2,0.4202977990007639,0,B3,R,5,5,5,5,24
S4,P2,C,1F2B,18,1,2,2,0.40740882300087833,0,B3,R,5,5,5,5,24
S4,P2,C,2F2B,19,2,2,2,0.642989021998801,1,B3,R,5,5,5,5,24
S4,P2,C,1F2B,20,1,2,2,0.642684996000753,0,B3,R,5,5,5,5,24
S4,P2,C,1F2B,21,1,2,2,0.5130784440007119,0,B3,R,5,5,5,5,24
S4,P2,C,1F1B,22,1,1,1,0.6341933089988743,1,B3,R,5,5,5,5,24
S4,P2,C,2F2B,23,2,2,2,2.066310035999777,1,B3,R,5,5,5,5,24
S4,P2,C,2F1B,24,2,1,1,0.41826838299857627,0,B3,R,5,5,5,5,24
S4,P2,C,1F2B,25,1,2,2,1.205255806000423,0,B3,R,5,5,5,5,24
S4,P2,C,1F2B,26,1,2,2,0.4170481090004614,0,B3,R,5,5,5,5,24
S4,P2,C,2F2B,27,2,2,2,0.36707999000100244,1,B3,R,5,5,5,5,24
S4,P2,C,1F1B,28,1,1,1,0.43107135699938226,1,B3,R,5,5,5,5,24
S4,P2,C,2F1B,29,2,1,1,0.39610259300025064,0,B3,R,5,5,5,5,24
S4,P2,C,2F1B,30,2,1,1,0.2931313760000194,0,B3,R,5,5,5,5,24
S4,P2,C,2F2B,31,2,2,2,0.49044216999936907,1,B3,R,5,5,5,5,24
S4,P2,C,1F1B,32,1,1,1,0.3769889619998139,1,B3,R,5,5,5,5,24
S4,P2,C,1F2B,33,1,2,2,1.8208948890005558,0,B3,R,5,5,5,5,24
S4,P2,C,2F1B,34,2,1,1,0.3170359889991232,0,B3,R,5,5,5,5,24
S4,P2,C,2F1B,35,2,1,1,0.3929533810005523,0,B3,R,5,5,5,5,24
S4,P2,C,2F2B,36,2,2,2,0.3988034260000859,1,B3,R,5,5,5,5,24
S4,P2,C,2F1B,37,2,1,1,0.38122602099974756,0,B3,R,5,5,5,5,24
S4,P2,C,1F1B,38,1,1,1,0.33681875100046454,1,B3,R,5,5,5,5,24
S4,P2,C,2F1B,39,2,1,1,0.32895315200039477,0,B3,R,5,5,5,5,24
S4,P2,C,2F2B,40,2,2,2,0.36258455899951514,1,B3,R,5,5,5,5,24
S4,P2,C,2F2B,41,2,2,2,0.4919458019994636,1,B3,R,5,5,5,5,24
S4,P2,C,2F1B,42,2,1,1,0.30240354600027786,0,B3,R,5,5,5,5,24
S4,P2,C,1F1B,43,1,1,1,0.32959282100091514,1,B3,R,5,5,5,5,24
S4,P2,C,2F1B,44,2,1,1,0.3531934300008288,0,B3,R,5,5,5,5,24
S4,P2,C,2F2B,45,2,2,2,0.500234631001149,1,B3,R,5,5,5,5,24
S4,P2,C,2F2B,46,2,2,2,0.46922873000039544,1,B3,R,5,5,5,5,24
S4,P2,C,1F2B,47,1,2,2,0.3892441209991375,0,B3,R,5,5,5,5,24
S4,P2,C,1F1B,48,1,1,1,0.4132425179996062,1,B3,R,5,5,5,5,24
S4,P2,C,2F1B,49,2,1,1,0.4708723629992164,0,B3,R,5,5,5,5,24
S4,P2,C,2F1B,50,2,1,1,0.2956446850002976,0,B3,R,5,5,5,5,24
S4,P2,C,1F2B,51,1,2,2,0.41994839899962244,0,B3,R,5,5,5,5,24
S4,P2,C,2F2B,52,2,2,2,0.5219949080001243,1,B3,R,5,5,5,5,24
S4,P2,C,1F2B,53,1,2,2,0.5217907360001846,0,B3,R,5,5,5,5,24
S4,P2,C,2F2B,54,2,2,2,0.37862013500125613,1,B3,R,5,5,5,5,24
S4,P2,C,1F1B,55,1,1,1,0.32428751299994474,1,B3,R,5,5,5,5,24
S4,P2,C,2F1B,56,2,1,1,0.30939719500020146,0,B3,R,5,5,5,5,24
S4,P2,C,2F1B,57,2,1,1,0.30419780199918023,0,B3,R,5,5,5,5,24
S4,P2,C,1F2B,58,1,2,2,0.4137724480006,0,B3,R,5,5,5,5,24
S4,P2,C,1F2B,59,1,2,2,0.4246437130004779,0,B3,R,5,5,5,5,24
S4,P2,C,1F2B,60,1,2,2,0.3230026959990937,0,B3,R,5,5,5,5,24
S4,P2,C,2F2B,61,2,2,2,0.5866563380004663,1,B3,R,5,5,5,5,24
S4,P2,C,1F2B,62,1,2,2,0.6060082519998105,0,B3,R,5,5,5,5,24
S4,P2,C,1F1B,63,1,1,1,0.3335730529997818,1,B3,R,5,5,5,5,24
S4,P2,C,1F1B,64,1,1,1,0.4994320850000804,1,B3,R,5,5,5,5,24
S4,P2,C,1F1B,65,1,1,1,0.5783928090004338,1,B3,R,5,5,5,5,24
S4,P2,C,2F2B,66,2,2,2,0.42582894600127474,1,B3,R,5,5,5,5,24
S4,P2,C,2F1B,67,2,1,1,0.49697071199989296,0,B3,R,5,5,5,5,24
S4,P2,C,1F1B,68,1,1,1,0.8179058179994172,1,B3,R,5,5,5,5,24
S4,P2,C,2F2B,69,2,2,2,0.423475233001227,1,B3,R,5,5,5,5,24
S4,P2,C,1F2B,70,1,2,2,0.4239061699990998,0,B3,R,5,5,5,5,24
S4,P2,C,2F2B,71,2,2,2,0.37821350999911374,1,B3,R,5,5,5,5,24
S4,P2,C,2F1B,72,2,1,1,0.37435309600004985,0,B3,R,5,5,5,5,24
S4,P2,C,1F2B,73,1,2,2,0.145434538999325,0,B3,R,5,5,5,5,24
S4,P2,C,1F2B,74,1,2,1,0.26019131599969114,1,B3,R,5,5,5,5,24
S4,P2,C,1F1B,75,1,1,1,0.29513936300099886,1,B3,R,5,5,5,5,24
S4,P2,C,2F2B,76,2,2,2,0.36682905400084564,1,B3,R,5,5,5,5,24
S4,P2,C,1F2B,77,1,2,2,0.2541760530002648,0,B3,R,5,5,5,5,24
S4,P2,C,1F1B,78,1,1,1,0.2273476650007069,1,B3,R,5,5,5,5,24
S4,P2,C,2F2B,79,2,2,2,0.30612307200135547,1,B3,R,5,5,5,5,24
S4,P2,C,2F2B,80,2,2,2,0.30730331399900024,1,B3,R,5,5,5,5,24
S4,P2,C,1F1B,81,1,1,1,0.26756657699843345,1,B3,R,5,5,5,5,24
S4,P2,C,2F1B,82,2,1,1,0.392784429999665,0,B3,R,5,5,5,5,24
S4,P2,C,2F2B,83,2,2,2,0.37368786499973794,1,B3,R,5,5,5,5,24
S4,P2,C,2F1B,84,2,1,2,0.3848073139997723,1,B3,R,5,5,5,5,24
S4,P2,C,2F1B,85,2,1,1,0.40066914000090037,0,B3,R,5,5,5,5,24
S4,P2,C,1F2B,86,1,2,2,0.333587623999847,0,B3,R,5,5,5,5,24
S4,P2,C,2F1B,87,2,1,1,0.4083049780001602,0,B3,R,5,5,5,5,24
S4,P2,C,2F1B,88,2,1,1,0.4038992580008198,0,B3,R,5,5,5,5,24
S4,P2,C,2F2B,89,2,2,2,0.5210588019999705,1,B3,R,5,5,5,5,24
S4,P2,C,1F2B,90,1,2,2,0.6504428309999639,0,B3,R,5,5,5,5,24
S4,P2,C,1F1B,91,1,1,1,0.7234067280005547,1,B3,R,5,5,5,5,24
S4,P2,C,2F1B,92,2,1,1,0.3174290919996565,0,B3,R,5,5,5,5,24
S4,P2,C,2F1B,93,2,1,1,0.5532332749990019,0,B3,R,5,5,5,5,24
S4,P2,C,2F1B,94,2,1,1,0.7850252120006189,0,B3,R,5,5,5,5,24
S4,P2,C,1F2B,95,1,2,2,0.4684617960010655,0,B3,R,5,5,5,5,24
S4,P2,C,1F2B,96,1,2,2,0.45836978599982103,0,B3,R,5,5,5,5,24
S4,P2,C,2F1B,97,2,1,1,0.35039257100106624,0,B3,R,5,5,5,5,24
S4,P2,C,2F2B,98,2,2,2,0.4512132109994127,1,B3,R,5,5,5,5,24
S4,P2,C,1F1B,99,1,1,1,0.2341316439997172,1,B3,R,5,5,5,5,24
S4,P2,C,2F1B,100,2,1,1,0.30870625100033067,0,B3,R,5,5,5,5,24
S4,P2,C,2F1B,101,2,1,1,0.4582074259997171,0,B3,R,5,5,5,5,24
S4,P2,C,2F2B,102,2,2,2,0.3385861099995964,1,B3,R,5,5,5,5,24
S4,P2,C,2F2B,103,2,2,2,0.4507014650007477,1,B3,R,5,5,5,5,24
S4,P2,C,1F1B,104,1,1,1,0.3260761920009827,1,B3,R,5,5,5,5,24
S4,P2,C,1F1B,105,1,1,1,0.4161134910009423,1,B3,R,5,5,5,5,24
S4,P2,C,1F2B,106,1,2,2,0.29056893800043326,0,B3,R,5,5,5,5,24
S4,P2,C,2F2B,107,2,2,1,0.23618370199983474,0,B3,R,5,5,5,5,24
S4,P2,C,2F1B,108,2,1,1,0.4180910610011779,0,B3,R,5,5,5,5,24
S4,P2,C,2F2B,109,2,2,2,0.3314047460007714,1,B3,R,5,5,5,5,24
S4,P2,C,1F2B,110,1,2,2,0.43463589000020875,0,B3,R,5,5,5,5,24
S4,P2,C,2F2B,111,2,2,2,0.39257683100004215,1,B3,R,5,5,5,5,24
S4,P2,C,1F1B,112,1,1,1,0.3931218979996629,1,B3,R,5,5,5,5,24
S4,P2,C,2F2B,113,2,2,2,0.44807885299996997,1,B3,R,5,5,5,5,24
S4,P2,C,2F2B,114,2,2,2,0.4088118640011089,1,B3,R,5,5,5,5,24
S4,P2,C,1F1B,115,1,1,1,0.38888443399991957,1,B3,R,5,5,5,5,24
S4,P2,C,1F1B,116,1,1,1,0.2681168399994931,1,B3,R,5,5,5,5,24
S4,P2,C,1F1B,117,1,1,1,0.5064169970009971,1,B3,R,5,5,5,5,24
S4,P2,C,2F1B,118,2,1,1,0.4669907690004038,0,B3,R,5,5,5,5,24
S4,P2,C,1F1B,119,1,1,1,0.4455408570011059,1,B3,R,5,5,5,5,24
S4,P2,C,1F1B,120,1,1,1,0.35136046999832615,1,B3,R,5,5,5,5,24
S5,P3,I,2F2B,1,2,2,2,0.9221752989978995,1,B1,L,5,5,5,5,24
S5,P3,I,2F1B,2,2,1,1,0.7417815739972866,0,B1,L,5,5,5,5,24
S5,P3,I,1F2B,3,1,2,2,0.9354265369984205,0,B1,L,5,5,5,5,24
S5,P3,I,1F2B,4,1,2,2,1.2020156559992756,0,B1,L,5,5,5,5,24
S5,P3,I,2F1B,5,2,1,1,0.7222744190003141,0,B1,L,5,5,5,5,24
S5,P3,I,2F1B,6,2,1,2,0.9837609499991231,1,B1,L,5,5,5,5,24
S5,P3,I,2F2B,7,2,2,2,0.8618990280010621,1,B1,L,5,5,5,5,24
S5,P3,I,2F2B,8,2,2,2,0.7164950520018465,1,B1,L,5,5,5,5,24
S5,P3,I,1F1B,9,1,1,1,0.6311594179969688,1,B1,L,5,5,5,5,24
S5,P3,I,1F2B,10,1,2,2,0.6142440779985918,0,B1,L,5,5,5,5,24
S5,P3,I,1F1B,11,1,1,1,1.1082470159999502,1,B1,L,5,5,5,5,24
S5,P3,I,1F1B,12,1,1,1,1.4464366840002185,1,B1,L,5,5,5,5,24
S5,P3,I,2F2B,13,2,2,2,0.49367486300252494,1,B1,L,5,5,5,5,24
S5,P3,I,2F1B,14,2,1,2,0.8156644310001866,1,B1,L,5,5,5,5,24
S5,P3,I,1F2B,15,1,2,2,0.7524547590001021,0,B1,L,5,5,5,5,24
S5,P3,I,1F1B,16,1,1,1,0.9916808000016317,1,B1,L,5,5,5,5,24
S5,P3,I,1F2B,17,1,2,2,0.8496234660015034,0,B1,L,5,5,5,5,24
S5,P3,I,2F2B,18,2,2,2,0.9875444540011813,1,B1,L,5,5,5,5,24
S5,P3,I,1F2B,19,1,2,2,0.8518906919998699,0,B1,L,5,5,5,5,24
S5,P3,I,2F2B,20,2,2,2,0.8141756770019128,1,B1,L,5,5,5,5,24
S5,P3,I,2F1B,21,2,1,1,0.9907085869999719,0,B1,L,5,5,5,5,24
S5,P3,I,2F2B,22,2,2,2,0.9289149380019808,1,B1,L,5,5,5,5,24
S5,P3,I,2F1B,23,2,1,1,0.9568573549986468,0,B1,L,5,5,5,5,24
S5,P3,I,1F1B,24,1,1,1,0.6413153479988978,1,B1,L,5,5,5,5,24
S5,P3,I,2F2B,25,2,2,2,0.5624510990019189,1,B1,L,5,5,5,5,24
S5,P3,I,1F1B,26,1,1,1,0.5652040519998991,1,B1,L,5,5,5,5,24
S5,P3,I,1F1B,27,1,1,1,0.48515926099935314,1,B1,L,5,5,5,5,24
S5,P3,I,2F1B,28,2,1,2,0.7233515959997021,1,B1,L,5,5,5,5,24
S5,P3,I,1F2B,29,1,2,2,0.5748517270003504,0,B1,L,5,5,5,5,24
S5,P3,I,1F2B,30,1,2,2,1.0535575069989136,0,B1,L,5,5,5,5,24
S5,P3,I,1F2B,31,1,2,2,0.5018718089995673,0,B1,L,5,5,5,5,24
S5,P3,I,1F1B,32,1,1,1,0.4400564919997123,1,B1,L,5,5,5,5,24
S5,P3,I,2F1B,33,2,1,2,0.5351767120009754,1,B1,L,5,5,5,5,24
S5,P3,I,2F2B,34,2,2,2,0.43136968500039075,1,B1,L,5,5,5,5,24
S5,P3,I,2F1B,35,2,1,1,0.8526196819984762,0,B1,L,5,5,5,5,24
S5,P3,I,1F2B,36,1,2,2,0.5201395509975555,0,B1,L,5,5,5,5,24
S5,P3,I,2F1B,37,2,1,1,1.1689279720012564,0,B1,L,5,5,5,5,24
S5,P3,I,1F1B,38,1,1,1,0.4601659340005426,1,B1,L,5,5,5,5,24
S5,P3,I,1F2B,39,1,2,2,0.42093882100016344,0,B1,L,5,5,5,5,24
S5,P3,I,1F1B,40,1,1,1,0.49735839600180043,1,B1,L,5,5,5,5,24
S5,P3,I,2F1B,41,2,1,2,0.5834362010027689,1,B1,L,5,5,5,5,24
S5,P3,I,2F1B,42,2,1,1,0.9704915020010958,0,B1,L,5,5,5,5,24
S5,P3,I,2F2B,43,2,2,2,0.702165407998109,1,B1,L,5,5,5,5,24
S5,P3,I,2F2B,44,2,2,2,0.7259245319983165,1,B1,L,5,5,5,5,24
S5,P3,I,2F2B,45,2,2,2,0.7335843359978753,1,B1,L,5,5,5,5,24
S5,P3,I,2F1B,46,2,1,1,0.721938135997334,0,B1,L,5,5,5,5,24
S5,P3,I,2F1B,47,2,1,1,1.1082397240024875,0,B1,L,5,5,5,5,24
S5,P3,I,1F2B,48,1,2,2,0.6502384380000876,0,B1,L,5,5,5,5,24
S5,P3,I,1F2B,49,1,2,2,0.6385770380002214,0,B1,L,5,5,5,5,24
S5,P3,I,1F2B,50,1,2,2,0.5963484880012402,0,B1,L,5,5,5,5,24
S5,P3,I,2F1B,51,2,1,1,1.2094283870028448,0,B1,L,5,5,5,5,24
S5,P3,I,2F2B,52,2,2,2,0.6327640870003961,1,B1,L,5,5,5,5,24
S5,P3,I,2F1B,53,2,1,1,1.2223709280006005,0,B1,L,5,5,5,5,24
S5,P3,I,2F1B,54,2,1,1,0.8511650580003334,0,B1,L,5,5,5,5,24
S5,P3,I,1F2B,55,1,2,1,1.1484772289986722,1,B1,L,5,5,5,5,24
S5,P3,I,1F1B,56,1,1,1,0.716793546002009,1,B1,L,5,5,5,5,24
S5,P3,I,2F2B,57,2,2,2,0.6030773660022533,1,B1,L,5,5,5,5,24
S5,P3,I,2F2B,58,2,2,2,0.6372153729971615,1,B1,L,5,5,5,5,24
S5,P3,I,2F1B,59,2,1,2,0.7595155630006047,1,B1,L,5,5,5,5,24
S5,P3,I,2F2B,60,2,2,2,0.639559430997906,1,B1,L,5,5,5,5,24
S5,P3,I,2F1B,61,2,1,1,0.7428874280012678,0,B1,L,5,5,5,5,24
S5,P3,I,1F1B,62,1,1,1,0.4752440200027195,1,B1,L,5,5,5,5,24
S5,P3,I,2F2B,63,2,2,2,0.42703341400192585,1,B1,L,5,5,5,5,24
S5,P3,I,2F2B,64,2,2,2,0.3450899540002865,1,B1,L,5,5,5,5,24
S5,P3,I,1F1B,65,1,1,1,0.48618661900036386,1,B1,L,5,5,5,5,24
S5,P3,I,1F1B,66,1,1,1,0.4825265789986588,1,B1,L,5,5,5,5,24
S5,P3,I,2F1B,67,2,1,1,0.6251861249984358,0,B1,L,5,5,5,5,24
S5,P3,I,1F2B,68,1,2,2,0.4782465489988681,0,B1,L,5,5,5,5,24
S5,P3,I,1F1B,69,1,1,1,0.40449267599979066,1,B1,L,5,5,5,5,24
S5,P3,I,1F1B,70,1,1,1,0.407368359999964,1,B1,L,5,5,5,5,24
S5,P3,I,2F2B,71,2,2,2,0.6959032669983571,1,B1,L,5,5,5,5,24
S5,P3,I,2F1B,72,2,1,1,0.5228322959992511,0,B1,L,5,5,5,5,24
S5,P3,I,1F1B,73,1,1,1,0.6054071899998235,1,B1,L,5,5,5,5,24
S5,P3,I,1F1B,74,1,1,1,0.44450929000231554,1,B1,L,5,5,5,5,24
S5,P3,I,1F1B,75,1,1,1,0.42350862699822756,1,B1,L,5,5,5,5,24
S5,P3,I,1F1B,76,1,1,1,0.37958261799940374,1,B1,L,5,5,5,5,24
S5,P3,I,2F2B,77,2,2,2,0.3672956959999283,1,B1,L,5,5,5,5,24
S5,P3,I,1F2B,78,1,2,2,0.40895781500148587,0,B1,L,5,5,5,5,24
S5,P3,I,1F2B,79,1,2,2,0.43535834200156387,0,B1,L,5,5,5,5,24
S5,P3,I,1F2B,80,1,2,2,0.3229770629986888,0,B1,L,5,5,5,5,24
S5,P3,I,1F2B,81,1,2,2,0.40921753400107264,0,B1,L,5,5,5,5,24
S5,P3,I,2F2B,82,2,2,2,0.3651460080000106,1,B1,L,5,5,5,5,24
S5,P3,I,2F1B,83,2,1,1,0.40888966400234494,0,B1,L,5,5,5,5,24
S5,P3,I,2F1B,84,2,1,1,0.49139280800227425,0,B1,L,5,5,5,5,24
S5,P3,I,2F2B,85,2,2,2,0.4214065060004941,1,B1,L,5,5,5,5,24
S5,P3,I,1F2B,86,1,2,2,0.42880762400091044,0,B1,L,5,5,5,5,24
S5,P3,I,1F2B,87,1,2,2,0.41859250100242207,0,B1,L,5,5,5,5,24
S5,P3,I,2F1B,88,2,1,1,0.4757192809993285,0,B1,L,5,5,5,5,24
S5,P3,I,2F2B,89,2,2,2,0.6760839739981748,1,B1,L,5,5,5,5,24
S5,P3,I,1F1B,90,1,1,1,0.4723143170012918,1,B1,L,5,5,5,5,24
S5,P3,I,2F1B,91,2,1,2,1.1662070350030262,1,B1,L,5,5,5,5,24
S5,P3,I,1F1B,92,1,1,1,0.29946297199785477,1,B1,L,5,5,5,5,24
S5,P3,I,2F1B,93,2,1,1,0.7982217640019371,0,B1,L,5,5,5,5,24
S5,P3,I,2F2B,94,2,2,2,0.33307342899934156,1,B1,L,5,5,5,5,24
S5,P3,I,1F1B,95,1,1,1,0.37078785300036543,1,B1,L,5,5,5,5,24
S5,P3,I,2F2B,96,2,2,2,0.5612620620013331,1,B1,L,5,5,5,5,24
S5,P3,I,1F2B,97,1,2,2,0.3440672220021952,0,B1,L,5,5,5,5,24
S5,P3,I,2F1B,98,2,1,1,0.4258995979980682,0,B1,L,5,5,5,5,24
S5,P3,I,1F2B,99,1,2,2,0.34083585500047775,0,B1,L,5,5,5,5,24
S5,P3,I,2F1B,100,2,1,2,0.8392372579983203,1,B1,L,5,5,5,5,24
S5,P3,I,2F1B,101,2,1,1,0.7519289539995953,0,B1,L,5,5,5,5,24
S5,P3,I,1F1B,102,1,1,1,0.4957217579976714,1,B1,L,5,5,5,5,24
S5,P3,I,1F1B,103,1,1,1,0.3387289409984078,1,B1,L,5,5,5,5,24
S5,P3,I,1F2B,104,1,2,2,0.31780578599864384,0,B1,L,5,5,5,5,24
S5,P3,I,1F2B,105,1,2,2,0.3391028420010116,0,B1,L,5,5,5,5,24
S5,P3,I,1F2B,106,1,2,2,0.44441029200243065,0,B1,L,5,5,5,5,24
S5,P3,I,1F1B,107,1,1,1,0.39908134099823656,1,B1,L,5,5,5,5,24
S5,P3,I,1F2B,108,1,2,2,0.5873837389990513,0,B1,L,5,5,5,5,24
S5,P3,I,1F2B,109,1,2,2,0.3671538189992134,0,B1,L,5,5,5,5,24
S5,P3,I,1F1B,110,1,1,1,0.37692501499986975,1,B1,L,5,5,5,5,24
S5,P3,I,1F1B,111,1,1,1,0.3375100190023659,1,B1,L,5,5,5,5,24
S5,P3,I,2F2B,112,2,2,2,0.2848906959989108,1,B1,L,5,5,5,5,24
S5,P3,I,2F2B,113,2,2,2,0.5106252850018791,1,B1,L,5,5,5,5,24
S5,P3,I,1F1B,114,1,1,1,0.4923404090004624,1,B1,L,5,5,5,5,24
S5,P3,I,1F2B,115,1,2,1,0.5540959299978567,1,B1,L,5,5,5,5,24
S5,P3,I,1F1B,116,1,1,1,0.5281170029993518,1,B1,L,5,5,5,5,24
S5,P3,I,2F1B,117,2,1,1,0.49053477400229895,0,B1,L,5,5,5,5,24
S5,P3,I,2F2B,118,2,2,2,0.36054022399912355,1,B1,L,5,5,5,5,24
S5,P3,I,2F2B,119,2,2,2,0.5365572379996593,1,B1,L,5,5,5,5,24
S5,P3,I,2F2B,120,2,2,2,0.4018116449988156,1,B1,L,5,5,5,5,24
S5,P3,C,2F2B,1,2,2,2,0.587410957999964,1,B2,L,5,5,5,5,24
S5,P3,C,1F2B,2,1,2,2,0.3100120249982865,0,B2,L,5,5,5,5,24
S5,P3,C,1F2B,3,1,2,2,0.4172504299967841,0,B2,L,5,5,5,5,24
S5,P3,C,2F2B,4,2,2,2,0.40815374700105167,1,B2,L,5,5,5,5,24
S5,P3,C,2F2B,5,2,2,2,0.9203625279988046,1,B2,L,5,5,5,5,24
S5,P3,C,2F2B,6,2,2,2,0.3694497779979429,1,B2,L,5,5,5,5,24
S5,P3,C,2F1B,7,2,1,1,0.4453598799991596,0,B2,L,5,5,5,5,24
S5,P3,C,2F2B,8,2,2,2,0.4155872850024025,1,B2,L,5,5,5,5,24
S5,P3,C,2F1B,9,2,1,1,0.742210806998628,0,B2,L,5,5,5,5,24
S5,P3,C,2F1B,10,2,1,1,0.6497896350010706,0,B2,L,5,5,5,5,24
S5,P3,C,1F1B,11,1,1,1,0.45327706999887596,1,B2,L,5,5,5,5,24
S5,P3,C,2F1B,12,2,1,1,0.5649226179994002,0,B2,L,5,5,5,5,24
S5,P3,C,1F2B,13,1,2,1,0.4586941529996693,1,B2,L,5,5,5,5,24
S5,P3,C,1F1B,14,1,1,1,0.44764497200230835,1,B2,L,5,5,5,5,24
S5,P3,C,2F1B,15,2,1,1,0.37798003400166635,0,B2,L,5,5,5,5,24
S5,P3,C,2F2B,16,2,2,2,0.47531675700156484,1,B2,L,5,5,5,5,24
S5,P3,C,2F2B,17,2,2,2,0.9261002649982402,1,B2,L,5,5,5,5,24
S5,P3,C,1F2B,18,1,2,2,0.6575870169981499,0,B2,L,5,5,5,5,24
S5,P3,C,2F2B,19,2,2,2,0.29903095699773985,1,B2,L,5,5,5,5,24
S5,P3,C,2F1B,20,2,1,1,0.9999906340017333,0,B2,L,5,5,5,5,24
S5,P3,C,1F2B,21,1,2,2,0.45939050699962536,0,B2,L,5,5,5,5,24
S5,P3,C,1F1B,22,1,1,1,0.5827508949987532,1,B2,L,5,5,5,5,24
S5,P3,C,1F1B,23,1,1,1,0.5790133110021998,1,B2,L,5,5,5,5,24
S5,P3,C,1F2B,24,1,2,2,0.5832103940010711,0,B2,L,5,5,5,5,24
S5,P3,C,1F1B,25,1,1,1,0.5750018789985916,1,B2,L,5,5,5,5,24
S5,P3,C,2F2B,26,2,2,2,0.551512032001483,1,B2,L,5,5,5,5,24
S5,P3,C,1F2B,27,1,2,2,0.40297107999867876,0,B2,L,5,5,5,5,24
S5,P3,C,1F2B,28,1,2,2,0.5444033090025187,0,B2,L,5,5,5,5,24
S5,P3,C,1F2B,29,1,2,2,0.42323978299828013,0,B2,L,5,5,5,5,24
S5,P3,C,2F2B,30,2,2,2,0.6035597579975729,1,B2,L,5,5,5,5,24
S5,P3,C,1F2B,31,1,2,2,0.4330998240002373,0,B2,L,5,5,5,5,24
S5,P3,C,2F2B,32,2,2,2,0.3947995259986783,1,B2,L,5,5,5,5,24
S5,P3,C,2F1B,33,2,1,1,0.5353391239987104,0,B2,L,5,5,5,5,24
S5,P3,C,1F1B,34,1,1,1,0.43658706200221786,1,B2,L,5,5,5,5,24
S5,P3,C,1F2B,35,1,2,2,0.3694013509993965,0,B2,L,5,5,5,5,24
S5,P3,C,2F1B,36,2,1,1,0.6716760700001032,0,B2,L,5,5,5,5,24
S5,P3,C,2F1B,37,2,1,1,0.5883789670006081,0,B2,L,5,5,5,5,24
S5,P3,C,2F1B,38,2,1,1,0.47083527100039646,0,B2,L,5,5,5,5,24
S5,P3,C,1F2B,39,1,2,2,0.6414487910005846,0,B2,L,5,5,5,5,24
S5,P3,C,1F2B,40,1,2,2,1.3611113740007568,0,B2,L,5,5,5,5,24
S5,P3,C,2F1B,41,2,1,1,0.4995875929998874,0,B2,L,5,5,5,5,24
S5,P3,C,2F1B,42,2,1,1,0.8721923820012307,0,B2,L,5,5,5,5,24
S5,P3,C,1F1B,43,1,1,1,0.4975104880031722,1,B2,L,5,5,5,5,24
S5,P3,C,1F1B,44,1,1,1,0.40037812999798916,1,B2,L,5,5,5,5,24
S5,P3,C,1F1B,45,1,1,1,0.3637820539988752,1,B2,L,5,5,5,5,24
S5,P3,C,1F1B,46,1,1,1,0.3806410879988107,1,B2,L,5,5,5,5,24
S5,P3,C,1F2B,47,1,2,2,0.4184669700007362,0,B2,L,5,5,5,5,24
S5,P3,C,2F1B,48,2,1,2,0.6677962909998314,1,B2,L,5,5,5,5,24
S5,P3,C,2F1B,49,2,1,1,1.0464253099999041,0,B2,L,5,5,5,5,24
S5,P3,C,2F1B,50,2,1,2,0.6459385210000619,1,B2,L,5,5,5,5,24
S5,P3,C,1F1B,51,1,1,1,0.34480909099875134,1,B2,L,5,5,5,5,24
S5,P3,C,1F1B,52,1,1,1,0.5700117590022273,1,B2,L,5,5,5,5,24
S5,P3,C,2F1B,53,2,1,2,0.9689416699984577,1,B2,L,5,5,5,5,24
S5,P3,C,2F2B,54,2,2,2,0.3757810219976818,1,B2,L,5,5,5,5,24
S5,P3,C,2F1B,55,2,1,1,0.5676260649997857,0,B2,L,5,5,5,5,24
S5,P3,C,1F2B,56,1,2,2,0.35027159600213054,0,B2,L,5,5,5,5,24
S5,P3,C,2F2B,57,2,2,2,0.36892867499773274,1,B2,L,5,5,5,5,24
S5,P3,C,2F1B,58,2,1,2,0.7874001440031861,1,B2,L,5,5,5,5,24
S5,P3,C,2F2B,59,2,2,2,0.4899410479993094,1,B2,L,5,5,5,5,24
S5,P3,C,1F2B,60,1,2,2,1.1265862149994064,0,B2,L,5,5,5,5,24
S5,P3,C,1F2B,61,1,2,2,0.3924152569998114,0,B2,L,5,5,5,5,24
S5,P3,C,1F1B,62,1,1,1,0.4643037710011413,1,B2,L,5,5,5,5,24
S5,P3,C,1F1B,63,1,1,1,0.3510390910014394,1,B2,L,5,5,5,5,24
S5,P3,C,2F2B,64,2,2,2,0.3833185169969511,1,B2,L,5,5,5,5,24
S5,P3,C,1F2B,65,1,2,2,0.4963309669983573,0,B2,L,5,5,5,5,24
S5,P3,C,1F2B,66,1,2,2,0.5762800330012396,0,B2,L,5,5,5,5,24
S5,P3,C,1F1B,67,1,1,1,0.5058815070005949,1,B2,L,5,5,5,5,24
S5,P3,C,1F2B,68,1,2,2,0.5559770849977212,0,B2,L,5,5,5,5,24
S5,P3,C,1F1B,69,1,1,1,0.3959555500005081,1,B2,L,5,5,5,5,24
S5,P3,C,1F1B,70,1,1,1,0.40861596499962616,1,B2,L,5,5,5,5,24
S5,P3,C,2F2B,71,2,2,2,0.350954000998172,1,B2,L,5,5,5,5,24
S5,P3,C,2F1B,72,2,1,1,0.5237499300019408,0,B2,L,5,5,5,5,24
S5,P3,C,1F2B,73,1,2,2,0.40876385500087054,0,B2,L,5,5,5,5,24
S5,P3,C,2F1B,74,2,1,1,0.3653843490028521,0,B2,L,5,5,5,5,24
S5,P3,C,1F2B,75,1,2,2,0.5480638400003954,0,B2,L,5,5,5,5,24
S5,P3,C,1F2B,76,1,2,2,0.5520375489977596,0,B2,L,5,5,5,5,24
S5,P3,C,2F2B,77,2,2,2,0.45386110199979157,1,B2,L,5,5,5,5,24
S5,P3,C,1F1B,78,1,1,1,0.5187910149979871,1,B2,L,5,5,5,5,24
S5,P3,C,2F2B,79,2,2,2,0.5612760189978871,1,B2,L,5,5,5,5,24
S5,P3,C,1F2B,80,1,2,2,0.5453293319988006,0,B2,L,5,5,5,5,24
S5,P3,C,2F1B,81,2,1,2,0.697802804003004,1,B2,L,5,5,5,5,24
S5,P3,C,2F1B,82,2,1,1,0.8590765469998587,0,B2,L,5,5,5,5,24
S5,P3,C,2F1B,83,2,1,1,0.28938463699887507,0,B2,L,5,5,5,5,24
S5,P3,C,2F2B,84,2,2,2,0.6232252000008884,1,B2,L,5,5,5,5,24
S5,P3,C,2F2B,85,2,2,2,0.369512108998606,1,B2,L,5,5,5,5,24
S5,P3,C,2F2B,86,2,2,2,0.39713488099732785,1,B2,L,5,5,5,5,24
S5,P3,C,1F1B,87,1,1,1,0.540777246998914,1,B2,L,5,5,5,5,24
S5,P3,C,2F1B,88,2,1,1,0.35388558299746364,0,B2,L,5,5,5,5,24
S5,P3,C,2F1B,89,2,1,1,0.4431609099992784,0,B2,L,5,5,5,5,24
S5,P3,C,1F2B,90,1,2,2,0.46952754000085406,0,B2,L,5,5,5,5,24
S5,P3,C,1F1B,91,1,1,1,0.41474919599932036,1,B2,L,5,5,5,5,24
S5,P3,C,1F1B,92,1,1,1,0.49990378000075,1,B2,L,5,5,5,5,24
S5,P3,C,2F2B,93,2,2,2,0.3513208799995482,1,B2,L,5,5,5,5,24
S5,P3,C,1F1B,94,1,1,1,0.6528371819986205,1,B2,L,5,5,5,5,24
S5,P3,C,1F2B,95,1,2,2,0.665230596998299,0,B2,L,5,5,5,5,24
S5,P3,C,1F2B,96,1,2,2,0.8175082849993487,0,B2,L,5,5,5,5,24
S5,P3,C,2F2B,97,2,2,2,0.4358532459991693,1,B2,L,5,5,5,5,24
S5,P3,C,1F2B,98,1,2,2,0.3717789710026409,0,B2,L,5,5,5,5,24
S5,P3,C,2F1B,99,2,1,1,0.49163623800268397,0,B2,L,5,5,5,5,24
S5,P3,C,1F1B,100,1,1,1,0.7573741929991229,1,B2,L,5,5,5,5,24
S5,P3,C,2F2B,101,2,2,2,0.4009669600018242,1,B2,L,5,5,5,5,24
S5,P3,C,2F2B,102,2,2,2,0.5917654619988753,1,B2,L,5,5,5,5,24
S5,P3,C,1F1B,103,1,1,1,0.6833631389999937,1,B2,L,5,5,5,5,24
S5,P3,C,1F1B,104,1,1,1,0.4255971100028546,1,B2,L,5,5,5,5,24
S5,P3,C,1F2B,105,1,2,2,0.4233606579982734,0,B2,L,5,5,5,5,24
S5,P3,C,2F2B,106,2,2,2,0.4075202370004263,1,B2,L,5,5,5,5,24
S5,P3,C,2F2B,107,2,2,2,0.9583691309999267,1,B2,L,5,5,5,5,24
S5,P3,C,2F1B,108,2,1,1,0.35487362400090205,0,B2,L,5,5,5,5,24
S5,P3,C,2F2B,109,2,2,2,0.308176253001875,1,B2,L,5,5,5,5,24
S5,P3,C,2F1B,110,2,1,1,0.46022013800029526,0,B2,L,5,5,5,5,24
S5,P3,C,1F2B,111,1,2,2,0.46616127300148946,0,B2,L,5,5,5,5,24
S5,P3,C,2F2B,112,2,2,2,0.5850620359997265,1,B2,L,5,5,5,5,24
S5,P3,C,1F1B,113,1,1,1,0.3550613070001418,1,B2,L,5,5,5,5,24
S5,P3,C,2F1B,114,2,1,2,0.44541458700041403,1,B2,L,5,5,5,5,24
S5,P3,C,1F1B,115,1,1,1,0.3003698609973071,1,B2,L,5,5,5,5,24
S5,P3,C,2F2B,116,2,2,2,0.3603534620015125,1,B2,L,5,5,5,5,24
S5,P3,C,1F1B,117,1,1,1,0.5497014430002309,1,B2,L,5,5,5,5,24
S5,P3,C,2F1B,118,2,1,1,0.8979990129992075,0,B2,L,5,5,5,5,24
