sub trial_no group_type block_type prime target mask1 mask2 congruency key_press key_error time_error RT
701 1 LeftSmaller RTTaskAPrac Prime_1A Target_9N KihEjBa hCGlgHe Incongruent left error Normal 945.1745
701 2 LeftSmaller RTTaskAPrac Prime_1N Target_1N GFfILhl cJjLBhM Congruent left correct Normal 650.4958
701 3 LeftSmaller RTTaskAPrac Prime_4A Target_1N CjcHAId FhKbGEg Congruent left correct Normal 516.9175
701 4 LeftSmaller RTTaskAPrac Prime_4A Target_9A cFdhalD gmHcFkD Incongruent right correct Normal 542.3052
701 5 LeftSmaller RTTaskAPrac Prime_9A Target_9A agICMfJ BbhlaFL Congruent right correct Normal 507.3601
701 6 LeftSmaller RTTaskAPrac Prime_6A Target_9A klEBCFL LJKahij Congruent right correct Normal 464.8516
701 7 LeftSmaller RTTaskAPrac Prime_4A Target_6N lkILcgi HCidcbm Incongruent right correct Normal 755.5798
701 8 LeftSmaller RTTaskAPrac Prime_4N Target_9A ibaFHfh HGalLEi Incongruent right correct Normal 524.8619
701 9 LeftSmaller RTTaskAPrac Prime_4N Target_1N ljCiJdE EJcfBbi Congruent left correct Normal 452.898
701 10 LeftSmaller RTTaskAPrac Prime_4N Target_4N jimbCAM leJMDHA Congruent right error Normal 817.5483
701 11 LeftSmaller RTTaskAPrac Prime_4N Target_1A BDdcafg hHcljIG Congruent left correct Normal 466
701 12 LeftSmaller RTTaskAPrac Prime_4N Target_4N bjdKFAM iDjfaGm Congruent left correct Late 1039.73
701 13 LeftSmaller RTTaskAPrac Prime_1A Target_1A FKgJkbm HjFagMB Congruent left correct Normal 491.2134
701 14 LeftSmaller RTTaskAPrac Prime_4N Target_4N ajmKgCD EjbklIM Congruent left correct Normal 605.0389
701 15 LeftSmaller RTTaskAPrac Prime_1N Target_1A CIHeLjm bmiIGHK Congruent left correct Normal 362.8294
701 16 LeftSmaller RTTaskAPrac Prime_1A Target_9N cbIefDF bmLlaIM Incongruent right correct Normal 479.7064
701 17 LeftSmaller RTTaskAPrac Prime_1N Target_9N hFIaDiJ CFieEcd Incongruent right correct Normal 522.8439
701 18 LeftSmaller RTTaskAPrac Prime_6A Target_1N GjBHfIg mkdgaMf Incongruent left correct Normal 439.2956
701 19 LeftSmaller RTTaskAPrac Prime_6A Target_4A MlKGCjB cmJbdHg Incongruent left correct Normal 465.7314
701 20 LeftSmaller RTTaskAExp1 Prime_4A Target_9A FHmlgJh IgEAfDC Incongruent right correct Normal 632.5966
701 21 LeftSmaller RTTaskAExp1 Prime_4N Target_4A kaGEmJC MiHjhdD Congruent left correct Normal 433.091
701 22 LeftSmaller RTTaskAExp1 Prime_9A Target_1N IfMGhDg AgCjibH Incongruent left correct Normal 469.7837
701 23 LeftSmaller RTTaskAExp1 Prime_1N Target_9N fFbIlma jafhCdm Incongruent right correct Normal 441.729
701 24 LeftSmaller RTTaskAExp1 Prime_9A Target_9N hEmLdfC bFBHCkd Congruent right correct Normal 417.0062
701 25 LeftSmaller RTTaskAExp1 Prime_1A Target_1N AeDfCal IHKfakC Congruent left correct Normal 425.7946
701 26 LeftSmaller RTTaskAExp1 Prime_6A Target_1A AEBaljG IelFcLH Incongruent left correct Normal 380.3295
701 27 LeftSmaller RTTaskAExp1 Prime_4A Target_4A LlEFaAc mDhHdFC Congruent left correct Normal 481.2462
701 28 LeftSmaller RTTaskAExp1 Prime_6N Target_6N FiLfGkg GmBiEAC Congruent right correct Normal 724.6655
701 29 LeftSmaller RTTaskAExp1 Prime_6A Target_1N hicBgmK bGJBCDI Incongruent left correct Normal 464.4574
701 30 LeftSmaller RTTaskAExp1 Prime_9N Target_4A idalLCc GEiJDdk Incongruent left correct Normal 469.7012
701 31 LeftSmaller RTTaskAExp1 Prime_6N Target_1N JHkMFCd jCdBAkI Incongruent left correct Normal 427.7589
701 32 LeftSmaller RTTaskAExp1 Prime_1A Target_9A BKemFfl CAlhKEg Incongruent left error Late 6989.716
701 33 LeftSmaller RTTaskAExp1 Prime_9A Target_1A GMdiaAm lJeiFdm Incongruent left correct Normal 486.7284
701 34 LeftSmaller RTTaskAExp1 Prime_1A Target_9N fClMgjI fHDghCM Incongruent right correct Normal 576.2874
701 35 LeftSmaller RTTaskAExp1 Prime_6N Target_4A kEFmdGh LMFKdjc Incongruent left correct Normal 434.0544
701 36 LeftSmaller RTTaskAExp1 Prime_9A Target_6A hcDBCkf EjBHFgK Congruent right correct Normal 659.9839
701 37 LeftSmaller RTTaskAExp1 Prime_9N Target_1N KFmgAEa BfjlmLE Incongruent left correct Normal 518.3654
701 38 LeftSmaller RTTaskAExp1 Prime_9A Target_4A fACEeHk KMjlihg Incongruent left correct Normal 442.9478
701 39 LeftSmaller RTTaskAExp1 Prime_1A Target_6N HDIJmgj JLMdjgE Incongruent left error Late 4460.877
701 40 LeftSmaller RTTaskAExp1 Prime_6N Target_6A ahgeGDL CebDGMH Congruent left error Late 8452.217
701 41 LeftSmaller RTTaskAExp1 Prime_6A Target_6A LjeDJcC lhFgLKj Congruent right correct Normal 469.7501
701 42 LeftSmaller RTTaskAExp1 Prime_4N Target_9N GKILBgk lFfBGKE Incongruent right correct Normal 869.3155
701 43 LeftSmaller RTTaskAExp1 Prime_4A Target_1N LFcajDm clgfCAK Congruent left correct Normal 518.5091
701 44 LeftSmaller RTTaskAExp1 Prime_9N Target_6N MKLclfF AKcmdlf Congruent right correct Normal 392.1783
701 45 LeftSmaller RTTaskAExp1 Prime_6A Target_4N hKBMgJL AkFDcel Incongruent left correct Normal 583.7521
701 46 LeftSmaller RTTaskAExp1 Prime_1A Target_4N afkHCbM eKlhHLC Congruent left correct Normal 731.2688
701 47 LeftSmaller RTTaskAExp1 Prime_9N Target_1A EGgeklh lDAbeLd Incongruent left correct Normal 432.8031
701 48 LeftSmaller RTTaskAExp1 Prime_6N Target_1A eLBGHIM CcGDKFm Incongruent left correct Normal 416.3518
701 49 LeftSmaller RTTaskAExp1 Prime_6A Target_4A eMmDiIh mFALgCH Incongruent left correct Normal 373.0008
701 50 LeftSmaller RTTaskAExp1 Prime_1A Target_6A lFEjJcI KFhEgCL Incongruent left error Late 6184.084
701 51 LeftSmaller RTTaskAExp1 Prime_4N Target_1A FBIekhj GMecKAh Congruent left correct Normal 489.1008
701 52 LeftSmaller RTTaskAExp1 Prime_6A Target_9A DeCiHKE fCJjiKh Congruent left error Late 5163.18
701 53 LeftSmaller RTTaskAExp1 Prime_1A Target_4A eBKCbda EGfBKka Congruent right error Late 5081.576
701 54 LeftSmaller RTTaskAExp1 Prime_6N Target_9N AHdKfBc gKdCAlJ Congruent right correct Normal 484.1522
701 55 LeftSmaller RTTaskAExp1 Prime_4N Target_6N mklLbHg lmDieaM Incongruent right correct Normal 913.7219
701 56 LeftSmaller RTTaskAExp1 Prime_1N Target_4A cmECaAJ ilbhgEk Congruent left correct Normal 731.7301
701 57 LeftSmaller RTTaskAExp1 Prime_6N Target_6A BklbDJa aCgecfi Congruent right correct Normal 426.5241
701 58 LeftSmaller RTTaskAExp1 Prime_4A Target_6N HEdcbKF gECcBMG Incongruent right correct Normal 456.6914
701 59 LeftSmaller RTTaskAExp1 Prime_4N Target_1N GakBlei cLbgaBJ Congruent left correct Normal 481.8673
701 60 LeftSmaller RTTaskAExp1 Prime_1A Target_6N AjMHGdC KfBdkjE Incongruent right correct Normal 591.4069
701 61 LeftSmaller RTTaskAExp1 Prime_9N Target_9N AfGKEka HfAkCGb Congruent right correct Normal 561.2484
701 62 LeftSmaller RTTaskAExp1 Prime_6A Target_9N FBADLJb jIlGkMb Congruent right correct Late 5272.371
701 63 LeftSmaller RTTaskAExp1 Prime_6A Target_9A fLbHElI bMflEAG Congruent right correct Normal 400.1163
701 64 LeftSmaller RTTaskAExp1 Prime_9N Target_9A HDFCdmh fdeEAGk Congruent right correct Late 4905.451
701 65 LeftSmaller RTTaskAExp1 Prime_6N Target_4N kfeHlAg GAhIaBg Incongruent left correct Normal 517.0227
701 66 LeftSmaller RTTaskAExp1 Prime_4A Target_4N JAhKHBg LaACmEf Congruent left correct Normal 383.9513
701 67 LeftSmaller RTTaskAExp1 Prime_9N Target_4N JeIdLEm mEHbMFg Incongruent left correct Normal 572.8153
701 68 LeftSmaller RTTaskAExp1 Prime_4N Target_6A hjBlFcJ CAbJfkD Incongruent left error Late 5675.328
701 69 LeftSmaller RTTaskAExp1 Prime_1A Target_1A GMjahLE CJikLHG Congruent left correct Normal 565.3061
701 70 LeftSmaller RTTaskAExp1 Prime_9N Target_9A cEfdBFL FEGfADC Congruent right correct Normal 422.9754
701 71 LeftSmaller RTTaskAExp1 Prime_9A Target_6N KFhjEMB bdmhDCa Congruent right correct Normal 394.9912
701 72 LeftSmaller RTTaskAExp1 Prime_4A Target_9N dbigHDk HmdclkJ Incongruent right correct Normal 498.4306
701 73 LeftSmaller RTTaskAExp1 Prime_9A Target_9A MFLmJgc LfbMBJe Congruent right correct Normal 371.2095
701 74 LeftSmaller RTTaskAExp1 Prime_1A Target_9A BHfghiC hbmkfLd Incongruent right correct Late 3675.085
701 75 LeftSmaller RTTaskAExp1 Prime_1A Target_9A gbAHCdI ADfIiam Incongruent right correct Normal 325.484
701 76 LeftSmaller RTTaskAExp1 Prime_1N Target_6A bJjMFLh diBDJlH Incongruent left error Late 4395.069
701 77 LeftSmaller RTTaskAExp1 Prime_4N Target_9A haKiLlg HKJFbBj Incongruent right correct Normal 354.0225
701 78 LeftSmaller RTTaskAExp1 Prime_1A Target_6A lBjdfDh GLAHjKI Incongruent right correct Normal 303.0577
701 79 LeftSmaller RTTaskAExp1 Prime_1N Target_1A JHaKAFh geCFjbd Congruent left correct Normal 579.6266
701 80 LeftSmaller RTTaskAExp1 Prime_1N Target_9A gEaJLiK dmiCHal Incongruent right correct Normal 387.7883
701 81 LeftSmaller RTTaskAExp1 Prime_1N Target_6N iGLhDBA aChdicm Incongruent left error Late 4181.881
701 82 LeftSmaller RTTaskAExp1 Prime_1N Target_1N gELjCKM iamfBAI Congruent left correct Normal 566.4218
701 83 LeftSmaller RTTaskAExp1 Prime_4N Target_4N IchHdfD MKCLcdI Congruent left correct Normal 749.8226
701 84 LeftSmaller RTTaskAExp1 Prime_6N Target_9A cBehLbk ALfBmKb Congruent right correct Normal 436.0823
701 85 LeftSmaller RTTaskAExp1 Prime_4A Target_6A iFhmJMj Jkjmbfi Incongruent right correct Normal 629.8008
701 86 LeftSmaller RTTaskAExp1 Prime_9A Target_4N lfbBJKL mKbcaCh Incongruent left correct Normal 482.7283
701 87 LeftSmaller RTTaskAExp1 Prime_4N Target_6A dkJBecC BGdbCjc Incongruent right correct Late 3320.211
701 88 LeftSmaller RTTaskAExp1 Prime_1N Target_4N flebhAD jmBIlhd Congruent right error Normal 659.7388
701 89 LeftSmaller RTTaskAExp1 Prime_9N Target_6A bdMkjKC cbdKIkj Congruent right correct Normal 399.4037
701 90 LeftSmaller RTTaskAExp1 Prime_1A Target_4A jbieAcd AmIJlbD Congruent left correct Normal 475.3391
701 91 LeftSmaller RTTaskAExp1 Prime_4N Target_6A bIDhakl KldHicJ Incongruent left error Late 3807.334
701 92 LeftSmaller RTTaskAExp1 Prime_6A Target_9N MEgiIcd MkLAIeK Congruent right correct Normal 438.6168
701 93 LeftSmaller RTTaskAExp1 Prime_1N Target_6N mBaDAFk DeHaklI Incongruent right correct Normal 566.3514
701 94 LeftSmaller RTTaskAExp1 Prime_1N Target_6A BFgEJCG dIAMilB Incongruent left error Late 3272.041
701 95 LeftSmaller RTTaskAExp1 Prime_4A Target_1A IMLfjgG jgIlFfL Congruent left correct Normal 441.6791
701 96 LeftSmaller RTTaskAExp1 Prime_6A Target_6N MgaifKE dAcmIFM Congruent left error Late 3094.69
701 97 LeftSmaller RTTaskAExp1 Prime_4N Target_6A GFdBCgb legHadL Incongruent right correct Normal 343.2099
701 98 LeftSmaller RTTaskAExp1 Prime_1N Target_6A cMajbHh JBLCidm Incongruent right correct Normal 459.1099
701 99 LeftSmaller RTTaskAExp1 Prime_6A Target_6N iaCALcE FlChJMI Congruent right correct Normal 468.9839
701 100 LeftSmaller RTTaskAExp1 Prime_1N Target_4N gjhmJAi GAekDLf Congruent left correct Normal 592.672
701 101 LeftSmaller RTTaskAExp2 Prime_6N Target_6A cmidIfH hicbLfd Congruent right correct Normal 419.0157
701 102 LeftSmaller RTTaskAExp2 Prime_9A Target_6A ahDlMAJ DfHMmJL Congruent right correct Normal 357.3267
701 103 LeftSmaller RTTaskAExp2 Prime_4A Target_6A ciFDebk aFEglAc Incongruent right correct Normal 369.2122
701 104 LeftSmaller RTTaskAExp2 Prime_9A Target_4N ameIhJL hlABLfj Incongruent left correct Normal 398.5204
701 105 LeftSmaller RTTaskAExp2 Prime_1N Target_4N IehGkmA KHdFeIb Congruent left correct Normal 459.1912
701 106 LeftSmaller RTTaskAExp2 Prime_6A Target_1A MaAJijf AekaJmg Incongruent left correct Normal 385.1092
701 107 LeftSmaller RTTaskAExp2 Prime_1A Target_1N FhLiKla gDLAkjG Congruent right error Normal 393.0252
701 108 LeftSmaller RTTaskAExp2 Prime_9N Target_4A hKgemEJ bjkKleG Incongruent left correct Late 4019.134
701 109 LeftSmaller RTTaskAExp2 Prime_1A Target_4N ifALbcJ bMimfke Congruent left correct Normal 422.077
701 110 LeftSmaller RTTaskAExp2 Prime_1A Target_1N DfHFIcA GeHFdBE Congruent left correct Normal 396.3602
701 111 LeftSmaller RTTaskAExp2 Prime_6A Target_9N hDAHgMj HlGAKFB Congruent right correct Normal 517.9789
701 112 LeftSmaller RTTaskAExp2 Prime_6N Target_4N KhMmgGB EhaGKjf Incongruent left correct Normal 372.2994
701 113 LeftSmaller RTTaskAExp2 Prime_9N Target_9N IAbGiek BFjJgab Congruent right correct Normal 503.5888
701 114 LeftSmaller RTTaskAExp2 Prime_1N Target_9N BdHjcIe dejKMki Incongruent left error Normal 372.5074
701 115 LeftSmaller RTTaskAExp2 Prime_4N Target_6N eldbLEh lAEdDaf Incongruent right correct Normal 489.3202
701 116 LeftSmaller RTTaskAExp2 Prime_1A Target_4A HDmCMdJ jmHDigG Congruent right error Late 3197.848
701 117 LeftSmaller RTTaskAExp2 Prime_6N Target_4A IiDklgm dJDjFGl Incongruent left correct Normal 460.9727
701 118 LeftSmaller RTTaskAExp2 Prime_1N Target_9N KhibEkj FBcgHke Incongruent right correct Normal 387.1272
701 119 LeftSmaller RTTaskAExp2 Prime_6A Target_9A fdbmHEc BMmhFab Congruent right correct Normal 362.9143
701 120 LeftSmaller RTTaskAExp2 Prime_4N Target_1N LFlEfKa ebGBCAi Congruent left correct Normal 553.4625
701 121 LeftSmaller RTTaskAExp2 Prime_9N Target_4A ejdHAJD jhHGbmd Incongruent left correct Normal 483.507
701 122 LeftSmaller RTTaskAExp2 Prime_6A Target_1N JlFjaeK bGklaiJ Incongruent left correct Normal 503.6633
701 123 LeftSmaller RTTaskAExp2 Prime_6A Target_6N DgmefiI hAmFgMJ Congruent left error Normal 479.6818
701 124 LeftSmaller RTTaskAExp2 Prime_1N Target_1A hgiEBaG ILBcCAa Congruent left correct Normal 398.0123
701 125 LeftSmaller RTTaskAExp2 Prime_4A Target_1A lmDIAik iBdDIFc Congruent left correct Normal 399.0412
701 126 LeftSmaller RTTaskAExp2 Prime_6N Target_6N eHLmKCB edaGmhi Congruent right correct Normal 437.5922
701 127 LeftSmaller RTTaskAExp2 Prime_1N Target_1N imcIgBd lJMjgHC Congruent left correct Normal 392.8667
701 128 LeftSmaller RTTaskAExp2 Prime_6N Target_1A bieAcfK DKCIMbh Incongruent left correct Normal 381.2487
701 129 LeftSmaller RTTaskAExp2 Prime_9A Target_1N AaIHmEe dBEgJeM Incongruent right error Normal 347.9404
701 130 LeftSmaller RTTaskAExp2 Prime_1N Target_4A CmGfHIl bcEGJIA Congruent left correct Normal 645.368
701 131 LeftSmaller RTTaskAExp2 Prime_9N Target_4N Dmcajbh KhFEDBk Incongruent left correct Normal 501.4247
701 132 LeftSmaller RTTaskAExp2 Prime_4N Target_9N eBFMJbK GdJFmeB Incongruent right correct Normal 446.0696
701 133 LeftSmaller RTTaskAExp2 Prime_4A Target_6N ALKFcID iJjbaCG Incongruent right correct Normal 538.7582
701 134 LeftSmaller RTTaskAExp2 Prime_9N Target_6N EHIfabD IfJFEdG Congruent right correct Normal 533.7938
701 135 LeftSmaller RTTaskAExp2 Prime_6A Target_6N LfjemBD LBaDbCd Congruent right correct Normal 321.4
701 136 LeftSmaller RTTaskAExp2 Prime_9A Target_6N CleKmId gjbGKHd Congruent right correct Normal 386.2457
701 137 LeftSmaller RTTaskAExp2 Prime_1A Target_1A bHFfBia amdjehE Congruent left correct Normal 418.3818
701 138 LeftSmaller RTTaskAExp2 Prime_4N Target_1A KJCBdmj igKEIDA Congruent left correct Normal 380.8888
701 139 LeftSmaller RTTaskAExp2 Prime_1A Target_9N aeKmdhc chmIfCj Incongruent right correct Normal 369.5401
701 140 LeftSmaller RTTaskAExp2 Prime_4A Target_9A Hahmkge hbjmFfc Incongruent right correct Normal 394.6362
701 141 LeftSmaller RTTaskAExp2 Prime_4A Target_1N kJCfIiL hGgJmDH Congruent left correct Normal 365.5158
701 142 LeftSmaller RTTaskAExp2 Prime_6A Target_6A MklfdAL idEKbBg Congruent right correct Normal 296.4746
701 143 LeftSmaller RTTaskAExp2 Prime_1N Target_6A aCHfmEd eIfBmlL Incongruent left error Normal 303.5182
701 144 LeftSmaller RTTaskAExp2 Prime_4N Target_6A kbGAdjg AbJHKIB Incongruent right correct Normal 341.323
701 145 LeftSmaller RTTaskAExp2 Prime_1N Target_6A ELMdaBg cJiejAK Incongruent right correct Normal 318.4759
701 146 LeftSmaller RTTaskAExp2 Prime_6N Target_1N madgeBf MagAFck Incongruent right error Normal 299.3761
701 147 LeftSmaller RTTaskAExp2 Prime_9A Target_9N BhkflFL KBcdlMJ Congruent right correct Normal 368.6059
701 148 LeftSmaller RTTaskAExp2 Prime_1N Target_6N FGcAdEB lHKabFj Incongruent left error Normal 423.0975
701 149 LeftSmaller RTTaskAExp2 Prime_6N Target_9N mhiIkAj jgLefAb Congruent right correct Normal 428.1223
701 150 LeftSmaller RTTaskAExp2 Prime_6N Target_1N IkiEjce mGdaeBC Incongruent right error Normal 333.0516
701 151 LeftSmaller RTTaskAExp2 Prime_4N Target_9A MhkEAHa LiFDBfj Incongruent right correct Normal 343.7735
701 152 LeftSmaller RTTaskAExp2 Prime_6N Target_1N IEbKDAm KGjagCl Incongruent left correct Normal 448.5132
701 153 LeftSmaller RTTaskAExp2 Prime_4A Target_4A aMjFGlb MHdcAjC Congruent right error Late 3330.737
701 154 LeftSmaller RTTaskAExp2 Prime_6A Target_4A cfKhjLM fDKBJbH Incongruent right error Normal 436.2981
701 155 LeftSmaller RTTaskAExp2 Prime_9N Target_6A badmMKA KbdGjfI Congruent right correct Normal 334.8801
701 156 LeftSmaller RTTaskAExp2 Prime_1A Target_6N daHCMLF jaGFeEM Incongruent right correct Normal 490.6667
701 157 LeftSmaller RTTaskAExp2 Prime_4A Target_4N DAdJIME LgAdhCj Congruent left correct Normal 568.6406
701 158 LeftSmaller RTTaskAExp2 Prime_9N Target_9A bhKHkCB hjBgIEb Congruent right correct Normal 437.0464
701 159 LeftSmaller RTTaskAExp2 Prime_4N Target_4A AFHCcaf IdBjHch Congruent left correct Normal 451.1065
701 160 LeftSmaller RTTaskAExp2 Prime_9A Target_1A ACLdDFa FeIKdmb Incongruent left correct Normal 432.5608
701 161 LeftSmaller RTTaskAExp2 Prime_9N Target_1A FbJEglA CejDHaL Incongruent left correct Normal 417.3334
701 162 LeftSmaller RTTaskAExp2 Prime_1N Target_6N khaMfim idbafhI Incongruent right correct Normal 466.753
701 163 LeftSmaller RTTaskAExp2 Prime_1N Target_9A HDkJIEL mfLBFJI Incongruent right correct Normal 423.1839
701 164 LeftSmaller RTTaskAExp2 Prime_9N Target_1N fbcMdLA EJmBHeg Incongruent right error Normal 327.8217
701 165 LeftSmaller RTTaskAExp2 Prime_6N Target_9A aCcBJGE aimDAkb Congruent right correct Normal 367.8927
701 166 LeftSmaller RTTaskAExp2 Prime_6A Target_4A FeCakif JGclKgC Incongruent left correct Late 3189.894
701 167 LeftSmaller RTTaskAExp2 Prime_9N Target_1N jLaMIkD JifehGB Incongruent right error Late 3767.631
701 168 LeftSmaller RTTaskAExp2 Prime_6A Target_4N DJLdCbM MJDcfiF Incongruent left correct Normal 407.0307
701 169 LeftSmaller RTTaskAExp2 Prime_4A Target_9N DEamgje DMgKlmc Incongruent right correct Normal 378.0713
701 170 LeftSmaller RTTaskAExp2 Prime_1A Target_9A jDicEHL IjEecAH Incongruent right correct Normal 386.3545
701 171 LeftSmaller RTTaskAExp2 Prime_9A Target_9A ImKbkjg bKGLhIE Congruent right correct Normal 345.2791
701 172 LeftSmaller RTTaskAExp2 Prime_6A Target_4A GcKBiMJ bkHDAfe Incongruent left correct Normal 383.5845
701 173 LeftSmaller RTTaskAExp2 Prime_4A Target_4A GJCkmea eIJlBmb Congruent left correct Normal 386.4867
701 174 LeftSmaller RTTaskAExp2 Prime_4N Target_4N JEeLIlF JeIGbKk Congruent right error Normal 401.4127
701 175 LeftSmaller RTTaskAExp2 Prime_4N Target_4N lBEhijD KaLmldj Congruent left correct Normal 392.8271
701 176 LeftSmaller RTTaskAExp2 Prime_1A Target_6A KkdgGfJ MbHJiFB Incongruent right correct Late 3219.451
701 177 LeftSmaller RTTaskAExp2 Prime_1A Target_4A ADJbeEK hCcJBMk Congruent left correct Normal 466.5873
701 178 LeftSmaller RTTaskAExp2 Prime_9A Target_1N cHjBldA bKBafEJ Incongruent left correct Normal 452.2199
701 179 LeftSmaller RTTaskAExp2 Prime_1A Target_6A gaIDEic FcfDBIm Incongruent left error Normal 431.5086
701 180 LeftSmaller RTTaskAExp2 Prime_9N Target_1N ElIgafj eldLCJc Incongruent left correct Normal 472.9915
701 181 LeftSmaller RTTaskAExp2 Prime_1A Target_6A idmHMfC agMhceD Incongruent right correct Normal 366.0077
701 182 LeftSmaller RTTaskAExp2 Prime_9A Target_4A bkDjfFE LBifFal Incongruent left correct Normal 361.4273
701 183 LeftLarger RTTaskBPrac Prime_4N Target_1N EBMghKL iMeDgmF Congruent right correct Normal 756.1679
701 184 LeftLarger RTTaskBPrac Prime_1A Target_6A ibIkBeK MaIclKm Incongruent left correct Normal 618.3545
701 185 LeftLarger RTTaskBPrac Prime_9N Target_1N ljmcdCM FDAaEmH Incongruent left error Normal 499.5205
701 186 LeftLarger RTTaskBPrac Prime_9N Target_6A FEjbIdB mhDaljH Congruent left correct Normal 790.101
701 187 LeftLarger RTTaskBPrac Prime_1A Target_9A JckFbfD mLHeDhb Incongruent left correct Normal 512.9893
701 188 LeftLarger RTTaskBPrac Prime_6N Target_6N MJhGKdL kLKMbJB Congruent left correct Normal 599.5956
701 189 LeftLarger RTTaskBPrac Prime_6N Target_4N jIDKcEe khHFJef Incongruent right correct Normal 672.1034
701 190 LeftLarger RTTaskBPrac Prime_9N Target_1N BFkjhAK aIgeBJK Incongruent right correct Normal 635.1487
701 191 LeftLarger RTTaskBPrac Prime_4A Target_1N LjgIbfM imMfldc Congruent right correct Normal 444.21
701 192 LeftLarger RTTaskBPrac Prime_4N Target_6A BIfCmiJ jHagFdL Incongruent left correct Normal 431.3493
701 193 LeftLarger RTTaskBPrac Prime_1A Target_1N LbaghkJ DIFJdCe Congruent right correct Normal 306.7976
701 194 LeftLarger RTTaskBPrac Prime_6A Target_1N kLDelJC bcgHMKm Incongruent left error Normal 318.5781
701 195 LeftLarger RTTaskBPrac Prime_9A Target_6A JdkaAhE eMbkKha Congruent left correct Normal 533.887
701 196 LeftLarger RTTaskBPrac Prime_6A Target_1N cDFGHkj FbaeIid Incongruent right correct Normal 420.908
701 197 LeftLarger RTTaskBPrac Prime_9A Target_9N mcEFLjg kmbKjDF Congruent left correct Normal 516.6628
701 198 LeftLarger RTTaskBPrac Prime_9A Target_4N kGHJaiL giaBKGm Incongruent right correct Normal 411.4823
701 199 LeftLarger RTTaskBPrac Prime_4A Target_9A mdMgDfl ijhklfG Incongruent left correct Normal 488.2984
701 200 LeftLarger RTTaskBPrac Prime_1A Target_1A JLBlmEC bljmMCf Congruent right correct Normal 312.4624
701 201 LeftLarger RTTaskBExp1 Prime_1N Target_1A cDHKmag DdFKAMk Congruent right correct Normal 469.7471
701 202 LeftLarger RTTaskBExp1 Prime_1A Target_1N AdFMIfb djGaDle Congruent right correct Normal 476.3303
701 203 LeftLarger RTTaskBExp1 Prime_1N Target_6A chmfCIl JbAKdhL Incongruent left correct Normal 483.2668
701 204 LeftLarger RTTaskBExp1 Prime_4A Target_1A bGeLFEJ hFCjDmk Congruent right correct Normal 352.7921
701 205 LeftLarger RTTaskBExp1 Prime_6N Target_6N mdGJkKi IcbkfJK Congruent right error Normal 490.4411
701 206 LeftLarger RTTaskBExp1 Prime_4A Target_6A BDKLGek clCHmDf Incongruent left correct Normal 488.6149
701 207 LeftLarger RTTaskBExp1 Prime_1N Target_4N LaAbHEJ ACcMjBd Congruent right correct Normal 557.4162
701 208 LeftLarger RTTaskBExp1 Prime_6N Target_4N hmGeiaI BEfHAKi Incongruent right correct Normal 526.9388
701 209 LeftLarger RTTaskBExp1 Prime_6N Target_1A mJcelCk MHiDCFm Incongruent right correct Normal 430.1452
701 210 LeftLarger RTTaskBExp1 Prime_6A Target_6N cLJKDHG cbLDjdE Congruent right error Late 3134.003
701 211 LeftLarger RTTaskBExp1 Prime_4N Target_6A EKFBfmD fFCdDek Incongruent left correct Normal 491.4161
701 212 LeftLarger RTTaskBExp1 Prime_1A Target_6A liIbJcm eCAkBgH Incongruent left correct Normal 382.0683
701 213 LeftLarger RTTaskBExp1 Prime_6N Target_9A fgdJlCE agjkdML Congruent left correct Normal 504.8853
701 214 LeftLarger RTTaskBExp1 Prime_9N Target_6A BlkhfiG mHLFdba Congruent right error Normal 440.7642
701 215 LeftLarger RTTaskBExp1 Prime_6A Target_9A lcgBfEi KlbmaGj Congruent left correct Normal 982.5185
701 216 LeftLarger RTTaskBExp1 Prime_9A Target_9N BhHIGgi gkimhLJ Congruent left correct Normal 397.376
701 217 LeftLarger RTTaskBExp1 Prime_1N Target_4A kgaECdc kEbdDch Congruent right correct Normal 591.4146
701 218 LeftLarger RTTaskBExp1 Prime_1A Target_9N EmCHKJj ldcDhLA Incongruent left correct Normal 511.2067
701 219 LeftLarger RTTaskBExp1 Prime_1A Target_9A GbBLhDj hlCKBfA Incongruent left correct Normal 361.3602
701 220 LeftLarger RTTaskBExp1 Prime_1A Target_4N GlKjaAH FIdkDKj Congruent right correct Normal 599.7684
701 221 LeftLarger RTTaskBExp1 Prime_9N Target_6N fceIhAa HficDMk Congruent left correct Normal 558.8546
701 222 LeftLarger RTTaskBExp1 Prime_4A Target_4N MeDKjLd HhLdJkc Congruent right correct Normal 395.7199
701 223 LeftLarger RTTaskBExp1 Prime_9N Target_1N iKIeMhD CFAmgfJ Incongruent right correct Normal 484.5273
701 224 LeftLarger RTTaskBExp1 Prime_9A Target_1A lJMHdKk kLjAFde Incongruent right correct Normal 430.4564
701 225 LeftLarger RTTaskBExp1 Prime_6A Target_9N dcIAMJe cJIMBFf Congruent left correct Normal 502.99
701 226 LeftLarger RTTaskBExp1 Prime_6N Target_6A MHGdFjh cLMkmge Congruent left correct Normal 545.7693
701 227 LeftLarger RTTaskBExp1 Prime_9A Target_1N aKMeBHm AKeaJLg Incongruent right correct Normal 440.1908
701 228 LeftLarger RTTaskBExp1 Prime_6A Target_1A HGJiDch emjJkid Incongruent right correct Normal 347.3623
701 229 LeftLarger RTTaskBExp1 Prime_4N Target_4A FKdcMjh IjlgKCi Congruent left error Normal 423.281
701 230 LeftLarger RTTaskBExp1 Prime_9N Target_4N JeGFdfc BbFClGL Incongruent right correct Normal 826.8752
701 231 LeftLarger RTTaskBExp1 Prime_6N Target_9N HAfDgbj BHdhkfK Congruent left correct Normal 647.4814
701 232 LeftLarger RTTaskBExp1 Prime_4N Target_6N IdfHCMD fDmkLBG Incongruent left correct Normal 510.1489
701 233 LeftLarger RTTaskBExp1 Prime_6N Target_1N CeEmkdK MlaAbBK Incongruent right correct Normal 481.4744
701 234 LeftLarger RTTaskBExp1 Prime_9A Target_4N mheHBKi bmLkeJa Incongruent right correct Normal 528.4792
701 235 LeftLarger RTTaskBExp1 Prime_6A Target_6N eDFCimg JfDIgmb Congruent left correct Normal 432.9556
701 236 LeftLarger RTTaskBExp1 Prime_9A Target_6N ClLbgMj AEGBIeJ Congruent left correct Normal 546.5722
701 237 LeftLarger RTTaskBExp1 Prime_9A Target_4A JehlKBb efMlBGm Incongruent right correct Normal 381.6005
701 238 LeftLarger RTTaskBExp1 Prime_9N Target_9A ahHIAGb AkFDBlI Congruent left correct Normal 357.0134
701 239 LeftLarger RTTaskBExp1 Prime_4A Target_9N blMADJC fgBjDeH Incongruent left correct Normal 542.1905
701 240 LeftLarger RTTaskBExp1 Prime_1N Target_9A iCMJgFI lfLbEiI Incongruent left correct Normal 359.3449
701 241 LeftLarger RTTaskBExp1 Prime_9A Target_6A LmFagiM ELCaKHI Congruent left correct Normal 341.2644
701 242 LeftLarger RTTaskBExp1 Prime_4A Target_9A cIDlKgH hIkHbBD Incongruent left correct Normal 401.1291
701 243 LeftLarger RTTaskBExp1 Prime_4N Target_9N EGcHFhL MHhCdgA Incongruent left correct Normal 434.1586
701 244 LeftLarger RTTaskBExp1 Prime_9N Target_9N afelELJ HGKAfIb Congruent left correct Normal 177.0081
701 245 LeftLarger RTTaskBExp1 Prime_4N Target_4N GeKfjbl ekKaghF Congruent right correct Normal 389.2902
701 246 LeftLarger RTTaskBExp1 Prime_4A Target_6N jamHKGB bFeGiLA Incongruent right error Normal 564.3341
701 247 LeftLarger RTTaskBExp1 Prime_1A Target_1A DFMGEgi cLKjHlm Congruent right correct Normal 411.2843
701 248 LeftLarger RTTaskBExp1 Prime_9N Target_4A ekfBJLm BcMljIf Incongruent left error Normal 408.8422
701 249 LeftLarger RTTaskBExp1 Prime_1A Target_4A FBcGjIC FhMIegK Congruent right correct Normal 632.7348
701 250 LeftLarger RTTaskBExp1 Prime_4N Target_4A LfDbCFc GmdieIb Congruent right correct Normal 477.63
701 251 LeftLarger RTTaskBExp1 Prime_1N Target_1N fEgCHAb EKJiHbB Congruent right correct Normal 424.8198
701 252 LeftLarger RTTaskBExp1 Prime_4A Target_6N DGKkBFg dFLjbMg Incongruent right error Normal 324.7613
701 253 LeftLarger RTTaskBExp1 Prime_4N Target_9A EMhIGCL idJbgKm Incongruent left correct Normal 437.5376
701 254 LeftLarger RTTaskBExp1 Prime_6A Target_4A BkagJFD HeBMflI Incongruent right correct Normal 462.9435
701 255 LeftLarger RTTaskBExp1 Prime_6A Target_6A jfgFAKE FaChGHA Congruent left correct Normal 749.9806
701 256 LeftLarger RTTaskBExp1 Prime_9N Target_6A KMeIkgC MjJchID Congruent left correct Normal 439.702
701 257 LeftLarger RTTaskBExp1 Prime_9A Target_9A gCdLmEa dFEHeaB Congruent left correct Normal 389.3193
701 258 LeftLarger RTTaskBExp1 Prime_6N Target_4A MAJDmBF JHdIbGa Incongruent right correct Late 3723.446
701 259 LeftLarger RTTaskBExp1 Prime_6A Target_1N kjidKfL mKEJaBe Incongruent right correct Normal 675.9591
701 260 LeftLarger RTTaskBExp1 Prime_4N Target_1A giJMbad kCDmHBf Congruent right correct Normal 333.5815
701 261 LeftLarger RTTaskBExp1 Prime_6N Target_6N dglhJfD hAgIHjL Congruent left correct Normal 423.0654
701 262 LeftLarger RTTaskBExp1 Prime_4N Target_1N dBmMALH GlKkeBE Congruent right correct Normal 407.0438
701 263 LeftLarger RTTaskBExp1 Prime_4A Target_6N lGCLdDH fAdDhkG Incongruent left correct Normal 604.6251
701 264 LeftLarger RTTaskBExp1 Prime_6A Target_4N LhKajGi emDaFAJ Incongruent right correct Normal 407.374
701 265 LeftLarger RTTaskBExp1 Prime_4A Target_4A hmcEdik KADkmBL Congruent right correct Normal 384.2142
701 266 LeftLarger RTTaskBExp1 Prime_4A Target_1N IeJghGj MghlaEe Congruent right correct Normal 347.3285
701 267 LeftLarger RTTaskBExp1 Prime_6N Target_4A jhLdGBf FacmdhL Incongruent right correct Normal 366.5233
701 268 LeftLarger RTTaskBExp1 Prime_1A Target_6N AMigDmL ceMKdAk Incongruent right error Normal 275.3152
701 269 LeftLarger RTTaskBExp1 Prime_1N Target_9N Jcafbed gMEjIdb Incongruent right error Normal 351.7519
701 270 LeftLarger RTTaskBExp1 Prime_1N Target_9N EiGjfcA CBLigAG Incongruent left correct Normal 452.1822
701 271 LeftLarger RTTaskBExp1 Prime_9N Target_1A hKIGMmd bCIfEeF Incongruent right correct Normal 352.111
701 272 LeftLarger RTTaskBExp1 Prime_1A Target_6N hgEGkAM DAcbJGm Incongruent left correct Normal 697.1371
701 273 LeftLarger RTTaskBExp1 Prime_9N Target_4A AMaJidc LkbiIeB Incongruent right correct Normal 398.0557
701 274 LeftLarger RTTaskBExp1 Prime_1N Target_6N AJHmbhf EKAldcj Incongruent left correct Normal 491.205
701 275 LeftLarger RTTaskBExp2 Prime_1N Target_4A jifKHEk fhjFlcH Congruent right correct Normal 475.7375
701 276 LeftLarger RTTaskBExp2 Prime_4A Target_9A jMEgahA aHiIACd Incongruent left correct Normal 426.7796
701 277 LeftLarger RTTaskBExp2 Prime_6A Target_6A iAJFeKj lhLgHCA Congruent right error Normal 500.321
701 278 LeftLarger RTTaskBExp2 Prime_6N Target_9A MfbKgaH EdKelBc Congruent left correct Normal 437.9885
701 279 LeftLarger RTTaskBExp2 Prime_9N Target_1A fgDmEJe LkElmFK Incongruent right correct Normal 349.7426
701 280 LeftLarger RTTaskBExp2 Prime_9A Target_4A EHILeCc lEaDfCK Incongruent right correct Normal 400.9657
701 281 LeftLarger RTTaskBExp2 Prime_6A Target_4N ekfgFcm Efaileb Incongruent left error Normal 456.1218
701 282 LeftLarger RTTaskBExp2 Prime_1A Target_9N gKkcGEh AclJgkL Incongruent left correct Normal 470.9148
701 283 LeftLarger RTTaskBExp2 Prime_9N Target_9N bcECmiK LjIeGAD Congruent left correct Normal 596.4385
701 284 LeftLarger RTTaskBExp2 Prime_9A Target_4N ahcjdJk iJegLIK Incongruent left error Normal 284.4143
701 285 LeftLarger RTTaskBExp2 Prime_4A Target_4A LdEeGMg jFiCJem Congruent right correct Normal 456.3034
701 286 LeftLarger RTTaskBExp2 Prime_1N Target_6N bgkBMKI hDHgBkA Incongruent left correct Normal 641.7879
701 287 LeftLarger RTTaskBExp2 Prime_6A Target_9A aJLbcIj DhMkLjK Congruent left correct Normal 535.2737
701 288 LeftLarger RTTaskBExp2 Prime_1N Target_9A gmbkFGI jlGADIm Incongruent left correct Normal 379.3813
701 289 LeftLarger RTTaskBExp2 Prime_4A Target_1A EaGkhCd cGiMlDh Congruent right correct Normal 358.8468
701 290 LeftLarger RTTaskBExp2 Prime_1N Target_9N ihjHJFK eLEmKfI Incongruent left correct Normal 443.509
701 291 LeftLarger RTTaskBExp2 Prime_9A Target_1N EKFfBDA MJDfEkc Incongruent right correct Normal 556.7658
701 292 LeftLarger RTTaskBExp2 Prime_4N Target_6A jfmJdiI jlFEamL Incongruent left correct Normal 492.0455
701 293 LeftLarger RTTaskBExp2 Prime_6A Target_4A idlaMGk jIHBELC Incongruent right correct Normal 390.212
701 294 LeftLarger RTTaskBExp2 Prime_9N Target_4N MaGgJBi iImgFeH Incongruent right correct Normal 597.6614
701 295 LeftLarger RTTaskBExp2 Prime_9A Target_1A LbfDhIg lfeikcH Incongruent right correct Normal 422.4251
701 296 LeftLarger RTTaskBExp2 Prime_4N Target_9N JACjLbF cdkjIJf Incongruent left correct Normal 429.2455
701 297 LeftLarger RTTaskBExp2 Prime_4N Target_9A leLcmgA AgkbGCM Incongruent left correct Normal 441.5485
701 298 LeftLarger RTTaskBExp2 Prime_4N Target_4N AcDBdLK IADbEMm Congruent right correct Normal 414.5889
701 299 LeftLarger RTTaskBExp2 Prime_4N Target_6N kJlKHFg laibhBH Incongruent left correct Normal 649.8674
701 300 LeftLarger RTTaskBExp2 Prime_6A Target_4N DLcFMfB DibMhEm Incongruent right correct Late 3235.237
701 301 LeftLarger RTTaskBExp2 Prime_6A Target_6A eMCiIgh FebEGBL Congruent right error Late 3523.087
701 302 LeftLarger RTTaskBExp2 Prime_6A Target_6A DchMAHl gLEJfMB Congruent left correct Normal 504.7482
701 303 LeftLarger RTTaskBExp2 Prime_6N Target_4A jKhlIEC IMBJdGC Incongruent right correct Normal 552.7856
701 304 LeftLarger RTTaskBExp2 Prime_4A Target_4N mdcjADF lLbDmCI Congruent right correct Normal 763.1859
701 305 LeftLarger RTTaskBExp2 Prime_9N Target_6N GcjAJfh FgfaEGb Congruent left correct Normal 569.8729
701 306 LeftLarger RTTaskBExp2 Prime_4N Target_1N jelHdLg bgIAMBF Congruent left error Late 5103.594
701 307 LeftLarger RTTaskBExp2 Prime_1N Target_1A lKHmbeD meJMHkI Congruent right correct Normal 379.8113
701 308 LeftLarger RTTaskBExp2 Prime_1A Target_1N IDmbEdi FHCjach Congruent right correct Normal 436.4807
701 309 LeftLarger RTTaskBExp2 Prime_6N Target_1A kHAKfJa dBgHakD Incongruent right correct Normal 409.2654
701 310 LeftLarger RTTaskBExp2 Prime_1N Target_1N AGCMjdJ fAkBDcK Congruent right correct Normal 350.2852
701 311 LeftLarger RTTaskBExp2 Prime_1A Target_6A jlbHEaC HgDLjlI Incongruent left correct Normal 514.1431
701 312 LeftLarger RTTaskBExp2 Prime_4A Target_1N mbLEdkB iBabMem Congruent right correct Normal 352.6069
701 313 LeftLarger RTTaskBExp2 Prime_4A Target_6N aGDgJEb MELHDBc Incongruent right error Normal 365.0297
701 314 LeftLarger RTTaskBExp2 Prime_1A Target_4N fKkdGMC hkdBmHe Congruent right correct Normal 613.6841
701 315 LeftLarger RTTaskBExp2 Prime_1A Target_6N LakFGgl ADJGgIH Incongruent left correct Normal 661.9576
701 316 LeftLarger RTTaskBExp2 Prime_4N Target_1N balegEJ KJekhdL Congruent right correct Normal 444.5436
701 317 LeftLarger RTTaskBExp2 Prime_6A Target_6N eLaIEbB MBhEkKH Congruent left correct Normal 605.1137
701 318 LeftLarger RTTaskBExp2 Prime_6N Target_6N ibLCKkG bcLBCkj Congruent left correct Normal 511.8707
701 319 LeftLarger RTTaskBExp2 Prime_9N Target_6A kaIjcgA BkKEabl Congruent left correct Normal 385.4116
701 320 LeftLarger RTTaskBExp2 Prime_6N Target_1N AlbdfMH IKleLHd Incongruent right correct Normal 493.4668
701 321 LeftLarger RTTaskBExp2 Prime_1A Target_4A LkDFaEd dlAfHFa Congruent right correct Normal 477.7414
701 322 LeftLarger RTTaskBExp2 Prime_1A Target_1A aclGILC gfhGcJa Congruent right correct Normal 407.9022
701 323 LeftLarger RTTaskBExp2 Prime_6N Target_9N HdjkaLA HJDKajE Congruent left correct Normal 444.7015
701 324 LeftLarger RTTaskBExp2 Prime_9A Target_6N CLcgEAi fieEFGg Congruent left correct Late 2430.067
701 325 LeftLarger RTTaskBExp2 Prime_4A Target_6N kmfdclA dkDJhCL Incongruent right error Normal 665.7005
701 326 LeftLarger RTTaskBExp2 Prime_6N Target_6A Mkjfdlb KHCfJjE Congruent left correct Normal 544.8805
701 327 LeftLarger RTTaskBExp2 Prime_9N Target_4A hgEemDM gICbEdM Incongruent right correct Normal 395.5601
701 328 LeftLarger RTTaskBExp2 Prime_4A Target_6N DGHEKcg cbigjaG Incongruent left correct Normal 453.8437
701 329 LeftLarger RTTaskBExp2 Prime_9A Target_9A dEIFADj lGFHedb Congruent left correct Normal 501.2449
701 330 LeftLarger RTTaskBExp2 Prime_9N Target_9A agFhmCK bdcBLlk Congruent left correct Normal 393.044
701 331 LeftLarger RTTaskBExp2 Prime_6A Target_1A FCGlMJB gdaLkhK Incongruent right correct Normal 409.6867
701 332 LeftLarger RTTaskBExp2 Prime_6A Target_4N IBhmLCj cmekKfF Incongruent right correct Normal 389.8983
701 333 LeftLarger RTTaskBExp2 Prime_9A Target_6A ehDdicE JgkHDiI Congruent left correct Normal 681.4291
701 334 LeftLarger RTTaskBExp2 Prime_6A Target_1N KdFBCiM JEHbDIj Incongruent right correct Normal 615.8177
701 335 LeftLarger RTTaskBExp2 Prime_6N Target_4N lMheLIf lIcAdfe Incongruent left error Normal 627.232
701 336 LeftLarger RTTaskBExp2 Prime_6N Target_4N LjDFaAh lfdKCMg Incongruent left error Normal 564.1886
701 337 LeftLarger RTTaskBExp2 Prime_4N Target_1A dgFmHEG FhAGmLe Congruent right correct Normal 434.615
701 338 LeftLarger RTTaskBExp2 Prime_4N Target_4A ebgLlhJ DmjMfIC Congruent right correct Normal 368.0255
701 339 LeftLarger RTTaskBExp2 Prime_4A Target_6A BCbhljf dfAKjHe Incongruent right error Normal 309.9536
701 340 LeftLarger RTTaskBExp2 Prime_1A Target_9A kLMAhfa mCMEcge Incongruent left correct Normal 425.7556
701 341 LeftLarger RTTaskBExp2 Prime_1N Target_6A hlbLmfH damJiBb Incongruent left correct Normal 409.0158
701 342 LeftLarger RTTaskBExp2 Prime_4A Target_6A mAgCKbd fkBbghF Incongruent left correct Normal 474.4511
701 343 LeftLarger RTTaskBExp2 Prime_9A Target_9N ABFhMIg KJIaCmL Congruent left correct Normal 446.986
701 344 LeftLarger RTTaskBExp2 Prime_1N Target_4N hKmMebE CEakMdh Congruent right correct Normal 592.7868
701 345 LeftLarger RTTaskBExp2 Prime_4A Target_9N DhgcFJB AkHlFbj Incongruent left correct Normal 421.3186
701 346 LeftLarger RTTaskBExp2 Prime_9A Target_6N glhMkJF EAHBbKk Congruent left correct Normal 470.9766
701 347 LeftLarger RTTaskBExp2 Prime_9N Target_1N lFAihKg CEIjLAF Incongruent right correct Normal 613.6771
701 348 LeftLarger RTTaskBExp2 Prime_6A Target_9N dBAMJhK jeIadCD Congruent left correct Normal 409.8101
701 349 LeftLarger RTTaskBExp2 Prime_6N Target_4N IefLaBl ADdLEHb Incongruent right correct Normal 511.9779
701 350 LeftLarger RTTaskBExp2 Prime_9A Target_4N jJhcalH ILfdBHh Incongruent right correct Normal 646.1342
702 1 LeftSmaller RTTaskAPrac Prime_6A Target_6N MfAliBm MhBcIFl Congruent right correct Normal 941.1552
702 2 LeftSmaller RTTaskAPrac Prime_4A Target_1A MmIDEhK EiJdmke Congruent left correct Normal 632.8416
702 3 LeftSmaller RTTaskAPrac Prime_9A Target_1N MFBbAck GKmglMF Incongruent left correct Normal 537.885
702 4 LeftSmaller RTTaskAPrac Prime_9A Target_6N DcMgIml gfaLcIl Congruent right correct Normal 414.1606
702 5 LeftSmaller RTTaskAPrac Prime_6A Target_1A LfBeiKm GAbgBfl Incongruent left correct Normal 472.9062
702 6 LeftSmaller RTTaskAPrac Prime_6A Target_6A IdMiJlb CKjeBbD Congruent right correct Normal 419.266
702 7 LeftSmaller RTTaskAPrac Prime_1A Target_1A LfhBeiF bICEAfG Congruent left correct Normal 472.1189
702 8 LeftSmaller RTTaskAPrac Prime_1A Target_4A fGDglCi iJglCEK Congruent right error Normal 450.1887
702 9 LeftSmaller RTTaskAPrac Prime_1N Target_4A JBiLHKh kcbGeaM Congruent left correct Normal 744.083
702 10 LeftSmaller RTTaskAPrac Prime_9N Target_4A lAIkbCe IgBJLFM Incongruent left correct Normal 458.3015
702 11 LeftSmaller RTTaskAPrac Prime_6A Target_1N hICdacM daAKEbj Incongruent left correct Normal 576.3588
702 12 LeftSmaller RTTaskAPrac Prime_4N Target_4N Ilhdcab KCJFMGf Congruent left correct Normal 539.2555
702 13 LeftSmaller RTTaskAPrac Prime_6A Target_4N FiAGkcM ECBaGML Incongruent left correct Normal 437.3651
702 14 LeftSmaller RTTaskAPrac Prime_4N Target_6A igJMHcL iIfamjg Incongruent right correct Normal 497.8368
702 15 LeftSmaller RTTaskAPrac Prime_4N Target_6N ckJCKAH kCgDIJc Incongruent right correct Normal 525.7428
702 16 LeftSmaller RTTaskAPrac Prime_1A Target_4A KEMgLhF MbDmlIi Congruent left correct Normal 446.0453
702 17 LeftSmaller RTTaskAPrac Prime_9A Target_6A BmeCcJk HaghImf Congruent right correct Normal 413.7234
702 18 LeftSmaller RTTaskAExp1 Prime_6N Target_1N kdDmIbf jlamJbh Incongruent left correct Normal 549.7462
702 19 LeftSmaller RTTaskAExp1 Prime_1A Target_6N CmbLjKk dcaLegl Incongruent right correct Normal 393.5003
702 20 LeftSmaller RTTaskAExp1 Prime_9N Target_4A liMCEeF JHDgdkM Incongruent left correct Normal 492.0973
702 21 LeftSmaller RTTaskAExp1 Prime_9N Target_9A IHGdMDg ClGgEci Congruent right correct Normal 457.4938
702 22 LeftSmaller RTTaskAExp1 Prime_1A Target_9A jCJlbDB alMhGDF Incongruent right correct Normal 395.2928
702 23 LeftSmaller RTTaskAExp1 Prime_4N Target_6A LEfMAmB MFbjCfl Incongruent right correct Normal 439.618
702 24 LeftSmaller RTTaskAExp1 Prime_6N Target_4N lKgLkfd ChKDfMJ Incongruent right error Normal 325.6458
702 25 LeftSmaller RTTaskAExp1 Prime_4A Target_9N daDEHeb ajflGgK Incongruent right correct Normal 571.796
702 26 LeftSmaller RTTaskAExp1 Prime_1A Target_9N fEbBkMe jBamCHe Incongruent right correct Normal 579.2283
702 27 LeftSmaller RTTaskAExp1 Prime_9N Target_6A GkJcBlj fIEelga Congruent right correct Normal 534.3957
702 28 LeftSmaller RTTaskAExp1 Prime_9N Target_6N CkjcAfF fcilEkA Congruent right correct Normal 450.9368
702 29 LeftSmaller RTTaskAExp1 Prime_6A Target_1A aGifmbI bBehALG Incongruent left correct Normal 477.8346
702 30 LeftSmaller RTTaskAExp1 Prime_4N Target_9N BebHmfl GcFCkAl Incongruent right correct Normal 548.4434
702 31 LeftSmaller RTTaskAExp1 Prime_4N Target_1N EbcjeFh IMhAfaH Congruent left correct Normal 565.3067
702 32 LeftSmaller RTTaskAExp1 Prime_9A Target_6N gIFjfiG ChaJEMd Congruent right correct Normal 392.0988
702 33 LeftSmaller RTTaskAExp1 Prime_4N Target_1A fFldkDJ DgBdMhH Congruent left correct Normal 468.125
702 34 LeftSmaller RTTaskAExp1 Prime_9A Target_1A DIjLema JikmlAC Incongruent left correct Normal 447.8024
702 35 LeftSmaller RTTaskAExp1 Prime_6N Target_6A dIHJjLA bKajimd Congruent right correct Normal 396.2474
702 36 LeftSmaller RTTaskAExp1 Prime_9A Target_9N kLCeaMb biLCIFa Congruent right correct Normal 423.4148
702 37 LeftSmaller RTTaskAExp1 Prime_6N Target_9A MGkEdLI iGDlIcF Congruent right correct Normal 380.4121
702 38 LeftSmaller RTTaskAExp1 Prime_9N Target_1A glJbMFC EgfLMiI Incongruent left correct Normal 403.6407
702 39 LeftSmaller RTTaskAExp1 Prime_1A Target_4N fJmHlIi kmlHdJf Congruent left correct Normal 609.612
702 40 LeftSmaller RTTaskAExp1 Prime_1N Target_9N DIfGBCe eIDEBHK Incongruent right correct Normal 482.0048
702 41 LeftSmaller RTTaskAExp1 Prime_4A Target_6A mJfjliC JfDhCbk Incongruent right correct Normal 483.1868
702 42 LeftSmaller RTTaskAExp1 Prime_9A Target_4N MiFHJGg MIeklJj Incongruent left correct Normal 518.9792
702 43 LeftSmaller RTTaskAExp1 Prime_9A Target_1N adIlKGj GFaHBIh Incongruent left correct Normal 510.4825
702 44 LeftSmaller RTTaskAExp1 Prime_1N Target_1N CEfJBHh McdeAjG Congruent left correct Normal 374.9846
702 45 LeftSmaller RTTaskAExp1 Prime_1A Target_6A EgLdfBj lgCkGfF Incongruent right correct Normal 600.2191
702 46 LeftSmaller RTTaskAExp1 Prime_1N Target_9A IFDkiHf LdbFBEI Incongruent right correct Normal 484.7692
702 47 LeftSmaller RTTaskAExp1 Prime_6A Target_4A jMiaECl fFLeCGH Incongruent left correct Normal 536.9515
702 48 LeftSmaller RTTaskAExp1 Prime_4A Target_4N AKfdLli FJiAdEg Congruent left correct Normal 404.8538
702 49 LeftSmaller RTTaskAExp1 Prime_1N Target_4N JceCjLk ecMbhDA Congruent left correct Normal 461.6147
702 50 LeftSmaller RTTaskAExp1 Prime_4A Target_9A EfChlGH ebkfFcD Incongruent right correct Normal 409.4222
702 51 LeftSmaller RTTaskAExp1 Prime_4A Target_6N JadEghF jdChfiJ Incongruent right correct Normal 474.0992
702 52 LeftSmaller RTTaskAExp1 Prime_6N Target_4A cCMKdlJ DAmbcJE Incongruent left correct Normal 393.111
702 53 LeftSmaller RTTaskAExp1 Prime_6N Target_1A FhjAmGg LaGhcJf Incongruent left correct Normal 469.0357
702 54 LeftSmaller RTTaskAExp1 Prime_1N Target_6A hJgdbkM fcbBHhi Incongruent right correct Normal 411.088
702 55 LeftSmaller RTTaskAExp1 Prime_6N Target_6N dfaJeLm mLDbKCe Congruent right correct Normal 675.2395
702 56 LeftSmaller RTTaskAExp1 Prime_4N Target_6N IMeCDAc FjaBLhD Incongruent right correct Normal 605.5465
702 57 LeftSmaller RTTaskAExp1 Prime_1A Target_1A DcEkKji CDdBMLK Congruent left correct Normal 489.0289
702 58 LeftSmaller RTTaskAExp1 Prime_6A Target_9A FAJKMgk mEgBFhC Congruent right correct Normal 427.3888
702 59 LeftSmaller RTTaskAExp1 Prime_9A Target_9A cMKBaHA LejhDaA Congruent right correct Normal 322.9045
702 60 LeftSmaller RTTaskAExp1 Prime_6N Target_4N gBjaKMh dJfjLBC Incongruent left correct Normal 515.324
702 61 LeftSmaller RTTaskAExp1 Prime_9N Target_1N BikgmdA mEbiaAM Incongruent left correct Normal 479.6004
702 62 LeftSmaller RTTaskAExp1 Prime_6A Target_6N iACKHjL ImhaklK Congruent right correct Normal 436.7528
702 63 LeftSmaller RTTaskAExp1 Prime_1N Target_4A keGiABM DKLFhfd Congruent left correct Normal 433.9351
702 64 LeftSmaller RTTaskAExp1 Prime_1N Target_6N idLEJea jDiLdkB Incongruent right correct Normal 464.1835
702 65 LeftSmaller RTTaskAExp1 Prime_4A Target_4A FfgMJDH lJAgEbI Congruent left correct Normal 419.5558
702 66 LeftSmaller RTTaskAExp1 Prime_9N Target_4N lDGJgeh mMDGkcK Incongruent right error Normal 366.0623
702 67 LeftSmaller RTTaskAExp1 Prime_9N Target_9N MJikEIc hCHmigL Congruent right correct Normal 584.4974
702 68 LeftSmaller RTTaskAExp1 Prime_6A Target_6A eghCKAM DmIMeFL Congruent right correct Normal 523.9973
702 69 LeftSmaller RTTaskAExp1 Prime_1A Target_4A kdKjAae eaCDLbd Congruent left correct Normal 511.4575
702 70 LeftSmaller RTTaskAExp1 Prime_9N Target_4N DABFmcC DbIahjl Incongruent left correct Normal 420.6198
702 71 LeftSmaller RTTaskAExp1 Prime_6A Target_4N emJMfFB FIDbmgh Incongruent left correct Normal 419.8986
702 72 LeftSmaller RTTaskAExp1 Prime_9A Target_4A cHLBeFm AJCLibB Incongruent left correct Normal 424.1982
702 73 LeftSmaller RTTaskAExp1 Prime_6N Target_9N BAKflIH FhDGkbd Congruent right correct Normal 544.2285
702 74 LeftSmaller RTTaskAExp1 Prime_4A Target_1A dgkiADK FKcgaJA Congruent left correct Normal 428.8113
702 75 LeftSmaller RTTaskAExp1 Prime_4N Target_9A LAcbhEk kaLihjF Incongruent right correct Normal 438.12
702 76 LeftSmaller RTTaskAExp1 Prime_1N Target_1A DbaEGLe HhLcFgf Congruent left correct Normal 487.595
702 77 LeftSmaller RTTaskAExp1 Prime_4N Target_4N dHJIDiF lHFLGDk Congruent left correct Normal 499.7751
702 78 LeftSmaller RTTaskAExp1 Prime_6A Target_9N mfadMlB HfBCmik Congruent right correct Normal 478.5005
702 79 LeftSmaller RTTaskAExp1 Prime_6A Target_1N KeCaMHb FfaMihm Incongruent left correct Normal 414.2269
702 80 LeftSmaller RTTaskAExp1 Prime_9A Target_6A LBhdECM JaHiMgI Congruent right correct Normal 626.7618
702 81 LeftSmaller RTTaskAExp1 Prime_4N Target_4A gCKmFcG LEclkFm Congruent left correct Normal 400.298
702 82 LeftSmaller RTTaskAExp1 Prime_4A Target_1N BMbdFmG EGaFLMD Congruent left correct Normal 445.4655
702 83 LeftSmaller RTTaskAExp1 Prime_1A Target_1N MCfhBkl EFJlejm Congruent left correct Normal 437.0105
702 84 LeftSmaller RTTaskAExp2 Prime_9N Target_1N hdAbIlg KmJdeBA Incongruent left correct Normal 546.5127
702 85 LeftSmaller RTTaskAExp2 Prime_1N Target_9A DdcCife CeKdkGc Incongruent right correct Normal 418.4123
702 86 LeftSmaller RTTaskAExp2 Prime_1A Target_6A jcHEAMC FeGAKJj Incongruent right correct Normal 620.7062
702 87 LeftSmaller RTTaskAExp2 Prime_4N Target_4A GJEjmDF FhDCdEj Congruent left correct Normal 480.7575
702 88 LeftSmaller RTTaskAExp2 Prime_4A Target_1A DBlAkbL kFmJfcd Congruent left correct Normal 383.8556
702 89 LeftSmaller RTTaskAExp2 Prime_6N Target_4A mcMfhda MiFjkaL Incongruent right error Normal 345.5842
702 90 LeftSmaller RTTaskAExp2 Prime_1N Target_6A cJEBjDH GLhlkcC Incongruent right correct Normal 473.6351
702 91 LeftSmaller RTTaskAExp2 Prime_9A Target_4A ehabCdF bkmdEGl Incongruent left correct Normal 454.2438
702 92 LeftSmaller RTTaskAExp2 Prime_4N Target_9N JlmbGfE IDdjcig Incongruent right correct Normal 565.7173
702 93 LeftSmaller RTTaskAExp2 Prime_4A Target_6N FaDGeCI McJgkCF Incongruent right correct Normal 475.1272
702 94 LeftSmaller RTTaskAExp2 Prime_9A Target_9A BimDhlk bMhiAlD Congruent right correct Normal 499.7509
702 95 LeftSmaller RTTaskAExp2 Prime_9A Target_1N MKbJIHh CEAhblL Incongruent left correct Normal 461.3358
702 96 LeftSmaller RTTaskAExp2 Prime_6A Target_1A EKJBlMD iBfAkeg Incongruent left correct Normal 398.1891
702 97 LeftSmaller RTTaskAExp2 Prime_6N Target_9A aibHGDC kKciAMH Congruent right correct Normal 383.0268
702 98 LeftSmaller RTTaskAExp2 Prime_6A Target_9N ebmHEld iaDCFbH Congruent right correct Normal 487.8198
702 99 LeftSmaller RTTaskAExp2 Prime_6N Target_6A cfeHagI ElfHKMd Congruent right correct Normal 348.607
702 100 LeftSmaller RTTaskAExp2 Prime_9N Target_6A BlgHdik LhbAfFM Congruent right correct Normal 422.9785
702 101 LeftSmaller RTTaskAExp2 Prime_6A Target_6A fIAbKLF ieJLjaH Congruent right correct Normal 304.684
702 102 LeftSmaller RTTaskAExp2 Prime_9N Target_4A FBciEdG ilbeCJj Incongruent left correct Normal 447.3668
702 103 LeftSmaller RTTaskAExp2 Prime_4N Target_9A jchFCLK GDiMbBI Incongruent right correct Normal 421.2541
702 104 LeftSmaller RTTaskAExp2 Prime_1A Target_9A JdigIGb jkdLIBK Incongruent right correct Normal 328.0408
702 105 LeftSmaller RTTaskAExp2 Prime_6N Target_1N GDHgajJ ImjihHA Incongruent left correct Normal 477.2114
702 106 LeftSmaller RTTaskAExp2 Prime_1N Target_4N eEJBGbH AkBGIbE Congruent left correct Normal 344.1299
702 107 LeftSmaller RTTaskAExp2 Prime_1N Target_4A IgAaCfc iBCegcm Congruent left correct Normal 389.0065
702 108 LeftSmaller RTTaskAExp2 Prime_6N Target_9N CAJjFgc cejahHC Congruent right correct Normal 351.3316
702 109 LeftSmaller RTTaskAExp2 Prime_4A Target_4N KfDhbik mEdkefg Congruent left correct Normal 523.1195
702 110 LeftSmaller RTTaskAExp2 Prime_9N Target_4N gJbBhjI FfgmKij Incongruent left correct Normal 355.6064
702 111 LeftSmaller RTTaskAExp2 Prime_6N Target_6N cFKALHJ DcbhCMH Congruent right correct Normal 477.0839
702 112 LeftSmaller RTTaskAExp2 Prime_1A Target_6N LgECkia MEIaKDg Incongruent right correct Normal 314.0152
702 113 LeftSmaller RTTaskAExp2 Prime_1A Target_1A JLBFjIE ibDKdgC Congruent left correct Normal 409.2893
702 114 LeftSmaller RTTaskAExp2 Prime_4N Target_6N JmaACdB LdHMbhf Incongruent right correct Normal 557.6982
702 115 LeftSmaller RTTaskAExp2 Prime_6N Target_4A Lbagjeh dDlLHfK Incongruent left correct Normal 460.5987
702 116 LeftSmaller RTTaskAExp2 Prime_6N Target_1A dEgLlIb LHfeEaB Incongruent left correct Normal 538.6312
702 117 LeftSmaller RTTaskAExp2 Prime_1A Target_9N hEcagMK aMjheLf Incongruent right correct Normal 373.1913
702 118 LeftSmaller RTTaskAExp2 Prime_9A Target_9N haHDiKF LfJhlBb Congruent right correct Normal 410.1636
702 119 LeftSmaller RTTaskAExp2 Prime_1N Target_9N dJIlFji dlJFCgD Incongruent right correct Normal 370.6527
702 120 LeftSmaller RTTaskAExp2 Prime_4N Target_4N FDLHKCi CjbiMIL Congruent left correct Normal 514.1142
702 121 LeftSmaller RTTaskAExp2 Prime_4N Target_1A JHMImhj FAfEeBI Congruent left correct Normal 429.1052
702 122 LeftSmaller RTTaskAExp2 Prime_1A Target_4N IFMdifa amKMjbD Congruent left correct Normal 551.4702
702 123 LeftSmaller RTTaskAExp2 Prime_1A Target_4A HclGIKC Dhgdbia Congruent left correct Normal 336.0477
702 124 LeftSmaller RTTaskAExp2 Prime_9A Target_6N HciKbMA DEacCdg Congruent right correct Normal 515.9248
702 125 LeftSmaller RTTaskAExp2 Prime_6A Target_4N ibFLEHM MgHFlLk Incongruent left correct Normal 410.7812
702 126 LeftSmaller RTTaskAExp2 Prime_4A Target_4A AmjcCDM lJIBGFh Congruent left correct Normal 434.1447
702 127 LeftSmaller RTTaskAExp2 Prime_4A Target_6A cgLdkHb efDgLKi Incongruent left error Normal 492.5776
702 128 LeftSmaller RTTaskAExp2 Prime_9N Target_1A CiHFmBe flIFAMH Incongruent left correct Normal 745.2704
702 129 LeftSmaller RTTaskAExp2 Prime_9A Target_1A MFljmbd gEfMhBa Incongruent left correct Normal 518.5712
702 130 LeftSmaller RTTaskAExp2 Prime_4N Target_1N hcCeJMg gFHhiMe Congruent left correct Normal 483.6117
702 131 LeftSmaller RTTaskAExp2 Prime_4A Target_1N LBjMgCa dahEigB Congruent left correct Normal 456.2614
702 132 LeftSmaller RTTaskAExp2 Prime_6A Target_6N FJGkgMC cilCHkB Congruent right correct Normal 414.6728
702 133 LeftSmaller RTTaskAExp2 Prime_9A Target_6A GMaIcCg dLADcGI Congruent right correct Normal 323.9815
702 134 LeftSmaller RTTaskAExp2 Prime_6A Target_1N eKmbjdc aiJKlkE Incongruent left correct Normal 472.3791
702 135 LeftSmaller RTTaskAExp2 Prime_9N Target_9N jJghGCB lfDgdJe Congruent right correct Normal 334.2937
702 136 LeftSmaller RTTaskAExp2 Prime_9N Target_6N cEiCmJk iHLlamF Congruent right correct Normal 380.4673
702 137 LeftSmaller RTTaskAExp2 Prime_4A Target_9A GBKcHEl DelHJFC Incongruent right correct Normal 696.7495
702 138 LeftSmaller RTTaskAExp2 Prime_6N Target_4N IgfeGcb KfhcjiJ Incongruent left correct Normal 438.1641
702 139 LeftSmaller RTTaskAExp2 Prime_4A Target_6A hgCmcAB kgCIAGH Incongruent right correct Normal 499.3435
702 140 LeftSmaller RTTaskAExp2 Prime_9A Target_4N KJLEkgD MmclCih Incongruent left correct Normal 653.9908
702 141 LeftSmaller RTTaskAExp2 Prime_1A Target_1N HhLmMKb adcmjBl Congruent left correct Normal 526.5394
702 142 LeftSmaller RTTaskAExp2 Prime_1N Target_1N hgEIdML jEHBhDi Congruent left correct Normal 375.1518
702 143 LeftSmaller RTTaskAExp2 Prime_1N Target_6N eIEbkjl mLAeFID Incongruent right correct Normal 547.3152
702 144 LeftSmaller RTTaskAExp2 Prime_4N Target_6A MkBLbKE acjBkEC Incongruent right correct Normal 378.15
702 145 LeftSmaller RTTaskAExp2 Prime_4A Target_9N GLikgJM DILBAFm Incongruent right correct Normal 518.8267
702 146 LeftSmaller RTTaskAExp2 Prime_6A Target_9A dmKflCD HFGgjdm Congruent right correct Normal 337.3623
702 147 LeftSmaller RTTaskAExp2 Prime_1N Target_1A hHLigeI aEFehgb Congruent right error Normal 420.1659
702 148 LeftSmaller RTTaskAExp2 Prime_6A Target_4A KdMilaL mChlDBc Incongruent left correct Normal 626.321
702 149 LeftSmaller RTTaskAExp2 Prime_9N Target_9A lkbGJMB jcCeaDd Congruent right correct Normal 398.6159
702 150 LeftSmaller RTTaskAExp2 Prime_1N Target_1A MFeKIgf BckdbGI Congruent left correct Normal 439.7557
702 151 LeftLarger RTTaskBPrac Prime_1A Target_9A bDFGaEm JfGMlkc Incongruent left correct Normal 754.3542
702 152 LeftLarger RTTaskBPrac Prime_6N Target_1N eBACjdf cgHJbIk Incongruent right correct Normal 504.6857
702 153 LeftLarger RTTaskBPrac Prime_4A Target_4N GDgCmbF ADmgJai Congruent right correct Normal 746.6108
702 154 LeftLarger RTTaskBPrac Prime_6A Target_6A CfEHdcM fhgBkbl Congruent left correct Normal 479.2831
702 155 LeftLarger RTTaskBPrac Prime_1A Target_4A MIDkJag MGlLmgI Congruent right correct Normal 456.0459
702 156 LeftLarger RTTaskBPrac Prime_4A Target_4A Jmhfbgj EkcALfI Congruent right correct Normal 350.4794
702 157 LeftLarger RTTaskBPrac Prime_4N Target_9N DCkfgLb aAFMJhK Incongruent left correct Normal 536.3736
702 158 LeftLarger RTTaskBPrac Prime_4N Target_4N ifjdAhJ LkahCgH Congruent right correct Normal 486.9363
702 159 LeftLarger RTTaskBPrac Prime_6A Target_1N MlhaEmA ldDMGmJ Incongruent right correct Normal 522.9708
702 160 LeftLarger RTTaskBPrac Prime_1N Target_1A jBaALJh egcDLMb Congruent right correct Normal 382.8677
702 161 LeftLarger RTTaskBPrac Prime_1A Target_1N jmlGHLD FkKLEJA Congruent right correct Normal 337.3116
702 162 LeftLarger RTTaskBPrac Prime_4A Target_9A HklAJad kHLFcDj Incongruent left correct Normal 354.8414
702 163 LeftLarger RTTaskBPrac Prime_6N Target_9N hFjkJLm DGLfHia Congruent left correct Normal 511.1883
702 164 LeftLarger RTTaskBPrac Prime_4N Target_6A gBmDhkf dCeDfGM Incongruent left correct Normal 562.378
702 165 LeftLarger RTTaskBPrac Prime_1N Target_6A jfbAEka jDJIiBd Incongruent left correct Normal 424.2087
702 166 LeftLarger RTTaskBPrac Prime_6A Target_4A fHahkFA mIgEKeB Incongruent right correct Normal 396.3637
702 167 LeftLarger RTTaskBExp1 Prime_4A Target_4N lgkBeEh fiaDKFC Congruent right correct Normal 905.3315
702 168 LeftLarger RTTaskBExp1 Prime_9N Target_9A LFCiBAd dIbgkhB Congruent left correct Normal 446.2612
702 169 LeftLarger RTTaskBExp1 Prime_1A Target_6N mMicHEA AcaEGmL Incongruent left correct Normal 496.1253
702 170 LeftLarger RTTaskBExp1 Prime_4A Target_4A fEdhHMB BhdKjCJ Congruent right correct Normal 352.3212
702 171 LeftLarger RTTaskBExp1 Prime_1N Target_4N GkAKmiF biAdgIF Congruent right correct Normal 352.4765
702 172 LeftLarger RTTaskBExp1 Prime_9A Target_6N khKIJAc jKgfmek Congruent left correct Normal 438.5195
702 173 LeftLarger RTTaskBExp1 Prime_1N Target_6A KcJbGEm MgIBHcL Incongruent left correct Normal 440.0846
702 174 LeftLarger RTTaskBExp1 Prime_6A Target_4N efCgkMB eKakjFA Incongruent right correct Normal 608.4848
702 175 LeftLarger RTTaskBExp1 Prime_1N Target_1N kMDcdgH eBEChgM Congruent left error Normal 491.2825
702 176 LeftLarger RTTaskBExp1 Prime_4N Target_1N Gdkabhm emGlCJK Congruent right correct Normal 460.9603
702 177 LeftLarger RTTaskBExp1 Prime_6A Target_6N KcLGEda DkJegAM Congruent right error Normal 309.444
702 178 LeftLarger RTTaskBExp1 Prime_6N Target_9N dMaiIkh imeBMgh Congruent left correct Normal 556.7846
702 179 LeftLarger RTTaskBExp1 Prime_6A Target_9N HAjaBLg ALdBGMe Congruent left correct Normal 417.6138
702 180 LeftLarger RTTaskBExp1 Prime_9N Target_4N dhBbflD GigFDIJ Incongruent right correct Normal 656.0279
702 181 LeftLarger RTTaskBExp1 Prime_9A Target_9A hDAlkgK kLEAcld Congruent left correct Normal 470.2635
702 182 LeftLarger RTTaskBExp1 Prime_1N Target_9N jgbmHhl HBDIGmf Incongruent left correct Normal 606.9792
702 183 LeftLarger RTTaskBExp1 Prime_1A Target_1A CjKhcMB cDKdeEg Congruent right correct Normal 424.1387
702 184 LeftLarger RTTaskBExp1 Prime_6N Target_6N bcChKmf gMdGaLB Congruent left correct Normal 501.4422
702 185 LeftLarger RTTaskBExp1 Prime_6A Target_1A jAFebid iIhmkFa Incongruent right correct Normal 441.3375
702 186 LeftLarger RTTaskBExp1 Prime_6A Target_6N dgeDjKl CmKhGIi Congruent left correct Normal 515.0159
702 187 LeftLarger RTTaskBExp1 Prime_9N Target_6N MmiDFek HahCkdD Congruent left correct Normal 505.4361
702 188 LeftLarger RTTaskBExp1 Prime_6A Target_4A lHgEJcD ckmECfi Incongruent right correct Late 4846.638
702 189 LeftLarger RTTaskBExp1 Prime_4N Target_4A gMhkJAL mKAFhcg Congruent right correct Normal 469.2031
702 190 LeftLarger RTTaskBExp1 Prime_4N Target_6N IFcjLaJ GHedmMk Incongruent left correct Normal 514.7043
702 191 LeftLarger RTTaskBExp1 Prime_6N Target_1A heBmIMj akAhFbJ Incongruent right correct Normal 597.0622
702 192 LeftLarger RTTaskBExp1 Prime_1A Target_1N chEdKfB FGdDlBm Congruent right correct Normal 480.5413
702 193 LeftLarger RTTaskBExp1 Prime_9N Target_4A BFMLEbA FeAMHah Incongruent left error Normal 438.2674
702 194 LeftLarger RTTaskBExp1 Prime_1A Target_9A JkFCjcD HCeMIFg Incongruent left correct Normal 570.1862
702 195 LeftLarger RTTaskBExp1 Prime_6A Target_9A kgmjIeE eEMLaFm Congruent left correct Normal 512.0752
702 196 LeftLarger RTTaskBExp1 Prime_4A Target_1A dCgfHjL BigEkCJ Congruent right correct Normal 392.7699
702 197 LeftLarger RTTaskBExp1 Prime_6N Target_9A lEBHKgG hbLfdHK Congruent left correct Normal 708.6813
702 198 LeftLarger RTTaskBExp1 Prime_9N Target_6A faKiClI ClMEcIa Congruent left correct Normal 528.677
702 199 LeftLarger RTTaskBExp1 Prime_1N Target_1N KibGmkh JDlGeik Congruent right correct Normal 474.3939
702 200 LeftLarger RTTaskBExp1 Prime_1N Target_1A IkMbmdH leCIMki Congruent right correct Normal 419.1468
702 201 LeftLarger RTTaskBExp1 Prime_6N Target_1N ambEflM eiMEDGa Incongruent right correct Normal 391.3355
702 202 LeftLarger RTTaskBExp1 Prime_9A Target_1A hKbecFA bGBkeMd Incongruent right correct Normal 503.6245
702 203 LeftLarger RTTaskBExp1 Prime_6N Target_4N geabjiI JlKCeaM Incongruent right correct Normal 800.4524
702 204 LeftLarger RTTaskBExp1 Prime_9A Target_4N CIdLEmf EHIFLkd Incongruent right correct Normal 412.8304
702 205 LeftLarger RTTaskBExp1 Prime_9N Target_4A kMKGbFl KCAmkHB Incongruent right correct Normal 422.4002
702 206 LeftLarger RTTaskBExp1 Prime_4N Target_4N EgMAikh fDkLGim Congruent right correct Normal 455.2986
702 207 LeftLarger RTTaskBExp1 Prime_6A Target_6A kgHfiMd KgHBeGJ Congruent left correct Normal 770.3125
702 208 LeftLarger RTTaskBExp1 Prime_4N Target_9N iCIeHDl hAGbJDa Incongruent left correct Normal 674.491
702 209 LeftLarger RTTaskBExp1 Prime_1A Target_9N FAKHgCL iIBAJha Incongruent left correct Normal 462.7987
702 210 LeftLarger RTTaskBExp1 Prime_9A Target_1N eJkLibm BcJmKeL Incongruent right correct Normal 502.7804
702 211 LeftLarger RTTaskBExp1 Prime_9N Target_9N cMEClHi IlEDHde Congruent right error Normal 404.9874
702 212 LeftLarger RTTaskBExp1 Prime_4N Target_9A lhKafCi EBhkJaK Incongruent left correct Normal 506.936
702 213 LeftLarger RTTaskBExp1 Prime_6N Target_4A kdHLelh MJECfAL Incongruent right correct Normal 498.7336
702 214 LeftLarger RTTaskBExp1 Prime_9A Target_4A aImCeKl BFhfdJL Incongruent right correct Normal 529.409
702 215 LeftLarger RTTaskBExp1 Prime_4A Target_1N LKIdAmE mCAGHgk Congruent right correct Normal 522.4246
702 216 LeftLarger RTTaskBExp1 Prime_1A Target_4N LahklFI aifLGbg Congruent right correct Normal 363.109
702 217 LeftLarger RTTaskBExp1 Prime_9A Target_9N dmIlEJa liaEcgC Congruent left correct Normal 396.0931
702 218 LeftLarger RTTaskBExp1 Prime_9N Target_1A HlKafAL dDgiLCl Incongruent right correct Normal 463.9211
702 219 LeftLarger RTTaskBExp1 Prime_4A Target_9N KMgEmIH McIlDmE Incongruent left correct Normal 559.826
702 220 LeftLarger RTTaskBExp1 Prime_9N Target_1N jilgbAK fKEdcjH Incongruent right correct Normal 517.2163
702 221 LeftLarger RTTaskBExp1 Prime_4N Target_6A Kbdjahf MflmhIK Incongruent left correct Normal 672.1812
702 222 LeftLarger RTTaskBExp1 Prime_4A Target_9A DAdCaIm kBiJlcC Incongruent left correct Normal 510.1058
702 223 LeftLarger RTTaskBExp1 Prime_1N Target_9A EJkcLiI figKIHJ Incongruent left correct Normal 440.0874
702 224 LeftLarger RTTaskBExp1 Prime_1A Target_6A iGHIjhb CeGgaAH Incongruent left correct Normal 633.0377
702 225 LeftLarger RTTaskBExp1 Prime_1A Target_4A EicJlAH lHmbiae Congruent right correct Normal 461.2972
702 226 LeftLarger RTTaskBExp1 Prime_4N Target_1A MFgIeib DLcdMeC Congruent right correct Normal 408.1396
702 227 LeftLarger RTTaskBExp1 Prime_1N Target_4A EAKkcfM bgJIHMh Congruent right correct Normal 741.8892
702 228 LeftLarger RTTaskBExp1 Prime_6A Target_4A cCFADKk lCgbBGi Incongruent right correct Normal 483.8703
702 229 LeftLarger RTTaskBExp1 Prime_1N Target_6N hjKgHFe FGKlJCL Incongruent left correct Normal 556.63
702 230 LeftLarger RTTaskBExp1 Prime_6N Target_6A dDbaKIi lAeLhKB Congruent left correct Normal 568.8026
702 231 LeftLarger RTTaskBExp1 Prime_4A Target_6N IgBlCjf gdDfHlk Incongruent left correct Normal 382.0696
702 232 LeftLarger RTTaskBExp1 Prime_9A Target_6A kbaiELA jMKGAdC Congruent left correct Normal 387.9949
702 233 LeftLarger RTTaskBExp1 Prime_4A Target_6A EkiGmdK DBkcGCL Incongruent left correct Normal 384.5316
702 234 LeftLarger RTTaskBExp1 Prime_6A Target_1N cAIMJiE idcBkEM Incongruent right correct Normal 540.0335
702 235 LeftLarger RTTaskBExp1 Prime_9N Target_9N efDFLMJ fkBJjIM Congruent left correct Normal 590.4719
702 236 LeftLarger RTTaskBExp2 Prime_6A Target_1N gaCjdkE JCAEGcH Incongruent left error Normal 570.7342
702 237 LeftLarger RTTaskBExp2 Prime_1A Target_4A EFLCdmA CMijAmf Congruent right correct Normal 943.4812
702 238 LeftLarger RTTaskBExp2 Prime_1A Target_6N aGmHJcD aFjGMAk Incongruent left correct Normal 579.5861
702 239 LeftLarger RTTaskBExp2 Prime_6N Target_6N mijkHbD GBeKhHM Congruent left correct Normal 454.234
702 240 LeftLarger RTTaskBExp2 Prime_4N Target_1N EIhgFHJ HkABDGM Congruent right correct Normal 460.8617
702 241 LeftLarger RTTaskBExp2 Prime_9N Target_6N CdDfMEj BHGjmEA Congruent left correct Normal 539.6205
702 242 LeftLarger RTTaskBExp2 Prime_9N Target_1N demMFAl mFgCjeD Incongruent right correct Normal 487.8812
702 243 LeftLarger RTTaskBExp2 Prime_6A Target_4A dckafGK mkbICLB Incongruent right correct Normal 460.6275
702 244 LeftLarger RTTaskBExp2 Prime_9N Target_1A LACjkHl KcgBlFM Incongruent right correct Normal 327.3189
702 245 LeftLarger RTTaskBExp2 Prime_9N Target_6A ibEjAkC GcjFeJl Congruent left correct Normal 369.7538
702 246 LeftLarger RTTaskBExp2 Prime_4A Target_4A hkMmKcJ cMjEKHL Congruent right correct Normal 415.2996
702 247 LeftLarger RTTaskBExp2 Prime_4A Target_1A DAibkBc MdmcAiB Congruent right correct Normal 400.6815
702 248 LeftLarger RTTaskBExp2 Prime_4A Target_9N cabjmiC JaIHiEA Incongruent left correct Normal 444.7381
702 249 LeftLarger RTTaskBExp2 Prime_1A Target_4N DbGEKLA JijChLA Congruent right correct Normal 435.4084
702 250 LeftLarger RTTaskBExp2 Prime_1A Target_1N MBckfgm jeBilDJ Congruent right correct Normal 356.7623
702 251 LeftLarger RTTaskBExp2 Prime_1N Target_1N BceDikj dHEbgLl Congruent right correct Normal 350.8305
702 252 LeftLarger RTTaskBExp2 Prime_1N Target_1A KhgHabe BGDIKFa Congruent right correct Normal 363.1541
702 253 LeftLarger RTTaskBExp2 Prime_1N Target_6N DIcJalA Ifajhmg Incongruent left correct Normal 502.7895
702 254 LeftLarger RTTaskBExp2 Prime_4N Target_1A DmEhCAH HDbeJfB Congruent right correct Normal 407.5893
702 255 LeftLarger RTTaskBExp2 Prime_9A Target_9A FlJBhgL jaGLMdf Congruent left correct Normal 363.5904
702 256 LeftLarger RTTaskBExp2 Prime_6N Target_4N LDChJdf gbcflhi Incongruent right correct Normal 494.0328
702 257 LeftLarger RTTaskBExp2 Prime_6N Target_1A FaGfMJe DHeKjCB Incongruent right correct Normal 399.332
702 258 LeftLarger RTTaskBExp2 Prime_9N Target_4N HFmMjkK HMFclbE Incongruent right correct Normal 415.6149
702 259 LeftLarger RTTaskBExp2 Prime_4N Target_6N KaehGMB ekJHgda Incongruent left correct Normal 478.9172
702 260 LeftLarger RTTaskBExp2 Prime_9N Target_9N LlEHdCa ekigBjL Congruent right error Normal 472.3018
702 261 LeftLarger RTTaskBExp2 Prime_6A Target_9N GmcaEdj jlKLACg Congruent left correct Normal 480.497
702 262 LeftLarger RTTaskBExp2 Prime_4N Target_9N cCjLJmM LbhgKDA Incongruent left correct Normal 439.6646
702 263 LeftLarger RTTaskBExp2 Prime_9A Target_4A DakbiLF mklbdcj Incongruent right correct Normal 536.9163
702 264 LeftLarger RTTaskBExp2 Prime_1A Target_9A AjhFBdl mhKfaGE Incongruent left correct Normal 451.8828
702 265 LeftLarger RTTaskBExp2 Prime_6N Target_1N cdkfimE MlAaDBj Incongruent right correct Normal 476.6718
702 266 LeftLarger RTTaskBExp2 Prime_9N Target_9N LfdabCA eMdJihL Congruent left correct Normal 420.201
702 267 LeftLarger RTTaskBExp2 Prime_9A Target_6N jBIicLH Iibgdcj Congruent left correct Normal 564.3888
702 268 LeftLarger RTTaskBExp2 Prime_9A Target_6A jecMCBL hkKEFGa Congruent left correct Normal 423.4041
702 269 LeftLarger RTTaskBExp2 Prime_1N Target_4N KEcaCgd GgblJLk Congruent right correct Normal 363.9495
702 270 LeftLarger RTTaskBExp2 Prime_9A Target_9N LaCDicG JFHIEdK Congruent left correct Normal 508.2324
702 271 LeftLarger RTTaskBExp2 Prime_6N Target_9N HdcjiEK Dimfldk Congruent left correct Normal 448.2188
702 272 LeftLarger RTTaskBExp2 Prime_9A Target_4N MHhgFei BGLfjiE Incongruent right correct Normal 665.1991
702 273 LeftLarger RTTaskBExp2 Prime_1A Target_9N ikKCjLc cgKdFmE Incongruent left correct Normal 545.1006
702 274 LeftLarger RTTaskBExp2 Prime_1N Target_9A CcDgdlf KiFMGEc Incongruent left correct Normal 630.1377
702 275 LeftLarger RTTaskBExp2 Prime_6N Target_6A ecBKilM DlmHabM Congruent left correct Normal 435.309
702 276 LeftLarger RTTaskBExp2 Prime_4A Target_4N LblHdDM kejAJFC Congruent right correct Normal 391.7339
702 277 LeftLarger RTTaskBExp2 Prime_1N Target_4A KdcJiFA lMLhAEj Congruent right correct Normal 403.518
702 278 LeftLarger RTTaskBExp2 Prime_4A Target_9A HhkBldL kBDgLAI Incongruent left correct Normal 487.5266
702 279 LeftLarger RTTaskBExp2 Prime_4N Target_9A iADIMFC GEKCebd Incongruent left correct Normal 387.9866
702 280 LeftLarger RTTaskBExp2 Prime_1A Target_6A IGAHgKE dJehIgb Incongruent left correct Normal 486.7162
702 281 LeftLarger RTTaskBExp2 Prime_9A Target_1A cEkFhjg bgBefAM Incongruent right correct Normal 509.299
702 282 LeftLarger RTTaskBExp2 Prime_4A Target_6N iFcfGJB CLeHEjJ Incongruent left correct Normal 479.253
702 283 LeftLarger RTTaskBExp2 Prime_6N Target_9A EamdMil geLFMIA Congruent left correct Normal 493.0263
702 284 LeftLarger RTTaskBExp2 Prime_4N Target_6A MCfhLcg gCGiLel Incongruent left correct Normal 466.2924
702 285 LeftLarger RTTaskBExp2 Prime_6N Target_4A BEijcKL DFgjfKm Incongruent right correct Normal 518.2119
702 286 LeftLarger RTTaskBExp2 Prime_4A Target_6A hcigAGK ICmMfDc Incongruent left correct Normal 608.6182
702 287 LeftLarger RTTaskBExp2 Prime_6A Target_1N GIgKhdF bLAJfgi Incongruent left error Normal 524.0006
702 288 LeftLarger RTTaskBExp2 Prime_6A Target_1N KgeBDkd HmMkBie Incongruent right correct Normal 545.8545
702 289 LeftLarger RTTaskBExp2 Prime_6A Target_1A HlfLgGA dLgeCcK Incongruent right correct Normal 477.1468
702 290 LeftLarger RTTaskBExp2 Prime_6A Target_6A giKAfaE FjLIfbg Congruent left correct Normal 544.7801
702 291 LeftLarger RTTaskBExp2 Prime_9N Target_4A DglmeJA aDcAjJL Incongruent right correct Normal 721.1007
702 292 LeftLarger RTTaskBExp2 Prime_1N Target_9N lEKaAHJ gEjJbAd Incongruent left correct Normal 557.5356
702 293 LeftLarger RTTaskBExp2 Prime_9N Target_9A bIHilLE dMhmFGC Congruent left correct Normal 384.165
702 294 LeftLarger RTTaskBExp2 Prime_6A Target_4N jLFAKIh hmaMAKJ Incongruent right correct Normal 464.9666
702 295 LeftLarger RTTaskBExp2 Prime_4N Target_4A CcaKHhj fJhIclB Congruent right correct Normal 396.7309
702 296 LeftLarger RTTaskBExp2 Prime_4A Target_1N HbEKjMI DHhbdcC Congruent right correct Normal 556.2967
702 297 LeftLarger RTTaskBExp2 Prime_6A Target_6N eCJbgMi AEMjKlh Congruent left correct Normal 475.976
702 298 LeftLarger RTTaskBExp2 Prime_1A Target_1A heIdCAb gIHCmAj Congruent right correct Normal 579.3866
702 299 LeftLarger RTTaskBExp2 Prime_1N Target_6A BjJkbgG DBjhedK Incongruent left correct Normal 449.2798
702 300 LeftLarger RTTaskBExp2 Prime_6A Target_9A FbDdLeI blJKAhD Congruent left correct Normal 438.8405
702 301 LeftLarger RTTaskBExp2 Prime_9A Target_1N LFjgBED HBCaILk Incongruent right correct Normal 619.4352
702 302 LeftLarger RTTaskBExp2 Prime_4N Target_4N IaiLKjg amhjlAD Congruent right correct Normal 521.8326
703 1 LeftLarger RTTaskAPrac Prime_1N Target_1A gmCKeGb akEKfie Congruent right correct Late 1267.818
703 2 LeftLarger RTTaskAPrac Prime_6N Target_6A CLDgBlF ghGlfeH Congruent right error Late 11291.68
703 3 LeftLarger RTTaskAPrac Prime_1N Target_9N iDjKmGH HjCKJFk Incongruent left correct Late 1793.258
703 4 LeftLarger RTTaskAPrac Prime_6N Target_4N hildkEK CBMiEgl Incongruent left error Late 3394.153
703 5 LeftLarger RTTaskAPrac Prime_6A Target_9A eafIhCA lDmBHfk Congruent left correct Normal 881.0797
703 6 LeftLarger RTTaskAPrac Prime_4N Target_4A aHLjAhe jaeDClk Congruent right correct Normal 725.1323
703 7 LeftLarger RTTaskAPrac Prime_1N Target_1A HbmGLJE GClFcMJ Congruent right correct Normal 985.7732
703 8 LeftLarger RTTaskAPrac Prime_6A Target_9N ekBaIjH BleIgEG Congruent left correct Normal 748.3346
703 9 LeftLarger RTTaskAPrac Prime_6N Target_1A LBKmMlF abgDdEM Incongruent right correct Normal 738.2112
703 10 LeftLarger RTTaskAPrac Prime_6N Target_4A hHmleIa ahjbEJH Incongruent right correct Normal 720.1832
703 11 LeftLarger RTTaskAPrac Prime_1A Target_4N BDHhLak fhmbGHd Congruent right correct Normal 577.7356
703 12 LeftLarger RTTaskAPrac Prime_6A Target_6A KeGAckJ cLiAgFj Congruent left correct Normal 554.5198
703 13 LeftLarger RTTaskAPrac Prime_1N Target_1N mciDKJj EGjDmIL Congruent right correct Normal 759.0427
703 14 LeftLarger RTTaskAPrac Prime_6A Target_4A FlcIBCk AdiBmID Incongruent right correct Normal 598.7211
703 15 LeftLarger RTTaskAPrac Prime_6N Target_6A ImbLaGD JkLgAdC Congruent left correct Normal 564.7707
703 16 LeftLarger RTTaskAPrac Prime_4N Target_6N dlheBMf KbABJfa Incongruent left correct Normal 829.1846
703 17 LeftLarger RTTaskAPrac Prime_9A Target_9A iclCbFM jfFdaAc Congruent left correct Normal 552.4956
703 18 LeftLarger RTTaskAPrac Prime_4N Target_6A iclGEmk gImkHab Incongruent left correct Normal 535.6461
703 19 LeftLarger RTTaskAPrac Prime_6N Target_4N CIefJFB kIBKmiF Incongruent right correct Normal 530.4738
703 20 LeftLarger RTTaskAPrac Prime_1N Target_9N jABDICl aJjHeFA Incongruent left correct Normal 474.3519
703 21 LeftLarger RTTaskAExp1 Prime_1A Target_1N fbemHhd IlEjCDg Congruent right correct Normal 667.2491
703 22 LeftLarger RTTaskAExp1 Prime_1A Target_6N kLcKICd DmCHkhG Incongruent left correct Normal 607.2836
703 23 LeftLarger RTTaskAExp1 Prime_1N Target_6N ECkbADf jEADcih Incongruent left correct Late 7207.392
703 24 LeftLarger RTTaskAExp1 Prime_9N Target_6N hjCDHLG hbfgMBI Congruent left correct Normal 588.1486
703 25 LeftLarger RTTaskAExp1 Prime_1N Target_4N IAcbHDK FmkMLDB Congruent right correct Normal 609.9527
703 26 LeftLarger RTTaskAExp1 Prime_6N Target_9N iDMlAdc ClMKkja Congruent left correct Normal 839.9204
703 27 LeftLarger RTTaskAExp1 Prime_6A Target_1N DKbMkji hBiGCdL Incongruent right correct Normal 516.506
703 28 LeftLarger RTTaskAExp1 Prime_4A Target_6A efdgcIa fgbCDdj Incongruent left correct Normal 516.4005
703 29 LeftLarger RTTaskAExp1 Prime_9A Target_4A HJkidaC HMKecgJ Incongruent right correct Normal 552.8219
703 30 LeftLarger RTTaskAExp1 Prime_6N Target_6A bcAafBh daGkLAD Congruent left correct Normal 633.2615
703 31 LeftLarger RTTaskAExp1 Prime_9A Target_1N hjgeHfE gFLbDcf Incongruent right correct Normal 553.7024
703 32 LeftLarger RTTaskAExp1 Prime_1N Target_1N bIAgdiK GgfHLEd Congruent right correct Normal 524.718
703 33 LeftLarger RTTaskAExp1 Prime_4A Target_9N JagdcbM LmcDHEA Incongruent left correct Normal 546.1829
703 34 LeftLarger RTTaskAExp1 Prime_9A Target_9N EMmBAlb MjchieB Congruent left correct Normal 505.1082
703 35 LeftLarger RTTaskAExp1 Prime_1A Target_4A LAmGHga FbDLEda Congruent right correct Normal 455.096
703 36 LeftLarger RTTaskAExp1 Prime_1N Target_6N BCaIGeE hfeBEkD Incongruent left correct Normal 576.8289
703 37 LeftLarger RTTaskAExp1 Prime_9A Target_1A jfGDACc CAfEkHI Incongruent right correct Normal 501.1628
703 38 LeftLarger RTTaskAExp1 Prime_9N Target_1A MiFagBH FLCdAkM Incongruent right correct Normal 438.2566
703 39 LeftLarger RTTaskAExp1 Prime_4N Target_1N LKbHhGF ABcmIFE Congruent right correct Normal 448.3269
703 40 LeftLarger RTTaskAExp1 Prime_6A Target_6A HblfBKj HJfChbj Congruent left correct Normal 639.7802
703 41 LeftLarger RTTaskAExp1 Prime_1A Target_4N jagDbcA afFLlci Congruent right correct Normal 644.6865
703 42 LeftLarger RTTaskAExp1 Prime_1A Target_1A gMLIBmf IkCDdlF Congruent right correct Normal 505.3644
703 43 LeftLarger RTTaskAExp1 Prime_4N Target_9A CLifHGl BHaGAlf Incongruent left correct Normal 477.5697
703 44 LeftLarger RTTaskAExp1 Prime_4A Target_1N lEmKGbe GCadbHI Congruent right correct Normal 487.831
703 45 LeftLarger RTTaskAExp1 Prime_4N Target_4N JcKCLHG CAcbJGm Congruent right correct Normal 702.9336
703 46 LeftLarger RTTaskAExp1 Prime_4N Target_4A DAGgdEj JlEGdCc Congruent right correct Normal 460.1661
703 47 LeftLarger RTTaskAExp1 Prime_1N Target_1A gEBLifh fKBFCcA Congruent right correct Normal 468.3422
703 48 LeftLarger RTTaskAExp1 Prime_9A Target_6A BakLcfH gMElcfL Congruent left correct Normal 538.9724
703 49 LeftLarger RTTaskAExp1 Prime_9A Target_6N cilCdjJ ifJLalD Congruent left correct Normal 800.17
703 50 LeftLarger RTTaskAExp1 Prime_6N Target_1A ahibCMl AMLflEh Incongruent right correct Normal 588.3083
703 51 LeftLarger RTTaskAExp1 Prime_9N Target_1N aKJFGBE JhmIkeH Incongruent right correct Normal 529.8777
703 52 LeftLarger RTTaskAExp1 Prime_6A Target_6N KAkmEJL kiKeGLb Congruent left correct Normal 615.5143
703 53 LeftLarger RTTaskAExp1 Prime_4N Target_6N dCiJhGD DHmJGMB Incongruent left correct Normal 451.681
703 54 LeftLarger RTTaskAExp1 Prime_4A Target_4N JKhfHAC ighHmEM Congruent right correct Normal 806.6086
703 55 LeftLarger RTTaskAExp1 Prime_1A Target_6A cbhCiFI hGFmdEL Incongruent left correct Normal 674.5533
703 56 LeftLarger RTTaskAExp1 Prime_4N Target_9N dCiaIJf BDlgEMK Incongruent left correct Normal 617.9648
703 57 LeftLarger RTTaskAExp1 Prime_9N Target_4A CHDMLlk BbhIdaM Incongruent right correct Normal 511.7387
703 58 LeftLarger RTTaskAExp1 Prime_4N Target_1A bKLMAeI cGFMfdL Congruent right correct Normal 492.7957
703 59 LeftLarger RTTaskAExp1 Prime_4A Target_6N lmKFdce FmkGbiM Incongruent left correct Normal 685.0723
703 60 LeftLarger RTTaskAExp1 Prime_6N Target_6N LkdGbAj mEFMJac Congruent left correct Normal 487.7688
703 61 LeftLarger RTTaskAExp1 Prime_6N Target_4A ACEeJFK gMdeAfC Incongruent right correct Normal 459.6152
703 62 LeftLarger RTTaskAExp1 Prime_1N Target_9N EbahlKe fcIeHMm Incongruent left correct Normal 532.1948
703 63 LeftLarger RTTaskAExp1 Prime_4A Target_9A KlALjMa cfbLgjK Incongruent left correct Normal 502.567
703 64 LeftLarger RTTaskAExp1 Prime_6N Target_1N IElhakC HFeAJMh Incongruent right correct Normal 507.0422
703 65 LeftLarger RTTaskAExp1 Prime_9N Target_6A BehbGfD GeBcmAF Congruent left correct Normal 417.2081
703 66 LeftLarger RTTaskAExp1 Prime_6A Target_4A flcMHam JkGAmdM Incongruent right correct Normal 480.2423
703 67 LeftLarger RTTaskAExp1 Prime_6A Target_9N FEmKaBd FfHLbdM Congruent left correct Normal 444.7784
703 68 LeftLarger RTTaskAExp1 Prime_1A Target_9N dEbLBMm GcJEhkj Incongruent left correct Normal 486.5525
703 69 LeftLarger RTTaskAExp1 Prime_4N Target_6A Jelhjig Clhkdjc Incongruent right error Normal 433.9985
703 70 LeftLarger RTTaskAExp1 Prime_6A Target_1A bAaMgCi ldJcMjE Incongruent right correct Normal 545.5911
703 71 LeftLarger RTTaskAExp1 Prime_6N Target_4N dGFMLlj GCImiEj Incongruent right correct Normal 569.5929
703 72 LeftLarger RTTaskAExp1 Prime_9A Target_4N AMgdBGb mMAgbJi Incongruent right correct Normal 487.9815
703 73 LeftLarger RTTaskAExp1 Prime_1N Target_9A MlhamCD FclbKJd Incongruent left correct Normal 486.3814
703 74 LeftLarger RTTaskAExp1 Prime_1N Target_6A EGIHhcC JCFdHMi Incongruent left correct Normal 572.0834
703 75 LeftLarger RTTaskAExp1 Prime_9N Target_4N JALmjbM jdiebHA Incongruent right correct Normal 564.3748
703 76 LeftLarger RTTaskAExp1 Prime_6A Target_4N IHAcCgf lILMifE Incongruent right correct Normal 503.8626
703 77 LeftLarger RTTaskAExp1 Prime_4A Target_4A EjGFMfe IdhcmHJ Congruent right correct Normal 499.4642
703 78 LeftLarger RTTaskAExp1 Prime_1A Target_9A HdaeLBE EDlFGMB Incongruent left correct Normal 510.9931
703 79 LeftLarger RTTaskAExp1 Prime_9N Target_9A JalMLiA MlJGAaf Congruent left correct Normal 435.2255
703 80 LeftLarger RTTaskAExp1 Prime_6A Target_9A AeEBFlf JAFflEd Congruent left correct Normal 402.1834
703 81 LeftLarger RTTaskAExp1 Prime_4N Target_6A DcLjlBC iHMflEe Incongruent right error Normal 501.9847
703 82 LeftLarger RTTaskAExp1 Prime_6N Target_9A KiBDkIa GLCKJDd Congruent left correct Normal 439.9686
703 83 LeftLarger RTTaskAExp1 Prime_1N Target_4A FdLlAem gJbcdkl Congruent right correct Normal 468.8448
703 84 LeftLarger RTTaskAExp1 Prime_9A Target_9A fiHMcdK leIbBKG Congruent left correct Normal 604.763
703 85 LeftLarger RTTaskAExp1 Prime_9N Target_9N CmJcklA gALMEeh Congruent left correct Normal 522.9042
703 86 LeftLarger RTTaskAExp1 Prime_4A Target_1A FIeJDbd CMiDcEa Congruent right correct Normal 456.7535
703 87 LeftLarger RTTaskAExp1 Prime_4N Target_6A LjiDfKe DChlBMK Incongruent left correct Normal 695.2462
703 88 LeftLarger RTTaskAExp2 Prime_6A Target_9N HfGdagl jlcigLA Congruent left correct Late 4148.498
703 89 LeftLarger RTTaskAExp2 Prime_9A Target_6A FaGDIAf BJEidLM Congruent left correct Normal 533.8573
703 90 LeftLarger RTTaskAExp2 Prime_4N Target_6A majdbhi MJhjKHd Incongruent left correct Normal 558.4571
703 91 LeftLarger RTTaskAExp2 Prime_6N Target_9A dkeMBaH JFflAeI Congruent left correct Normal 535.3732
703 92 LeftLarger RTTaskAExp2 Prime_4A Target_1N kBmbiDg bjBafgi Congruent right correct Normal 568.9753
703 93 LeftLarger RTTaskAExp2 Prime_9A Target_1A aAHMfCi iDLhFHb Incongruent right correct Normal 488.8306
703 94 LeftLarger RTTaskAExp2 Prime_1N Target_4N LiAIcaD kcCbHEe Congruent right correct Normal 565.5311
703 95 LeftLarger RTTaskAExp2 Prime_4N Target_9A AlChLMH bDEkAMH Incongruent left correct Normal 459.1537
703 96 LeftLarger RTTaskAExp2 Prime_1A Target_6A mbdBLJf HEDdMcG Incongruent left correct Normal 590.3108
703 97 LeftLarger RTTaskAExp2 Prime_1N Target_1A AdEaCBF KlGFDek Congruent right correct Normal 441.2321
703 98 LeftLarger RTTaskAExp2 Prime_6N Target_9N mchMJFe eJMhDaj Congruent left correct Normal 564.5301
703 99 LeftLarger RTTaskAExp2 Prime_9A Target_4N BjKbCFG jIihlBM Incongruent right correct Normal 600.6995
703 100 LeftLarger RTTaskAExp2 Prime_1A Target_4A EdJmCef iDFGIKE Congruent right correct Normal 456.7316
703 101 LeftLarger RTTaskAExp2 Prime_6A Target_1A AagLGJf lcHfDGF Incongruent right correct Normal 436.446
703 102 LeftLarger RTTaskAExp2 Prime_9A Target_9A ELgGmhM jHBbIAf Congruent left correct Normal 387.0602
703 103 LeftLarger RTTaskAExp2 Prime_9N Target_4N EbGlCHe BKeFAhb Incongruent right correct Normal 490.468
703 104 LeftLarger RTTaskAExp2 Prime_4N Target_4A MCdiIJc ijkmMHc Congruent right correct Normal 426.387
703 105 LeftLarger RTTaskAExp2 Prime_4N Target_1N eiMCBGE lFBLEcJ Congruent right correct Normal 462.1512
703 106 LeftLarger RTTaskAExp2 Prime_4A Target_1A ahgGJFd hcmCHBI Congruent right correct Normal 404.7232
703 107 LeftLarger RTTaskAExp2 Prime_1N Target_1N DmcFkAI DeAagKl Congruent right correct Normal 437.2679
703 108 LeftLarger RTTaskAExp2 Prime_9N Target_9N DFeHmkK amGIlef Congruent left correct Normal 525.1661
703 109 LeftLarger RTTaskAExp2 Prime_4A Target_4A FHKCegc CMHFImj Congruent right correct Normal 577.9681
703 110 LeftLarger RTTaskAExp2 Prime_4A Target_9N gaLeDlb GCdKLhg Incongruent left correct Normal 487.6218
703 111 LeftLarger RTTaskAExp2 Prime_9A Target_6N mMbCIkd BDaMFJE Congruent left correct Normal 601.3972
703 112 LeftLarger RTTaskAExp2 Prime_1A Target_1A bfdCKgM fBjhmLl Congruent right correct Normal 465.9683
703 113 LeftLarger RTTaskAExp2 Prime_6N Target_1A dchLfJG bHJliEg Incongruent right correct Normal 451.3659
703 114 LeftLarger RTTaskAExp2 Prime_4A Target_9A CcGfhDF LKEebgG Incongruent left correct Normal 509.7504
703 115 LeftLarger RTTaskAExp2 Prime_9N Target_4A HeJhABj LmGHegc Incongruent right correct Normal 508.5803
703 116 LeftLarger RTTaskAExp2 Prime_1N Target_4A HeajLIf jBlGHkJ Congruent right correct Normal 465.4955
703 117 LeftLarger RTTaskAExp2 Prime_9N Target_6A jGkJBKi IAbgMaj Congruent left correct Normal 607.0257
703 118 LeftLarger RTTaskAExp2 Prime_6A Target_1N KlIBeiG faJCHbM Incongruent right correct Normal 588.9638
703 119 LeftLarger RTTaskAExp2 Prime_9N Target_6N ikdjceH lFGcJKD Congruent left correct Normal 581.2347
703 120 LeftLarger RTTaskAExp2 Prime_6A Target_4A CmbDjgf BDKcalE Incongruent right correct Normal 536.768
703 121 LeftLarger RTTaskAExp2 Prime_1A Target_9A GcfCeDl KcbIgjl Incongruent left correct Normal 549.5908
703 122 LeftLarger RTTaskAExp2 Prime_4A Target_4N aehECmb IMbmCcj Congruent right correct Normal 584.8801
703 123 LeftLarger RTTaskAExp2 Prime_6A Target_6A aEGDMLk aAbKkGd Congruent left correct Normal 544.2713
703 124 LeftLarger RTTaskAExp2 Prime_6N Target_4N IhgLKkH hiILcCf Incongruent right correct Normal 544.0654
703 125 LeftLarger RTTaskAExp2 Prime_1A Target_6N HKijJAc Akdebfh Incongruent left correct Normal 669.8262
703 126 LeftLarger RTTaskAExp2 Prime_1N Target_9N kaiIECH fFdLDIl Incongruent left correct Normal 564.3055
703 127 LeftLarger RTTaskAExp2 Prime_6N Target_4A mMKFdfC lebFHBM Incongruent right correct Normal 805.6982
703 128 LeftLarger RTTaskAExp2 Prime_4N Target_9N HamAMgE IbEmJlG Incongruent left correct Normal 515.9837
703 129 LeftLarger RTTaskAExp2 Prime_1N Target_6N kmMbHDc JlCFLKM Incongruent left correct Normal 550.5115
703 130 LeftLarger RTTaskAExp2 Prime_4N Target_1A JEfLCAM JfaKGgj Congruent right correct Normal 510.4538
703 131 LeftLarger RTTaskAExp2 Prime_4N Target_6N jMDGFJA kfHcMDi Incongruent left correct Normal 449.6465
703 132 LeftLarger RTTaskAExp2 Prime_6N Target_6N ibcaKHJ BDJEcaC Congruent left correct Normal 438.5293
703 133 LeftLarger RTTaskAExp2 Prime_9N Target_1N ACfdlJH BIaLCgl Incongruent right correct Normal 544.1601
703 134 LeftLarger RTTaskAExp2 Prime_6N Target_6A JAFfGIj KgjIikm Congruent left correct Normal 476.5966
703 135 LeftLarger RTTaskAExp2 Prime_6A Target_4N JBIcDfC iHcMemA Incongruent right correct Normal 508.1575
703 136 LeftLarger RTTaskAExp2 Prime_9N Target_9A kbEKfjC hlJKimg Congruent left correct Normal 530.8297
703 137 LeftLarger RTTaskAExp2 Prime_1N Target_9A MleACEd fGMEhBH Incongruent left correct Normal 445.2432
703 138 LeftLarger RTTaskAExp2 Prime_9N Target_1A hjJIECm FJkgLAm Incongruent right correct Normal 553.0993
703 139 LeftLarger RTTaskAExp2 Prime_4A Target_6N bmKaMch EdLGKIb Incongruent left correct Normal 922.5652
703 140 LeftLarger RTTaskAExp2 Prime_1A Target_4N gekmclj biahEMG Congruent right correct Normal 596.983
703 141 LeftLarger RTTaskAExp2 Prime_9A Target_9N kAjcFBf jkKgDEe Congruent left correct Normal 468.9139
703 142 LeftLarger RTTaskAExp2 Prime_6A Target_9N FcHbdLG mjlkFhL Congruent left correct Normal 489.1905
703 143 LeftLarger RTTaskAExp2 Prime_6A Target_9A mlIHjCb gcmAJBh Congruent left correct Normal 442.8282
703 144 LeftLarger RTTaskAExp2 Prime_4A Target_6A mbIjGhl DCgFJML Incongruent left correct Normal 362.3997
703 145 LeftLarger RTTaskAExp2 Prime_4N Target_4N cfHahMe KClHeDf Congruent right correct Normal 490.2545
703 146 LeftLarger RTTaskAExp2 Prime_6N Target_1N FlEAfea bkGiDMB Incongruent right correct Normal 624.2432
703 147 LeftLarger RTTaskAExp2 Prime_9A Target_1N biBICMg gbIjBdE Incongruent right correct Normal 522.0005
703 148 LeftLarger RTTaskAExp2 Prime_1A Target_9N kdajflF KijJdEa Incongruent left correct Normal 521.0412
703 149 LeftLarger RTTaskAExp2 Prime_6A Target_6N KjigAcM mLjgaCc Congruent left correct Normal 549.7416
703 150 LeftLarger RTTaskAExp2 Prime_1N Target_6A mkcflHJ FhCbldg Incongruent left correct Normal 432.9608
703 151 LeftLarger RTTaskAExp2 Prime_9A Target_4A ALMEIKc KmJcglj Incongruent right correct Normal 512.9228
703 152 LeftLarger RTTaskAExp2 Prime_1A Target_1N aAMECIK dcIHfma Congruent right correct Normal 646.0937
703 153 LeftSmaller RTTaskBPrac Prime_4A Target_9N egIlMaB Gibadkc Incongruent right correct Normal 732.6257
703 154 LeftSmaller RTTaskBPrac Prime_4A Target_1A iekdbIJ hJEMDfe Congruent left correct Late 4010.727
703 155 LeftSmaller RTTaskBPrac Prime_4A Target_6A BGIfJdE HdcgbDa Incongruent right correct Normal 547.493
703 156 LeftSmaller RTTaskBPrac Prime_1A Target_4A ilgeBFE cKiAGMd Congruent left correct Normal 568.049
703 157 LeftSmaller RTTaskBPrac Prime_1A Target_6N lLdGFgi gFHlaAj Incongruent right correct Normal 538.3556
703 158 LeftSmaller RTTaskBPrac Prime_9A Target_4N bglGIBE akKFljG Incongruent left correct Normal 477.6715
703 159 LeftSmaller RTTaskBPrac Prime_4A Target_1A dFBkbCl KAjIdcM Congruent left correct Normal 415.4567
703 160 LeftSmaller RTTaskBPrac Prime_4N Target_6N iFKEcLM aclmAHM Incongruent right correct Normal 479.7387
703 161 LeftSmaller RTTaskBPrac Prime_1N Target_6A ACfeLKB LHCfkaB Incongruent right correct Normal 439.1131
703 162 LeftSmaller RTTaskBPrac Prime_4N Target_6A LfHMIhb IGjMFJA Incongruent right correct Normal 435.8384
703 163 LeftSmaller RTTaskBPrac Prime_9A Target_9A BaGDELk GadjfDm Congruent right correct Normal 428.4925
703 164 LeftSmaller RTTaskBPrac Prime_9A Target_6N MFdbgkH FIbCjiK Congruent right correct Normal 553.6549
703 165 LeftSmaller RTTaskBPrac Prime_9A Target_9N FKLkDJh mLdAIca Congruent right correct Normal 475.2009
703 166 LeftSmaller RTTaskBPrac Prime_6A Target_6N fmjaDLF kmcCBHA Congruent right correct Normal 434.3659
703 167 LeftSmaller RTTaskBPrac Prime_4N Target_1N DgBeLcj caFhdAm Congruent left correct Normal 492.7859
703 168 LeftSmaller RTTaskBPrac Prime_1N Target_6N FGfJgLj bdkChfF Incongruent right correct Normal 526.5555
703 169 LeftSmaller RTTaskBPrac Prime_4N Target_9A hlBjEJa liDkAaJ Incongruent right correct Normal 492.4259
703 170 LeftSmaller RTTaskBExp1 Prime_1N Target_9A lDBgLmf fgaHhGM Incongruent right correct Normal 407.4043
703 171 LeftSmaller RTTaskBExp1 Prime_4N Target_9A JAeMhIG AGcIabF Incongruent right correct Normal 379.7871
703 172 LeftSmaller RTTaskBExp1 Prime_6N Target_9A aejghli MjfFGJb Congruent right correct Normal 344.4489
703 173 LeftSmaller RTTaskBExp1 Prime_4A Target_4A cLmkEgC cLeEHCA Congruent left correct Normal 486.3782
703 174 LeftSmaller RTTaskBExp1 Prime_9A Target_6A MhAbcLm dICeDiA Congruent right correct Normal 537.6755
703 175 LeftSmaller RTTaskBExp1 Prime_4A Target_1A KjfAJEl bekIhLa Congruent left correct Normal 388.2123
703 176 LeftSmaller RTTaskBExp1 Prime_6N Target_6A eGadIHm lGBHCbD Congruent right correct Normal 360.8749
703 177 LeftSmaller RTTaskBExp1 Prime_9N Target_1A FbHLelG dAEhHbI Incongruent left correct Normal 446.3681
703 178 LeftSmaller RTTaskBExp1 Prime_1N Target_1N JLgeAaE MlfLIcJ Congruent left correct Normal 504.6937
703 179 LeftSmaller RTTaskBExp1 Prime_9N Target_9N KJkgjFC eHcEBbi Congruent right correct Normal 393.1203
703 180 LeftSmaller RTTaskBExp1 Prime_6N Target_9N eLmGCjD cKMmLbh Congruent right correct Normal 471.7555
703 181 LeftSmaller RTTaskBExp1 Prime_6A Target_9N eMDJgmG FlIKiGL Congruent right correct Normal 370.424
703 182 LeftSmaller RTTaskBExp1 Prime_9A Target_1A JDmiCbF HMEDKLe Incongruent left correct Normal 406.8597
703 183 LeftSmaller RTTaskBExp1 Prime_1N Target_6A lhJbDed CdiHhaK Incongruent right correct Normal 517.2271
703 184 LeftSmaller RTTaskBExp1 Prime_6A Target_9A KClImdf gJdGLkM Congruent right correct Normal 442.8134
703 185 LeftSmaller RTTaskBExp1 Prime_1A Target_9A bDABmaj meFAJGd Incongruent right correct Normal 395.3556
703 186 LeftSmaller RTTaskBExp1 Prime_1N Target_1A gDJHEia fDLligM Congruent left correct Normal 401.9277
703 187 LeftSmaller RTTaskBExp1 Prime_1A Target_4A MeFiJCI HLjIakE Congruent left correct Normal 478.4384
703 188 LeftSmaller RTTaskBExp1 Prime_4N Target_1A IFchLJa icHFgDm Congruent left correct Normal 415.7102
703 189 LeftSmaller RTTaskBExp1 Prime_6A Target_1A cglkfGj mMbFGal Incongruent left correct Normal 383.0579
703 190 LeftSmaller RTTaskBExp1 Prime_4N Target_9N iFHheJd lFAKHhd Incongruent right correct Normal 457.6718
703 191 LeftSmaller RTTaskBExp1 Prime_1N Target_4N hCaDIbj EDMcBAm Congruent left correct Normal 462.83
703 192 LeftSmaller RTTaskBExp1 Prime_4A Target_9N DAacIFL kBGFiIl Incongruent right correct Normal 482.6768
703 193 LeftSmaller RTTaskBExp1 Prime_1N Target_6N BHjhGma AJGLECc Incongruent right correct Normal 586.3114
703 194 LeftSmaller RTTaskBExp1 Prime_9N Target_1N fHMdALC hLbdEil Incongruent left correct Normal 480.8262
703 195 LeftSmaller RTTaskBExp1 Prime_6A Target_1N HDciEle LelcHjk Incongruent left correct Normal 540.7565
703 196 LeftSmaller RTTaskBExp1 Prime_1A Target_1N ljhBgFJ MGgBklL Congruent left correct Normal 410.3926
703 197 LeftSmaller RTTaskBExp1 Prime_9N Target_4A cFIHGif ceaGklf Incongruent left correct Normal 507.6504
703 198 LeftSmaller RTTaskBExp1 Prime_4N Target_4N BHkFGEl DKegJHa Congruent left correct Normal 492.6258
703 199 LeftSmaller RTTaskBExp1 Prime_6A Target_6N LmCgAKJ AhkgFKe Congruent right correct Normal 529.2979
703 200 LeftSmaller RTTaskBExp1 Prime_9N Target_6A KhlMCBc IGdbEBC Congruent right correct Normal 543.6945
703 201 LeftSmaller RTTaskBExp1 Prime_6N Target_6N GKFhaek eCcMKlE Congruent right correct Normal 428.9778
703 202 LeftSmaller RTTaskBExp1 Prime_4A Target_4N ClkbDLM fgIjihA Congruent left correct Normal 413.0146
703 203 LeftSmaller RTTaskBExp1 Prime_6N Target_1A fJbmGej bMDFmfH Incongruent left correct Normal 423.3298
703 204 LeftSmaller RTTaskBExp1 Prime_4N Target_6A LAjaIGc diHkGjF Incongruent right correct Normal 600.6358
703 205 LeftSmaller RTTaskBExp1 Prime_9A Target_6N KcLlMmb IbDJekM Congruent right correct Normal 437.3998
703 206 LeftSmaller RTTaskBExp1 Prime_9A Target_1N ABMKjhJ iFfHmDJ Incongruent left correct Normal 493.6755
703 207 LeftSmaller RTTaskBExp1 Prime_1N Target_4A FLkJDle hcIkCAf Congruent left correct Normal 556.6211
703 208 LeftSmaller RTTaskBExp1 Prime_1N Target_9N aMcDCAF jEGlcim Incongruent right correct Normal 484.1474
703 209 LeftSmaller RTTaskBExp1 Prime_1A Target_6A CkBHAGK KikGfdm Incongruent right correct Normal 521.1751
703 210 LeftSmaller RTTaskBExp1 Prime_6A Target_4A DlmBAKi GIEFiam Incongruent left correct Late 4192.014
703 211 LeftSmaller RTTaskBExp1 Prime_6A Target_6A kDlMaJc EiDameK Congruent right correct Normal 547.453
703 212 LeftSmaller RTTaskBExp1 Prime_4N Target_1N hcGLHiM BmiCkgj Congruent left correct Normal 406.1503
703 213 LeftSmaller RTTaskBExp1 Prime_1A Target_4N aGflibk JEmDjCK Congruent left correct Normal 773.1822
703 214 LeftSmaller RTTaskBExp1 Prime_9N Target_4N GbhmFEB hLgeBHc Incongruent left correct Normal 537.9843
703 215 LeftSmaller RTTaskBExp1 Prime_1A Target_1A IEChLgB HlJIjaM Congruent left correct Normal 380.9535
703 216 LeftSmaller RTTaskBExp1 Prime_4A Target_9A FHKejBM JaidmjF Incongruent right correct Normal 491.5443
703 217 LeftSmaller RTTaskBExp1 Prime_6N Target_1N aDmBbLH ljKCdmk Incongruent left correct Normal 475.4345
703 218 LeftSmaller RTTaskBExp1 Prime_4N Target_6N AlejidD BJlcAKg Incongruent right correct Normal 575.8911
703 219 LeftSmaller RTTaskBExp1 Prime_9A Target_9A JAIECfB ILDhklG Congruent right correct Normal 628.7755
703 220 LeftSmaller RTTaskBExp1 Prime_9N Target_6N GkmgHKF BjKleac Congruent left error Normal 533.0859
703 221 LeftSmaller RTTaskBExp1 Prime_9A Target_4N DmkJdiI IdehkML Incongruent left correct Normal 501.8852
703 222 LeftSmaller RTTaskBExp1 Prime_9A Target_4A EkhbLKJ FICcbHj Incongruent left correct Normal 419.0525
703 223 LeftSmaller RTTaskBExp1 Prime_6A Target_4A HgGDCBi KkahbGD Incongruent left correct Normal 390.9879
703 224 LeftSmaller RTTaskBExp1 Prime_9A Target_9N jLGDMEJ kJABKEM Congruent right correct Normal 475.0247
703 225 LeftSmaller RTTaskBExp1 Prime_4A Target_6N mEajLAJ adIMKJk Incongruent left error Normal 442.9326
703 226 LeftSmaller RTTaskBExp1 Prime_6N Target_4N akCdcJD aKcAeEg Incongruent left correct Normal 517.3738
703 227 LeftSmaller RTTaskBExp1 Prime_6A Target_4N gbBAEMl GEhiLAk Incongruent left correct Normal 512.0219
703 228 LeftSmaller RTTaskBExp1 Prime_9N Target_9A fbdIlmc EJBhIim Congruent right correct Normal 434.8125
703 229 LeftSmaller RTTaskBExp1 Prime_4A Target_6A KAFJaLi hEbBDlg Incongruent left error Normal 464.5835
703 230 LeftSmaller RTTaskBExp1 Prime_1A Target_6N mlAGIah BghaKmJ Incongruent right correct Normal 486.3913
703 231 LeftSmaller RTTaskBExp1 Prime_4N Target_4A hECdMfa dkBjbam Congruent left correct Normal 466.7044
703 232 LeftSmaller RTTaskBExp1 Prime_4A Target_6N lEjaMAL gDJdCkb Incongruent right correct Normal 469.8451
703 233 LeftSmaller RTTaskBExp1 Prime_6N Target_4A fKLJBAH JahLjmI Incongruent left correct Normal 569.5726
703 234 LeftSmaller RTTaskBExp1 Prime_1A Target_9N EHlcKeL gmheMDd Incongruent right correct Normal 470.4484
703 235 LeftSmaller RTTaskBExp1 Prime_9N Target_6N dheLFjK DAEbakm Congruent right correct Normal 502.9791
703 236 LeftSmaller RTTaskBExp1 Prime_4A Target_1N fEmcAlL dKJafeb Congruent left correct Normal 582.4995
703 237 LeftSmaller RTTaskBExp1 Prime_4A Target_6A MHECBhA aLfiHcA Incongruent right correct Normal 533.0265
703 238 LeftSmaller RTTaskBExp2 Prime_1N Target_9N GCFAcbI BfmiKJH Incongruent right correct Normal 460.3749
703 239 LeftSmaller RTTaskBExp2 Prime_1A Target_1N maMbIEc dAaIlBh Congruent left correct Normal 402.5016
703 240 LeftSmaller RTTaskBExp2 Prime_6A Target_9N kKAHMIB fIJlhAk Congruent right correct Normal 381.0919
703 241 LeftSmaller RTTaskBExp2 Prime_9A Target_6A geMBdKD FhIjiAl Congruent right correct Normal 411.8383
703 242 LeftSmaller RTTaskBExp2 Prime_9A Target_9A JGCBgEd eLmFJfl Congruent right correct Normal 361.3053
703 243 LeftSmaller RTTaskBExp2 Prime_9N Target_1N hkmKgMj jEiDkag Incongruent right error Normal 324.3046
703 244 LeftSmaller RTTaskBExp2 Prime_4A Target_9N lHJfAcE bkjFKdE Incongruent right correct Normal 497.4665
703 245 LeftSmaller RTTaskBExp2 Prime_4N Target_1N cGfbeLM IbHBmlL Congruent left correct Normal 477.9371
703 246 LeftSmaller RTTaskBExp2 Prime_4A Target_1N BkJDmLC KeDcGFL Congruent left correct Normal 494.4884
703 247 LeftSmaller RTTaskBExp2 Prime_4N Target_9A JiBgDIc AlCEHBG Incongruent right correct Normal 456.5336
703 248 LeftSmaller RTTaskBExp2 Prime_1A Target_1A JGMeLbm aABEeGk Congruent left correct Normal 376.5656
703 249 LeftSmaller RTTaskBExp2 Prime_6N Target_1N KaFdMhE JkemAlM Incongruent left correct Normal 457.8484
703 250 LeftSmaller RTTaskBExp2 Prime_1A Target_4N mbdiEAG JcjlCfe Congruent left correct Normal 669.5587
703 251 LeftSmaller RTTaskBExp2 Prime_6A Target_6N MCEKLHD KHbldjC Congruent right correct Normal 751.0396
703 252 LeftSmaller RTTaskBExp2 Prime_9N Target_6N MIjHcea IgGdAaL Congruent right correct Normal 614.9475
703 253 LeftSmaller RTTaskBExp2 Prime_6N Target_4A BeKJaGC MemgKCf Incongruent left correct Normal 471.1163
703 254 LeftSmaller RTTaskBExp2 Prime_1N Target_6A JAigdlF jHdLFCG Incongruent right correct Normal 655.0645
703 255 LeftSmaller RTTaskBExp2 Prime_4A Target_1A hIjHGfc LhgfIHj Congruent left correct Normal 448.0108
703 256 LeftSmaller RTTaskBExp2 Prime_6A Target_6A HbIBEfK dJLMHjg Congruent right correct Normal 415.013
703 257 LeftSmaller RTTaskBExp2 Prime_1N Target_4A FlefKMb BEmljFH Congruent left correct Normal 476.5453
703 258 LeftSmaller RTTaskBExp2 Prime_9A Target_1N aFdGIbk gFHBGJC Incongruent left correct Normal 537.9388
703 259 LeftSmaller RTTaskBExp2 Prime_4N Target_6A DLIfgFM mJDfBad Incongruent right correct Normal 643.0495
703 260 LeftSmaller RTTaskBExp2 Prime_9N Target_4N keFihBI JHDeifG Incongruent left correct Normal 653.0518
703 261 LeftSmaller RTTaskBExp2 Prime_1N Target_1N gIdHJim HKBADFk Congruent left correct Normal 612.8375
703 262 LeftSmaller RTTaskBExp2 Prime_6A Target_4A JLigFEj GiakFMg Incongruent left correct Normal 509.1303
703 263 LeftSmaller RTTaskBExp2 Prime_6A Target_1N fJImHbc kjJbdcg Incongruent left correct Normal 569.2909
703 264 LeftSmaller RTTaskBExp2 Prime_9A Target_9N LHMaJGC ieDJImA Congruent right correct Normal 669.5262
703 265 LeftSmaller RTTaskBExp2 Prime_4N Target_9N cMmaeFD fJCclde Incongruent right correct Normal 527.3764
703 266 LeftSmaller RTTaskBExp2 Prime_1N Target_6N DfKEmCb acJEbCj Incongruent right correct Normal 636.5636
703 267 LeftSmaller RTTaskBExp2 Prime_6N Target_4N BMhAfEI agGecjf Incongruent left correct Normal 624.536
703 268 LeftSmaller RTTaskBExp2 Prime_4A Target_9A lLMfGbK AIceFmi Incongruent right correct Normal 497.3765
703 269 LeftSmaller RTTaskBExp2 Prime_1N Target_1A bdaJBhj CeKlkMA Congruent left correct Normal 435.7841
703 270 LeftSmaller RTTaskBExp2 Prime_1A Target_4A KmfgJBh AlKJbHj Congruent left correct Normal 436.2037
703 271 LeftSmaller RTTaskBExp2 Prime_4N Target_4A KfAiDHI JkcDeCd Congruent left correct Normal 406.3672
703 272 LeftSmaller RTTaskBExp2 Prime_1A Target_9N LmkFbic hJeHgDI Incongruent right correct Normal 501.4034
703 273 LeftSmaller RTTaskBExp2 Prime_4N Target_6N DlAgdhH CJaegKH Incongruent right correct Normal 528.6867
703 274 LeftSmaller RTTaskBExp2 Prime_1N Target_9A MBHkdlC jJIcBkh Incongruent right correct Normal 443.504
703 275 LeftSmaller RTTaskBExp2 Prime_9N Target_1A flEhCDd IeFCLdg Incongruent left correct Normal 434.6681
703 276 LeftSmaller RTTaskBExp2 Prime_9A Target_6N CcleMBI dfgKFhJ Congruent right correct Normal 768.6833
703 277 LeftSmaller RTTaskBExp2 Prime_1A Target_6A hFjIDbL AlKkiGc Incongruent right correct Normal 448.3449
703 278 LeftSmaller RTTaskBExp2 Prime_9A Target_1A jdEMGKI AlIijmG Incongruent left correct Normal 453.9116
703 279 LeftSmaller RTTaskBExp2 Prime_9N Target_9N fKieECl eEDjGdg Congruent right correct Normal 427.2068
703 280 LeftSmaller RTTaskBExp2 Prime_6A Target_1A BkfGhHl AGidCfe Incongruent left correct Normal 449.2326
703 281 LeftSmaller RTTaskBExp2 Prime_9A Target_4A jEdHKeg hMiBjgm Incongruent left correct Normal 542.6406
703 282 LeftSmaller RTTaskBExp2 Prime_6A Target_9A MlbKLac Kchaime Congruent right correct Normal 440.6977
703 283 LeftSmaller RTTaskBExp2 Prime_9N Target_1N klbgaFm gifLFeb Incongruent left correct Normal 502.1605
703 284 LeftSmaller RTTaskBExp2 Prime_6A Target_4N GHbBJIk ACmBKEH Incongruent left correct Normal 531.2888
703 285 LeftSmaller RTTaskBExp2 Prime_9N Target_6A bJfMGmB CabcfLj Congruent right correct Normal 464.0595
703 286 LeftSmaller RTTaskBExp2 Prime_4A Target_4N jdIDlMJ gMJleBb Congruent left correct Normal 588.4942
703 287 LeftSmaller RTTaskBExp2 Prime_4A Target_4A mefMLBG CFaKIel Congruent left correct Normal 458.7851
