sub trial_no group_type block_type prime target mask1 mask2 congruency key_press key_error time_error RT
302 1 LeftLarger PercCAPrac Prime_9N Target_1N ckjLfem LhcFeai Incongruent left correct Normal 1011.549
302 2 LeftLarger PercCAPrac Prime_6N Target_1N hbmdJGF ICAEFjb Incongruent left correct Normal 359.2438
302 3 LeftLarger PercCAPrac Prime_1N Target_9N JcbDlei lKGcmhe Incongruent right error Normal 332.9264
302 4 LeftLarger PercCAPrac Prime_1N Target_6A lLJIcGb kmlfLdI Incongruent left correct Normal 375.4541
302 5 LeftLarger PercCAPrac Prime_6A Target_1A HBDeGlA fEDiIJe Incongruent left correct Normal 125.1264
302 6 LeftLarger PercCAPrac Prime_4N Target_6A JjgEGem HbaIBDK Incongruent left correct Early 93.16399
302 7 LeftLarger PercCAPrac Prime_4N Target_9A HChDAJa hFgbDHm Incongruent right error Normal 447.0646
302 8 LeftLarger PercCAPrac Prime_1A Target_9N hEABjce MLFekGB Incongruent right error Early 70.95661
302 9 LeftLarger PercCAPrac Prime_4N Target_4A GIhgMbH EBkDdmI Congruent right correct Early 99.60428
302 10 LeftLarger PercCAPrac Prime_1N Target_6N kjgmJGH jbGekdH Incongruent right error Early 25.24862
302 11 LeftLarger PercCAPrac Prime_6N Target_6N IlAFjeM LkjKlEC Congruent right correct Normal 226.2778
302 12 LeftLarger PercCAPrac Prime_6N Target_6A CLcBGmf mEDJCFf Congruent left error Early 29.60352
302 13 LeftLarger PercCAPrac Prime_9N Target_6A jghCFAb jJfeGbA Congruent left error Normal 459.1588
302 14 LeftLarger PercCAPrac Prime_4N Target_6N IJCGHic aEGJFMl Incongruent left correct Early 50.23044
302 15 LeftLarger PercCAPrac Prime_6N Target_9N IcaDKdg KaieDcA Congruent left error Normal 172.4905
302 16 LeftLarger PercCAPrac Prime_6N Target_1A gLGAmaB FjJgKkb Incongruent left correct Normal 239.6009
302 17 LeftLarger PercCAExp1 Prime_9A Target_6A FjJDbcf dlMBhFA Congruent right correct Normal 157.9435
302 18 LeftLarger PercCAExp1 Prime_6N Target_4A AGLfFBi AdLjEcb Incongruent right error Early 93.06843
302 19 LeftLarger PercCAExp1 Prime_4A Target_4A LHmkjIc GCgDeME Congruent right correct Normal 452.5027
302 20 LeftLarger PercCAExp1 Prime_1A Target_6N FfECMac bDIdMlk Incongruent right error Early 25.05207
302 21 LeftLarger PercCAExp1 Prime_4N Target_6A cCGdiKI jHeMlmD Incongruent right error Normal 3727.114
302 22 LeftLarger PercCAExp1 Prime_6N Target_1N dehmMJb jkaFLBm Incongruent left correct Normal 202.4312
302 23 LeftLarger PercCAExp1 Prime_6A Target_6A efDGFmJ KbkmJlA Congruent left error Normal 225.7087
302 24 LeftLarger PercCAExp1 Prime_4A Target_1N fbBigEC LMKHgbl Congruent left error Early 78.22112
302 25 LeftLarger PercCAExp1 Prime_4N Target_9A kKcGfCL iLekdCF Incongruent left correct Normal 122.3241
302 26 LeftLarger PercCAExp1 Prime_4N Target_4N BhIgAJl hJKHbLF Congruent left error Normal 135.3193
302 27 LeftLarger PercCAExp1 Prime_1A Target_4N ADFHdmc heibBfA Congruent left error Normal 276.7034
302 28 LeftLarger PercCAExp1 Prime_1N Target_4N HLEgeca HIKlGDi Congruent left error Early 65.38332
302 29 LeftLarger PercCAExp1 Prime_1N Target_1N aMJfcKg GAkfHJh Congruent left error Early 39.79604
302 30 LeftLarger PercCAExp1 Prime_4N Target_6N kKbLDgF mfkGjEe Incongruent left correct Early 38.23611
302 31 LeftLarger PercCAExp1 Prime_6N Target_9N fDeHFkd BgmdjGH Congruent right correct Early 25.48194
302 32 LeftLarger PercCAExp1 Prime_1A Target_4A BbemjaH IlFKJaf Congruent right correct Normal 143.8952
302 33 LeftLarger PercCAExp1 Prime_9A Target_6N bELaiKB jgIMcmJ Congruent right correct Normal 230.3162
302 34 LeftLarger PercCAExp1 Prime_1N Target_1A DcljAhG BFaJfGM Congruent right correct Early 19.54169
302 35 LeftLarger PercCAExp1 Prime_6A Target_6N BKJefIM kecEFIG Congruent left error Normal 365.132
302 36 LeftLarger PercCAExp1 Prime_9A Target_4A HcGhAgE IeCGDKF Incongruent left correct Normal 2444.5
302 37 LeftLarger PercCAExp1 Prime_6N Target_6A EjGagKF IFAdMfD Congruent left error Early 25.61817
302 38 LeftLarger PercCAExp1 Prime_4A Target_6A BKjCdeJ kJcKeGE Incongruent left correct Normal 318.8213
302 39 LeftLarger PercCAExp1 Prime_1N Target_4A jlbkhEM mKAFifc Congruent left error Normal 527.9309
302 40 LeftLarger PercCAExp1 Prime_6A Target_4N eAiBHjg bGiJDKF Incongruent left correct Normal 771.249
302 41 LeftLarger PercCAExp1 Prime_4N Target_1A cdECMfa fHlCIbK Congruent right correct Normal 306.4307
302 42 LeftLarger PercCAExp1 Prime_9N Target_1N dcJBmLk LlIDEHi Incongruent right error Early 90.57259
302 43 LeftLarger PercCAExp1 Prime_9A Target_1A JbhCmDc MehFDLd Incongruent right error Normal 402.6013
302 44 LeftLarger PercCAExp1 Prime_9A Target_9N afAlbMh CDGAamk Congruent right correct Normal 149.1441
302 45 LeftLarger PercCAExp1 Prime_4A Target_9N jGbmfHB kDILBjc Incongruent right error Early 47.34179
302 46 LeftLarger PercCAExp1 Prime_9A Target_9A afhGdkC FEmcjMD Congruent right correct Early 78.20809
302 47 LeftLarger PercCAExp1 Prime_4A Target_6N MgaAKCe EcACjih Incongruent right error Normal 157.508
302 48 LeftLarger PercCAExp1 Prime_9N Target_4A CBMkELA kCBhdlj Incongruent right error Normal 132.9899
302 49 LeftLarger PercCAExp1 Prime_1A Target_6A ajJLdib DgBkLeA Incongruent right error Normal 157.8201
302 50 LeftLarger PercCAExp1 Prime_6N Target_1A kcgjBfA BLdlJFA Incongruent right error Normal 581.4674
302 51 LeftLarger PercCAExp1 Prime_4A Target_4N AbDjlEL efFDdik Congruent left error Normal 174.639
302 52 LeftLarger PercCAExp1 Prime_9N Target_6N jkLKeHM CBiGJHd Congruent left error Normal 392.2834
302 53 LeftLarger PercCAExp1 Prime_6N Target_4N aGJMjEc fbhlMFI Incongruent left correct Normal 140.4672
302 54 LeftLarger PercCAExp1 Prime_9A Target_4N kflEJAD eJgELCf Incongruent left correct Early 51.39365
302 55 LeftLarger PercCAExp1 Prime_1A Target_1A kmegiHl DBlmKhM Congruent left error Normal 947.7671
302 56 LeftLarger PercCAExp1 Prime_1A Target_9N HCbiMFE DeBgKEf Incongruent left correct Normal 277.3097
302 57 LeftLarger PercCAExp1 Prime_6A Target_9A KJfIFgd GMfgjHA Congruent right correct Normal 454.9855
302 58 LeftLarger PercCAExp1 Prime_1N Target_6N KIlBcLJ AIBjFLH Incongruent left correct Early 16.15965
302 59 LeftLarger PercCAExp1 Prime_6N Target_9A GMEFagI mBEbJda Congruent left error Normal 315.0686
302 60 LeftLarger PercCAExp1 Prime_4N Target_1N BGJdgiD dHlKGbc Congruent left error Normal 287.6094
302 61 LeftLarger PercCAExp1 Prime_1N Target_6A FlLDeBM eFKdlcI Incongruent left correct Normal 521.28
302 62 LeftLarger PercCAExp1 Prime_4A Target_9A JIAdGEl lKbGDFk Incongruent right error Normal 273.4294
302 63 LeftLarger PercCAExp1 Prime_6A Target_9N LhMDkGC kgjJMEI Congruent right correct Normal 738.9595
302 64 LeftLarger PercCAExp1 Prime_9N Target_4N JLKFmAa eKJgiGL Incongruent right error Normal 455.0205
302 65 LeftLarger PercCAExp1 Prime_4A Target_1A mBfhgAM KBhdimk Congruent right correct Normal 451.2995
302 66 LeftLarger PercCAExp1 Prime_6A Target_4A hEiJbgf FkJhKHm Incongruent left correct Normal 101.9878
302 67 LeftLarger PercCAExp1 Prime_9N Target_6A ikChIaB BLeJIED Congruent left error Normal 226.7723
302 68 LeftLarger PercCAExp1 Prime_9N Target_9A HdAmFEk eCgidmJ Congruent left error Normal 699.5996
302 69 LeftLarger PercCAExp1 Prime_4N Target_4A EaMdKiG MhLlfKC Congruent right correct Normal 779.2745
302 70 LeftLarger PercCAExp1 Prime_1A Target_9A jckmKEi MglDdiI Incongruent right error Normal 277.4483
302 71 LeftLarger PercCAExp1 Prime_1A Target_1N gGDchlL fhIikFd Congruent right correct Normal 518.1798
302 72 LeftLarger PercCAExp1 Prime_9N Target_9N LEdMgJb HLCBGJg Congruent left error Normal 933.7105
302 73 LeftLarger PercCAExp1 Prime_9N Target_1A IfMbhGm JIBEejC Incongruent left correct Normal 344.5243
302 74 LeftLarger PercCAExp1 Prime_6N Target_6N dCAGEhD HbgdaDh Congruent left error Normal 237.2552
302 75 LeftLarger PercCAExp1 Prime_1N Target_9N CeAgEJd DFJjKml Incongruent left correct Normal 731.702
302 76 LeftLarger PercCAExp1 Prime_9A Target_1N bljkDKG adEjklJ Incongruent left correct Normal 704.7432
302 77 LeftLarger PercCAExp1 Prime_1N Target_9A ecGEMFi BgacFEh Incongruent left correct Normal 411.4439
302 78 LeftLarger PercCAExp1 Prime_6A Target_1N GadDcFH CHkFiga Incongruent left correct Normal 384.7815
302 79 LeftLarger PercCAExp1 Prime_6A Target_1A eJFgdca eilEHhI Incongruent right error Normal 129.5623
302 80 LeftLarger PercCAExp1 Prime_4N Target_9N EjMFlmk BMAJcEf Incongruent right error Normal 347.9253
302 81 LeftSmaller PercCBPrac Prime_9N Target_1N AdLIEli LechCAj Incongruent right correct Normal 1951.178
302 82 LeftSmaller PercCBPrac Prime_1N Target_6N FbHjgak lIgGAmc Incongruent left error Normal 242.8749
302 83 LeftSmaller PercCBPrac Prime_6A Target_4A FcijDMg imeALlj Incongruent left error Early 65.95501
302 84 LeftSmaller PercCBPrac Prime_9N Target_4N hDGbCJH BDICEAF Incongruent left error Early 53.85566
302 85 LeftSmaller PercCBPrac Prime_9A Target_9A FMDeaLb cidMJIa Congruent left correct Early 64.52747
302 86 LeftSmaller PercCBPrac Prime_4A Target_6N HGmJjba FEkBjId Incongruent right correct Early 78.1649
302 87 LeftSmaller PercCBPrac Prime_4N Target_4A mBICHMg HiJKdfc Congruent right error Normal 3272.546
302 88 LeftSmaller PercCBPrac Prime_6A Target_1N miBMACL HCgbAIf Incongruent right correct Normal 455.9222
302 89 LeftSmaller PercCBPrac Prime_1A Target_4A cIJehaG IbLCJAh Congruent right error Normal 422.6713
302 90 LeftSmaller PercCBPrac Prime_9A Target_6A fmklbML GAKmbLh Congruent right error Early 26.71657
302 91 LeftSmaller PercCBPrac Prime_1A Target_6N bFJdajH ABCIaHF Incongruent right correct Normal 1362.983
302 92 LeftSmaller PercCBPrac Prime_6N Target_9N EbdIech BkbIDFK Congruent right error Normal 239.7029
302 93 LeftSmaller PercCBPrac Prime_4N Target_4N JdlDHch khIcEbF Congruent right error Normal 1893.107
302 94 LeftSmaller PercCBPrac Prime_9N Target_9A mhLeKfH hlAfdEB Congruent right error Normal 100.8133
302 95 LeftSmaller PercCBPrac Prime_6A Target_4N mfcHeJB DBlGhiA Incongruent right correct Normal 105.1002
302 96 LeftSmaller PercCBPrac Prime_4N Target_9A AdiJbBc CIcgjhk Incongruent right correct Early 63.64635
302 97 LeftSmaller PercCBExp1 Prime_4A Target_1N bjFlegC KbhgEiF Congruent left correct Normal 2512.15
302 98 LeftSmaller PercCBExp1 Prime_1A Target_1A GIHeFmh jfCEgam Congruent left correct Normal 296.3757
302 99 LeftSmaller PercCBExp1 Prime_6N Target_4A DkJEHCm gbeFkiL Incongruent left error Normal 238.2922
302 100 LeftSmaller PercCBExp1 Prime_4N Target_6N AfEgIck AbkmclB Incongruent left error Early 26.96893
302 101 LeftSmaller PercCBExp1 Prime_6N Target_6N aJjkKBl hGIHkcK Congruent left correct Normal 1397.588
302 102 LeftSmaller PercCBExp1 Prime_9A Target_1A mcDdALh EcLKAid Incongruent right correct Normal 736.4394
302 103 LeftSmaller PercCBExp1 Prime_9N Target_4A BmdAfeF iIJMmLA Incongruent right correct Normal 320.3511
302 104 LeftSmaller PercCBExp1 Prime_1N Target_4N fdLhDBl ECGgdbA Congruent right error Early 94.51859
302 105 LeftSmaller PercCBExp1 Prime_9A Target_6A dcikbAf BmDGlLE Congruent left correct Normal 721.3008
302 106 LeftSmaller PercCBExp1 Prime_9N Target_4N DcFfIEk cbaGCJK Incongruent right correct Normal 718.4587
302 107 LeftSmaller PercCBExp1 Prime_4A Target_4N KFEGIHD HcGDgdh Congruent left correct Normal 345.8864
302 108 LeftSmaller PercCBExp1 Prime_1N Target_1N iLIeHGk gJBDCeL Congruent left correct Normal 371.9157
302 109 LeftSmaller PercCBExp1 Prime_6N Target_9A jDkLlAJ dMkJcBg Congruent left correct Normal 217.9609
302 110 LeftSmaller PercCBExp1 Prime_6A Target_6N lgCjMHh klGHFCa Congruent left correct Normal 100.3746
302 111 LeftSmaller PercCBExp1 Prime_4N Target_4A jiFfBAD ImHDjGl Congruent left correct Normal 106.0311
302 112 LeftSmaller PercCBExp1 Prime_1N Target_6N LgkCfFH jihAgle Incongruent right correct Normal 231.1732
302 113 LeftSmaller PercCBExp1 Prime_6A Target_4A LdgKhHc JCMgFcm Incongruent right correct Early 88.35997
302 114 LeftSmaller PercCBExp1 Prime_1N Target_4A cHIbDCM baiFdKc Congruent right error Normal 112.7633
302 115 LeftSmaller PercCBExp1 Prime_4N Target_9N KBfMbLc BeHmEjg Incongruent right correct Normal 131.6261
302 116 LeftSmaller PercCBExp1 Prime_1N Target_1A ahcCeAi AibJfGe Congruent right error Early 63.82532
302 117 LeftSmaller PercCBExp1 Prime_4A Target_9A MbegjhE leiaCIk Incongruent right correct Normal 121.6136
302 118 LeftSmaller PercCBExp1 Prime_6A Target_1A McEaFCL eCikBfL Incongruent right correct Normal 2118.864
302 119 LeftSmaller PercCBExp1 Prime_9N Target_1A GMeEFgH CBDmEJb Incongruent right correct Normal 348.8509
302 120 LeftSmaller PercCBExp1 Prime_6A Target_9A cCGfFBA HCEbfah Congruent right error Normal 106.144
302 121 LeftSmaller PercCBExp1 Prime_9N Target_6A leGCIDm aDKiGMm Congruent right error Normal 246.6246
302 122 LeftSmaller PercCBExp1 Prime_4N Target_4N ELekHbm gEFBiLb Congruent left correct Normal 336.4494
302 123 LeftSmaller PercCBExp1 Prime_1A Target_9N GmdgJBc BKciDFe Incongruent left error Normal 432.8298
302 124 LeftSmaller PercCBExp1 Prime_1N Target_9N edgFhkM DlkMEmF Incongruent left error Early 97.98086
302 125 LeftSmaller PercCBExp1 Prime_6A Target_4N HemhCBi jclaMJF Incongruent left error Early 16.45628
302 126 LeftSmaller PercCBExp1 Prime_1A Target_4N ghmlHGL LhEcKkd Congruent right error Normal 309.7146
302 127 LeftSmaller PercCBExp1 Prime_6N Target_4N acBbEGd KIHJfBe Incongruent right correct Early 96.02078
302 128 LeftSmaller PercCBExp1 Prime_4A Target_1A mjlaDgH aHcBLeI Congruent right error Normal 207.4392
302 129 LeftSmaller PercCBExp1 Prime_6N Target_1N CcJHiBE BmifJga Incongruent right correct Normal 175.7134
302 130 LeftSmaller PercCBExp1 Prime_1N Target_6A GjmDFAb DCMHAiJ Incongruent right correct Early 29.2252
302 131 LeftSmaller PercCBExp1 Prime_6A Target_9N BAbaFhG dImhaEF Congruent left correct Normal 323.5363
302 132 LeftSmaller PercCBExp1 Prime_1N Target_9A IDHcGfe FJBEehL Incongruent left error Normal 124.0793
302 133 LeftSmaller PercCBExp1 Prime_9N Target_9A DcMBAdl iJCMFlG Congruent left correct Early 94.99573
302 134 LeftSmaller PercCBExp1 Prime_6N Target_1A FkgcLCH gBmhAdG Incongruent left error Normal 3239.072
302 135 LeftSmaller PercCBExp1 Prime_9A Target_9N LAEFIec diCLcBe Congruent right error Normal 385.3649
302 136 LeftSmaller PercCBExp1 Prime_1A Target_9A ehAEBiM HkcgdCI Incongruent right correct Early 98.16862
302 137 LeftSmaller PercCBExp1 Prime_9A Target_4N IkmHFeh DfGjBLg Incongruent right correct Early 61.15353
302 138 LeftSmaller PercCBExp1 Prime_9A Target_1N daLDEim EiJAGdD Incongruent right correct Normal 262.9828
302 139 LeftSmaller PercCBExp1 Prime_6A Target_1N HfcklhC khaAbHJ Incongruent right correct Normal 703.1145
302 140 LeftSmaller PercCBExp1 Prime_4A Target_9N JgEBdcD FeCklhL Incongruent right correct Normal 202.4344
302 141 LeftSmaller PercCBExp1 Prime_9N Target_6N bEHcKhf jaMgDFI Congruent right error Normal 433.4537
302 142 LeftSmaller PercCBExp1 Prime_4N Target_1N kjJCEbA GJLgfFm Congruent right error Early 85.6191
302 143 LeftSmaller PercCBExp1 Prime_1A Target_6A fKhieEI JLIlGhj Incongruent right correct Early 28.26516
302 144 LeftSmaller PercCBExp1 Prime_6N Target_6A hjHMfcD kLlKEad Congruent right error Early 28.27201
302 145 LeftSmaller PercCBExp1 Prime_1A Target_1N dkIjGJi hleAaKj Congruent right error Early 28.47175
302 146 LeftSmaller PercCBExp1 Prime_4A Target_6A ibkCJmK lCGidIJ Incongruent right correct Early 28.44822
302 147 LeftSmaller PercCBExp1 Prime_4N Target_9A eKilLdG mdhMAJg Incongruent left error Normal 289.899
302 148 LeftSmaller PercCBExp1 Prime_9N Target_9N CIlMDbH AbDHMfk Congruent left correct Early 94.6003
302 149 LeftSmaller PercCBExp1 Prime_6N Target_9N blFmLKi cLAjkId Congruent left correct Normal 124.8765
302 150 LeftSmaller PercCBExp1 Prime_4N Target_6A bJcjBCG BJcadFj Incongruent left error Normal 239.7728
302 151 LeftSmaller PercCBExp1 Prime_9A Target_6N cfiBEDM dLjHCef Congruent right error Normal 774.5569
302 152 LeftSmaller PercCBExp1 Prime_9N Target_1N eGdhKDJ JLAGdKf Incongruent right correct Normal 449.9894
302 153 LeftSmaller PercCBExp1 Prime_1A Target_6N idakhjl IilbCAj Incongruent right correct Normal 484.0281
302 154 LeftSmaller PercCBExp1 Prime_6A Target_6A eAKbFlL AIkgemL Congruent left correct Normal 620.6949
302 155 LeftSmaller PercCBExp1 Prime_9A Target_9A gfjceLH bAGlBHd Congruent left correct Normal 302.0762
302 156 LeftSmaller PercCBExp1 Prime_4A Target_6N kKiBgjI CgEiAHm Incongruent left error Normal 202.3771
302 157 LeftSmaller PercCBExp1 Prime_4N Target_1A KGHlDLI ifIKeMc Congruent right error Normal 326.4729
302 158 LeftSmaller PercCBExp1 Prime_4A Target_4A leiIdaF mcBeHjL Congruent right error Normal 123.5715
302 159 LeftSmaller PercCBExp1 Prime_9A Target_4A FkEmcAB KfgciDB Incongruent right correct Normal 140.0345
302 160 LeftSmaller PercCBExp1 Prime_1A Target_4A gDbajed IJljame Congruent right error Normal 477.2916
303 1 LeftLarger PercCAPrac Prime_1N Target_4A FCGeMLK CLbJdmk Congruent left error Normal 1053.347
303 2 LeftLarger PercCAPrac Prime_6N Target_9N EhgKced jgfLEMK Congruent right correct Normal 1159.412
303 3 LeftLarger PercCAPrac Prime_9A Target_6N CfkGMLi lekaJLD Congruent right correct Normal 1610.721
303 4 LeftLarger PercCAPrac Prime_4N Target_1A IgheLFM bCHEkal Congruent left error Normal 865.6457
303 5 LeftLarger PercCAPrac Prime_4A Target_4N IAHbejJ FBeIhfm Congruent right correct Normal 1442.791
303 6 LeftLarger PercCAPrac Prime_1A Target_6A cMHJhkA hKLbmef Incongruent left correct Normal 1486.269
303 7 LeftLarger PercCAPrac Prime_1A Target_9N FAIedLG mkDblBJ Incongruent left correct Normal 964.5844
303 8 LeftLarger PercCAPrac Prime_6A Target_1N jMJKCdh geMFIAH Incongruent right error Normal 1214.579
303 9 LeftLarger PercCAPrac Prime_4N Target_6N djkmiAJ mIBjiLG Incongruent left correct Normal 1257.434
303 10 LeftLarger PercCAPrac Prime_1A Target_4A mJeMBFK cKFeBDC Congruent left error Normal 1724.382
303 11 LeftLarger PercCAPrac Prime_9A Target_1A AmBkgcE EiAlBdM Incongruent left correct Normal 1608.964
303 12 LeftLarger PercCAPrac Prime_1N Target_6A CfjGmdJ GkLeAhC Incongruent left correct Normal 1342.864
303 13 LeftLarger PercCAPrac Prime_1A Target_1A GeHIfAh AmgafjJ Congruent left error Normal 871.4348
303 14 LeftLarger PercCAPrac Prime_6N Target_9A eEahgkm hGEjMLF Congruent right correct Normal 814.958
303 15 LeftLarger PercCAPrac Prime_4A Target_9A faChELM iKmhlFe Incongruent left correct Normal 915.9723
303 16 LeftLarger PercCAPrac Prime_9A Target_6A JeCjEaG EjcdhMe Congruent right correct Normal 1231.454
303 17 LeftLarger PercCAExp1 Prime_4N Target_1A CgBGEJb ICKjdfF Congruent left error Normal 1092.176
303 18 LeftLarger PercCAExp1 Prime_9N Target_4N jmdbKFi hmJaFck Incongruent right error Normal 1365.221
303 19 LeftLarger PercCAExp1 Prime_6N Target_9A idCHfBj cHCJfID Congruent right correct Normal 1140.058
303 20 LeftLarger PercCAExp1 Prime_1N Target_9N KjEkFie FgfdBiJ Incongruent left correct Normal 746.8409
303 21 LeftLarger PercCAExp1 Prime_6N Target_4N hBHGJjb cJmiMld Incongruent left correct Normal 1491.262
303 22 LeftLarger PercCAExp1 Prime_9A Target_1N bjKAgBi abmLgKh Incongruent left correct Normal 834.5649
303 23 LeftLarger PercCAExp1 Prime_4A Target_4N IFHicLk KCjLHgc Congruent left error Normal 889.5373
303 24 LeftLarger PercCAExp1 Prime_9N Target_4A KakjMGi AmLkdjF Incongruent left correct Normal 1030.194
303 25 LeftLarger PercCAExp1 Prime_4A Target_6N cbalgAE lMhaIbL Incongruent left correct Normal 964.7185
303 26 LeftLarger PercCAExp1 Prime_6N Target_6N hfHcigL lAdGjCI Congruent right correct Normal 1488.141
303 27 LeftLarger PercCAExp1 Prime_6A Target_6N gGblDmM bhgAJeB Congruent left error Normal 1603.033
303 28 LeftLarger PercCAExp1 Prime_1A Target_9A LlIfDbM lfagIHJ Incongruent left correct Normal 1717.368
303 29 LeftLarger PercCAExp1 Prime_1A Target_4N aKfgGJi kgJieCj Congruent left error Normal 1420.317
303 30 LeftLarger PercCAExp1 Prime_4A Target_9A mEjdCKk LKEDCdF Incongruent left correct Normal 1167.866
303 31 LeftLarger PercCAExp1 Prime_6N Target_1N egmMICJ aDkFHLC Incongruent right error Normal 1021.316
303 32 LeftLarger PercCAExp1 Prime_6A Target_9A CDjegEd JcgkaLK Congruent right correct Normal 1453.045
303 33 LeftLarger PercCAExp1 Prime_4N Target_9A haHdmBl BkmMHAG Incongruent right error Normal 1004.787
303 34 LeftLarger PercCAExp1 Prime_4N Target_4A jIbhgFK kIFjJea Congruent left error Normal 1319.475
303 35 LeftLarger PercCAExp1 Prime_4N Target_6N LlmhAMJ aBDejmc Incongruent right error Normal 1153.852
303 36 LeftLarger PercCAExp1 Prime_1N Target_4A gICLdfE jbKlHFm Congruent left error Normal 1026.106
303 37 LeftLarger PercCAExp1 Prime_4N Target_9N CjabmGd kJcALKf Incongruent right error Normal 1243.156
303 38 LeftLarger PercCAExp1 Prime_1A Target_9N AbkHJBK CfmhieB Incongruent right error Normal 1896.518
303 39 LeftLarger PercCAExp1 Prime_6N Target_6A bHGIJEc CeFicbH Congruent right correct Normal 1143.109
303 40 LeftLarger PercCAExp1 Prime_1N Target_6N GdhalFI jDcGbhd Incongruent right error Normal 874.4436
303 41 LeftLarger PercCAExp1 Prime_9A Target_9N KClALbh IfidHCg Congruent right correct Normal 964.8538
303 42 LeftLarger PercCAExp1 Prime_6N Target_1A cLKdemk ELDimhj Incongruent right error Normal 2009.743
303 43 LeftLarger PercCAExp1 Prime_1N Target_1A iKFEjdl BLkeKfj Congruent left error Normal 942.8586
303 44 LeftLarger PercCAExp1 Prime_6A Target_4A fbhilIc kjgLEKb Incongruent left correct Normal 1124.818
303 45 LeftLarger PercCAExp1 Prime_1N Target_6A MibLahA adgFmKA Incongruent left correct Normal 880.5783
303 46 LeftLarger PercCAExp1 Prime_9N Target_9N bMkLmCK JAkglhC Congruent left error Normal 1139.33
303 47 LeftLarger PercCAExp1 Prime_6A Target_1A KjhBaFm HjkeIaC Incongruent left correct Normal 1024.041
303 48 LeftLarger PercCAExp1 Prime_1A Target_4A DAMJGFl HmgbldL Congruent left error Normal 876.5795
303 49 LeftLarger PercCAExp1 Prime_1N Target_4N mbkKBeL BDfgIMe Congruent left error Normal 1563.501
303 50 LeftLarger PercCAExp1 Prime_4N Target_1N Dbhfgia JgBFKGl Congruent right correct Normal 1651.312
303 51 LeftLarger PercCAExp1 Prime_9N Target_6N BHmGEJK BcgDaIC Congruent right correct Normal 1711.005
303 52 LeftLarger PercCAExp1 Prime_9A Target_4N gHFlGcJ kFaEADM Incongruent left correct Normal 1336.082
303 53 LeftLarger PercCAExp1 Prime_4A Target_1N LHIEfCG eGEFAgD Congruent right correct Normal 2228.475
303 54 LeftLarger PercCAExp1 Prime_1A Target_6A BJcjAKg fDgBbdK Incongruent left correct Normal 1263.132
303 55 LeftLarger PercCAExp1 Prime_4A Target_4A AclemKD HKieDfJ Congruent right correct Normal 1339.102
303 56 LeftLarger PercCAExp1 Prime_9A Target_6A CcALgIe hkdFHEg Congruent right correct Normal 2459.284
303 57 LeftLarger PercCAExp1 Prime_1A Target_6N iFlEHIm LbkfmKI Incongruent right error Normal 1187.388
303 58 LeftLarger PercCAExp1 Prime_4A Target_6A fjagHEk mIjiHFa Incongruent left correct Normal 921.1579
303 59 LeftLarger PercCAExp1 Prime_1N Target_1N BlLCEbF HgCFAMB Congruent left error Normal 2753.837
303 60 LeftLarger PercCAExp1 Prime_4A Target_9N CaeKEfj abkhIfL Incongruent right error Normal 1643.818
303 61 LeftLarger PercCAExp1 Prime_6A Target_1N FdMjCEH dBHhGAJ Incongruent right error Normal 1467.075
303 62 LeftLarger PercCAExp1 Prime_4N Target_4N feMAjFk FIcKbCa Congruent left error Normal 1169.604
303 63 LeftLarger PercCAExp1 Prime_1A Target_1A akbhCLl kAgFLMh Congruent left error Normal 999.1291
303 64 LeftLarger PercCAExp1 Prime_6A Target_6A dBkchHK FDhcjKb Congruent right correct Normal 928.5062
303 65 LeftLarger PercCAExp1 Prime_1A Target_1N LbeCkAm eBGcHMk Congruent right correct Normal 974.2226
303 66 LeftLarger PercCAExp1 Prime_9A Target_9A ebJmHAL bCIkFmd Congruent right correct Normal 2042.754
303 67 LeftLarger PercCAExp1 Prime_6A Target_4N lHDaLEM IMLBKgb Incongruent right error Normal 831.3342
303 68 LeftLarger PercCAExp1 Prime_9N Target_9A aAklgem kCJHGjf Congruent left error Normal 1431.618
303 69 LeftLarger PercCAExp1 Prime_6N Target_9N dfiJFLe DeEImfG Congruent left error Normal 1053.77
303 70 LeftLarger PercCAExp1 Prime_4N Target_6A IjKmCkf GbCAlhd Incongruent right error Normal 1314.055
303 71 LeftLarger PercCAExp1 Prime_6N Target_4A iKbLlak baAghCH Incongruent left correct Normal 975.8114
303 72 LeftLarger PercCAExp1 Prime_9A Target_4A adfAJGI JiglBdI Incongruent left correct Normal 957.4427
303 73 LeftLarger PercCAExp1 Prime_9N Target_1A jmKfILH FhHgEJi Incongruent left correct Normal 1282.526
303 74 LeftLarger PercCAExp1 Prime_9N Target_6A fEdmGIK dHKJbGA Congruent right correct Normal 898.5701
303 75 LeftLarger PercCAExp1 Prime_4A Target_1A GajkbiM eDhGkIF Congruent right correct Normal 941.7583
303 76 LeftLarger PercCAExp1 Prime_9N Target_1N aikBKDI dmjeClB Incongruent left correct Normal 1407.137
303 77 LeftLarger PercCAExp1 Prime_9A Target_1A HjbAceE fKeaEGk Incongruent left correct Normal 1153.099
303 78 LeftLarger PercCAExp1 Prime_1N Target_9A BchFLle AidGMmc Incongruent left correct Normal 1069.779
303 79 LeftLarger PercCAExp1 Prime_6A Target_9N aAHjEMI lMCEgJB Congruent right correct Normal 1985.823
303 80 LeftLarger PercCAExp1 Prime_9A Target_6N FKgiAfB LFBMbid Congruent right correct Normal 1182.89
303 81 LeftSmaller PercCBPrac Prime_4A Target_1A EmDKiJk adgmcCL Congruent left correct Normal 666.7187
303 82 LeftSmaller PercCBPrac Prime_6N Target_1N EHMFaAc cGbiMkD Incongruent right correct Normal 1036.767
303 83 LeftSmaller PercCBPrac Prime_4N Target_9N bFClMfg amEeMdk Incongruent right correct Normal 1275.934
303 84 LeftSmaller PercCBPrac Prime_6N Target_1A DkdAJlE HdelCib Incongruent right correct Normal 971.6316
303 85 LeftSmaller PercCBPrac Prime_1N Target_9A jCLDIFc hIFkdem Incongruent left error Normal 1533.549
303 86 LeftSmaller PercCBPrac Prime_9A Target_1N hgKBIkF jCchMJg Incongruent right correct Normal 1060.741
303 87 LeftSmaller PercCBPrac Prime_4A Target_6A dMmhkLB cHMELkK Incongruent right correct Normal 1227.235
303 88 LeftSmaller PercCBPrac Prime_1N Target_4A jbHGhcB DMcbkIK Congruent right error Normal 912.0894
303 89 LeftSmaller PercCBPrac Prime_6A Target_6N hMljdeI kiDhICe Congruent right error Normal 1209.85
303 90 LeftSmaller PercCBPrac Prime_6A Target_6A GkBfmja JEGhMeI Congruent left correct Normal 922.989
303 91 LeftSmaller PercCBPrac Prime_9A Target_9A FALGhKm aAMHljf Congruent left correct Normal 1002.865
303 92 LeftSmaller PercCBPrac Prime_6N Target_9A cMKEjki jHacKmk Congruent left correct Normal 1395.317
303 93 LeftSmaller PercCBPrac Prime_6A Target_4A ifBabcH lMFGALg Incongruent right correct Normal 979.7099
303 94 LeftSmaller PercCBPrac Prime_9A Target_4A LlJIKAF GDgEekC Incongruent right correct Normal 1271.14
303 95 LeftSmaller PercCBPrac Prime_1A Target_9N LkcKJBI gFDIHBm Incongruent left error Normal 2109.826
303 96 LeftSmaller PercCBPrac Prime_4A Target_4N IFmCkLa AfgIEjL Congruent left correct Normal 1205.894
303 97 LeftSmaller PercCBExp1 Prime_1N Target_4A HdjIgKe mGBLCei Congruent right error Normal 1224.37
303 98 LeftSmaller PercCBExp1 Prime_4A Target_4N lIbKDEj HdaBFjC Congruent left correct Normal 1027.144
303 99 LeftSmaller PercCBExp1 Prime_9N Target_6N KdFHbfD HFblgfI Congruent left correct Normal 2419.689
303 100 LeftSmaller PercCBExp1 Prime_4N Target_6N jAmgbIL Clkfhia Incongruent left error Normal 1298.324
303 101 LeftSmaller PercCBExp1 Prime_9A Target_6A MgAbjcf ehIAikE Congruent left correct Normal 646.488
303 102 LeftSmaller PercCBExp1 Prime_6A Target_9N GkeEcfg gJaCLGM Congruent left correct Normal 676.0041
303 103 LeftSmaller PercCBExp1 Prime_1A Target_6A MfjcLHF ebglBGA Incongruent left error Normal 816.467
303 104 LeftSmaller PercCBExp1 Prime_9A Target_1N mKbELcj HJAfEgh Incongruent right correct Normal 804.3345
303 105 LeftSmaller PercCBExp1 Prime_6A Target_4A IEJHijm FBhILbg Incongruent right correct Normal 932.0623
303 106 LeftSmaller PercCBExp1 Prime_9N Target_9A BgHbALl mjMDhCi Congruent left correct Normal 1060.824
303 107 LeftSmaller PercCBExp1 Prime_9A Target_4A emIfKlF AbJgldi Incongruent right correct Normal 1154.84
303 108 LeftSmaller PercCBExp1 Prime_1A Target_6N BIkFhCH CLmFldg Incongruent right correct Normal 1209.083
303 109 LeftSmaller PercCBExp1 Prime_1A Target_1N mlcaGHF ibMCAgE Congruent right error Normal 1604.755
303 110 LeftSmaller PercCBExp1 Prime_6N Target_1A mFeaHEA FmHBibM Incongruent right correct Normal 1034.701
303 111 LeftSmaller PercCBExp1 Prime_4A Target_1A kfJgIHm dMlDeiB Congruent right error Normal 1483.397
303 112 LeftSmaller PercCBExp1 Prime_1A Target_9N djFJfID kDLjKiH Incongruent left error Normal 2162.533
303 113 LeftSmaller PercCBExp1 Prime_4A Target_9N CEGdlKi eHFibJd Incongruent right correct Normal 1143.122
303 114 LeftSmaller PercCBExp1 Prime_6N Target_4A gcBMClD GelbaFD Incongruent right correct Normal 1658.417
303 115 LeftSmaller PercCBExp1 Prime_9N Target_4A blLCFDh eaKjLim Incongruent right correct Normal 1248.472
303 116 LeftSmaller PercCBExp1 Prime_4A Target_4A MLCDIKe ImhiglK Congruent right error Normal 1259.784
303 117 LeftSmaller PercCBExp1 Prime_6N Target_1N egCcBlE bfMAHJc Incongruent right correct Normal 1298.587
303 118 LeftSmaller PercCBExp1 Prime_4A Target_6A jfABHKJ HKEjILa Incongruent right correct Normal 1022.611
303 119 LeftSmaller PercCBExp1 Prime_1N Target_9A FmACfki fDlHeCL Incongruent left error Normal 1004.893
303 120 LeftSmaller PercCBExp1 Prime_9A Target_6N GIldajM JdfKieM Congruent left correct Normal 951.9598
303 121 LeftSmaller PercCBExp1 Prime_1N Target_6A lfMKbIG jaKmeBf Incongruent left error Normal 1587.114
303 122 LeftSmaller PercCBExp1 Prime_1N Target_4N mdDJAcE DIdhKMH Congruent right error Normal 1592.46
303 123 LeftSmaller PercCBExp1 Prime_6N Target_9N LCjkgIA mEcbDJe Congruent right error Normal 2216.877
303 124 LeftSmaller PercCBExp1 Prime_1A Target_9A fdGHmeh KjMlJhg Incongruent right correct Normal 1644.497
303 125 LeftSmaller PercCBExp1 Prime_1N Target_1N hmKIDJj KAjFECI Congruent left correct Normal 858.81
303 126 LeftSmaller PercCBExp1 Prime_4A Target_6N jfgLIlm IbJmcjL Incongruent right correct Normal 1318.898
303 127 LeftSmaller PercCBExp1 Prime_4N Target_1A idLgmkj EIGlajM Congruent right error Normal 933.4095
303 128 LeftSmaller PercCBExp1 Prime_9A Target_4N fEiBagK HCgmBJl Incongruent right correct Normal 1270.202
303 129 LeftSmaller PercCBExp1 Prime_9N Target_1N MjBfAlG kmgCFjf Incongruent right correct Normal 948.3887
303 130 LeftSmaller PercCBExp1 Prime_6N Target_4N jCiAdIk cldKmLG Incongruent right correct Normal 1202.414
303 131 LeftSmaller PercCBExp1 Prime_4N Target_9A IelEFGH cKahIdb Incongruent right correct Normal 1253.534
303 132 LeftSmaller PercCBExp1 Prime_4N Target_4A mCFiAjd mjaeGBl Congruent left correct Normal 2074.848
303 133 LeftSmaller PercCBExp1 Prime_6A Target_6N JBKIAkb JaBkILb Congruent left correct Normal 1564.738
303 134 LeftSmaller PercCBExp1 Prime_9N Target_6A AacDlhL HEMaGdK Congruent left correct Normal 1454.046
303 135 LeftSmaller PercCBExp1 Prime_4N Target_6A BimEeAJ bcaBKmf Incongruent left error Normal 916.4501
303 136 LeftSmaller PercCBExp1 Prime_9N Target_9N dMcIDlj MAIlmGg Congruent left correct Normal 1180.643
303 137 LeftSmaller PercCBExp1 Prime_6A Target_1A GhkbCDa fgEbalL Incongruent right correct Normal 854.9181
303 138 LeftSmaller PercCBExp1 Prime_6A Target_1N LElCBkJ HlFDfkK Incongruent right correct Normal 1019.586
303 139 LeftSmaller PercCBExp1 Prime_4A Target_1N LgCBJmf DbaAjLh Congruent left correct Normal 1040.51
303 140 LeftSmaller PercCBExp1 Prime_6N Target_9A laeDEcG IbLAHDj Congruent left correct Normal 1006.12
303 141 LeftSmaller PercCBExp1 Prime_9A Target_1A khdgIje kFLJahb Incongruent right correct Normal 1039.732
303 142 LeftSmaller PercCBExp1 Prime_9N Target_1A lKmeIih ljIGMJB Incongruent right correct Normal 982.8875
303 143 LeftSmaller PercCBExp1 Prime_1A Target_4N FdimGKI MFHideg Congruent left correct Normal 1001.553
303 144 LeftSmaller PercCBExp1 Prime_9N Target_4N HJmkhDA lFebAmH Incongruent right correct Normal 1069.792
303 145 LeftSmaller PercCBExp1 Prime_1A Target_4A GLDHmeb cGDAFJe Congruent right error Normal 1372.233
303 146 LeftSmaller PercCBExp1 Prime_1N Target_6N CidaAFc CjfmdFh Incongruent right correct Normal 944.8721
303 147 LeftSmaller PercCBExp1 Prime_9A Target_9A DkgdmEj hdjkcMi Congruent left correct Normal 1227.126
303 148 LeftSmaller PercCBExp1 Prime_6A Target_9A BELhidm CDKGFba Congruent left correct Normal 744.5429
303 149 LeftSmaller PercCBExp1 Prime_1A Target_1A BFCikGm JbBjLAf Congruent right error Normal 987.1769
303 150 LeftSmaller PercCBExp1 Prime_6N Target_6A LKieIlG HAkjeic Congruent right error Normal 2190.241
303 151 LeftSmaller PercCBExp1 Prime_1N Target_9N jeBElFK IhKLMjE Incongruent left error Normal 961.0227
303 152 LeftSmaller PercCBExp1 Prime_6N Target_6N dChBDMa blaEhHJ Congruent left correct Normal 1238.982
303 153 LeftSmaller PercCBExp1 Prime_4N Target_1N EKcCIJi LkcemaA Congruent right error Normal 1037.034
303 154 LeftSmaller PercCBExp1 Prime_6A Target_4N hMbejAf LlgEeBi Incongruent right correct Normal 1509.688
303 155 LeftSmaller PercCBExp1 Prime_4N Target_4N JDhAjLf KgHMCmf Congruent right error Normal 1129.556
303 156 LeftSmaller PercCBExp1 Prime_1N Target_1A McjdbBl FKMfLdA Congruent right error Normal 934.5823
303 157 LeftSmaller PercCBExp1 Prime_4A Target_9A MfCekFi EIjDcka Incongruent left error Normal 948.1329
303 158 LeftSmaller PercCBExp1 Prime_6A Target_6A ifcJgbl iBJDglE Congruent left correct Normal 1012.399
303 159 LeftSmaller PercCBExp1 Prime_4N Target_9N KGgbicA hMmFecf Incongruent left error Normal 1465.965
303 160 LeftSmaller PercCBExp1 Prime_9A Target_9N DABmJgj DJCIfKc Congruent left correct Normal 1080.993
304 1 LeftLarger PercCAPrac Prime_4N Target_4A aBjLKGI cdBMegC Congruent right correct Normal 1223.817
304 2 LeftLarger PercCAPrac Prime_4A Target_6N LFIDdMA HkcjLmh Incongruent right error Normal 1205.694
304 3 LeftLarger PercCAPrac Prime_4N Target_6N dEJFMbi kMjLfdb Incongruent right error Normal 1784.174
304 4 LeftLarger PercCAPrac Prime_1N Target_1A gJmlHCM bFJlcam Congruent left error Normal 1009.737
304 5 LeftLarger PercCAPrac Prime_1A Target_4A gJLIiCh CbGeLEi Congruent right correct Normal 611.4177
304 6 LeftLarger PercCAPrac Prime_4N Target_1N lGkgAcK beIhEid Congruent right correct Normal 1438.199
304 7 LeftLarger PercCAPrac Prime_1N Target_9N lgFjJEB DhajgkA Incongruent left correct Normal 1495.244
304 8 LeftLarger PercCAPrac Prime_6N Target_4N HhEDLCI kGcafAL Incongruent right error Normal 581.4611
304 9 LeftLarger PercCAPrac Prime_9A Target_9N haceEKm clDKIGe Congruent left error Normal 989.6918
304 10 LeftLarger PercCAPrac Prime_9N Target_9A icBlKDb fhgkEDj Congruent right correct Normal 1166.725
304 11 LeftLarger PercCAPrac Prime_6A Target_6A eGKcICj cBMGmhC Congruent right correct Normal 1301.832
304 12 LeftLarger PercCAPrac Prime_4N Target_1A mbKikMF jgkBCHJ Congruent right correct Normal 1198.292
304 13 LeftLarger PercCAPrac Prime_1N Target_9A dKLhgHe BEMgdFk Incongruent right error Normal 1030.33
304 14 LeftLarger PercCAPrac Prime_6N Target_6A FJgEDcm cEmbLha Congruent left error Normal 994.6329
304 15 LeftLarger PercCAPrac Prime_6A Target_9N lHdiKBm eCIFEHf Congruent right correct Late 5239.986
304 16 LeftLarger PercCAPrac Prime_9N Target_1N cgGjbmD FhiAmjd Incongruent right error Late 6142.727
304 17 LeftLarger PercCAExp1 Prime_4N Target_1N jGCeMHb lbFgHMa Congruent right correct Normal 945.8402
304 18 LeftLarger PercCAExp1 Prime_4A Target_9A MILGkel KGdIDjf Incongruent left correct Normal 734.9232
304 19 LeftLarger PercCAExp1 Prime_9N Target_6N kEAgbLD DljAmCk Congruent right correct Normal 642.1834
304 20 LeftLarger PercCAExp1 Prime_1A Target_9N cjhLGgH bjlmcfJ Incongruent right error Normal 1560.893
304 21 LeftLarger PercCAExp1 Prime_4N Target_6A EgAJmMC hJMamGL Incongruent right error Normal 884.8435
304 22 LeftLarger PercCAExp1 Prime_4N Target_1A eLJjicM MJaFHDA Congruent left error Normal 931.2392
304 23 LeftLarger PercCAExp1 Prime_6N Target_4A lBfeLcE CBbAgLj Incongruent right error Normal 545.4411
304 24 LeftLarger PercCAExp1 Prime_1N Target_9N emIdGKh CdjfmAb Incongruent right error Normal 867.8526
304 25 LeftLarger PercCAExp1 Prime_4N Target_9A cGiFDJl CcBLiJl Incongruent right error Normal 1463.785
304 26 LeftLarger PercCAExp1 Prime_1N Target_4A iBleHbA bEABdjk Congruent left error Normal 1677.445
304 27 LeftLarger PercCAExp1 Prime_4A Target_9N CIGKeaH dmJfHbe Incongruent right error Normal 991.9941
304 28 LeftLarger PercCAExp1 Prime_9N Target_4N McjIFCG CdFaMjL Incongruent left correct Normal 999.4958
304 29 LeftLarger PercCAExp1 Prime_1A Target_4A keEKAFc HkhCJfM Congruent right correct Normal 932.9876
304 30 LeftLarger PercCAExp1 Prime_1A Target_6N hdIjAcm FDbgIfl Incongruent right error Normal 1500.019
304 31 LeftLarger PercCAExp1 Prime_9A Target_9N FDkeidK eiCdFmG Congruent right correct Normal 953.0806
304 32 LeftLarger PercCAExp1 Prime_9N Target_9N mdHcfhC GFKdHcL Congruent left error Normal 445.2989
304 33 LeftLarger PercCAExp1 Prime_6N Target_9N IBkcFGJ mkKgjdC Congruent right correct Normal 433.1544
304 34 LeftLarger PercCAExp1 Prime_1N Target_4N jiCIkhl daCMflH Congruent right correct Normal 413.5032
304 35 LeftLarger PercCAExp1 Prime_9A Target_1N lAbdkgc AibBfEj Incongruent left correct Normal 562.6557
304 36 LeftLarger PercCAExp1 Prime_4N Target_4A dbcjiaF aGLBhAC Congruent right correct Normal 500.817
304 37 LeftLarger PercCAExp1 Prime_6A Target_6N CebjflE LbcfdgE Congruent right correct Normal 763.6854
304 38 LeftLarger PercCAExp1 Prime_9N Target_6A cfGbEAC gbGhaCD Congruent right correct Normal 1259.525
304 39 LeftLarger PercCAExp1 Prime_4N Target_9N LGcjEJb jFbMflg Incongruent left correct Normal 688.454
304 40 LeftLarger PercCAExp1 Prime_1A Target_1A aBKikHI fbDIHBK Congruent right correct Normal 751.8711
304 41 LeftLarger PercCAExp1 Prime_9A Target_6A jGBaCmh CAKleGD Congruent right correct Normal 577.1575
304 42 LeftLarger PercCAExp1 Prime_1A Target_4N hKECAHF ALJEhIk Congruent left error Normal 857.4356
304 43 LeftLarger PercCAExp1 Prime_6N Target_6A CKbjEGF GHhJckg Congruent right correct Normal 547.1471
304 44 LeftLarger PercCAExp1 Prime_4N Target_6N AdgKEcG kleFKcd Incongruent right error Normal 429.7822
304 45 LeftLarger PercCAExp1 Prime_6A Target_4N chbkBJC KMIjkEC Incongruent left correct Normal 1568.075
304 46 LeftLarger PercCAExp1 Prime_1A Target_6A IhkLaFe FHlDKJd Incongruent left correct Normal 1726.49
304 47 LeftLarger PercCAExp1 Prime_9A Target_6N egFdfkE cmIiJGf Congruent right correct Normal 826.893
304 48 LeftLarger PercCAExp1 Prime_1A Target_1N KIbgjCG JgGhadH Congruent left error Normal 624.5227
304 49 LeftLarger PercCAExp1 Prime_9N Target_1N IFdHeiL IgFEcie Incongruent left correct Normal 937.4368
304 50 LeftLarger PercCAExp1 Prime_6A Target_1A cIeFkbJ icBJmeL Incongruent right error Normal 633.9926
304 51 LeftLarger PercCAExp1 Prime_9N Target_9A jEcGfkl ebMfDiJ Congruent right correct Normal 348.6289
304 52 LeftLarger PercCAExp1 Prime_9A Target_4N BAdCJkg DBGhLgf Incongruent right error Normal 386.774
304 53 LeftLarger PercCAExp1 Prime_4A Target_4N CmKFhLD gkEbGKH Congruent left error Normal 630.4617
304 54 LeftLarger PercCAExp1 Prime_4A Target_6N HMDJFbL MCcDeia Incongruent right error Normal 404.2568
304 55 LeftLarger PercCAExp1 Prime_6A Target_1N cbGIAEg EcIfHbk Incongruent right error Normal 444.1059
304 56 LeftLarger PercCAExp1 Prime_9N Target_1A JMCGeLd mbCejgK Incongruent right error Normal 563.7206
304 57 LeftLarger PercCAExp1 Prime_6N Target_1A lgdkCLh CEiHjAg Incongruent left correct Normal 381.2486
304 58 LeftLarger PercCAExp1 Prime_4A Target_1A AidaLbk EecDJAi Congruent left error Normal 474.2957
304 59 LeftLarger PercCAExp1 Prime_1N Target_1A lFbaIDH IBMGAdD Congruent left error Normal 1260.599
304 60 LeftLarger PercCAExp1 Prime_6N Target_1N fMDACjE LcbCfMa Incongruent right error Normal 698.7499
304 61 LeftLarger PercCAExp1 Prime_6N Target_9A IiaLBGj gjkMFHh Congruent right correct Normal 536.8113
304 62 LeftLarger PercCAExp1 Prime_4A Target_4A fEMejdL fACFBcb Congruent left error Normal 428.9881
304 63 LeftLarger PercCAExp1 Prime_6A Target_6A lCfLdIG mjJIiHc Congruent right correct Normal 545.2615
304 64 LeftLarger PercCAExp1 Prime_9A Target_4A lmkHGJf GMhCAbm Incongruent right error Normal 479.5901
304 65 LeftLarger PercCAExp1 Prime_6A Target_9A jgGfJMk fLjkDIm Congruent right correct Normal 706.3541
304 66 LeftLarger PercCAExp1 Prime_1N Target_9A LfCJkBi HlfLIGD Incongruent right error Normal 441.2558
304 67 LeftLarger PercCAExp1 Prime_1N Target_6A FfIKLMg ELmlHed Incongruent left correct Normal 1171.917
304 68 LeftLarger PercCAExp1 Prime_6A Target_9N GHgdcla LMKIjGC Congruent right correct Normal 673.8687
304 69 LeftLarger PercCAExp1 Prime_6N Target_6N ihDJBMe BLAGlIg Congruent right correct Normal 486.2757
304 70 LeftLarger PercCAExp1 Prime_4N Target_4N mJehGlB lbmAEDf Congruent right correct Normal 569.8189
304 71 LeftLarger PercCAExp1 Prime_9A Target_9A iIKHJbA CFHMLAm Congruent right correct Normal 374.1348
304 72 LeftLarger PercCAExp1 Prime_1N Target_6N MJbEBGk CJGbciD Incongruent left correct Normal 416.7715
304 73 LeftLarger PercCAExp1 Prime_9N Target_4A DFiMjmH ChiBlMJ Incongruent left correct Normal 536.5112
304 74 LeftLarger PercCAExp1 Prime_6N Target_4N dLjcMJB hEcaBIl Incongruent left correct Normal 678.2281
304 75 LeftLarger PercCAExp1 Prime_1N Target_1N eMEkbBJ JFcCjGH Congruent right correct Normal 354.7576
304 76 LeftLarger PercCAExp1 Prime_1A Target_9A AHkMBhE McCKaLi Incongruent left correct Normal 1112.576
304 77 LeftLarger PercCAExp1 Prime_4A Target_1N ekifdLB BhAGgID Congruent right correct Normal 714.8772
304 78 LeftLarger PercCAExp1 Prime_9A Target_1A dGHEcMb gaiBCGe Incongruent right error Normal 496.1129
304 79 LeftLarger PercCAExp1 Prime_4A Target_6A IEHJKCL BdgkKIE Incongruent left correct Normal 1003.186
304 80 LeftLarger PercCAExp1 Prime_6A Target_4A heJmfMF fEHFiLj Incongruent right error Normal 519.5635
304 81 LeftSmaller PercCBPrac Prime_4A Target_1A dJhbfEg jMFbdlA Congruent left correct Normal 754.6656
304 82 LeftSmaller PercCBPrac Prime_9A Target_4A gMLABmH AdcClih Incongruent left error Normal 322.8503
304 83 LeftSmaller PercCBPrac Prime_6N Target_1A AcBgehf KmcLAaI Incongruent left error Normal 437.8711
304 84 LeftSmaller PercCBPrac Prime_9N Target_1A CEMKlef efhDHMd Incongruent left error Normal 532.9859
304 85 LeftSmaller PercCBPrac Prime_1A Target_9N IhkadBc JDeEIjA Incongruent right correct Normal 343.7107
304 86 LeftSmaller PercCBPrac Prime_4A Target_9N CmBJAdM jdflHMc Incongruent right correct Normal 446.7378
304 87 LeftSmaller PercCBPrac Prime_1N Target_6N jBGihmK fHDbjhK Incongruent left error Normal 372.2787
304 88 LeftSmaller PercCBPrac Prime_4A Target_9A gEjGhlD HIBdeCb Incongruent left error Normal 861.8109
304 89 LeftSmaller PercCBPrac Prime_6A Target_4N ckCgeAL IAKblic Incongruent right correct Normal 1005.474
304 90 LeftSmaller PercCBPrac Prime_9A Target_6N kGEdCbj FIbacgJ Congruent left correct Normal 377.5301
304 91 LeftSmaller PercCBPrac Prime_9N Target_6N jDBGkiJ DjMACcK Congruent left correct Normal 329.5971
304 92 LeftSmaller PercCBPrac Prime_6N Target_6N GaDlIcd chBIbDe Congruent right error Normal 373.6074
304 93 LeftSmaller PercCBPrac Prime_4N Target_9N IkjDEFm IfAckiB Incongruent left error Normal 373.8955
304 94 LeftSmaller PercCBPrac Prime_6A Target_1N cLAalig JlefAjL Incongruent right correct Normal 478.2988
304 95 LeftSmaller PercCBPrac Prime_6A Target_1A CiAIabG fECJdKD Incongruent left error Normal 291.1032
304 96 LeftSmaller PercCBPrac Prime_9A Target_6A KkhmFGI ecdLMJK Congruent right error Normal 295.5343
304 97 LeftSmaller PercCBExp1 Prime_4N Target_1N IHChgei DEicIeg Congruent right error Normal 295.0169
304 98 LeftSmaller PercCBExp1 Prime_9A Target_4N eBabHLJ fAHchGC Incongruent right correct Normal 454.1815
304 99 LeftSmaller PercCBExp1 Prime_1N Target_9A AFmHfaM flBMLiK Incongruent left error Normal 379.6403
304 100 LeftSmaller PercCBExp1 Prime_4A Target_9A dLAMeJb dCEamDe Incongruent left error Normal 605.3878
304 101 LeftSmaller PercCBExp1 Prime_6A Target_4N diHlbEa ciaFhfI Incongruent right correct Normal 497.963
304 102 LeftSmaller PercCBExp1 Prime_6A Target_1N JCBdGfb HJheGAI Incongruent left error Normal 992.9633
304 103 LeftSmaller PercCBExp1 Prime_6A Target_9A DmbfEJh cGDMCEJ Congruent left correct Normal 687.1197
304 104 LeftSmaller PercCBExp1 Prime_6A Target_9N jDkMGbl dkhgjaI Congruent right error Normal 587.0543
304 105 LeftSmaller PercCBExp1 Prime_1A Target_6A jIbEFMf HifcDha Incongruent left error Normal 823.0856
304 106 LeftSmaller PercCBExp1 Prime_9A Target_6N LkHKihI FMjhflA Congruent left correct Normal 1008.126
304 107 LeftSmaller PercCBExp1 Prime_9N Target_1A AFJDdBG mFchHLf Incongruent right correct Normal 692.2628
304 108 LeftSmaller PercCBExp1 Prime_6N Target_6N KMhEeki cAhiHEK Congruent right error Normal 448.3236
304 109 LeftSmaller PercCBExp1 Prime_9A Target_6A gfbhAjH GgDImBA Congruent right error Normal 390.0183
304 110 LeftSmaller PercCBExp1 Prime_4N Target_4A kHABIdl cfkJlMg Congruent left correct Normal 635.1994
304 111 LeftSmaller PercCBExp1 Prime_1A Target_6N adgIiBm lDbIBmF Incongruent left error Normal 928.2323
304 112 LeftSmaller PercCBExp1 Prime_9N Target_6N Degcjaf jHBFead Congruent right error Normal 486.5491
304 113 LeftSmaller PercCBExp1 Prime_9A Target_1N fFKgdkL ikEbegd Incongruent left error Normal 667.2763
304 114 LeftSmaller PercCBExp1 Prime_9N Target_9A FIdbMeK gDljChi Congruent right error Normal 826.3761
304 115 LeftSmaller PercCBExp1 Prime_1A Target_1A jkIHGhA diIchED Congruent left correct Normal 670.285
304 116 LeftSmaller PercCBExp1 Prime_6N Target_4A JkFDeLd DBfCmAe Incongruent right correct Normal 755.3472
304 117 LeftSmaller PercCBExp1 Prime_6N Target_6A bFAjfGd bIfMlGJ Congruent left correct Normal 577.7065
304 118 LeftSmaller PercCBExp1 Prime_4N Target_1A dEFBklb hcmeMkC Congruent left correct Normal 956.0541
304 119 LeftSmaller PercCBExp1 Prime_4A Target_1A EflDIHF aDfECdl Congruent left correct Normal 669.6908
304 120 LeftSmaller PercCBExp1 Prime_9N Target_9N mHDEaKA gHEGJke Congruent right error Normal 1960.121
304 121 LeftSmaller PercCBExp1 Prime_1N Target_9N jJGeEba HiDgeLI Incongruent right correct Normal 736.8946
304 122 LeftSmaller PercCBExp1 Prime_4A Target_6N JCfeFML bcLlaHI Incongruent left error Normal 1018.972
304 123 LeftSmaller PercCBExp1 Prime_9A Target_4A mEGIaCb hfCFAMl Incongruent left error Normal 391.546
304 124 LeftSmaller PercCBExp1 Prime_1N Target_4A HjdIGMJ eLAjkmB Congruent left correct Normal 338.8538
304 125 LeftSmaller PercCBExp1 Prime_6A Target_1A kegFDhG bcIhDGH Incongruent left error Normal 392.4703
304 126 LeftSmaller PercCBExp1 Prime_1A Target_1N DJdAbHh AikFMJl Congruent left correct Normal 412.42
304 127 LeftSmaller PercCBExp1 Prime_1N Target_6A dIailEK hfKjILl Incongruent left error Normal 253.2413
304 128 LeftSmaller PercCBExp1 Prime_6N Target_1A ljcMChF JCbdhji Incongruent right correct Normal 416.4911
304 129 LeftSmaller PercCBExp1 Prime_1N Target_1A hDHfiMd iaJBGDF Congruent left correct Normal 278.4181
304 130 LeftSmaller PercCBExp1 Prime_4A Target_9N jkhBIFa dImLFaC Incongruent left error Normal 284.2803
304 131 LeftSmaller PercCBExp1 Prime_4A Target_1N jgIGKCk jAfCbMl Congruent left correct Normal 439.2474
304 132 LeftSmaller PercCBExp1 Prime_9N Target_4A ChdmkAl FjlHkgG Incongruent right correct Early 89.4275
304 133 LeftSmaller PercCBExp1 Prime_1N Target_1N geAGCkd jbkigaA Congruent right error Normal 205.6885
304 134 LeftSmaller PercCBExp1 Prime_6N Target_9A AkfiHBa bKgBlDm Congruent left correct Normal 224.9169
304 135 LeftSmaller PercCBExp1 Prime_4N Target_9N mMbBFKg AKEkida Incongruent left error Normal 140.6769
304 136 LeftSmaller PercCBExp1 Prime_4A Target_6A jDCKLFA mHCaDkG Incongruent left error Normal 586.2328
304 137 LeftSmaller PercCBExp1 Prime_9N Target_1N aBMDFJj mgejcdG Incongruent left error Normal 712.5467
304 138 LeftSmaller PercCBExp1 Prime_4A Target_4N lgibMBE MfGlcaL Congruent right error Normal 222.6146
304 139 LeftSmaller PercCBExp1 Prime_6A Target_6A MimBfbD bJfDmlg Congruent left correct Normal 139.5804
304 140 LeftSmaller PercCBExp1 Prime_9A Target_9A bjChFfa DbeGHMA Congruent left correct Normal 706.4694
304 141 LeftSmaller PercCBExp1 Prime_4N Target_6A ebIJGcd CiAIcaK Incongruent left error Normal 576.6046
304 142 LeftSmaller PercCBExp1 Prime_6A Target_4A AEgDBCh FimaGLE Incongruent left error Normal 801.3967
304 143 LeftSmaller PercCBExp1 Prime_1A Target_4A acLKBlA DGmBgdJ Congruent left correct Normal 572.9548
304 144 LeftSmaller PercCBExp1 Prime_1N Target_6N mjCdIaF cJabmBk Incongruent right correct Normal 432.3744
304 145 LeftSmaller PercCBExp1 Prime_1A Target_4N FEIMDBj KLheMCd Congruent right error Normal 484.5302
304 146 LeftSmaller PercCBExp1 Prime_4N Target_4N MejFLlK FlefJcI Congruent left correct Normal 127.3262
304 147 LeftSmaller PercCBExp1 Prime_9A Target_1A BihlcGm EbgBJla Incongruent left error Normal 1135.178
304 148 LeftSmaller PercCBExp1 Prime_9N Target_6A ielHhLD gMdClcG Congruent left correct Normal 493.5024
304 149 LeftSmaller PercCBExp1 Prime_6N Target_4N BkEejGA CADIiEG Incongruent right correct Normal 529.8346
304 150 LeftSmaller PercCBExp1 Prime_1N Target_4N idCMGeI mjgBhEl Congruent left correct Normal 334.3676
304 151 LeftSmaller PercCBExp1 Prime_6N Target_9N hjdMKaD EkGbeFd Congruent right error Normal 1674.807
304 152 LeftSmaller PercCBExp1 Prime_9N Target_4N iDdMLgb EBLhMDI Incongruent left error Normal 423.4695
304 153 LeftSmaller PercCBExp1 Prime_1A Target_9N ldhJCEM DlAFLmd Incongruent left error Normal 1220.626
304 154 LeftSmaller PercCBExp1 Prime_4A Target_4A bJhaHjf cMajdGD Congruent right error Normal 1004.059
304 155 LeftSmaller PercCBExp1 Prime_9A Target_9N jdbkCJA CLJfjhF Congruent left correct Normal 376.8158
304 156 LeftSmaller PercCBExp1 Prime_1A Target_9A amAljFk AHiIjel Incongruent left error Normal 381.2736
304 157 LeftSmaller PercCBExp1 Prime_6A Target_6N DgGEhkC bdDLhfi Congruent left correct Normal 277.5718
304 158 LeftSmaller PercCBExp1 Prime_4N Target_6N EFdcGem jfMcEJL Incongruent left error Normal 298.1131
304 159 LeftSmaller PercCBExp1 Prime_6N Target_1N dkFjgKM bMIADdk Incongruent left error Normal 394.0007
304 160 LeftSmaller PercCBExp1 Prime_4N Target_9A cimBJkh AjLmFdE Incongruent left error Normal 430.9447
305 1 LeftLarger PercCAPrac Prime_9N Target_6N IaBEhjJ kHAJFgG Congruent right correct Normal 614.8733
305 2 LeftLarger PercCAPrac Prime_9N Target_9N DemClBK mHfCcKI Congruent left error Normal 922.7772
305 3 LeftLarger PercCAPrac Prime_1N Target_9N HkGjeDd hLbmAFM Incongruent left correct Normal 685.8697
305 4 LeftLarger PercCAPrac Prime_9N Target_9A jamcHGC FJkhfgb Congruent right correct Normal 632.3796
305 5 LeftLarger PercCAPrac Prime_4N Target_4N FagBhHI DjhBekH Congruent left error Normal 751.5282
305 6 LeftLarger PercCAPrac Prime_6A Target_6N GMgFkmf IlHfiLG Congruent right correct Normal 818.3645
305 7 LeftLarger PercCAPrac Prime_4N Target_1A ciDfFlC aCibeKL Congruent left error Normal 567.0709
305 8 LeftLarger PercCAPrac Prime_1A Target_4A dAIcJLm gDLEACG Congruent right correct Normal 760.074
305 9 LeftLarger PercCAPrac Prime_6N Target_9A aFiLcMB eKbGali Congruent right correct Normal 612.4767
305 10 LeftLarger PercCAPrac Prime_6A Target_1N jkHFCBM jDmegHI Incongruent left correct Normal 1217.231
305 11 LeftLarger PercCAPrac Prime_4A Target_1N LdlhMDK fbGHICh Congruent left error Normal 1438.92
305 12 LeftLarger PercCAPrac Prime_9A Target_1A CHjdlJa jcDafdK Incongruent right error Normal 1506.647
305 13 LeftLarger PercCAPrac Prime_9A Target_6N cakIlhf kBbhKEg Congruent right correct Normal 488.301
305 14 LeftLarger PercCAPrac Prime_6N Target_6A BIjdHme eHkLCja Congruent right correct Normal 375.6062
305 15 LeftLarger PercCAPrac Prime_9A Target_9N BiFjAGJ jFbDliH Congruent right correct Normal 1151.505
305 16 LeftLarger PercCAPrac Prime_9N Target_1N dgAGHhF MegbaLj Incongruent left correct Normal 364.8283
305 17 LeftLarger PercCAExp1 Prime_6N Target_9A LIejhAF fCaLgmK Congruent right correct Normal 767.428
305 18 LeftLarger PercCAExp1 Prime_4N Target_1A DfCAaFj kcaBHKC Congruent right correct Normal 701.3582
305 19 LeftLarger PercCAExp1 Prime_1N Target_9A jkKAead hIcEHLB Incongruent left correct Normal 519.7111
305 20 LeftLarger PercCAExp1 Prime_6A Target_6N jEdBgeG kmfKADj Congruent right correct Normal 784.5249
305 21 LeftLarger PercCAExp1 Prime_4N Target_4N FlGejkm BhbLgGK Congruent left error Normal 1049.33
305 22 LeftLarger PercCAExp1 Prime_6N Target_1N HbcImGL lKMAFHI Incongruent right error Normal 885.2707
305 23 LeftLarger PercCAExp1 Prime_4A Target_4A gfIklaB gFIELMm Congruent left error Normal 1093.313
305 24 LeftLarger PercCAExp1 Prime_4A Target_1A DlICihm FlJMDbm Congruent left error Normal 691.0145
305 25 LeftLarger PercCAExp1 Prime_4N Target_9N jBJKIAb aheKFAE Incongruent left correct Normal 1448.904
305 26 LeftLarger PercCAExp1 Prime_9A Target_6A eikJEDF acGMbiI Congruent left error Normal 894.539
305 27 LeftLarger PercCAExp1 Prime_6N Target_9N MecIDFK DjkAfiJ Congruent left error Normal 1208.153
305 28 LeftLarger PercCAExp1 Prime_4A Target_9A DFLaCJl DaAmekj Incongruent left correct Normal 1177.573
305 29 LeftLarger PercCAExp1 Prime_1A Target_9A HamiJMl aAgIljf Incongruent left correct Normal 2844.287
305 30 LeftLarger PercCAExp1 Prime_4A Target_6N BdaFhJe DLHGeMJ Incongruent right error Normal 1766.06
305 31 LeftLarger PercCAExp1 Prime_4A Target_6A aCEJjcf DJAcmIl Incongruent right error Normal 1150.83
305 32 LeftLarger PercCAExp1 Prime_6A Target_9N GmghHJa iEehagf Congruent right correct Normal 862.6975
305 33 LeftLarger PercCAExp1 Prime_6N Target_4N dkJcmDK DJbMlCg Incongruent left correct Normal 830.7447
305 34 LeftLarger PercCAExp1 Prime_1N Target_9N FeCLdGm laMfJde Incongruent right error Normal 655.2826
305 35 LeftLarger PercCAExp1 Prime_9N Target_4A MKbagEl gKjAehB Incongruent right error Normal 1534.636
305 36 LeftLarger PercCAExp1 Prime_1N Target_6A DFJKaBd AFkfbeK Incongruent right error Normal 699.7835
305 37 LeftLarger PercCAExp1 Prime_1A Target_4N JChjGMg hcgIEeC Congruent left error Normal 550.4308
305 38 LeftLarger PercCAExp1 Prime_9N Target_1A KJGaLHb AaiGeHK Incongruent left correct Normal 1400.966
305 39 LeftLarger PercCAExp1 Prime_9N Target_4N gBKFDIh mhiEkMA Incongruent right error Normal 488.6479
305 40 LeftLarger PercCAExp1 Prime_9N Target_9A mgcBEkH EJbLfAD Congruent left error Normal 279.0791
305 41 LeftLarger PercCAExp1 Prime_4A Target_4N amhIKCH mbBKeiI Congruent right correct Normal 267.3689
305 42 LeftLarger PercCAExp1 Prime_6A Target_4A FHLGmCB IdMlHFf Incongruent right error Normal 358.9213
305 43 LeftLarger PercCAExp1 Prime_9A Target_1A hFLaADG deihDmG Incongruent left correct Normal 301.9656
305 44 LeftLarger PercCAExp1 Prime_9N Target_6N KLFilcG FgcmEbC Congruent right correct Normal 506.602
305 45 LeftLarger PercCAExp1 Prime_4N Target_1N DKaGMIc CJbcFKh Congruent right correct Normal 487.7616
305 46 LeftLarger PercCAExp1 Prime_1A Target_9N kEfjIai DhMHdGA Incongruent left correct Normal 1009.775
305 47 LeftLarger PercCAExp1 Prime_1N Target_1A kbMaJeB CdKDhMa Congruent left error Normal 684.9293
305 48 LeftLarger PercCAExp1 Prime_9A Target_9N CKLMlcI LIgkeFM Congruent left error Normal 900.1007
305 49 LeftLarger PercCAExp1 Prime_9A Target_9A EDCaAgK bjlgJIc Congruent left error Normal 655.2366
305 50 LeftLarger PercCAExp1 Prime_1A Target_6A MEABFbg CFIijeJ Incongruent right error Normal 789.8887
305 51 LeftLarger PercCAExp1 Prime_1N Target_1N HfBJEeL GgAbiCJ Congruent left error Normal 1082.176
305 52 LeftLarger PercCAExp1 Prime_4N Target_6A dfkCiAH DahmGHI Incongruent right error Normal 671.576
305 53 LeftLarger PercCAExp1 Prime_1N Target_6N LhcjmEC ckFCIed Incongruent right error Normal 1070.266
305 54 LeftLarger PercCAExp1 Prime_6A Target_1N BAgdEfa GjmeiBA Incongruent left correct Normal 1148.173
305 55 LeftLarger PercCAExp1 Prime_9A Target_4A aLGFDHK jFhmDGc Incongruent left correct Normal 498.4694
305 56 LeftLarger PercCAExp1 Prime_6A Target_6A aFEfekc jMfKkLD Congruent left error Normal 354.0463
305 57 LeftLarger PercCAExp1 Prime_6N Target_4A bcJILHj MCJlIjg Incongruent right error Normal 662.6654
305 58 LeftLarger PercCAExp1 Prime_1N Target_4A LCkceHd hHGbkCL Congruent right correct Normal 987.3609
305 59 LeftLarger PercCAExp1 Prime_4N Target_9A CBgMkeL iaDFlgk Incongruent right error Normal 627.1245
305 60 LeftLarger PercCAExp1 Prime_1N Target_4N ehkEAMc iLEBglF Congruent left error Normal 554.2104
305 61 LeftLarger PercCAExp1 Prime_6N Target_6A CAgmFeM LDEbGjd Congruent right correct Normal 372.747
305 62 LeftLarger PercCAExp1 Prime_4A Target_1N hLbjcFg KFGiemL Congruent right correct Normal 242.6099
305 63 LeftLarger PercCAExp1 Prime_9N Target_1N eLAadHm khibdDa Incongruent left correct Normal 538.5825
305 64 LeftLarger PercCAExp1 Prime_1A Target_1A EjGbAaL JMkmHCb Congruent right correct Normal 622.9413
305 65 LeftLarger PercCAExp1 Prime_1A Target_1N eHBAFMc dHjKhmf Congruent left error Normal 877.2491
305 66 LeftLarger PercCAExp1 Prime_9A Target_6N CEimgaG FHiGejh Congruent right correct Normal 2003.662
305 67 LeftLarger PercCAExp1 Prime_1A Target_4A EfFAcme DFLIhlM Congruent right correct Normal 950.7419
305 68 LeftLarger PercCAExp1 Prime_4A Target_9N JlahFBC bhLEKka Incongruent right error Normal 850.3114
305 69 LeftLarger PercCAExp1 Prime_6N Target_1A KhfHEMj mAHdbgE Incongruent left correct Normal 566.2478
305 70 LeftLarger PercCAExp1 Prime_9N Target_9N KIAlCjG gLhdKMm Congruent right correct Normal 793.8931
305 71 LeftLarger PercCAExp1 Prime_9A Target_4N IdKBDkh MgHfiIG Incongruent left correct Normal 380.6994
305 72 LeftLarger PercCAExp1 Prime_6A Target_4N JHmeLaM caLAFDg Incongruent left correct Normal 257.1058
305 73 LeftLarger PercCAExp1 Prime_6A Target_1A mBeKkgI aeEgCbA Incongruent left correct Normal 510.2707
305 74 LeftLarger PercCAExp1 Prime_9A Target_1N DMicLHm ehJbfai Incongruent right error Normal 249.9388
305 75 LeftLarger PercCAExp1 Prime_1A Target_6N KLHfgde CaKIcGJ Incongruent right error Normal 270.6053
305 76 LeftLarger PercCAExp1 Prime_6N Target_6N BMGmEDA ihJejlI Congruent left error Normal 255.6571
305 77 LeftLarger PercCAExp1 Prime_4N Target_6N EGdAcLB EGkbgdJ Incongruent left correct Normal 308.2081
305 78 LeftLarger PercCAExp1 Prime_6A Target_9A eBdhjai BdLgmbA Congruent right correct Normal 332.9618
305 79 LeftLarger PercCAExp1 Prime_9N Target_6A DJFEIbc HmkfAIj Congruent right correct Normal 358.0103
305 80 LeftLarger PercCAExp1 Prime_4N Target_4A bIiMjhe MKILkdb Congruent right correct Normal 481.8922
305 81 LeftSmaller PercCBPrac Prime_6N Target_9A IdgLlGE dALEimh Congruent right error Normal 797.1665
305 82 LeftSmaller PercCBPrac Prime_4N Target_9N BAablGK JmHgLca Incongruent right correct Normal 582.3101
305 83 LeftSmaller PercCBPrac Prime_4N Target_6N mfdgKCk BJCEjLF Incongruent right correct Normal 854.995
305 84 LeftSmaller PercCBPrac Prime_1A Target_9A KedAHaM biaBDck Incongruent left error Normal 891.4347
305 85 LeftSmaller PercCBPrac Prime_1N Target_1N DjgJBEM IbfielK Congruent left correct Normal 711.8022
305 86 LeftSmaller PercCBPrac Prime_6A Target_1A blMhACE fiHAIdK Incongruent right correct Normal 478.13
305 87 LeftSmaller PercCBPrac Prime_4N Target_9A AijmFCh KBJdLCe Incongruent right correct Normal 457.7864
305 88 LeftSmaller PercCBPrac Prime_1A Target_1N DimMhHg DjAfEBe Congruent left correct Normal 1582.321
305 89 LeftSmaller PercCBPrac Prime_9N Target_6A JIMiDdk lCkaFhI Congruent left correct Normal 1112.017
305 90 LeftSmaller PercCBPrac Prime_1N Target_4A MgJLCBk KaGLcAb Congruent left correct Normal 570.6059
305 91 LeftSmaller PercCBPrac Prime_9N Target_4A dDLJMCe EBebcjH Incongruent left error Normal 692.3609
305 92 LeftSmaller PercCBPrac Prime_6A Target_9A EIJGfjl IAHbelm Congruent right error Normal 432.8098
305 93 LeftSmaller PercCBPrac Prime_4A Target_4N IMhEcFJ LGacHhi Congruent left correct Normal 602.9422
305 94 LeftSmaller PercCBPrac Prime_9A Target_1A KEjMcIg cMmfhAI Incongruent left error Normal 471.4603
305 95 LeftSmaller PercCBPrac Prime_9A Target_6A LBgGChE jGDKBCJ Congruent right error Normal 593.9056
305 96 LeftSmaller PercCBPrac Prime_4A Target_6N GAKflgE fbdDLMA Incongruent right correct Normal 454.1931
305 97 LeftSmaller PercCBExp1 Prime_4N Target_4N mMbijKd fhIJDEb Congruent left correct Normal 666.0908
305 98 LeftSmaller PercCBExp1 Prime_4A Target_9A HefMhdG BFbhIHl Incongruent left error Normal 671.2644
305 99 LeftSmaller PercCBExp1 Prime_4N Target_4A MIKclLe fDHMCLa Congruent right error Normal 740.2866
305 100 LeftSmaller PercCBExp1 Prime_4A Target_6N MFbiIfE eDGbkjI Incongruent left error Normal 636.2441
305 101 LeftSmaller PercCBExp1 Prime_9N Target_6A gDedAab jHIamBc Congruent left correct Normal 735.6107
305 102 LeftSmaller PercCBExp1 Prime_1A Target_1A DMIBcdJ LiclCka Congruent right error Normal 794.8625
305 103 LeftSmaller PercCBExp1 Prime_4A Target_4N KjAhEFf EkgedDG Congruent right error Normal 772.7596
305 104 LeftSmaller PercCBExp1 Prime_6A Target_4A EebliBg beLEmlA Incongruent right correct Normal 552.5399
305 105 LeftSmaller PercCBExp1 Prime_1N Target_1N eAdgKBl iBdfAMg Congruent left correct Normal 525.2172
305 106 LeftSmaller PercCBExp1 Prime_9A Target_4N HKfIEGb bMFhHDi Incongruent left error Normal 646.877
305 107 LeftSmaller PercCBExp1 Prime_9N Target_9N bIJHamM KICmaGh Congruent right error Normal 851.3165
305 108 LeftSmaller PercCBExp1 Prime_9N Target_1N gceBAlG AKMcBHe Incongruent left error Normal 667.0854
305 109 LeftSmaller PercCBExp1 Prime_1A Target_6N GAelMcK kHFIlem Incongruent right correct Normal 902.3859
305 110 LeftSmaller PercCBExp1 Prime_6N Target_6A kFAKGcC bHEfJKl Congruent right error Normal 904.368
305 111 LeftSmaller PercCBExp1 Prime_4A Target_1A jELfdki hDgIcfm Congruent left correct Normal 579.9858
305 112 LeftSmaller PercCBExp1 Prime_1A Target_6A GLamBAd HibGgaC Incongruent left error Normal 841.2812
305 113 LeftSmaller PercCBExp1 Prime_9A Target_1N JBKmAFE BcCDaAG Incongruent right correct Normal 488.5918
305 114 LeftSmaller PercCBExp1 Prime_4N Target_9N HjiCAKm FGAfidK Incongruent left error Normal 556.1895
305 115 LeftSmaller PercCBExp1 Prime_1A Target_1N LcldikK JKDeMHb Congruent right error Normal 513.781
305 116 LeftSmaller PercCBExp1 Prime_6N Target_1A eEJLlBm JIalecg Incongruent right correct Normal 540.553
305 117 LeftSmaller PercCBExp1 Prime_1A Target_4N kdIliGb FHCahje Congruent right error Normal 1128.116
305 118 LeftSmaller PercCBExp1 Prime_1A Target_9N cgDlkIe KdBACeF Incongruent left error Normal 622.8622
305 119 LeftSmaller PercCBExp1 Prime_4N Target_1A ghbcmaE hLjGmHa Congruent left correct Normal 893.4534
305 120 LeftSmaller PercCBExp1 Prime_9A Target_1A fHdEAjJ FDcHjJA Incongruent left error Normal 585.6402
305 121 LeftSmaller PercCBExp1 Prime_6A Target_9A JBfCdFK eFcGaMI Congruent left correct Normal 1355.148
305 122 LeftSmaller PercCBExp1 Prime_4N Target_6N kKimMlJ MLFbGja Incongruent left error Normal 1076.986
305 123 LeftSmaller PercCBExp1 Prime_9N Target_1A AjklcdF iLHFIbl Incongruent right correct Normal 1086.276
305 124 LeftSmaller PercCBExp1 Prime_1N Target_4A IKkEcjD jfKFLAH Congruent left correct Normal 1167.039
305 125 LeftSmaller PercCBExp1 Prime_9A Target_4A KLMBdeb lkaCfeK Incongruent left error Normal 976.0098
305 126 LeftSmaller PercCBExp1 Prime_4N Target_9A jghDJCd aAlbeDM Incongruent right correct Normal 775.9428
305 127 LeftSmaller PercCBExp1 Prime_6N Target_9N EcAadkg mECkLcA Congruent right error Normal 709.8486
305 128 LeftSmaller PercCBExp1 Prime_9A Target_9N bjLlEJH eCEJKHc Congruent right error Normal 566.3847
305 129 LeftSmaller PercCBExp1 Prime_1N Target_6A bmgHKBA KDlHBMa Incongruent left error Normal 897.2001
305 130 LeftSmaller PercCBExp1 Prime_1N Target_9A dFHcjMD JHkLeig Incongruent right correct Normal 637.6075
305 131 LeftSmaller PercCBExp1 Prime_9A Target_6N JMaIKlF AcfhCGE Congruent right error Normal 459.7375
305 132 LeftSmaller PercCBExp1 Prime_9N Target_4N KglCEFJ fkeLMlc Incongruent right correct Normal 647.6431
305 133 LeftSmaller PercCBExp1 Prime_1N Target_9N GfmjchC mhBdFfH Incongruent left error Normal 688.7645
305 134 LeftSmaller PercCBExp1 Prime_4N Target_6A LmkaldJ icKgDdh Incongruent right correct Normal 567.278
305 135 LeftSmaller PercCBExp1 Prime_4A Target_1N FfmiJLe fcJmDIk Congruent left correct Normal 635.1742
305 136 LeftSmaller PercCBExp1 Prime_6A Target_6N EfBFkJC FhlJDGK Congruent left correct Normal 469.7155
305 137 LeftSmaller PercCBExp1 Prime_6N Target_9A gjaHJdF igFbGIj Congruent left correct Normal 506.6568
305 138 LeftSmaller PercCBExp1 Prime_6N Target_6N fdFkCKm fcGLKAa Congruent left correct Normal 519.0714
305 139 LeftSmaller PercCBExp1 Prime_1A Target_4A eMlAECa KfFhkdg Congruent left correct Normal 335.0017
305 140 LeftSmaller PercCBExp1 Prime_9N Target_6N DCfgIeA feFibLK Congruent right error Normal 294.0273
305 141 LeftSmaller PercCBExp1 Prime_6A Target_1A MhcEKaj EmDjfgG Incongruent left error Normal 174.5787
305 142 LeftSmaller PercCBExp1 Prime_6N Target_1N dCejKhf cHdBfKC Incongruent right correct Normal 272.1738
305 143 LeftSmaller PercCBExp1 Prime_6A Target_4N CdlFHBm gCEfidM Incongruent left error Normal 106.4607
305 144 LeftSmaller PercCBExp1 Prime_6N Target_4N lfmFaGk MCLDbGc Incongruent left error Early 35.30714
305 145 LeftSmaller PercCBExp1 Prime_4A Target_4A DEabgBd iKMbECa Congruent left correct Normal 154.9757
305 146 LeftSmaller PercCBExp1 Prime_1N Target_1A AfhDcdH fHajbLF Congruent left correct Normal 258.3633
305 147 LeftSmaller PercCBExp1 Prime_4A Target_6A AEgDijL DKILGfH Incongruent left error Normal 165.2833
305 148 LeftSmaller PercCBExp1 Prime_9A Target_6A IhHcAgK HMIghCD Congruent right error Normal 441.0389
305 149 LeftSmaller PercCBExp1 Prime_6A Target_1N FcDEKBf DgKCHiF Incongruent right correct Normal 425.7367
305 150 LeftSmaller PercCBExp1 Prime_1N Target_6N iHfcdEL dfEGkDJ Incongruent right correct Normal 365.4628
305 151 LeftSmaller PercCBExp1 Prime_4N Target_1N MHEACKc KIckajm Congruent right error Normal 424.1789
305 152 LeftSmaller PercCBExp1 Prime_9N Target_4A gCDGali hmkiJBa Incongruent right correct Normal 271.9779
305 153 LeftSmaller PercCBExp1 Prime_6N Target_4A fhklKLi cCgLJMd Incongruent left error Normal 146.2731
305 154 LeftSmaller PercCBExp1 Prime_6A Target_9N ILfdFCE hkBlKfH Congruent left correct Normal 207.668
305 155 LeftSmaller PercCBExp1 Prime_9N Target_9A heIkCma lEHgbID Congruent left correct Early 24.30981
305 156 LeftSmaller PercCBExp1 Prime_4A Target_9N cJHBLhb JlHLmeA Incongruent left error Early 2.801051
305 157 LeftSmaller PercCBExp1 Prime_9A Target_9A efAmDcM EebhFiH Congruent left correct Normal 563.6741
305 158 LeftSmaller PercCBExp1 Prime_1A Target_9A kJMGIFl hEaAkHj Incongruent left error Normal 620.0693
305 159 LeftSmaller PercCBExp1 Prime_1N Target_4N hFkjmMC fBdkmba Congruent left correct Normal 1339.104
305 160 LeftSmaller PercCBExp1 Prime_6A Target_6A AmjgHMK ldgjBEI Congruent right error Normal 923.6462
306 1 LeftLarger PercCAPrac Prime_4N Target_4A AbFdCHl FIhEdlJ Congruent left error Normal 811.3229
306 2 LeftLarger PercCAPrac Prime_9A Target_6N HCjMaiL ElIBHLM Congruent left error Normal 844.4664
306 3 LeftLarger PercCAPrac Prime_4N Target_1N JdmjMGa ajKhdkE Congruent left error Normal 651.3698
306 4 LeftLarger PercCAPrac Prime_9N Target_9A GmaMhCg mjeaABk Congruent right correct Normal 514.6865
306 5 LeftLarger PercCAPrac Prime_9A Target_1N HjEmMdG DFclbKh Incongruent left correct Normal 564.105
306 6 LeftLarger PercCAPrac Prime_9A Target_1A ichEIJD HmLMcfB Incongruent left correct Normal 646.7384
306 7 LeftLarger PercCAPrac Prime_9N Target_1N idhgjaF ecCdIfi Incongruent right error Normal 527.2919
306 8 LeftLarger PercCAPrac Prime_1N Target_9N CJkMDjG GfmAgcM Incongruent right error Normal 493.0571
306 9 LeftLarger PercCAPrac Prime_1A Target_9N eLCJiHg hLbaKHc Incongruent right error Normal 713.1063
306 10 LeftLarger PercCAPrac Prime_4A Target_6N JEfChIB IEfMKlm Incongruent left correct Normal 581.4257
306 11 LeftLarger PercCAPrac Prime_1A Target_1A GebDfiH mHFLhaB Congruent right correct Normal 283.5755
306 12 LeftLarger PercCAPrac Prime_4A Target_6A ldcCekA lIKHamd Incongruent right error Normal 584.0081
306 13 LeftLarger PercCAPrac Prime_6A Target_9A mkCGbAi MfcEgja Congruent left error Normal 860.29
306 14 LeftLarger PercCAPrac Prime_1A Target_6N KDJCAgk aBkeJAg Incongruent right error Normal 1229.21
306 15 LeftLarger PercCAPrac Prime_6A Target_4N jDElhGk lBeJgck Incongruent left correct Normal 601.2511
306 16 LeftLarger PercCAPrac Prime_9N Target_4N IgkdaKc EGFChml Incongruent right error Normal 602.3942
306 17 LeftLarger PercCAExp1 Prime_1N Target_4A EbFIegB KHfdIkj Congruent left error Normal 695.3254
306 18 LeftLarger PercCAExp1 Prime_9N Target_1N mdJcbjB eDGfBcJ Incongruent left correct Normal 612.6593
306 19 LeftLarger PercCAExp1 Prime_6N Target_4A cdIJEea cAHhElK Incongruent right error Normal 673.2704
306 20 LeftLarger PercCAExp1 Prime_9A Target_4N bhACDja bgBmfed Incongruent right error Normal 1033.879
306 21 LeftLarger PercCAExp1 Prime_6N Target_4N dgJLjkE eChHlfB Incongruent left correct Normal 596.7157
306 22 LeftLarger PercCAExp1 Prime_6A Target_4A fJlBdEj FKMChmL Incongruent right error Normal 876.759
306 23 LeftLarger PercCAExp1 Prime_9N Target_9N MHiCAhj lgaLdBG Congruent left error Normal 879.519
306 24 LeftLarger PercCAExp1 Prime_9N Target_4A mgeHAbD hHeBLbd Incongruent right error Normal 1066.238
306 25 LeftLarger PercCAExp1 Prime_6N Target_9A fjFCkdK IHAGLFD Congruent right correct Normal 939.7984
306 26 LeftLarger PercCAExp1 Prime_4A Target_6N GdMbgcH agDMJfi Incongruent left correct Normal 1196.946
306 27 LeftLarger PercCAExp1 Prime_4N Target_1A ICGKAhm CGLlMEk Congruent left error Normal 662.7588
306 28 LeftLarger PercCAExp1 Prime_1A Target_9N AJmLFGI FGkDMJi Incongruent right error Normal 417.2973
306 29 LeftLarger PercCAExp1 Prime_9A Target_1A dGkALBi EbMGfDH Incongruent right error Normal 412.2082
306 30 LeftLarger PercCAExp1 Prime_4N Target_4A meFCEic dIaBmhc Congruent left error Normal 820.8249
306 31 LeftLarger PercCAExp1 Prime_6N Target_1N hmEHaCf kLfldIB Incongruent left correct Normal 671.9406
306 32 LeftLarger PercCAExp1 Prime_9A Target_6N MgBDEGk mgdeMAc Congruent right correct Normal 695.316
306 33 LeftLarger PercCAExp1 Prime_6N Target_6N LiKBIFe mEkheFJ Congruent right correct Normal 817.0128
306 34 LeftLarger PercCAExp1 Prime_9A Target_4A BKCfLlb AmjMiDF Incongruent right error Normal 900.1717
306 35 LeftLarger PercCAExp1 Prime_1A Target_6A ijlEDdf CHAdKfk Incongruent left correct Normal 769.9889
306 36 LeftLarger PercCAExp1 Prime_1A Target_1A ILGmjfe mBIKCMd Congruent right correct Normal 1098.109
306 37 LeftLarger PercCAExp1 Prime_4A Target_9N biFDkfJ dJFKDeG Incongruent left correct Normal 910.5811
306 38 LeftLarger PercCAExp1 Prime_9A Target_6A gGFIdeA ihKDlAF Congruent left error Normal 679.5129
306 39 LeftLarger PercCAExp1 Prime_1N Target_1A JdGiaCD giaGBJk Congruent right correct Normal 777.7674
306 40 LeftLarger PercCAExp1 Prime_1A Target_6N MkELgBj MjeGklf Incongruent left correct Normal 1106.591
306 41 LeftLarger PercCAExp1 Prime_1N Target_9A cDkBhGL CdLHFJi Incongruent right error Normal 751.277
306 42 LeftLarger PercCAExp1 Prime_6A Target_1N LAMfCda fIJDdKB Incongruent right error Normal 1090.943
306 43 LeftLarger PercCAExp1 Prime_9N Target_6N lhfmLjK iKbaFhe Congruent left error Normal 1262.993
306 44 LeftLarger PercCAExp1 Prime_1A Target_9A HfjECMF EDdbleJ Incongruent right error Normal 791.4194
306 45 LeftLarger PercCAExp1 Prime_6A Target_6N ElgHALf eakiEgD Congruent right correct Normal 1389.765
306 46 LeftLarger PercCAExp1 Prime_1A Target_4N deHkMCL aFEHelm Congruent left error Normal 705.9536
306 47 LeftLarger PercCAExp1 Prime_4N Target_6A KMbIegL EFhCHKf Incongruent left correct Normal 754.8161
306 48 LeftLarger PercCAExp1 Prime_9N Target_6A fKaeIbM FlkeaiM Congruent right correct Normal 927.8645
306 49 LeftLarger PercCAExp1 Prime_4A Target_9A KMemJLI bMHdhFg Incongruent left correct Normal 1021.393
306 50 LeftLarger PercCAExp1 Prime_6A Target_9A LgCBjfK cJdGHmC Congruent right correct Normal 1027.08
306 51 LeftLarger PercCAExp1 Prime_9N Target_9A GhLElda geaGILH Congruent left error Normal 924.5216
306 52 LeftLarger PercCAExp1 Prime_6N Target_6A ifEICgL EkKmHda Congruent right correct Normal 889.265
306 53 LeftLarger PercCAExp1 Prime_1A Target_4A kjcLmFJ afgJGHk Congruent left error Normal 922.6777
306 54 LeftLarger PercCAExp1 Prime_6N Target_9N IDCegbE abhJLeE Congruent right correct Normal 1132.281
306 55 LeftLarger PercCAExp1 Prime_9A Target_1N aAgEKmJ ALDdMeJ Incongruent right error Normal 1509.747
306 56 LeftLarger PercCAExp1 Prime_4N Target_9A fJFLEmI eHglhEj Incongruent right error Normal 1088.64
306 57 LeftLarger PercCAExp1 Prime_9A Target_9N iKdLejg EJDLMih Congruent left error Normal 919.9539
306 58 LeftLarger PercCAExp1 Prime_6A Target_1A BbikLJl FKBcMmH Incongruent left correct Normal 930.565
306 59 LeftLarger PercCAExp1 Prime_4N Target_1N gIbBCAa KFlJbie Congruent right correct Normal 1126.425
306 60 LeftLarger PercCAExp1 Prime_6A Target_4N BIklheg giGmfLc Incongruent left correct Normal 868.9363
306 61 LeftLarger PercCAExp1 Prime_6N Target_1A MKeBbFc iMblgIm Incongruent right error Normal 1194.228
306 62 LeftLarger PercCAExp1 Prime_1N Target_4N MBbhGLI CLHKjDl Congruent right correct Normal 992.6308
306 63 LeftLarger PercCAExp1 Prime_4A Target_1A eDIKdFb LiIAEBk Congruent left error Normal 724.4514
306 64 LeftLarger PercCAExp1 Prime_4A Target_4N Dkeadlh dimaHAL Congruent left error Normal 1007.892
306 65 LeftLarger PercCAExp1 Prime_1N Target_9N aLKjeld lmfcMdA Incongruent left correct Normal 955.0773
306 66 LeftLarger PercCAExp1 Prime_1A Target_1N LBalJkK JakBIiA Congruent right correct Normal 603.2471
306 67 LeftLarger PercCAExp1 Prime_4N Target_9N BjfEmGg gdKaEMm Incongruent left correct Normal 796.9307
306 68 LeftLarger PercCAExp1 Prime_4A Target_1N CKbhIjd AbLFEac Congruent left error Normal 1195.354
306 69 LeftLarger PercCAExp1 Prime_1N Target_6A HMaLAIJ eBIJdaA Incongruent right error Normal 1177.025
306 70 LeftLarger PercCAExp1 Prime_4N Target_4N iKHCIeE ChcGLFk Congruent left error Normal 946.0473
306 71 LeftLarger PercCAExp1 Prime_6A Target_9N MmDlHej bcGKkHa Congruent right correct Normal 1114.878
306 72 LeftLarger PercCAExp1 Prime_4A Target_4A iCIhmgj dCiDakE Congruent left error Normal 778.9543
306 73 LeftLarger PercCAExp1 Prime_9N Target_4N jmEdGDf KEaAbBM Incongruent right error Normal 882.6328
306 74 LeftLarger PercCAExp1 Prime_4N Target_6N bLhlfHM DFbImfB Incongruent left correct Normal 865.43
306 75 LeftLarger PercCAExp1 Prime_9A Target_9A HEjgclL jGechdk Congruent left error Normal 607.5094
306 76 LeftLarger PercCAExp1 Prime_6A Target_6A JkEefFb AkhEFIB Congruent right correct Normal 751.3812
306 77 LeftLarger PercCAExp1 Prime_9N Target_1A FjbJDLH gFcDIlm Incongruent left correct Normal 723.2561
306 78 LeftLarger PercCAExp1 Prime_1N Target_1N HhkEiDg LelJIMH Congruent right correct Normal 533.6627
306 79 LeftLarger PercCAExp1 Prime_4A Target_6A kjlGhEe bLjikHF Incongruent right error Normal 876.9851
306 80 LeftLarger PercCAExp1 Prime_1N Target_6N aMjEACd iaKCjJf Incongruent left correct Normal 488.9151
306 81 LeftSmaller PercCBPrac Prime_4A Target_6A gbdiIam BLHiIGM Incongruent right correct Normal 1112.315
306 82 LeftSmaller PercCBPrac Prime_1A Target_4N IAdcmFE FeldbJL Congruent left correct Normal 708.712
306 83 LeftSmaller PercCBPrac Prime_1A Target_9N CkFfHAe aGlimdC Incongruent left error Normal 896.4335
306 84 LeftSmaller PercCBPrac Prime_6A Target_1A LBCAMkI hACbIGj Incongruent right correct Normal 882.8493
306 85 LeftSmaller PercCBPrac Prime_4N Target_1A emEFfHJ faDGIEA Congruent right error Normal 775.1309
306 86 LeftSmaller PercCBPrac Prime_6A Target_6A KIjDfiG aELmcbi Congruent left correct Normal 945.8212
306 87 LeftSmaller PercCBPrac Prime_4N Target_4N FjlEiKc dDBKFMG Congruent right error Normal 670.2372
306 88 LeftSmaller PercCBPrac Prime_4A Target_1A fGIkaMc CfIGiAH Congruent left correct Normal 889.2
306 89 LeftSmaller PercCBPrac Prime_6N Target_4N jaCFKDh HFLaGmi Incongruent right correct Normal 1229.161
306 90 LeftSmaller PercCBPrac Prime_6A Target_4N hIHAMLj GJAkdKm Incongruent right correct Normal 960.6882
306 91 LeftSmaller PercCBPrac Prime_9N Target_4N EIdjHDB hjkaEmI Incongruent left error Normal 1142.648
306 92 LeftSmaller PercCBPrac Prime_6A Target_4A GAEjBHC KCdEBeg Incongruent left error Normal 1042.363
306 93 LeftSmaller PercCBPrac Prime_1A Target_6A LmjBGdK jCFJMIa Incongruent right correct Normal 785.5476
306 94 LeftSmaller PercCBPrac Prime_6N Target_9A icJfEbj bDFkHJe Congruent right error Normal 570.1559
306 95 LeftSmaller PercCBPrac Prime_9N Target_1A CBLIMhD hCKDMJH Incongruent right correct Normal 1227.999
306 96 LeftSmaller PercCBPrac Prime_9A Target_4N iFAJLKM dmKigbC Incongruent left error Normal 717.519
306 97 LeftSmaller PercCBExp1 Prime_4N Target_4N ecbMFHk HcmEJaF Congruent left correct Normal 1051.636
306 98 LeftSmaller PercCBExp1 Prime_1N Target_6A beFGDak gmiEBea Incongruent left error Normal 1105.784
306 99 LeftSmaller PercCBExp1 Prime_4N Target_6N BfDALdm DMGAKcF Incongruent right correct Normal 447.6273
306 100 LeftSmaller PercCBExp1 Prime_9N Target_9A BdFGfDE klmJiCL Congruent left correct Normal 847.598
306 101 LeftSmaller PercCBExp1 Prime_4A Target_1A mEgeJkb GjeblDH Congruent right error Normal 822.9024
306 102 LeftSmaller PercCBExp1 Prime_9N Target_4N dDFAmcg kieFJCE Incongruent right correct Normal 786.8908
306 103 LeftSmaller PercCBExp1 Prime_1A Target_4N JbBFEmg cfkJlbi Congruent left correct Normal 688.1999
306 104 LeftSmaller PercCBExp1 Prime_1A Target_1N HjbkcAe IJABlEh Congruent left correct Normal 480.9774
306 105 LeftSmaller PercCBExp1 Prime_6N Target_1N AcJEIjb CIfEbmk Incongruent right correct Normal 564.3345
306 106 LeftSmaller PercCBExp1 Prime_1N Target_4A gDJemEB iJAmabF Congruent left correct Normal 887.3045
306 107 LeftSmaller PercCBExp1 Prime_6N Target_4N cMfeAFD jLgFGeA Incongruent left error Normal 746.4666
306 108 LeftSmaller PercCBExp1 Prime_4N Target_6A ClLEcBm dBjkHhJ Incongruent right correct Normal 716.6396
306 109 LeftSmaller PercCBExp1 Prime_6A Target_6A FlJACBD laIEKMe Congruent left correct Normal 620.9393
306 110 LeftSmaller PercCBExp1 Prime_9A Target_1A fmeEGdJ BHaKGdC Incongruent left error Normal 796.7258
306 111 LeftSmaller PercCBExp1 Prime_6N Target_9A lAhCidg hcaEgLf Congruent right error Normal 579.7445
306 112 LeftSmaller PercCBExp1 Prime_6A Target_4A IBfAgKd GJHabLA Incongruent left error Normal 350.4336
306 113 LeftSmaller PercCBExp1 Prime_1N Target_1A IdKHbEL feDFhEm Congruent left correct Normal 656.7276
306 114 LeftSmaller PercCBExp1 Prime_9A Target_9A EgkIFGb khciClB Congruent right error Normal 926.32
306 115 LeftSmaller PercCBExp1 Prime_9N Target_9N dgDAEia iLjfGeF Congruent left correct Normal 567.384
306 116 LeftSmaller PercCBExp1 Prime_1N Target_9N Khifgca cEgmHAI Incongruent left error Normal 629.1061
306 117 LeftSmaller PercCBExp1 Prime_9A Target_1N GHLDAkd KImJkAl Incongruent right correct Normal 816.6101
306 118 LeftSmaller PercCBExp1 Prime_4A Target_4N kEAaDML jbJiFLh Congruent left correct Normal 892.8831
306 119 LeftSmaller PercCBExp1 Prime_9N Target_6N lFkfBbg cBdDjiE Congruent right error Normal 729.6763
306 120 LeftSmaller PercCBExp1 Prime_9N Target_4A aJEhCgF dLkIDCm Incongruent left error Normal 722.7903
306 121 LeftSmaller PercCBExp1 Prime_6N Target_4A JlEmeGK AFbilMm Incongruent left error Normal 894.0767
306 122 LeftSmaller PercCBExp1 Prime_1A Target_6N bCjkadF cfmMJlI Incongruent right correct Normal 916.1405
306 123 LeftSmaller PercCBExp1 Prime_9N Target_1N kFKjdih AGBElIc Incongruent right correct Normal 909.5708
306 124 LeftSmaller PercCBExp1 Prime_1A Target_9N hAgHLBG ICbekDK Incongruent right correct Normal 463.9516
306 125 LeftSmaller PercCBExp1 Prime_6A Target_1A gaHImJK BHLiEeg Incongruent right correct Normal 679.7171
306 126 LeftSmaller PercCBExp1 Prime_9N Target_1A kJlGeKF Kblhakg Incongruent right correct Normal 749.187
306 127 LeftSmaller PercCBExp1 Prime_4N Target_9N CMbKjEd aAbgjmc Incongruent left error Normal 779.2272
306 128 LeftSmaller PercCBExp1 Prime_4A Target_4A iJLfmFa mLkajcE Congruent left correct Normal 451.7622
306 129 LeftSmaller PercCBExp1 Prime_1A Target_4A AiLhaMI mbJaked Congruent left correct Normal 619.4411
306 130 LeftSmaller PercCBExp1 Prime_4A Target_9N KMHbdij GHldhMJ Incongruent left error Normal 936.1789
306 131 LeftSmaller PercCBExp1 Prime_1A Target_1A IJGdDfi AChgbFH Congruent right error Normal 530.8925
306 132 LeftSmaller PercCBExp1 Prime_4N Target_1N DJlCKEH gMGBLEk Congruent right error Normal 699.2164
306 133 LeftSmaller PercCBExp1 Prime_1N Target_1N EdKjFkD jHGbiAD Congruent right error Normal 445.0036
306 134 LeftSmaller PercCBExp1 Prime_9A Target_6N dLADmaf EcDdLhA Congruent right error Normal 837.5382
306 135 LeftSmaller PercCBExp1 Prime_4A Target_9A EJGDIfj dgLDCfM Incongruent right correct Normal 768.6721
306 136 LeftSmaller PercCBExp1 Prime_1A Target_6A efFEJcM dkaKEFG Incongruent left error Normal 285.6417
306 137 LeftSmaller PercCBExp1 Prime_9A Target_4N CIcgEBe ElabGBK Incongruent right correct Normal 1184.526
306 138 LeftSmaller PercCBExp1 Prime_9A Target_9N CeEhGdJ HaiefDF Congruent right error Normal 920.2428
306 139 LeftSmaller PercCBExp1 Prime_1N Target_6N FeGlIic hJlIHFf Incongruent left error Normal 694.8004
306 140 LeftSmaller PercCBExp1 Prime_4A Target_1N igAbHdF MFbCAEf Congruent right error Normal 690.5524
306 141 LeftSmaller PercCBExp1 Prime_1A Target_9A cLdhMFj IlfFbCD Incongruent right correct Normal 702.4732
306 142 LeftSmaller PercCBExp1 Prime_6A Target_4N kcBbHiM JmaeIHD Incongruent left error Normal 710.3954
306 143 LeftSmaller PercCBExp1 Prime_4N Target_9A AfBjibm dbBlgIE Incongruent right correct Normal 915.4048
306 144 LeftSmaller PercCBExp1 Prime_6A Target_6N bdjCeLB DKlEfiA Congruent right error Normal 924.8255
306 145 LeftSmaller PercCBExp1 Prime_6A Target_9N LDjJHGE emAKMLJ Congruent left correct Normal 584.5374
306 146 LeftSmaller PercCBExp1 Prime_9A Target_4A kMeBiAb FmbCgDG Incongruent right correct Normal 713.4371
306 147 LeftSmaller PercCBExp1 Prime_9A Target_6A LjleMKC hjDaBEl Congruent left correct Normal 789.3447
306 148 LeftSmaller PercCBExp1 Prime_4A Target_6N jhEHFCB ICiDBAf Incongruent right correct Normal 854.6555
306 149 LeftSmaller PercCBExp1 Prime_9N Target_6A baHEdAf FGgBceC Congruent left correct Normal 745.233
306 150 LeftSmaller PercCBExp1 Prime_4N Target_4A KhCHcgA hLbMliC Congruent right error Normal 1063.616
306 151 LeftSmaller PercCBExp1 Prime_6N Target_6N abIlidc BHafEjK Congruent left correct Normal 1004.166
306 152 LeftSmaller PercCBExp1 Prime_4A Target_6A aLEFGhC kDiHlfE Incongruent right correct Normal 907.8605
306 153 LeftSmaller PercCBExp1 Prime_1N Target_9A LbEBHih HlifmIA Incongruent left error Normal 652.9047
306 154 LeftSmaller PercCBExp1 Prime_6N Target_6A aimkCch kJjmhaD Congruent left correct Normal 678.3379
306 155 LeftSmaller PercCBExp1 Prime_6A Target_1N lFJCIDA GLkDBgc Incongruent right correct Normal 659.5206
306 156 LeftSmaller PercCBExp1 Prime_6N Target_1A hBEIJAa iGkFHfc Incongruent left error Normal 894.6546
306 157 LeftSmaller PercCBExp1 Prime_4N Target_1A CAjhEgG cKaEmDd Congruent right error Normal 1260.686
306 158 LeftSmaller PercCBExp1 Prime_1N Target_4N bHdFIjc cgJjHkf Congruent right error Normal 1161.901
306 159 LeftSmaller PercCBExp1 Prime_6N Target_9N HmgeEiF gECFGKj Congruent left correct Normal 691.6657
306 160 LeftSmaller PercCBExp1 Prime_6A Target_9A LDCMeJH gHAJKcL Congruent left correct Normal 981.8291
307 1 LeftLarger PercCAPrac Prime_1N Target_9N FbdEDMI LIJGMhg Incongruent right error Normal 2104.783
307 2 LeftLarger PercCAPrac Prime_4N Target_9A HmiMIjb kGKjmJL Incongruent right error Normal 1547.108
307 3 LeftLarger PercCAPrac Prime_4N Target_9N lFiBADa laBCfFe Incongruent left correct Normal 882.188
307 4 LeftLarger PercCAPrac Prime_9A Target_4N FKlGiLI JckDemK Incongruent right error Normal 831.9568
307 5 LeftLarger PercCAPrac Prime_4N Target_1A EkDeFLG maIDlbf Congruent right correct Normal 1897.085
307 6 LeftLarger PercCAPrac Prime_6A Target_9N HhbKiAF AEeJlhF Congruent left error Normal 785.9566
307 7 LeftLarger PercCAPrac Prime_1A Target_4A gEImhLM AjekKlB Congruent right correct Normal 1093.738
307 8 LeftLarger PercCAPrac Prime_4N Target_6N JGFdADk iCbJkMG Incongruent right error Normal 869.0517
307 9 LeftLarger PercCAPrac Prime_4N Target_6A gmflJLE jGlIAhH Incongruent left correct Normal 619.7372
307 10 LeftLarger PercCAPrac Prime_9A Target_1N KeEGDBh GjIfMbl Incongruent right error Normal 1174.773
307 11 LeftLarger PercCAPrac Prime_1N Target_1N Gjcmlde gMFafIB Congruent left error Normal 740.5335
307 12 LeftLarger PercCAPrac Prime_9N Target_9N dKikEhg CklmeJi Congruent left error Normal 2088.682
307 13 LeftLarger PercCAPrac Prime_6N Target_4A egILfFi dIkhJlK Incongruent left correct Normal 1605.192
307 14 LeftLarger PercCAPrac Prime_4A Target_6A HeBjmJd iJImkGF Incongruent right error Normal 624.5152
307 15 LeftLarger PercCAPrac Prime_9A Target_6N DajGihl FlJMKde Congruent left error Normal 680.2369
307 16 LeftLarger PercCAPrac Prime_6A Target_4A JaMDBCd eahJflj Incongruent right error Normal 886.2031
307 17 LeftLarger PercCAExp1 Prime_1A Target_9N AfCkDFB BeJgdAF Incongruent left correct Normal 1837.528
307 18 LeftLarger PercCAExp1 Prime_4N Target_6A GfLglMH glaHIGf Incongruent right error Normal 1292.688
307 19 LeftLarger PercCAExp1 Prime_6N Target_9A iLmlkae cJBDebC Congruent right correct Normal 830.2968
307 20 LeftLarger PercCAExp1 Prime_6N Target_4A LfCcgAK FMmDHCh Incongruent left correct Normal 1100.823
307 21 LeftLarger PercCAExp1 Prime_4A Target_9N LlbMGBF gDdBjMa Incongruent left correct Normal 1332.893
307 22 LeftLarger PercCAExp1 Prime_9A Target_9N dDCglAJ AMBLGjf Congruent right correct Normal 723.6928
307 23 LeftLarger PercCAExp1 Prime_4N Target_4N HMfkGIC DiAbMhe Congruent right correct Normal 1280.711
307 24 LeftLarger PercCAExp1 Prime_4N Target_1N ilGHACE aBeAbcK Congruent left error Normal 657.3642
307 25 LeftLarger PercCAExp1 Prime_9N Target_4N BaIlFeD aHjlJCE Incongruent left correct Normal 920.583
307 26 LeftLarger PercCAExp1 Prime_4A Target_1A hAlfjHa AbFedim Congruent left error Normal 931.9908
307 27 LeftLarger PercCAExp1 Prime_1N Target_4N mCfgBbH haMDFBi Congruent left error Normal 1611.65
307 28 LeftLarger PercCAExp1 Prime_1A Target_1N MiAEgLk IlGckfe Congruent right correct Normal 878.653
307 29 LeftLarger PercCAExp1 Prime_4N Target_1A CFgLifM LJiEKah Congruent left error Normal 1874.661
307 30 LeftLarger PercCAExp1 Prime_9N Target_9N IbcjemH jeaKMIC Congruent left error Normal 1707.135
307 31 LeftLarger PercCAExp1 Prime_4A Target_9A dAMeBlE lJAbeKM Incongruent left correct Normal 1225.911
307 32 LeftLarger PercCAExp1 Prime_9A Target_4A HDEjcJl mGeDAfK Incongruent right error Normal 964.2207
307 33 LeftLarger PercCAExp1 Prime_9N Target_1A gKlHMIa ibagjEc Incongruent right error Normal 1880.519
307 34 LeftLarger PercCAExp1 Prime_9N Target_1N GHbdJeh akcCfhD Incongruent right error Normal 724.8385
307 35 LeftLarger PercCAExp1 Prime_1N Target_1A lhakHDB jhCEiea Congruent left error Normal 676.6352
307 36 LeftLarger PercCAExp1 Prime_1N Target_6N cJmFGjC fibDGhB Incongruent right error Normal 772.4295
307 37 LeftLarger PercCAExp1 Prime_9A Target_1A DELgAKJ AfjkBbG Incongruent left correct Normal 699.5439
307 38 LeftLarger PercCAExp1 Prime_1N Target_9N GMhEHke KJIiCBG Incongruent right error Normal 795.3874
307 39 LeftLarger PercCAExp1 Prime_6N Target_6A jJfmGcE bBFKEgH Congruent right correct Normal 1295.825
307 40 LeftLarger PercCAExp1 Prime_4A Target_6N abBmcKC JdHlCfE Incongruent left correct Normal 751.3492
307 41 LeftLarger PercCAExp1 Prime_9N Target_6A dcIHhMk IlGbaCd Congruent left error Normal 1282.29
307 42 LeftLarger PercCAExp1 Prime_4A Target_1N eHJdBmf kABmChi Congruent left error Normal 1578.325
307 43 LeftLarger PercCAExp1 Prime_6N Target_1A IFaEACD ghHeMCF Incongruent right error Normal 657.0951
307 44 LeftLarger PercCAExp1 Prime_9A Target_6N GhKdLAD kmeFiDA Congruent right correct Normal 975.686
307 45 LeftLarger PercCAExp1 Prime_6A Target_4N FCdJAmB GJifmel Incongruent left correct Normal 996.871
307 46 LeftLarger PercCAExp1 Prime_1A Target_9A ajmbLhd kMdlbLf Incongruent left correct Normal 1276.04
307 47 LeftLarger PercCAExp1 Prime_6N Target_4N KgheGHj KFeGmJL Incongruent right error Normal 703.5967
307 48 LeftLarger PercCAExp1 Prime_9N Target_4A fDLFhAK amcBbIF Incongruent right error Normal 1226.401
307 49 LeftLarger PercCAExp1 Prime_1A Target_1A HkKjMGL BhblGdJ Congruent left error Normal 1567.286
307 50 LeftLarger PercCAExp1 Prime_6A Target_6N eaMlFGh hFDdeAM Congruent right correct Normal 1274.881
307 51 LeftLarger PercCAExp1 Prime_1A Target_6N jbKLDaH HMJCiBg Incongruent left correct Normal 693.3078
307 52 LeftLarger PercCAExp1 Prime_6A Target_6A GahdMlD ihmMcHB Congruent left error Normal 996.5904
307 53 LeftLarger PercCAExp1 Prime_4N Target_6N EaBiKdJ CKDHfLb Incongruent right error Normal 607.0696
307 54 LeftLarger PercCAExp1 Prime_4A Target_4N bjcgfBH jaHlAGh Congruent left error Normal 958.1766
307 55 LeftLarger PercCAExp1 Prime_9A Target_1N gJlcKAL AmcMJHL Incongruent left correct Normal 1226.104
307 56 LeftLarger PercCAExp1 Prime_9N Target_6N cfiIFKA dJGMmDC Congruent right correct Normal 714.1711
307 57 LeftLarger PercCAExp1 Prime_4N Target_4A CcgEAeI dJFlCbG Congruent right correct Normal 1079.917
307 58 LeftLarger PercCAExp1 Prime_1N Target_6A iLHgkhf AmIlfiM Incongruent left correct Normal 448.0635
307 59 LeftLarger PercCAExp1 Prime_4N Target_9N FekgcIB GIeFdmL Incongruent left correct Normal 1171.297
307 60 LeftLarger PercCAExp1 Prime_6A Target_1A KMCjAic ecEBFhJ Incongruent right error Normal 877.1158
307 61 LeftLarger PercCAExp1 Prime_1A Target_6A AGbFfKk FbcMIBa Incongruent right error Normal 649.7768
307 62 LeftLarger PercCAExp1 Prime_1A Target_4N HJGgakf EkCKjAF Congruent left error Normal 403.5729
307 63 LeftLarger PercCAExp1 Prime_9A Target_4N GiCkdEA aAJBiCe Incongruent right error Normal 557.1142
307 64 LeftLarger PercCAExp1 Prime_4A Target_6A jBMkFdE AKjEkCd Incongruent right error Normal 1146.779
307 65 LeftLarger PercCAExp1 Prime_1N Target_4A KHcDlME kefJidC Congruent right correct Normal 1067.413
307 66 LeftLarger PercCAExp1 Prime_1N Target_1N ChmfkjA LeMFbcK Congruent left error Normal 597.1542
307 67 LeftLarger PercCAExp1 Prime_9N Target_9A BcdHDJI AeGhliH Congruent left error Normal 1948.562
307 68 LeftLarger PercCAExp1 Prime_9A Target_9A AIaCBML AgJKCci Congruent right correct Normal 544.9338
307 69 LeftLarger PercCAExp1 Prime_6A Target_1N hAbiJCg eICflcL Incongruent left correct Normal 1416.382
307 70 LeftLarger PercCAExp1 Prime_9A Target_6A CKAcjFh cALifdH Congruent right correct Normal 477.3382
307 71 LeftLarger PercCAExp1 Prime_6A Target_9N fFIaAgi gJeGAfd Congruent left error Normal 811.538
307 72 LeftLarger PercCAExp1 Prime_4N Target_9A cHmjfbC CIGJmFi Incongruent right error Normal 828.1819
307 73 LeftLarger PercCAExp1 Prime_1A Target_4A aDMBKeH mMCgLlh Congruent right correct Normal 979.22
307 74 LeftLarger PercCAExp1 Prime_6N Target_9N cgJDIGH gLliBaD Congruent left error Normal 797.9816
307 75 LeftLarger PercCAExp1 Prime_6A Target_9A IJmMlKD bAmfahM Congruent left error Normal 565.2731
307 76 LeftLarger PercCAExp1 Prime_6N Target_1N mgbiCFG DgbGdKI Incongruent right error Normal 1279.384
307 77 LeftLarger PercCAExp1 Prime_4A Target_4A EHDeJma FbKifcA Congruent right correct Normal 518.5506
307 78 LeftLarger PercCAExp1 Prime_6N Target_6N fBjImLk GAceKkl Congruent left error Normal 440.7159
307 79 LeftLarger PercCAExp1 Prime_6A Target_4A hHBCJGK cfABGJH Incongruent right error Normal 876.7475
307 80 LeftLarger PercCAExp1 Prime_1N Target_9A kECHjJL malhMcD Incongruent right error Normal 1032.918
307 81 LeftSmaller PercCBPrac Prime_6A Target_4N cEAeHBm ALCHGei Incongruent left error Normal 1673.96
307 82 LeftSmaller PercCBPrac Prime_1A Target_1N EiGAKlc GkfgFhB Congruent left correct Normal 4121.752
307 83 LeftSmaller PercCBPrac Prime_9N Target_6N MiHJfdc LikhGJb Congruent right error Normal 792.2184
307 84 LeftSmaller PercCBPrac Prime_4N Target_1N khmijad McAfEHK Congruent left correct Normal 924.784
307 85 LeftSmaller PercCBPrac Prime_9A Target_4A dAJCFki IkfaGBC Incongruent left error Normal 1112.543
307 86 LeftSmaller PercCBPrac Prime_1N Target_9N mgHDLbG MBjekEd Incongruent right correct Normal 510.7203
307 87 LeftSmaller PercCBPrac Prime_1N Target_6N kBlbiEL blEaIkM Incongruent left error Normal 1224.149
307 88 LeftSmaller PercCBPrac Prime_6N Target_4A JgjmHGK imHJgIa Incongruent right correct Normal 612.4924
307 89 LeftSmaller PercCBPrac Prime_1A Target_9A clAbmaF jlCBJhi Incongruent right correct Normal 674.5201
307 90 LeftSmaller PercCBPrac Prime_4A Target_4A dHiaghC CLjflHJ Congruent left correct Normal 657.2168
307 91 LeftSmaller PercCBPrac Prime_6A Target_4A HBMegdb HdDCLKe Incongruent left error Normal 829.8152
307 92 LeftSmaller PercCBPrac Prime_9A Target_6N LkJGmbh mBHgcAE Congruent right error Normal 517.6744
307 93 LeftSmaller PercCBPrac Prime_9A Target_4N gCKHicM fILcMCE Incongruent right correct Normal 1427.033
307 94 LeftSmaller PercCBPrac Prime_4A Target_9N jDHkaAK JfadFkH Incongruent left error Normal 3677.724
307 95 LeftSmaller PercCBPrac Prime_4A Target_9A GmhHCFd BJmMlCD Incongruent left error Normal 603.4732
307 96 LeftSmaller PercCBPrac Prime_4A Target_1N dimJFEg FdAGLmh Congruent left correct Normal 758.4027
307 97 LeftSmaller PercCBExp1 Prime_6N Target_9N daICJmj AkHgiGc Congruent right error Normal 1464.299
307 98 LeftSmaller PercCBExp1 Prime_1A Target_6N efAJHli dceKlFf Incongruent left error Normal 488.7114
307 99 LeftSmaller PercCBExp1 Prime_4A Target_4A jiJdlaG EKglGIa Congruent left correct Normal 490.5276
307 100 LeftSmaller PercCBExp1 Prime_4N Target_6A CLHfchj AMhCbDi Incongruent right correct Normal 977.4471
307 101 LeftSmaller PercCBExp1 Prime_9N Target_6N jLdEeAI Hdlcfbe Congruent right error Normal 1266.455
307 102 LeftSmaller PercCBExp1 Prime_4A Target_4N cJiLkbF lIfGcmL Congruent left correct Normal 590.0301
307 103 LeftSmaller PercCBExp1 Prime_1N Target_4A ChklKgB mIbkCHM Congruent left correct Normal 563.463
307 104 LeftSmaller PercCBExp1 Prime_6A Target_1N LMDhidH BkifCaA Incongruent left error Normal 493.3812
307 105 LeftSmaller PercCBExp1 Prime_4A Target_6N mMkifCh HeDLcMI Incongruent right correct Normal 902.7872
307 106 LeftSmaller PercCBExp1 Prime_1A Target_6A gbjekJd JfmCcAL Incongruent left error Normal 851.8175
307 107 LeftSmaller PercCBExp1 Prime_6A Target_6A keIKaMj dFLbmhD Congruent right error Normal 973.5829
307 108 LeftSmaller PercCBExp1 Prime_1N Target_9A fJMDFmb LAfgbkl Incongruent right correct Normal 1139.184
307 109 LeftSmaller PercCBExp1 Prime_6N Target_1A HbiGMKk HgLeaCi Incongruent left error Normal 684.1188
307 110 LeftSmaller PercCBExp1 Prime_4A Target_1N KCgeALi FmMhDCl Congruent left correct Normal 620.537
307 111 LeftSmaller PercCBExp1 Prime_9A Target_9A FeHiJID BELjKIg Congruent right error Normal 763.7104
307 112 LeftSmaller PercCBExp1 Prime_1A Target_1N HKBeAMI FfjiABE Congruent right error Normal 822.4556
307 113 LeftSmaller PercCBExp1 Prime_6A Target_6N BKGailh FaJIKbh Congruent left correct Normal 559.5389
307 114 LeftSmaller PercCBExp1 Prime_4A Target_9N dFMmfjc bDfadKh Incongruent right correct Normal 1053.574
307 115 LeftSmaller PercCBExp1 Prime_6A Target_9A mgHGFBE habeMkl Congruent left correct Normal 977.1019
307 116 LeftSmaller PercCBExp1 Prime_6N Target_6A bmkjhDK hcaDCki Congruent left correct Normal 902.1169
307 117 LeftSmaller PercCBExp1 Prime_4N Target_1A ciJfkCK aJfDiCk Congruent right error Normal 375.9566
307 118 LeftSmaller PercCBExp1 Prime_4A Target_9A mbfdcaI LfBJhEm Incongruent right correct Normal 1060.258
307 119 LeftSmaller PercCBExp1 Prime_6A Target_1A mcABeMh eBlHiba Incongruent left error Normal 513.8013
307 120 LeftSmaller PercCBExp1 Prime_1N Target_1A DcekFKh DdBmMLA Congruent left correct Normal 471.8438
307 121 LeftSmaller PercCBExp1 Prime_1N Target_4N KIBkjMd hGBCgci Congruent left correct Normal 726.539
307 122 LeftSmaller PercCBExp1 Prime_9N Target_1A JHFACma KfJaGem Incongruent left error Normal 696.4332
307 123 LeftSmaller PercCBExp1 Prime_4A Target_6A hmfiKFE FLECIaD Incongruent right correct Normal 1278.404
307 124 LeftSmaller PercCBExp1 Prime_9A Target_9N mjMliBH lJdHLDm Congruent left correct Normal 969.2885
307 125 LeftSmaller PercCBExp1 Prime_9A Target_6N AFjJdgL cIDhgLH Congruent right error Normal 676.7843
307 126 LeftSmaller PercCBExp1 Prime_1N Target_9N jIlABLE HbfghMd Incongruent left error Normal 641.2589
307 127 LeftSmaller PercCBExp1 Prime_1N Target_1N clAGaFE kMGflHb Congruent right error Normal 1046.064
307 128 LeftSmaller PercCBExp1 Prime_4N Target_4A GHMjKhk kimAJga Congruent left correct Normal 335.7314
307 129 LeftSmaller PercCBExp1 Prime_1N Target_6A dKcaghB DcmGbCH Incongruent left error Normal 1266.731
307 130 LeftSmaller PercCBExp1 Prime_9N Target_4A MbfBdLe JAHdkMI Incongruent right correct Normal 828.3309
307 131 LeftSmaller PercCBExp1 Prime_9N Target_4N aBGMbji AHlbKdI Incongruent left error Normal 733.9843
307 132 LeftSmaller PercCBExp1 Prime_9N Target_9A kdFMBfc AHmDJiE Congruent left correct Normal 819.562
307 133 LeftSmaller PercCBExp1 Prime_4N Target_6N LhGAHdm lfJkhjK Incongruent right correct Normal 503.7051
307 134 LeftSmaller PercCBExp1 Prime_9A Target_4N biAfjKC khHKfdC Incongruent left error Normal 878.3983
307 135 LeftSmaller PercCBExp1 Prime_1A Target_9N bFLmACg jfmibAe Incongruent right correct Normal 1049.308
307 136 LeftSmaller PercCBExp1 Prime_9A Target_6A kDFCIHA lbimKGe Congruent right error Normal 908.9998
307 137 LeftSmaller PercCBExp1 Prime_9A Target_4A MEBhGHl eBMcmdG Incongruent right correct Normal 1075.465
307 138 LeftSmaller PercCBExp1 Prime_1N Target_6N GhkJlfi AcIELme Incongruent left error Normal 610.4534
307 139 LeftSmaller PercCBExp1 Prime_1A Target_4A JEGhfeH KamkgdI Congruent left correct Normal 716.9933
307 140 LeftSmaller PercCBExp1 Prime_6N Target_4A CmaeMhb IeGdJMb Incongruent left error Normal 950.4058
307 141 LeftSmaller PercCBExp1 Prime_9N Target_6A mghFIJE cDLEjel Congruent left correct Normal 909.2148
307 142 LeftSmaller PercCBExp1 Prime_9A Target_1A AmGIkfi CFfEhGl Incongruent left error Normal 732.8713
307 143 LeftSmaller PercCBExp1 Prime_6A Target_4A gleamLG DChJFcM Incongruent right correct Normal 662.0587
307 144 LeftSmaller PercCBExp1 Prime_6N Target_9A cDLiamE kAgFLmE Congruent left correct Normal 912.0961
307 145 LeftSmaller PercCBExp1 Prime_1A Target_4N AkBmMLD JjIBmGk Congruent right error Normal 1228.53
307 146 LeftSmaller PercCBExp1 Prime_4N Target_9N KLBJADb JKIbejF Incongruent left error Normal 554.0161
307 147 LeftSmaller PercCBExp1 Prime_9N Target_1N cdLFiIe GMIEkJi Incongruent left error Normal 966.3604
307 148 LeftSmaller PercCBExp1 Prime_1A Target_9A LcMBdfg hakKjgH Incongruent right correct Normal 454.7911
307 149 LeftSmaller PercCBExp1 Prime_6A Target_9N HEAbfhd LBGabMD Congruent left correct Normal 835.3558
307 150 LeftSmaller PercCBExp1 Prime_4N Target_9A bmfFDKc DcmkEeb Incongruent right correct Normal 1156.505
307 151 LeftSmaller PercCBExp1 Prime_9A Target_1N DjecHkd gLClAdi Incongruent left error Normal 390.3224
307 152 LeftSmaller PercCBExp1 Prime_4A Target_1A Chlamed mDlCLAB Congruent left correct Normal 537.0787
307 153 LeftSmaller PercCBExp1 Prime_4N Target_1N mjALbeK dILaDmM Congruent right error Normal 726.3601
307 154 LeftSmaller PercCBExp1 Prime_6A Target_4N EaehIAj liBIgcH Incongruent left error Normal 856.4126
307 155 LeftSmaller PercCBExp1 Prime_4N Target_4N ELlkmFc gjlGehf Congruent left correct Normal 393.6763
307 156 LeftSmaller PercCBExp1 Prime_6N Target_1N AidakHM HCbmeci Incongruent right correct Normal 550.8474
307 157 LeftSmaller PercCBExp1 Prime_1A Target_1A gJliHKd MGfECJL Congruent left correct Normal 370.4483
307 158 LeftSmaller PercCBExp1 Prime_6N Target_4N KgLAFCk kjehIBG Incongruent left error Normal 330.8514
