sub trial_no group_type block_type prime target mask1 mask2 congruency key_press key_error time_error RT
1 1 LeftSmaller PercIAPrac Prime_1A Target_6A HbjidAm KELGBge Incongruent left correct Normal 1007.173
1 2 LeftSmaller PercIAPrac Prime_6A Target_6A mKgdlae kefGCci Congruent left error Normal 1172.965
1 3 LeftSmaller PercIAPrac Prime_4N Target_9A CLMAlbG DLAmGBi Incongruent right error Normal 1265.01
1 4 LeftSmaller PercIAPrac Prime_4N Target_4N lMbLCEa KJkdIcH Congruent left correct Normal 922.3199
1 5 LeftSmaller PercIAPrac Prime_9A Target_9N KhkbmHD jiAMHED Congruent left error Normal 897.8794
1 6 LeftSmaller PercIAPrac Prime_9N Target_4N eFCldac CAIabgM Incongruent left error Normal 849.5142
1 7 LeftSmaller PercIAPrac Prime_1N Target_6N KaBmgHb FkehdbG Incongruent right error Normal 925.8576
1 8 LeftSmaller PercIAPrac Prime_1N Target_9N cHdClLI EgMDIle Incongruent left correct Normal 679.885
1 9 LeftSmaller PercIAPrac Prime_6A Target_1A IDEMGbj fEGAFMm Incongruent left error Normal 1098.807
1 10 LeftSmaller PercIAPrac Prime_6N Target_4A mFJCajl mGbckFB Incongruent left error Normal 1184.351
1 11 LeftSmaller PercIAPrac Prime_6A Target_4A fFaBJdi eLMHJlI Incongruent right correct Normal 1310.669
1 12 LeftSmaller PercIAPrac Prime_9A Target_6A CDjgMeb caBlKGJ Congruent right correct Normal 768.8283
1 13 LeftSmaller PercIAPrac Prime_6N Target_1A DbCaBFJ kiMaBfL Incongruent left error Normal 579.9989
1 14 LeftSmaller PercIAPrac Prime_4N Target_6A hbBLDeC DGHckBa Incongruent right error Normal 1077.723
1 15 LeftSmaller PercIAPrac Prime_4A Target_6A JLmcaKb DbegAil Incongruent left correct Normal 1116.495
1 16 LeftSmaller PercIAPrac Prime_4A Target_1N IlFAEjb eLAHaKh Congruent left correct Normal 1393.026
1 17 LeftSmaller PercIAExp1 Prime_9N Target_4N KMcCBFi DafAlEb Incongruent left error Normal 750.7607
1 18 LeftSmaller PercIAExp1 Prime_9N Target_6N aCfBmKF gheHmGC Congruent right correct Normal 970.4135
1 19 LeftSmaller PercIAExp1 Prime_6N Target_1A ClMEBdJ CAgLEMf Incongruent right correct Normal 1233.46
1 20 LeftSmaller PercIAExp1 Prime_1N Target_9A adBfcAi dKfmalF Incongruent right error Normal 1622.927
1 21 LeftSmaller PercIAExp1 Prime_6N Target_9N dgGDAhK aIcdCMD Congruent left error Normal 1245.29
1 22 LeftSmaller PercIAExp1 Prime_6A Target_4N daBklJj FhfGIjl Incongruent right correct Normal 1799.402
1 23 LeftSmaller PercIAExp1 Prime_4N Target_9A FMjELAf ecBKham Incongruent left correct Normal 1443.227
1 24 LeftSmaller PercIAExp1 Prime_1N Target_9N eGKaIEm bMBcCLJ Incongruent right error Normal 1449.763
1 25 LeftSmaller PercIAExp1 Prime_4A Target_4N EgHhjLG GiHfleD Congruent left correct Normal 1102.334
1 26 LeftSmaller PercIAExp1 Prime_4A Target_9N GhibJFE CcjIGmi Incongruent right error Normal 837.6169
1 27 LeftSmaller PercIAExp1 Prime_6N Target_9A jcEfhAa dCJkhgD Congruent left error Normal 1079.883
1 28 LeftSmaller PercIAExp1 Prime_9A Target_9A cbDgaCG AGcFKId Congruent left error Normal 1418.077
1 29 LeftSmaller PercIAExp1 Prime_1N Target_6N clLABdg BKbFIeJ Incongruent left correct Normal 1290.386
1 30 LeftSmaller PercIAExp1 Prime_6N Target_4N LfEeBiK bgChEMm Incongruent right correct Normal 1241.179
1 31 LeftSmaller PercIAExp1 Prime_1N Target_4N gmiKELl GehmKLi Congruent left correct Normal 1484.877
1 32 LeftSmaller PercIAExp1 Prime_6A Target_4A khGlMFL kcBlmME Incongruent left error Normal 1017.368
1 33 LeftSmaller PercIAExp1 Prime_1A Target_4A eGhAEkM LBEblFd Congruent right error Normal 1181.248
1 34 LeftSmaller PercIAExp1 Prime_4A Target_9A lGIMbJB ChEAmgL Incongruent left correct Normal 1805.492
1 35 LeftSmaller PercIAExp1 Prime_9A Target_6A KALCbBF lmMJfdb Congruent right correct Normal 1093.835
1 36 LeftSmaller PercIAExp1 Prime_9N Target_1N GlhBDEH gmfiahF Incongruent left error Normal 1392.48
1 37 LeftSmaller PercIAExp1 Prime_1N Target_1A HkcAGID AJfLBgF Congruent right error Normal 1198.057
1 38 LeftSmaller PercIAExp1 Prime_9N Target_1A BbJkFGa CKamcGh Incongruent right correct Normal 2215.077
1 39 LeftSmaller PercIAExp1 Prime_9A Target_1A idGHkAD djGMCeh Incongruent left error Normal 2066.425
1 40 LeftSmaller PercIAExp1 Prime_4A Target_6N KfLBECl MKFkeiG Incongruent left correct Normal 1349.064
1 41 LeftSmaller PercIAExp1 Prime_9N Target_4A aEeALbl HhkeDEd Incongruent left error Normal 1578.505
1 42 LeftSmaller PercIAExp1 Prime_6N Target_6N FilcmfG gImfadh Congruent right correct Normal 1585.255
1 43 LeftSmaller PercIAExp1 Prime_6A Target_9N HLgfGAk BFjAGcd Congruent right correct Normal 1009.428
1 44 LeftSmaller PercIAExp1 Prime_9A Target_9N eJGfIbi cMfJbKh Congruent right correct Normal 989.1822
1 45 LeftSmaller PercIAExp1 Prime_9A Target_4N DAjiHMd mfhgIKc Incongruent left error Normal 1043.045
1 46 LeftSmaller PercIAExp1 Prime_6A Target_1N FfDkAcb dMIkKbj Incongruent left error Normal 1039.106
1 47 LeftSmaller PercIAExp1 Prime_1N Target_6A ImDbcMa eFmCdKa Incongruent right error Normal 1109.544
1 48 LeftSmaller PercIAExp1 Prime_4N Target_6A BigJkMD bliafLC Incongruent right error Normal 1087.379
1 49 LeftSmaller PercIAExp1 Prime_4A Target_1N HCFjklJ DEkcMgi Congruent right error Normal 890.3856
1 50 LeftSmaller PercIAExp1 Prime_4N Target_4N BAjFcDE gJBLdCH Congruent right error Normal 1015.798
1 51 LeftSmaller PercIAExp1 Prime_4N Target_9N AhEmIkf JFIaECb Incongruent left correct Normal 1370.833
1 52 LeftSmaller PercIAExp1 Prime_4N Target_1N MljgHci AGbiefd Congruent left correct Normal 1096.01
1 53 LeftSmaller PercIAExp1 Prime_4A Target_1A fCLeKFi AGiHMJC Congruent right error Normal 801.4636
1 54 LeftSmaller PercIAExp1 Prime_1A Target_6A KGiFmgH ckeGfai Incongruent left correct Normal 886.6532
1 55 LeftSmaller PercIAExp1 Prime_6A Target_6N AJGbgIh KljgMid Congruent right correct Normal 975.3281
1 56 LeftSmaller PercIAExp1 Prime_4N Target_1A clfMbjG JKCmdfM Congruent right error Normal 940.0043
1 57 LeftSmaller PercIAExp1 Prime_6N Target_1N DmcMJjE ELmaDgc Incongruent left error Normal 463.5674
1 58 LeftSmaller PercIAExp1 Prime_9A Target_1N IBMKChF HFkhlKc Incongruent right correct Normal 1018.969
1 59 LeftSmaller PercIAExp1 Prime_1A Target_4N mLKcejk CiLJAIl Congruent left correct Normal 985.4547
1 60 LeftSmaller PercIAExp1 Prime_9N Target_6A bkHiKeJ HkfLFIC Congruent right correct Normal 1411.197
1 61 LeftSmaller PercIAExp1 Prime_6A Target_1A HGlMAhE JgbakHh Incongruent right correct Normal 1326.994
1 62 LeftSmaller PercIAExp1 Prime_4A Target_4A JdfeiBA AceaBCK Congruent right error Normal 1053.271
1 63 LeftSmaller PercIAExp1 Prime_1A Target_1A mckGMBj GIbfBlE Congruent left correct Normal 1178.757
1 64 LeftSmaller PercIAExp1 Prime_9N Target_9N aABdJEk geHClKJ Congruent right correct Normal 1050.052
1 65 LeftSmaller PercIAExp1 Prime_9N Target_9A EkLcCAJ fgkhMLD Congruent right correct Normal 1413.131
1 66 LeftSmaller PercIAExp1 Prime_4N Target_6N MCKAmkH HeLaJEF Incongruent left correct Normal 1322.663
1 67 LeftSmaller PercIAExp1 Prime_6N Target_4A MejhLiG emgabjE Incongruent right correct Normal 1664.122
1 68 LeftSmaller PercIAExp1 Prime_4A Target_6A JbhGEAB HJeKbmc Incongruent right error Normal 1531.667
1 69 LeftSmaller PercIAExp1 Prime_4N Target_4A DaEkAHj dKGHEah Congruent left correct Normal 713.3813
1 70 LeftSmaller PercIAExp1 Prime_1N Target_1N ChJIcak hBKDfkl Congruent left correct Normal 1063.41
1 71 LeftSmaller PercIAExp1 Prime_1A Target_1N eICJgif lGJedCm Congruent right error Normal 795.8501
1 72 LeftSmaller PercIAExp1 Prime_6A Target_6A MaEbgFh mgBhJdC Congruent right correct Normal 1092.885
1 73 LeftSmaller PercIAExp1 Prime_1A Target_6N EiadIJm BAicGja Incongruent left correct Normal 1095.912
1 74 LeftSmaller PercIAExp1 Prime_1A Target_9A ChMBGgI EMdaifD Incongruent left correct Normal 858.398
1 75 LeftSmaller PercIAExp1 Prime_9A Target_6N AlBdjgJ CHJblIA Congruent right correct Normal 922.6894
1 76 LeftSmaller PercIAExp1 Prime_9A Target_4A lMkgIHi gbEJiHe Incongruent right correct Normal 926.4689
1 77 LeftSmaller PercIAExp1 Prime_1N Target_4A EBFIMfL AilIcJa Congruent left correct Normal 879.4074
1 78 LeftSmaller PercIAExp1 Prime_6A Target_9A iJDAIkf eHjJcGD Congruent right correct Normal 1438.827
1 79 LeftSmaller PercIAExp1 Prime_6N Target_6A iHjgcME ILmbMlh Congruent left error Normal 1337.394
1 80 LeftSmaller PercIAExp1 Prime_1A Target_9N CfjBkMm IacLliB Incongruent left correct Normal 1535.402
1 81 LeftLarger PercIBPrac Prime_4N Target_4N AGfcIDM kmfHFig Congruent left error Normal 1621.718
1 82 LeftLarger PercIBPrac Prime_6A Target_4N hbHMcIE BkjEhLA Incongruent left correct Normal 2091.294
1 83 LeftLarger PercIBPrac Prime_9A Target_6N eEMAclk HFeDjJb Congruent right error Normal 1178.767
1 84 LeftLarger PercIBPrac Prime_1N Target_6N jJDbLMk HamILlc Incongruent right correct Normal 1527.949
1 85 LeftLarger PercIBPrac Prime_9N Target_1A hMjFJad eJcHahG Incongruent left correct Normal 1502.12
1 86 LeftLarger PercIBPrac Prime_4N Target_4A feIlFBg jIKEegb Congruent right correct Normal 2153.162
1 87 LeftLarger PercIBPrac Prime_9N Target_4N FcgmMBb hmfHaGB Incongruent left correct Normal 1348
1 88 LeftLarger PercIBPrac Prime_4N Target_6N kilBcCf BAjhECl Incongruent left error Normal 1287.073
1 89 LeftLarger PercIBPrac Prime_1N Target_1A CAblFjK FHcdkDI Congruent right correct Normal 1053.834
1 90 LeftLarger PercIBPrac Prime_1N Target_6A bmAdlIM bFDJAdf Incongruent right correct Normal 1478.134
1 91 LeftLarger PercIBPrac Prime_9N Target_1N JiGfLmh AcIdFgH Incongruent left correct Normal 976.755
1 92 LeftLarger PercIBPrac Prime_1A Target_4A HLIjlig DIcMGgA Congruent right correct Normal 1107.071
1 93 LeftLarger PercIBPrac Prime_4N Target_6A fmEAFJM fhBGAEl Incongruent right correct Normal 1250.977
1 94 LeftLarger PercIBPrac Prime_4A Target_9A hCmGLKB hCGIdlL Incongruent right correct Normal 1761.032
1 95 LeftLarger PercIBPrac Prime_6N Target_4A gcCGkiK JdDlAmb Incongruent left correct Normal 1615.858
1 96 LeftLarger PercIBPrac Prime_6N Target_1N iDMFBKm fLCadEm Incongruent left correct Normal 1084.172
1 97 LeftLarger PercIBExp1 Prime_4N Target_4N lMKEDJf JmgabEG Congruent left error Normal 1497.942
1 98 LeftLarger PercIBExp1 Prime_1A Target_6N JjAfikh CDaGBEK Incongruent left error Normal 1314.435
1 99 LeftLarger PercIBExp1 Prime_6A Target_9A IgjGAmC dHaBfjb Congruent left correct Normal 1520.71
1 100 LeftLarger PercIBExp1 Prime_4A Target_9N mGKEelL efdIgBD Incongruent right correct Normal 972.6077
1 101 LeftLarger PercIBExp1 Prime_1N Target_4N lKJbHFm jdEgDlH Congruent right correct Normal 1297.588
1 102 LeftLarger PercIBExp1 Prime_9N Target_9N AbkIMjd mKJgCEb Congruent left correct Normal 831.1183
1 103 LeftLarger PercIBExp1 Prime_4N Target_6A KmGkhiH lEjmicB Incongruent left error Normal 1122.702
1 104 LeftLarger PercIBExp1 Prime_4A Target_1N DgGhIcM JILcglG Congruent left error Normal 1281.593
1 105 LeftLarger PercIBExp1 Prime_1A Target_1N IJFBmcK jHicdef Congruent right correct Normal 1113.902
1 106 LeftLarger PercIBExp1 Prime_1A Target_6A kifCIhb BKeIcFb Incongruent right correct Normal 1109.374
1 107 LeftLarger PercIBExp1 Prime_1N Target_6N hKjfmDG haHmKLE Incongruent right correct Normal 1761.033
1 108 LeftLarger PercIBExp1 Prime_9N Target_4A KeMdbim AFaIdjC Incongruent left correct Normal 1476.991
1 109 LeftLarger PercIBExp1 Prime_9A Target_4A MIaeidj fBLlhMG Incongruent left correct Normal 1935.436
1 110 LeftLarger PercIBExp1 Prime_4N Target_9N cdgLaie eEhdIfM Incongruent right correct Normal 1218.2
1 111 LeftLarger PercIBExp1 Prime_1A Target_9N KdelbmH JKGLFcj Incongruent right correct Normal 1331.182
1 112 LeftLarger PercIBExp1 Prime_1A Target_4A CMclfhB EfHibKL Congruent right correct Normal 1279.565
1 113 LeftLarger PercIBExp1 Prime_9N Target_6N eEfFDGL aikljBe Congruent right error Normal 1951.543
1 114 LeftLarger PercIBExp1 Prime_9A Target_4N LfIbiGl KMjJBCk Incongruent left correct Normal 1260.035
1 115 LeftLarger PercIBExp1 Prime_1N Target_1A BACmFhf jCEfKHF Congruent left error Normal 1050.561
1 116 LeftLarger PercIBExp1 Prime_6A Target_4A cJAGieB bfcKEGH Incongruent right error Normal 1551.85
1 117 LeftLarger PercIBExp1 Prime_6A Target_1A igmaKJI gBKhEeF Incongruent left correct Normal 1550.001
1 118 LeftLarger PercIBExp1 Prime_9N Target_9A HbJDMcA DCcBIeH Congruent right error Normal 1605.872
1 119 LeftLarger PercIBExp1 Prime_9N Target_1N MELJAbD CDHmkIg Incongruent right error Normal 1423.176
1 120 LeftLarger PercIBExp1 Prime_4A Target_6A jIEDfbC dGJDMIe Incongruent left error Normal 1125.713
1 121 LeftLarger PercIBExp1 Prime_6N Target_9A FIkgedi CciAMba Congruent right error Normal 2085.178
1 122 LeftLarger PercIBExp1 Prime_1N Target_1N lFgbmcH kfDHCMa Congruent left error Normal 1679.353
1 123 LeftLarger PercIBExp1 Prime_9N Target_4N eilHLgM igjFcCK Incongruent left correct Normal 1693.822
1 124 LeftLarger PercIBExp1 Prime_6N Target_9N imGeAMD EgiaCKd Congruent right error Normal 885.013
1 125 LeftLarger PercIBExp1 Prime_1A Target_9A DmLfged lLGFcJH Incongruent left error Normal 1772.031
1 126 LeftLarger PercIBExp1 Prime_9A Target_6N FjbCieg hdDIAFa Congruent left correct Normal 1560.636
1 127 LeftLarger PercIBExp1 Prime_9N Target_6A HglaCEk DCKmiIk Congruent right error Normal 1875.316
1 128 LeftLarger PercIBExp1 Prime_4A Target_6N HkGEbjh KIeDlEh Incongruent left error Normal 1298.257
1 129 LeftLarger PercIBExp1 Prime_9A Target_6A MBHdlDK GkdIAef Congruent left correct Normal 2372.148
1 130 LeftLarger PercIBExp1 Prime_4N Target_6N heEDcHA EfDHldG Incongruent right correct Normal 2067.629
1 131 LeftLarger PercIBExp1 Prime_9A Target_1N MKlmFac gIJldEh Incongruent right error Normal 1596.219
1 132 LeftLarger PercIBExp1 Prime_6A Target_1N jfmbJFl ChicLlB Incongruent right error Normal 1484.657
1 133 LeftLarger PercIBExp1 Prime_6N Target_1N MIkHFKg IJKGFHd Incongruent left correct Normal 1044.463
1 134 LeftLarger PercIBExp1 Prime_4A Target_4A EFGieDm AHEGaDd Congruent right correct Normal 2248.145
1 135 LeftLarger PercIBExp1 Prime_1N Target_9N gkiLGDl lJiAaDF Incongruent right correct Normal 2054.237
1 136 LeftLarger PercIBExp1 Prime_1A Target_1A cMaEdBb MIfmJBg Congruent left error Normal 1376.794
1 137 LeftLarger PercIBExp1 Prime_6A Target_6A daLEJAh bEGFaKm Congruent left correct Normal 1976.852
1 138 LeftLarger PercIBExp1 Prime_4N Target_4A BCgfeIK IjFhaAg Congruent right correct Normal 2570.778
1 139 LeftLarger PercIBExp1 Prime_6N Target_6N EhMGdae gBEkaIi Congruent left correct Normal 1882.088
1 140 LeftLarger PercIBExp1 Prime_1N Target_9A KicgGAk BEehLKk Incongruent right correct Normal 1059.34
1 141 LeftLarger PercIBExp1 Prime_6N Target_1A IBdihKM ecfhlKH Incongruent left correct Normal 1762.894
1 142 LeftLarger PercIBExp1 Prime_6N Target_4A cMEDgif jlKbFhG Incongruent right error Normal 1164.083
1 143 LeftLarger PercIBExp1 Prime_6A Target_4N eMckKIH kFgEDHe Incongruent left correct Normal 951.5231
1 144 LeftLarger PercIBExp1 Prime_9A Target_1A aHLgdBC DhbAKcl Incongruent left correct Normal 1810.413
1 145 LeftLarger PercIBExp1 Prime_1N Target_6A ehHJMcB dMigkbJ Incongruent left error Normal 1186.763
1 146 LeftLarger PercIBExp1 Prime_1N Target_4A MmJeald AgmMGje Congruent right correct Normal 1098.779
1 147 LeftLarger PercIBExp1 Prime_4A Target_1A GHAhKDl bMgkmaB Congruent right correct Normal 1684.38
1 148 LeftLarger PercIBExp1 Prime_9A Target_9N DgMcFJK cDMKALf Congruent left correct Normal 2079.911
1 149 LeftLarger PercIBExp1 Prime_6N Target_4N mfELIAh kGEeDAd Incongruent right error Normal 2607.248
1 150 LeftLarger PercIBExp1 Prime_4N Target_9A DfMabld kKCMLml Incongruent left error Normal 1185.232
1 151 LeftLarger PercIBExp1 Prime_4A Target_4N mHhDbIG mhbiIfB Congruent right correct Normal 1785.415
1 152 LeftLarger PercIBExp1 Prime_4N Target_1N MDfBjlh DMCkiaB Congruent right correct Normal 1221.716
1 153 LeftLarger PercIBExp1 Prime_6A Target_6N bDAakml JbHdFca Congruent left correct Normal 1410.158
1 154 LeftLarger PercIBExp1 Prime_4N Target_1A BGMAlkg mhJagjl Congruent left error Normal 2262.866
1 155 LeftLarger PercIBExp1 Prime_9N Target_1A gDhaKEd gMcjdmE Incongruent right error Normal 1018.418
1 156 LeftLarger PercIBExp1 Prime_9A Target_9A FAhJgEm aHbABEl Congruent left correct Normal 1030.441
1 157 LeftLarger PercIBExp1 Prime_6N Target_6A lMHcbGF mlgJkBa Congruent left correct Normal 932.499
1 158 LeftLarger PercIBExp1 Prime_6A Target_9N DflekIJ BfiMbgG Congruent right error Normal 1455.063
1 159 LeftLarger PercIBExp1 Prime_4A Target_9A aMlKibk LJDMfFa Incongruent left error Normal 1159.598
1 160 LeftLarger PercIBExp1 Prime_1A Target_4N iBJIhdD HGafIjk Congruent right correct Normal 1189.822
2 1 LeftSmaller PercIAPrac Prime_1A Target_9N KbBgMCH lAadCDL Incongruent left correct Normal 2639.269
2 2 LeftSmaller PercIAPrac Prime_6A Target_6A KcfdbHk HmEiIaJ Congruent left error Normal 2074.628
2 3 LeftSmaller PercIAPrac Prime_1A Target_6N aigMEhJ HIiFcME Incongruent right error Normal 2142.825
2 4 LeftSmaller PercIAPrac Prime_9A Target_9A fdkHFhe JgbkfmG Congruent left error Normal 603.4415
2 5 LeftSmaller PercIAPrac Prime_9A Target_1N ecCLbda eCMcaJj Incongruent left error Normal 510.5155
2 6 LeftSmaller PercIAPrac Prime_4N Target_6A jGLcBel dmcjBbH Incongruent left correct Normal 1353.006
2 7 LeftSmaller PercIAPrac Prime_1N Target_6A AchgEjk haHEfJB Incongruent right error Normal 1137.962
2 8 LeftSmaller PercIAPrac Prime_6A Target_6N IelmiAj eficAIg Congruent left error Normal 1501.854
2 9 LeftSmaller PercIAPrac Prime_6A Target_4A LeEHAjb lfmkKaC Incongruent right correct Normal 4354.207
2 10 LeftSmaller PercIAPrac Prime_6N Target_9A KkehFiC BJmfKAh Congruent left error Normal 1288.53
2 11 LeftSmaller PercIAPrac Prime_9A Target_4N IGFmLDK icALdMh Incongruent left error Normal 1076.582
2 12 LeftSmaller PercIAPrac Prime_6A Target_4N mFIHcaj dGaKjlh Incongruent right correct Early 62.60103
2 13 LeftSmaller PercIAPrac Prime_6N Target_4N AgMfDFd AMEefjK Incongruent left error Normal 1716.39
2 14 LeftSmaller PercIAPrac Prime_1N Target_1A GlbchKC IDBdgeb Congruent left correct Normal 961.793
2 15 LeftSmaller PercIAPrac Prime_6A Target_1N jBHCDFk MGJHfhj Incongruent right correct Normal 1363.087
2 16 LeftSmaller PercIAPrac Prime_6N Target_6A EIcjLDB bfMmIhA Congruent right correct Normal 1797.524
2 17 LeftSmaller PercIAExp1 Prime_1N Target_1N KcEFhme FgJfhdE Congruent left correct Normal 299.7336
2 18 LeftSmaller PercIAExp1 Prime_1N Target_4A eBEICLd mlifjcI Congruent right error Normal 244.8241
2 19 LeftSmaller PercIAExp1 Prime_9N Target_6N IkAKcBD JAkKhHa Congruent right correct Normal 291.5148
2 20 LeftSmaller PercIAExp1 Prime_1A Target_9N aLmFcfh bDfjGeJ Incongruent left correct Early 78.16794
2 21 LeftSmaller PercIAExp1 Prime_6A Target_6N iLhlGMD LbGIdkC Congruent right correct Normal 342.9486
2 22 LeftSmaller PercIAExp1 Prime_4N Target_4N hdfEieG kgKjCmb Congruent right error Early 25.19479
2 23 LeftSmaller PercIAExp1 Prime_9A Target_4N dCcjJfm GlcAmkE Incongruent left error Normal 464.9013
2 24 LeftSmaller PercIAExp1 Prime_4N Target_9N hgaEMeB FdHMmJe Incongruent right error Normal 757.4489
2 25 LeftSmaller PercIAExp1 Prime_9A Target_6A lDAmHIK kACFlJh Congruent left error Normal 309.8936
2 26 LeftSmaller PercIAExp1 Prime_4A Target_4A KkleMbd cGbFECH Congruent right error Normal 314.4119
2 27 LeftSmaller PercIAExp1 Prime_1A Target_4N aljCiFd ilbeKgI Congruent left correct Normal 547.2125
2 28 LeftSmaller PercIAExp1 Prime_6A Target_6A FdfGADg GahMDbd Congruent right correct Normal 597.2495
2 29 LeftSmaller PercIAExp1 Prime_4A Target_9N GLHAcjJ deibDGl Incongruent right error Normal 502.9318
2 30 LeftSmaller PercIAExp1 Prime_6A Target_4A iEfHmgK GALEFMa Incongruent right correct Normal 383.2219
2 31 LeftSmaller PercIAExp1 Prime_4A Target_9A mHAgbiG EelDfJL Incongruent left correct Normal 1101.516
2 32 LeftSmaller PercIAExp1 Prime_6N Target_4N GcKmHfA CcLDMhb Incongruent left error Normal 474.698
2 33 LeftSmaller PercIAExp1 Prime_1N Target_4N aIkfFEm FcDElmJ Congruent right error Normal 160.6068
2 34 LeftSmaller PercIAExp1 Prime_4N Target_6A DCaEAlL fLKJaiB Incongruent right error Normal 405.5392
2 35 LeftSmaller PercIAExp1 Prime_1A Target_1A gjidMKH mkgCial Congruent left correct Normal 372.3336
2 36 LeftSmaller PercIAExp1 Prime_4N Target_1A DEjICJA mfClEaK Congruent left correct Normal 614.9899
2 37 LeftSmaller PercIAExp1 Prime_6A Target_9N BMmEClF lMFamgG Congruent right correct Normal 568.7834
2 38 LeftSmaller PercIAExp1 Prime_4N Target_6N FgjEIli mIeFDjd Incongruent right error Normal 395.0746
2 39 LeftSmaller PercIAExp1 Prime_9N Target_9A FBJEkAI KCAbkBh Congruent left error Normal 4285.178
2 40 LeftSmaller PercIAExp1 Prime_1N Target_6N bGKHIli KBAHhkJ Incongruent right error Normal 1173.096
2 41 LeftSmaller PercIAExp1 Prime_6N Target_9A LAjmkid ImJaHce Congruent right correct Normal 597.0576
2 42 LeftSmaller PercIAExp1 Prime_4A Target_1N EGCAhfF aBchDjH Congruent left correct Normal 488.1074
2 43 LeftSmaller PercIAExp1 Prime_9N Target_4N JIeMbHA eJiflcb Incongruent right correct Normal 454.1339
2 44 LeftSmaller PercIAExp1 Prime_1A Target_1N lDAiFmB fjDklGK Congruent right error Normal 343.0074
2 45 LeftSmaller PercIAExp1 Prime_6N Target_6N gIBMjKJ JbKDLEl Congruent left error Normal 340.5031
2 46 LeftSmaller PercIAExp1 Prime_9A Target_9N DILBKEM ficACJd Congruent right correct Normal 896.5088
2 47 LeftSmaller PercIAExp1 Prime_6A Target_1A hBeIDdK ijfcmFC Incongruent right correct Normal 3495.392
2 48 LeftSmaller PercIAExp1 Prime_9A Target_1A bcmJIhe aCFbeiB Incongruent left error Normal 448.4113
2 49 LeftSmaller PercIAExp1 Prime_1A Target_6A cmAgajb lbgfmkD Incongruent right error Normal 518.7188
2 50 LeftSmaller PercIAExp1 Prime_4A Target_6A efFjGdB bJcIdgi Incongruent right error Normal 241.3396
2 51 LeftSmaller PercIAExp1 Prime_6A Target_9A lCDkeEL HdEhDjl Congruent right correct Normal 535.6649
2 52 LeftSmaller PercIAExp1 Prime_6N Target_9N lafHcdA CjiFADK Congruent left error Normal 286.585
2 53 LeftSmaller PercIAExp1 Prime_6N Target_6A ECjdAme chlJAFm Congruent right correct Normal 239.5703
2 54 LeftSmaller PercIAExp1 Prime_9N Target_1N kMgCKie aHgAihB Incongruent left error Normal 380.4108
2 55 LeftSmaller PercIAExp1 Prime_9A Target_4A hBMJaGm LgdBKcG Incongruent left error Early 95.59567
2 56 LeftSmaller PercIAExp1 Prime_9N Target_1A CedDghG ilMEAHg Incongruent right correct Normal 509.5455
2 57 LeftSmaller PercIAExp1 Prime_9N Target_4A jdilMeE BIfMALk Incongruent left error Normal 280.3708
2 58 LeftSmaller PercIAExp1 Prime_9N Target_9N hHeKMfc DcChgdf Congruent right correct Normal 3395.521
2 59 LeftSmaller PercIAExp1 Prime_9A Target_9A ILFlmKG dhiJfmB Congruent left error Normal 251.4775
2 60 LeftSmaller PercIAExp1 Prime_1N Target_6A ecglKdE lKDAaCH Incongruent right error Normal 456.2432
2 61 LeftSmaller PercIAExp1 Prime_1N Target_9N KFeDGma kjbBeGf Incongruent right error Normal 226.6566
2 62 LeftSmaller PercIAExp1 Prime_9A Target_1N AEdKJiB ciBhIGk Incongruent right correct Normal 463.3119
2 63 LeftSmaller PercIAExp1 Prime_4N Target_1N kIcJBeg KajHLIm Congruent left correct Early 28.50346
2 64 LeftSmaller PercIAExp1 Prime_6N Target_1A GLBIlAd cImjFDB Incongruent left error Normal 765.6373
2 65 LeftSmaller PercIAExp1 Prime_4N Target_4A mGbJdjA CbflKkI Congruent left correct Normal 634.5137
2 66 LeftSmaller PercIAExp1 Prime_4A Target_1A kbKBGIA IfGmaEb Congruent right error Normal 404.6343
2 67 LeftSmaller PercIAExp1 Prime_6A Target_4N Makhcme AlCHJeE Incongruent left error Normal 499.5279
2 68 LeftSmaller PercIAExp1 Prime_9A Target_6N geBMEiH jBHFCbf Congruent right correct Normal 427.6852
2 69 LeftSmaller PercIAExp1 Prime_6A Target_1N AdlEgKH mcMDKJI Incongruent left error Normal 610.3893
2 70 LeftSmaller PercIAExp1 Prime_4A Target_6N EcKJGag DfbEJdc Incongruent right error Normal 1241.125
2 71 LeftSmaller PercIAExp1 Prime_1A Target_4A AChKgfE aFbMjke Congruent left correct Normal 496.7218
2 72 LeftSmaller PercIAExp1 Prime_6N Target_1N mFMjkeh IEDajdJ Incongruent left error Normal 1364.022
2 73 LeftSmaller PercIAExp1 Prime_1N Target_9A BkMihaA HdKbFfL Incongruent right error Normal 472.2257
2 74 LeftSmaller PercIAExp1 Prime_1A Target_9A DHBcaEM hbHIGam Incongruent right error Normal 513.2501
2 75 LeftSmaller PercIAExp1 Prime_4N Target_9A maeCMHf kKdJcLC Incongruent right error Normal 503.6782
2 76 LeftSmaller PercIAExp1 Prime_6N Target_4A kALdHDB FAcMHhi Incongruent left error Normal 451.3321
2 77 LeftSmaller PercIAExp1 Prime_9N Target_6A aIfbDEA BEJGhKF Congruent right correct Normal 454.2781
2 78 LeftSmaller PercIAExp1 Prime_4A Target_4N HlciMJA BMGIahg Congruent left correct Normal 552.4344
2 79 LeftSmaller PercIAExp1 Prime_1N Target_1A AceCjkh ckAabLB Congruent left correct Normal 397.4924
2 80 LeftSmaller PercIAExp1 Prime_1A Target_6N bjiLEBC JeDijCd Incongruent right error Normal 406.1209
2 81 LeftLarger PercIBPrac Prime_4N Target_9N belDAaH mAjBcLf Incongruent left error Normal 741.3249
2 82 LeftLarger PercIBPrac Prime_6N Target_1N CKFcDGE CAEJehg Incongruent right error Normal 723.0423
2 83 LeftLarger PercIBPrac Prime_1N Target_6A BKFbDLd aLjbglG Incongruent left error Normal 634.7175
2 84 LeftLarger PercIBPrac Prime_9N Target_4N LlIgdei ClegfFH Incongruent left correct Normal 332.5178
2 85 LeftLarger PercIBPrac Prime_9N Target_4A IjgCcfM jfLHCam Incongruent right error Normal 333.1669
2 86 LeftLarger PercIBPrac Prime_1N Target_1N CjceIJB eBELcMk Congruent right correct Normal 926.4653
2 87 LeftLarger PercIBPrac Prime_6N Target_9N MgCdLEA FlfikIH Congruent right error Normal 608.5128
2 88 LeftLarger PercIBPrac Prime_4N Target_6N IeHAkjh JjBCaHG Incongruent left error Normal 681.5291
2 89 LeftLarger PercIBPrac Prime_4A Target_1A AElefhM miFadHg Congruent left error Normal 144.8042
2 90 LeftLarger PercIBPrac Prime_1N Target_6N hJlbDIB kFEMJhG Incongruent left error Normal 408.116
2 91 LeftLarger PercIBPrac Prime_1N Target_9N AcmIbDj AKGLdiH Incongruent right correct Normal 540.8263
2 92 LeftLarger PercIBPrac Prime_4N Target_9A bHjKJCD gLDCmIK Incongruent right correct Normal 696.6302
2 93 LeftLarger PercIBPrac Prime_4A Target_6A hMfgiGl Icdmgij Incongruent left error Normal 397.1739
2 94 LeftLarger PercIBPrac Prime_4N Target_4A HBEdcFI McgHIEe Congruent left error Normal 267.8209
2 95 LeftLarger PercIBPrac Prime_9A Target_4N cFgDGCi EFjKekg Incongruent left correct Normal 575.9778
2 96 LeftLarger PercIBPrac Prime_4N Target_4N ImKiDaG iJkcFge Congruent right correct Normal 607.8026
2 97 LeftLarger PercIBExp1 Prime_6A Target_6N blmiDEf ekHhlJM Congruent right error Normal 272.9292
2 98 LeftLarger PercIBExp1 Prime_1A Target_4A cHhgAFD CecjmgE Congruent right correct Normal 154.8752
2 99 LeftLarger PercIBExp1 Prime_4A Target_1N CcbeHaF EGgBFMd Congruent left error Early 91.26494
2 100 LeftLarger PercIBExp1 Prime_6N Target_9N hagLEKG IcglFCf Congruent right error Normal 319.6291
2 101 LeftLarger PercIBExp1 Prime_9A Target_6N iCjecbI cGKmJFM Congruent right error Early 46.41176
2 102 LeftLarger PercIBExp1 Prime_6N Target_6N FfmCbLA hfadCHG Congruent left correct Normal 293.1308
2 103 LeftLarger PercIBExp1 Prime_4N Target_6A CEjJBFG IDbHcAh Incongruent right correct Normal 4117.025
2 104 LeftLarger PercIBExp1 Prime_6A Target_4A GgImCec lLhaeEj Incongruent left correct Normal 323.07
2 105 LeftLarger PercIBExp1 Prime_6N Target_6A gCFKGci jdMFLim Congruent right error Normal 1771.807
2 106 LeftLarger PercIBExp1 Prime_4N Target_4A dHbGhLI AHCbjaK Congruent right correct Early 76.46965
2 107 LeftLarger PercIBExp1 Prime_6A Target_4N imEbgMB hlIJDmg Incongruent left correct Early 86.19531
2 108 LeftLarger PercIBExp1 Prime_1N Target_4N kaHBfgj aAImiKH Congruent left error Normal 334.6041
2 109 LeftLarger PercIBExp1 Prime_9N Target_4A ilILKjD AHMEBlG Incongruent right error Early 91.10047
2 110 LeftLarger PercIBExp1 Prime_4A Target_9A FmejhMd fjgKEFC Incongruent left error Early 62.82793
2 111 LeftLarger PercIBExp1 Prime_1A Target_4N ahgimfj DgGFbAa Congruent left error Normal 2773.171
2 112 LeftLarger PercIBExp1 Prime_6A Target_1N egfiLDh DgFAGBc Incongruent left correct Normal 293.178
2 113 LeftLarger PercIBExp1 Prime_4A Target_1A kAdLFEg CleEJbf Congruent right correct Normal 181.9641
2 114 LeftLarger PercIBExp1 Prime_1A Target_9A fdIekEl LhGJfCA Incongruent right correct Normal 143.1181
2 115 LeftLarger PercIBExp1 Prime_9N Target_1N jdGfmFK JFjIAak Incongruent left correct Normal 229.803
2 116 LeftLarger PercIBExp1 Prime_6A Target_9N mEeCHKI iaEjhHg Congruent left correct Normal 270.2287
2 117 LeftLarger PercIBExp1 Prime_1A Target_1N gmAEBal bEDdBHf Congruent right correct Normal 2299.682
2 118 LeftLarger PercIBExp1 Prime_1N Target_6N JMIlbjf gAFEbei Incongruent right correct Normal 446.3352
2 119 LeftLarger PercIBExp1 Prime_6N Target_4A ilLMmej bKmcAkg Incongruent right error Normal 345.6287
2 120 LeftLarger PercIBExp1 Prime_9A Target_1N LdbkfaC cbMlagI Incongruent left correct Normal 313.0443
2 121 LeftLarger PercIBExp1 Prime_6A Target_9A iGjmcek EkbLMHI Congruent right error Normal 258.4111
2 122 LeftLarger PercIBExp1 Prime_9A Target_4N edJBFCg KIlkfLD Incongruent right error Late 5131.613
2 123 LeftLarger PercIBExp1 Prime_4N Target_1A HejImDf EiGjdJA Congruent right correct Normal 749.8698
2 124 LeftLarger PercIBExp1 Prime_1A Target_1A iadGhEI jbKLmDc Congruent right correct Normal 261.9439
2 125 LeftLarger PercIBExp1 Prime_9N Target_1A aeMEAHL fiJEaFB Incongruent left correct Normal 220.7024
2 126 LeftLarger PercIBExp1 Prime_9N Target_4N ileaABG IHdgecF Incongruent right error Normal 181.3941
2 127 LeftLarger PercIBExp1 Prime_9A Target_4A kLeFHJm faHkDji Incongruent right error Normal 225.6827
2 128 LeftLarger PercIBExp1 Prime_6N Target_1A dfmJcHh BdbDGlE Incongruent right error Normal 348.8649
2 129 LeftLarger PercIBExp1 Prime_1N Target_9N ILKJCfc fgGjdEI Incongruent left error Normal 506.6539
2 130 LeftLarger PercIBExp1 Prime_4A Target_4N dJgeBGh ceGDlLk Congruent right correct Normal 231.1961
2 131 LeftLarger PercIBExp1 Prime_6N Target_9A GhdbMLA EbDLHAJ Congruent left correct Normal 594.234
2 132 LeftLarger PercIBExp1 Prime_1N Target_9A EBiGIga cbFBJKD Incongruent left error Normal 1877.402
2 133 LeftLarger PercIBExp1 Prime_4A Target_6A jDiKmJg AHGfijk Incongruent left error Normal 313.1249
2 134 LeftLarger PercIBExp1 Prime_9A Target_6A JaGghel iGHCFjD Congruent right error Normal 154.5016
2 135 LeftLarger PercIBExp1 Prime_4N Target_9A fiFbjMC LcCmiHJ Incongruent right correct Normal 233.6033
2 136 LeftLarger PercIBExp1 Prime_4N Target_4N gJemKCd KcbFHGk Congruent left error Normal 190.7295
2 137 LeftLarger PercIBExp1 Prime_4N Target_6N kCBmMDi iIHakEf Incongruent right correct Early 29.93103
2 138 LeftLarger PercIBExp1 Prime_1N Target_4A AlGjeKC cMjCGhL Congruent right correct Early 34.04317
2 139 LeftLarger PercIBExp1 Prime_1A Target_9N EFlmafg efDmHBg Incongruent right correct Normal 372.3322
2 140 LeftLarger PercIBExp1 Prime_9A Target_9N JgCDjkE eAHEcdj Congruent left correct Normal 318.7912
2 141 LeftLarger PercIBExp1 Prime_6N Target_1N iLcjJEF dilbKGk Incongruent left correct Normal 615.3034
2 142 LeftLarger PercIBExp1 Prime_9N Target_6A IElbCfd dEefjKH Congruent right error Normal 219.2336
2 143 LeftLarger PercIBExp1 Prime_4A Target_6N hMKdEck CdaJmcG Incongruent left error Normal 245.8485
2 144 LeftLarger PercIBExp1 Prime_6N Target_4N gCdjcai hHecmBk Incongruent right error Normal 362.1144
2 145 LeftLarger PercIBExp1 Prime_1A Target_6N KhJieck keCIhla Incongruent left error Normal 450.5012
2 146 LeftLarger PercIBExp1 Prime_9A Target_9A fjmEldh bKfdheF Congruent left correct Early 29.87989
2 147 LeftLarger PercIBExp1 Prime_4N Target_1N mkheAgM JIgLCkF Congruent right correct Normal 221.547
2 148 LeftLarger PercIBExp1 Prime_9N Target_9A gDBGMcm DebLEaI Congruent left correct Normal 4272.092
2 149 LeftLarger PercIBExp1 Prime_9N Target_9N BCfgDlE eLacAhG Congruent right error Normal 324.3557
2 150 LeftLarger PercIBExp1 Prime_4A Target_4A AkgbEje FcbhImi Congruent right correct Early 24.96508
2 151 LeftLarger PercIBExp1 Prime_6A Target_6A EckDGia khABDGm Congruent left correct Early 30.26956
2 152 LeftLarger PercIBExp1 Prime_6A Target_1A HFdejEa hbDHgcJ Incongruent left correct Normal 527.9802
2 153 LeftLarger PercIBExp1 Prime_4A Target_9N bmBheAa GHDJMdm Incongruent left error Normal 453.6574
2 154 LeftLarger PercIBExp1 Prime_1N Target_6A LiEHJmK caEAkHe Incongruent left error Normal 253.449
2 155 LeftLarger PercIBExp1 Prime_4N Target_9N LIiCjFa cJmFDEk Incongruent right correct Normal 102.984
2 156 LeftLarger PercIBExp1 Prime_1N Target_1N HBLlEki fLGjDak Congruent left error Early 29.84974
2 157 LeftLarger PercIBExp1 Prime_9A Target_1A bgiHmhA adKbfmA Incongruent right error Normal 402.4245
2 158 LeftLarger PercIBExp1 Prime_9N Target_6N EfcdLaA JEibHFd Congruent left correct Early 79.36965
2 159 LeftLarger PercIBExp1 Prime_1A Target_6A flEHjic mhdiDFa Incongruent left error Normal 196.4174
2 160 LeftLarger PercIBExp1 Prime_1N Target_1A jBMKCaf elHDhmJ Congruent right correct Normal 1227.921
3 1 LeftLarger PercIAPrac Prime_9N Target_4N mbjCDJH DFcCAhm Incongruent left correct Normal 1494.704
3 2 LeftLarger PercIAPrac Prime_4A Target_4N AHheDCB lEDGaeM Congruent left error Normal 990.5959
3 3 LeftLarger PercIAPrac Prime_4A Target_9N AJlfMme FBlKHMc Incongruent left error Late 6194.542
3 4 LeftLarger PercIAPrac Prime_4A Target_9A fEBKIjH dafBhiJ Incongruent right correct Normal 1457.016
3 5 LeftLarger PercIAPrac Prime_9A Target_1A DehimEB hADCHIE Incongruent left correct Normal 1617.315
3 6 LeftLarger PercIAPrac Prime_1N Target_9N KlhJMHf MIaGdJF Incongruent right correct Normal 1867.749
3 7 LeftLarger PercIAPrac Prime_1N Target_1A BHailJC HelbKaI Congruent left error Normal 1291.71
3 8 LeftLarger PercIAPrac Prime_4N Target_9A KmHeklA CfhebkF Incongruent right correct Normal 1109.124
3 9 LeftLarger PercIAPrac Prime_6A Target_4A imDLJgl KakifCA Incongruent right error Normal 1751.566
3 10 LeftLarger PercIAPrac Prime_6N Target_9N jCMfDmB gdCLjIi Congruent left correct Normal 1321.421
3 11 LeftLarger PercIAPrac Prime_6N Target_9A ihKJBck haCIKcG Congruent right error Normal 1881.932
3 12 LeftLarger PercIAPrac Prime_6N Target_6N GEhajmF lBDhkMF Congruent right error Normal 1727.13
3 13 LeftLarger PercIAPrac Prime_4N Target_4N kilbHGj BJiChKD Congruent left error Normal 448.6682
3 14 LeftLarger PercIAPrac Prime_6A Target_6A eAmKlJB AiIbhLa Congruent left correct Normal 1132.242
3 15 LeftLarger PercIAPrac Prime_1A Target_1A eIFbChD HbdLCIh Congruent right correct Normal 785.6658
3 16 LeftLarger PercIAPrac Prime_4A Target_4A gdlBHCG LHBKkDh Congruent right correct Normal 916.2854
3 17 LeftLarger PercIAExp1 Prime_4N Target_6N IiFJcCl KaHCBbj Incongruent right correct Normal 749.7366
3 18 LeftLarger PercIAExp1 Prime_9A Target_6A BHKcfka efJBcGm Congruent left correct Normal 472.1986
3 19 LeftLarger PercIAExp1 Prime_1N Target_6N dfCEGIj dCHcLhG Incongruent left error Normal 1575.893
3 20 LeftLarger PercIAExp1 Prime_1A Target_4A kFGmgDJ cJfLFij Congruent right correct Normal 532.4323
3 21 LeftLarger PercIAExp1 Prime_4N Target_9N BaIDMil iKcdMHJ Incongruent right correct Normal 1323.359
3 22 LeftLarger PercIAExp1 Prime_6N Target_1A gbAFiaM JEFDeaG Incongruent right error Normal 801.8479
3 23 LeftLarger PercIAExp1 Prime_4N Target_6A gicfhIC LHIBmEf Incongruent left error Normal 966.7326
3 24 LeftLarger PercIAExp1 Prime_6N Target_1N LFHGjlb jIFEkMB Incongruent right error Normal 1217.374
3 25 LeftLarger PercIAExp1 Prime_4A Target_1A ahlGBLe GjiIJgh Congruent right correct Normal 1077.635
3 26 LeftLarger PercIAExp1 Prime_9A Target_4A ajBCbGi GgKfdjE Incongruent right error Normal 1153.522
3 27 LeftLarger PercIAExp1 Prime_6N Target_9N AmeLdIK bKBcdmA Congruent right error Normal 1127.833
3 28 LeftLarger PercIAExp1 Prime_4A Target_6A LcCAIge jJEaCML Incongruent right correct Normal 1105.742
3 29 LeftLarger PercIAExp1 Prime_6A Target_9A mheFkJb Kjmilak Congruent left correct Normal 555.8011
3 30 LeftLarger PercIAExp1 Prime_6A Target_6N alHhcIM hfLDAeb Congruent left correct Normal 985.6107
3 31 LeftLarger PercIAExp1 Prime_1A Target_9A jdghGHB LlGgKEc Incongruent left error Normal 1430.891
3 32 LeftLarger PercIAExp1 Prime_9A Target_4N eKBDiGj bCJdILA Incongruent right error Normal 772.4592
3 33 LeftLarger PercIAExp1 Prime_6A Target_6A BLFmDla lBJfhgI Congruent right error Normal 1040.134
3 34 LeftLarger PercIAExp1 Prime_9N Target_1N KiIGelJ bFlhJKm Incongruent right error Normal 927.0541
3 35 LeftLarger PercIAExp1 Prime_4A Target_9A cfLKFhJ ibDlmJc Incongruent left error Normal 1338.253
3 36 LeftLarger PercIAExp1 Prime_6N Target_6A jKMBCif aBfbLJF Congruent right error Normal 1126.667
3 37 LeftLarger PercIAExp1 Prime_6A Target_9N EGdAJMi iHmAIFa Congruent right error Normal 1075.483
3 38 LeftLarger PercIAExp1 Prime_9A Target_1N mFHAjge fmEGDlF Incongruent left correct Normal 1057.147
3 39 LeftLarger PercIAExp1 Prime_6A Target_4N AEkcjJI GkBidMg Incongruent right error Normal 1127.339
3 40 LeftLarger PercIAExp1 Prime_6N Target_9A KCLIhig bHBLFEg Congruent right error Normal 1521.96
3 41 LeftLarger PercIAExp1 Prime_4A Target_1N eIfbhcC fHJGAmi Congruent right correct Normal 1448.11
3 42 LeftLarger PercIAExp1 Prime_1A Target_9N GMbchCi GIFcDCK Incongruent right correct Normal 1131.025
3 43 LeftLarger PercIAExp1 Prime_1N Target_9N dbhfLmE EKBbcGA Incongruent right correct Normal 919.7964
3 44 LeftLarger PercIAExp1 Prime_4N Target_9A geLEGAC jBiHleC Incongruent left error Normal 656.523
3 45 LeftLarger PercIAExp1 Prime_6N Target_4A lJIKEFg dlgDHfh Incongruent left correct Normal 1216.913
3 46 LeftLarger PercIAExp1 Prime_9A Target_9N MEmJlHb ljbdfia Congruent left correct Normal 1171.463
3 47 LeftLarger PercIAExp1 Prime_4A Target_4A BhJALib mgkiDFd Congruent right correct Normal 866.2603
3 48 LeftLarger PercIAExp1 Prime_6A Target_4A CDliFBG giDHhIL Incongruent right error Normal 1787.315
3 49 LeftLarger PercIAExp1 Prime_9N Target_9A jEiMBch CmMhBfK Congruent right error Normal 1354.662
3 50 LeftLarger PercIAExp1 Prime_1N Target_1N dCEhBFA BKbfcmA Congruent left error Normal 756.437
3 51 LeftLarger PercIAExp1 Prime_4A Target_4N kEHbMDi aCgMIfE Congruent right correct Normal 915.5882
3 52 LeftLarger PercIAExp1 Prime_4N Target_4N IdFmeki IFeaiKc Congruent right correct Normal 753.4215
3 53 LeftLarger PercIAExp1 Prime_4N Target_4A JCFBDHj cBMDlJf Congruent left error Normal 1095.896
3 54 LeftLarger PercIAExp1 Prime_1A Target_6A bafLAEG AaMiIfK Incongruent right correct Normal 842.9156
3 55 LeftLarger PercIAExp1 Prime_4A Target_6N hIDMagd GELjmhg Incongruent left error Normal 1366.739
3 56 LeftLarger PercIAExp1 Prime_6N Target_6N mbBEILC KlaDfAJ Congruent left correct Normal 765.9008
3 57 LeftLarger PercIAExp1 Prime_9N Target_9N mhLkJFE egJkcFC Congruent right error Normal 992.8875
3 58 LeftLarger PercIAExp1 Prime_1N Target_9A Bghacbi hdKAacC Incongruent left error Normal 1124.989
3 59 LeftLarger PercIAExp1 Prime_1A Target_1N djgbBLC IAJmMfE Congruent right correct Normal 861.2422
3 60 LeftLarger PercIAExp1 Prime_9N Target_1A DlecgfF BciKfmD Incongruent left correct Normal 660.2299
3 61 LeftLarger PercIAExp1 Prime_9N Target_4A bhGMAci iDHGlLm Incongruent right error Normal 1115.885
3 62 LeftLarger PercIAExp1 Prime_1N Target_1A DmebJGM lkCjEJF Congruent left error Normal 1099.206
3 63 LeftLarger PercIAExp1 Prime_1N Target_4A BMHeCfl DEifMlK Congruent left error Normal 808.6322
3 64 LeftLarger PercIAExp1 Prime_9A Target_9A KkHFBID hMbafHK Congruent left correct Normal 697.4127
3 65 LeftLarger PercIAExp1 Prime_4N Target_1N KkBilaF bFLgiBE Congruent right correct Normal 559.9762
3 66 LeftLarger PercIAExp1 Prime_9N Target_6N MliDBkJ gJmlDhE Congruent right error Normal 656.8194
3 67 LeftLarger PercIAExp1 Prime_9N Target_4N emgBiKH jbAclfI Incongruent left correct Normal 812.0604
3 68 LeftLarger PercIAExp1 Prime_9A Target_1A DcfiCAB BaikIJK Incongruent left correct Normal 733.5166
3 69 LeftLarger PercIAExp1 Prime_1N Target_6A GeFAEKL LGKIHjf Incongruent left error Normal 780.3476
3 70 LeftLarger PercIAExp1 Prime_1A Target_4N hJjIkME DcfCkbl Congruent right correct Normal 571.9689
3 71 LeftLarger PercIAExp1 Prime_9N Target_6A imbDGlF kGLBHld Congruent left correct Normal 719.739
3 72 LeftLarger PercIAExp1 Prime_4N Target_1A gaBlhmf kAgcaFm Congruent right correct Normal 868.3177
3 73 LeftLarger PercIAExp1 Prime_6A Target_1N CjaKbhM GMKhEjF Incongruent left correct Normal 782.013
3 74 LeftLarger PercIAExp1 Prime_1A Target_1A LedJhDG bLBJglf Congruent left error Normal 769.415
3 75 LeftLarger PercIAExp1 Prime_9A Target_6N hDiGeBL CeDKaBG Congruent right error Normal 665.5357
3 76 LeftLarger PercIAExp1 Prime_4A Target_9N MmefdcI Ljdcefg Incongruent right correct Normal 496.3953
3 77 LeftLarger PercIAExp1 Prime_6N Target_4N ECmhKlB MebEhdG Incongruent right error Normal 721.3039
3 78 LeftLarger PercIAExp1 Prime_1N Target_4N hcBJgIC ladbfAE Congruent left error Normal 512.1852
3 79 LeftLarger PercIAExp1 Prime_6A Target_1A eBcjHLb MAaiCec Incongruent left correct Normal 412.0401
3 80 LeftLarger PercIAExp1 Prime_1A Target_6N HEiDLcd aAJDLlh Incongruent left error Normal 682.1842
3 81 LeftSmaller PercIBPrac Prime_4A Target_6A dimaglc kmlHCAM Incongruent right error Normal 577.0771
3 82 LeftSmaller PercIBPrac Prime_6N Target_6N gcJjfaA AbjiIdl Congruent left error Normal 1154.36
3 83 LeftSmaller PercIBPrac Prime_4N Target_6N MfEKFmD KfabJCk Incongruent left correct Normal 667.5469
3 84 LeftSmaller PercIBPrac Prime_6N Target_6A AdFImKG cmfehDB Congruent right correct Normal 805.8449
3 85 LeftSmaller PercIBPrac Prime_1N Target_1N aBGIklc kBIalfD Congruent left correct Normal 955.4061
3 86 LeftSmaller PercIBPrac Prime_6A Target_9N HDJKdiB BgkMleJ Congruent right correct Normal 480.2018
3 87 LeftSmaller PercIBPrac Prime_1N Target_9A MBcKfCj CMcHDAL Incongruent right error Normal 682.7416
3 88 LeftSmaller PercIBPrac Prime_1A Target_9N jilAFHC IFeLdhA Incongruent left correct Normal 767.9135
3 89 LeftSmaller PercIBPrac Prime_1A Target_9A dJihAfK cefijdF Incongruent left correct Normal 688.5559
3 90 LeftSmaller PercIBPrac Prime_9N Target_1N lEcBdJm ikBamMb Incongruent left error Normal 861.5743
3 91 LeftSmaller PercIBPrac Prime_6N Target_4A LHakKFj MabBLcI Incongruent right correct Normal 683.0859
3 92 LeftSmaller PercIBPrac Prime_6N Target_1N KdmEcBC iIJMKbg Incongruent left error Normal 676.064
3 93 LeftSmaller PercIBPrac Prime_4A Target_1A lEcdKkj iCbDLKF Congruent left correct Normal 815.6504
3 94 LeftSmaller PercIBPrac Prime_4N Target_4A ElaDHef CiEKeDM Congruent left correct Normal 1071.454
3 95 LeftSmaller PercIBPrac Prime_4A Target_4A kGhfcJE gahMElj Congruent right error Normal 1305.144
3 96 LeftSmaller PercIBPrac Prime_1A Target_4A FbEBDdK CIFaBAE Congruent right error Normal 1086.871
3 97 LeftSmaller PercIBExp1 Prime_9N Target_4A klaAKIM IkiBbAH Incongruent right correct Normal 649.8692
3 98 LeftSmaller PercIBExp1 Prime_9N Target_1A aCJELiH hAmfbkC Incongruent right correct Normal 596.8714
3 99 LeftSmaller PercIBExp1 Prime_6N Target_9N eLhEFcC JlIGefc Congruent right correct Normal 834.1953
3 100 LeftSmaller PercIBExp1 Prime_1N Target_6N FDAkgHL cedJCja Incongruent right error Normal 669.7142
3 101 LeftSmaller PercIBExp1 Prime_4N Target_4N jeMcgmE amhFCAH Congruent left correct Normal 559.7739
3 102 LeftSmaller PercIBExp1 Prime_6N Target_9A mjEKMLl kamehJA Congruent right correct Normal 815.1974
3 103 LeftSmaller PercIBExp1 Prime_1N Target_1N jmDGfLi GMHaAeD Congruent left correct Normal 496.903
3 104 LeftSmaller PercIBExp1 Prime_6N Target_4N LckIfCj cgIbeKM Incongruent right correct Normal 822.4271
3 105 LeftSmaller PercIBExp1 Prime_6A Target_6N GmKJbkf HEGFcDm Congruent left error Normal 769.7104
3 106 LeftSmaller PercIBExp1 Prime_1A Target_6N lJEHkaI BHgJCKj Incongruent left correct Normal 661.5721
3 107 LeftSmaller PercIBExp1 Prime_1A Target_4A dJFklme cgBLKIJ Congruent left correct Normal 466.3111
3 108 LeftSmaller PercIBExp1 Prime_9A Target_9N FLAKjEm lbgIcfk Congruent left error Normal 919.5201
3 109 LeftSmaller PercIBExp1 Prime_6A Target_1N DkMfKAL dbMLlhe Incongruent left error Normal 795.5577
3 110 LeftSmaller PercIBExp1 Prime_1A Target_1A HMjkIhf DjigmcJ Congruent right error Normal 644.9742
3 111 LeftSmaller PercIBExp1 Prime_4A Target_9A MmkAKIl icGkJEh Incongruent right error Normal 922.4828
3 112 LeftSmaller PercIBExp1 Prime_9N Target_9A HLdmfhG Hgdlibf Congruent right correct Normal 1015.534
3 113 LeftSmaller PercIBExp1 Prime_4A Target_1A EmeGblk iejbHGM Congruent left correct Normal 1052.84
3 114 LeftSmaller PercIBExp1 Prime_4N Target_1N gKeliFD LdKImfD Congruent left correct Normal 949.7942
3 115 LeftSmaller PercIBExp1 Prime_4N Target_1A IhkJDFa kilbJmc Congruent left correct Normal 930.868
3 116 LeftSmaller PercIBExp1 Prime_4N Target_6N dhbIKek bkDiegM Incongruent right error Normal 598.904
3 117 LeftSmaller PercIBExp1 Prime_4A Target_9N hfAjMkg GLgKFMA Incongruent right error Normal 750.8128
3 118 LeftSmaller PercIBExp1 Prime_6A Target_4N jkdlGFB fBdblmh Incongruent right correct Normal 808.95
3 119 LeftSmaller PercIBExp1 Prime_1A Target_6A DiJdLkF ELIijal Incongruent left correct Normal 697.5466
3 120 LeftSmaller PercIBExp1 Prime_1A Target_9N GcmjdFh FdHLhMK Incongruent right error Normal 741.8574
3 121 LeftSmaller PercIBExp1 Prime_9A Target_1A mdeFkAj BACDkaK Incongruent left error Normal 988.8929
3 122 LeftSmaller PercIBExp1 Prime_4A Target_6N mDIbfKh jcBAeJK Incongruent left correct Normal 813.6255
3 123 LeftSmaller PercIBExp1 Prime_1N Target_4A BFJHIAf GKCglce Congruent right error Normal 1019.732
3 124 LeftSmaller PercIBExp1 Prime_6A Target_9N ElmkLBM eHiAJaI Congruent right correct Normal 770.4399
3 125 LeftSmaller PercIBExp1 Prime_1A Target_1N DgkJGaF dabImfD Congruent left correct Normal 786.6203
3 126 LeftSmaller PercIBExp1 Prime_4N Target_4A gLGMFBm ieDlJmf Congruent left correct Normal 733.3926
3 127 LeftSmaller PercIBExp1 Prime_6A Target_9A IEemhfg hLjHIie Congruent right correct Normal 802.0706
3 128 LeftSmaller PercIBExp1 Prime_9A Target_6A hcbjMdl LgJflcd Congruent right correct Normal 999.5419
3 129 LeftSmaller PercIBExp1 Prime_9N Target_6N dMClafk CidJbBa Congruent right correct Normal 1032.209
3 130 LeftSmaller PercIBExp1 Prime_9A Target_6N lKJBCmk IacBEJf Congruent left error Normal 870.9853
3 131 LeftSmaller PercIBExp1 Prime_9A Target_9A DlhijKE mIFifHC Congruent left error Normal 927.9124
3 132 LeftSmaller PercIBExp1 Prime_6A Target_1A cfDmjkI eLgdmIk Incongruent left error Normal 923.5976
3 133 LeftSmaller PercIBExp1 Prime_6A Target_6A BmEeaDG EcgkMJB Congruent right correct Normal 686.2552
3 134 LeftSmaller PercIBExp1 Prime_1A Target_9A eGlcFiC MEaJfhm Incongruent left correct Normal 1171.048
3 135 LeftSmaller PercIBExp1 Prime_6N Target_6N FJEbjaI kFaAcBb Congruent left error Normal 1288.982
3 136 LeftSmaller PercIBExp1 Prime_1N Target_1A fibEcdK GjEeJBA Congruent left correct Normal 1789.886
3 137 LeftSmaller PercIBExp1 Prime_9N Target_6A AaJkche AGJLKjl Congruent right correct Normal 836.9623
3 138 LeftSmaller PercIBExp1 Prime_9A Target_1N FIJmeLB aDjfdAL Incongruent right correct Normal 866.3745
3 139 LeftSmaller PercIBExp1 Prime_6N Target_1N bhcMkAF JbeLDim Incongruent right correct Normal 1114.708
3 140 LeftSmaller PercIBExp1 Prime_1A Target_4N elAaIbC laLBEIe Congruent left correct Normal 1049.274
3 141 LeftSmaller PercIBExp1 Prime_6A Target_4A bCIFhKm eMgfKJD Incongruent left error Normal 1000.013
3 142 LeftSmaller PercIBExp1 Prime_4N Target_9A JDIbCja GhMHmla Incongruent right error Normal 774.8686
3 143 LeftSmaller PercIBExp1 Prime_9A Target_4A lhLJEbA AdDkJHb Incongruent left error Normal 767.0529
3 144 LeftSmaller PercIBExp1 Prime_9N Target_1N aLHgDMF JMalHAf Incongruent left error Normal 789.2322
3 145 LeftSmaller PercIBExp1 Prime_9A Target_4N JfjFGCE DmALbck Incongruent right correct Normal 900.1522
3 146 LeftSmaller PercIBExp1 Prime_1N Target_9A KABjEki CgbdcIe Incongruent left correct Normal 683.4749
3 147 LeftSmaller PercIBExp1 Prime_1N Target_9N jdfLKbg bKHeElC Incongruent left correct Normal 862.8898
3 148 LeftSmaller PercIBExp1 Prime_1N Target_4N BCEJeMF FmDiAjB Congruent right error Normal 654.8039
3 149 LeftSmaller PercIBExp1 Prime_1N Target_6A eIKJmDf JcClfmE Incongruent left correct Normal 823.5074
3 150 LeftSmaller PercIBExp1 Prime_9N Target_4N aHjiMBk eJgfILc Incongruent left error Normal 931.2634
3 151 LeftSmaller PercIBExp1 Prime_4A Target_1N ehgMaiK FLmIbig Congruent right error Normal 628.927
3 152 LeftSmaller PercIBExp1 Prime_4A Target_6A BmbgLJG cLCEDjk Incongruent right error Normal 823.6894
3 153 LeftSmaller PercIBExp1 Prime_4A Target_4N hbdcFIk FKmhJca Congruent left correct Normal 920.5193
3 154 LeftSmaller PercIBExp1 Prime_6N Target_6A JGdeCLi hDElafI Congruent left error Normal 1281.365
3 155 LeftSmaller PercIBExp1 Prime_4A Target_4A bfkJAKF JcCiblf Congruent right error Normal 861.1596
3 156 LeftSmaller PercIBExp1 Prime_6N Target_1A KIGiEgk AjIJgGH Incongruent right correct Normal 722.8349
3 157 LeftSmaller PercIBExp1 Prime_4N Target_9N GHhaliJ CJlFAMe Incongruent right error Normal 1420.616
3 158 LeftSmaller PercIBExp1 Prime_6N Target_4A fbLlKiD mIeEgfl Incongruent left error Normal 815.315
3 159 LeftSmaller PercIBExp1 Prime_9N Target_9N lAIdHmL jaIgemD Congruent left error Normal 891.8314
3 160 LeftSmaller PercIBExp1 Prime_4N Target_6A alFhdDj JMGbkKE Incongruent left correct Normal 726.1554
4 1 LeftLarger PercIAPrac Prime_1N Target_6N bmLMGkE EmAgaLc Incongruent left error Normal 3541.722
4 2 LeftLarger PercIAPrac Prime_9A Target_9A DjFfkaM JdlbBeG Congruent right error Normal 1374.733
4 3 LeftLarger PercIAPrac Prime_1A Target_1A aLchlCA GHmLiEj Congruent left error Normal 982.9756
4 4 LeftLarger PercIAPrac Prime_4N Target_4A gkGFial lmcLFHh Congruent left error Normal 2332.245
4 5 LeftLarger PercIAPrac Prime_4N Target_6A lLmGFAg jeIGiJm Incongruent left error Normal 1161.311
4 6 LeftLarger PercIAPrac Prime_1N Target_9A egHblAf KflAHeB Incongruent left error Normal 744.0343
4 7 LeftLarger PercIAPrac Prime_9N Target_6N eKgkjJH mhFaKbi Congruent left correct Normal 906.7739
4 8 LeftLarger PercIAPrac Prime_9N Target_4N FlaceGi djCJBgi Incongruent right error Normal 924.5167
4 9 LeftLarger PercIAPrac Prime_4N Target_6N aLckBgm GgMfLIF Incongruent right correct Normal 588.1897
4 10 LeftLarger PercIAPrac Prime_9A Target_6N IjGCHch gDdKMEA Congruent right error Normal 706.3522
4 11 LeftLarger PercIAPrac Prime_6A Target_4A JmEhAaI LGmficK Incongruent left correct Normal 782.2865
4 12 LeftLarger PercIAPrac Prime_6N Target_4N eajKIcF MLjgBmK Incongruent left correct Normal 913.3319
4 13 LeftLarger PercIAPrac Prime_6N Target_6A AieFHgh DiBaIMC Congruent left correct Normal 1173.775
4 14 LeftLarger PercIAPrac Prime_9A Target_4N AekGcLB GJcFjkm Incongruent right error Normal 628.0629
4 15 LeftLarger PercIAPrac Prime_9N Target_9A BDCGLfH iDFhcjd Congruent left correct Normal 699.8572
4 16 LeftLarger PercIAPrac Prime_4A Target_6A MehDilc EdCfIlA Incongruent left error Normal 714.6275
4 17 LeftLarger PercIAExp1 Prime_9A Target_4A LEFDBcd KDkbCGA Incongruent right error Normal 1135.195
4 18 LeftLarger PercIAExp1 Prime_4N Target_6N beAmdIj jKkEcCG Incongruent left error Normal 1035.982
4 19 LeftLarger PercIAExp1 Prime_1N Target_1N GkiCbEA KhaILFc Congruent right correct Normal 1081.468
4 20 LeftLarger PercIAExp1 Prime_9A Target_1N LCKlJeA KMhGLjC Incongruent right error Normal 655.3519
4 21 LeftLarger PercIAExp1 Prime_6A Target_6A DiEMKIb ALjGChm Congruent left correct Normal 588.3587
4 22 LeftLarger PercIAExp1 Prime_4A Target_4A JlBaMcF mJlicgE Congruent right correct Normal 1253.803
4 23 LeftLarger PercIAExp1 Prime_9A Target_6A jlcLeIf FfGbkAE Congruent left correct Normal 1063.638
4 24 LeftLarger PercIAExp1 Prime_6N Target_4N bFIghLm cEAjfJK Incongruent right error Normal 950.9946
4 25 LeftLarger PercIAExp1 Prime_1N Target_4A GbfCLaD kFHDLbl Congruent left error Normal 825.3594
4 26 LeftLarger PercIAExp1 Prime_1N Target_4N dBKIaJh iHgMIGm Congruent left error Normal 701.9189
4 27 LeftLarger PercIAExp1 Prime_6A Target_4N mGfChHD BMEihfg Incongruent left correct Normal 854.0995
4 28 LeftLarger PercIAExp1 Prime_9N Target_9A kcFGDCb jJgacfK Congruent left correct Normal 1026.272
4 29 LeftLarger PercIAExp1 Prime_4A Target_9N CeDLGIK lgCmfkM Incongruent left error Normal 1557.799
4 30 LeftLarger PercIAExp1 Prime_6N Target_6N MCEaAhm KFabihg Congruent left correct Normal 685.9244
4 31 LeftLarger PercIAExp1 Prime_9N Target_6N hDLIfil GICkjHA Congruent left correct Normal 702.0538
4 32 LeftLarger PercIAExp1 Prime_1A Target_1N kFGlJLc MdfaHBK Congruent right correct Normal 737.4865
4 33 LeftLarger PercIAExp1 Prime_1A Target_4A fhFKgdm CdjeaFc Congruent left error Normal 795.6584
4 34 LeftLarger PercIAExp1 Prime_6A Target_1N jMLDEBf DigCFJH Incongruent right error Normal 735.5683
4 35 LeftLarger PercIAExp1 Prime_6N Target_6A kEilCAK CejbIlK Congruent left correct Normal 621.1068
4 36 LeftLarger PercIAExp1 Prime_1N Target_9N AmiBGda LdgcelM Incongruent right correct Normal 671.455
4 37 LeftLarger PercIAExp1 Prime_4N Target_1N ljJDKiF fIAcKeL Congruent right correct Normal 742.9724
4 38 LeftLarger PercIAExp1 Prime_4N Target_9A hEcjliB GgfDieL Incongruent left error Normal 832.3862
4 39 LeftLarger PercIAExp1 Prime_9A Target_6N IGiCcDK BDkafLC Congruent left correct Normal 743.6976
4 40 LeftLarger PercIAExp1 Prime_1N Target_1A ChmDbdB lEbDaMC Congruent right correct Normal 494.284
4 41 LeftLarger PercIAExp1 Prime_9N Target_1A kjdlEhK jbHKJhk Incongruent right error Normal 568.1696
4 42 LeftLarger PercIAExp1 Prime_9N Target_1N jeHDlmk mIDdAKE Incongruent right error Normal 558.6487
4 43 LeftLarger PercIAExp1 Prime_4N Target_9N EdCgFLB HEkcaBi Incongruent left error Normal 653.0098
4 44 LeftLarger PercIAExp1 Prime_6N Target_1A ilcFmHj AfjhbCe Incongruent right error Normal 479.5644
4 45 LeftLarger PercIAExp1 Prime_6N Target_4A lCDJhcK GMfDegi Incongruent right error Normal 778.7107
4 46 LeftLarger PercIAExp1 Prime_9A Target_9A bahkeBi kAMmaEc Congruent left correct Normal 718.9087
4 47 LeftLarger PercIAExp1 Prime_4N Target_4N ILFlBfA ajJciCF Congruent right correct Normal 612.6281
4 48 LeftLarger PercIAExp1 Prime_9N Target_9N MKLGBlH HmgaEDi Congruent left correct Normal 627.8056
4 49 LeftLarger PercIAExp1 Prime_4A Target_1A mbiGkCI diMKCFL Congruent right correct Normal 528.0137
4 50 LeftLarger PercIAExp1 Prime_4A Target_9A gLidhCA LlfKkDi Incongruent left error Normal 502.0889
4 51 LeftLarger PercIAExp1 Prime_6A Target_1A HGifBbC EjJLMkC Incongruent right error Normal 597.6013
4 52 LeftLarger PercIAExp1 Prime_4A Target_4N caHAdjC cGfidlh Congruent right correct Normal 726.9287
4 53 LeftLarger PercIAExp1 Prime_1A Target_6A iGBFhLc HkACgeh Incongruent left error Normal 709.3461
4 54 LeftLarger PercIAExp1 Prime_6A Target_9A EjJgDBc jliHALd Congruent left correct Normal 695.3945
4 55 LeftLarger PercIAExp1 Prime_9A Target_4N dAFbeKJ lCacDEk Incongruent right error Normal 685.8155
4 56 LeftLarger PercIAExp1 Prime_9N Target_4N KEBJFfe cDCfEkG Incongruent right error Normal 550.2584
4 57 LeftLarger PercIAExp1 Prime_6N Target_9A EhmMGCc cJGhEma Congruent left correct Normal 699.6006
4 58 LeftLarger PercIAExp1 Prime_4A Target_6N HjGJhmK lJLFaHA Incongruent left error Normal 766.945
4 59 LeftLarger PercIAExp1 Prime_4N Target_1A adKDEHG aiJGfhC Congruent right correct Normal 537.7714
4 60 LeftLarger PercIAExp1 Prime_1N Target_6N GalIFcH BjdeCEM Incongruent left error Normal 606.6922
4 61 LeftLarger PercIAExp1 Prime_1N Target_9A iLcJMlB aMEeCmc Incongruent left error Normal 742.4429
4 62 LeftLarger PercIAExp1 Prime_6N Target_9N ChLbieg eGDihEd Congruent left correct Normal 656.4195
4 63 LeftLarger PercIAExp1 Prime_9A Target_1A FmBacIA AgBcfhE Incongruent right error Normal 567.0648
4 64 LeftLarger PercIAExp1 Prime_1A Target_9N mDcgEiH eECMfAk Incongruent left error Normal 594.5116
4 65 LeftLarger PercIAExp1 Prime_1N Target_6A hAjgaCK JAHlBjh Incongruent left error Normal 828.1886
4 66 LeftLarger PercIAExp1 Prime_1A Target_1A BaAbElj AlEMgDF Congruent right correct Normal 614.6053
4 67 LeftLarger PercIAExp1 Prime_6A Target_4A kdKmeFf eLJClbG Incongruent right error Normal 687.2795
4 68 LeftLarger PercIAExp1 Prime_4N Target_6A FdCMEmB JBlgaEA Incongruent left error Normal 644.7824
4 69 LeftLarger PercIAExp1 Prime_4A Target_1N kIcmKFg KDmLdGB Congruent right correct Normal 569.8959
4 70 LeftLarger PercIAExp1 Prime_9N Target_6A JeDhbmd ceBGiMm Congruent left correct Normal 568.2652
4 71 LeftLarger PercIAExp1 Prime_6A Target_9N mAJidFe iLJDkMC Congruent left correct Normal 698.052
4 72 LeftLarger PercIAExp1 Prime_1A Target_6N KdAmglf BfbIgmc Incongruent left error Normal 836.2675
4 73 LeftLarger PercIAExp1 Prime_6A Target_6N bDfaGEM aEIGiKc Congruent left correct Normal 599.0099
4 74 LeftLarger PercIAExp1 Prime_6N Target_1N DjCBabJ cGLgCjB Incongruent right error Normal 576.7335
4 75 LeftLarger PercIAExp1 Prime_9N Target_4A bHhkCGf fbilkgj Incongruent right error Normal 613.7793
4 76 LeftLarger PercIAExp1 Prime_4N Target_4A LlBiKJh gAFMJbE Congruent right correct Normal 545.3874
4 77 LeftLarger PercIAExp1 Prime_1A Target_9A dcfJmgC FBhldIg Incongruent left error Normal 651.504
4 78 LeftLarger PercIAExp1 Prime_4A Target_6A BcEJCLi mAJeLCc Incongruent left error Normal 679.7603
4 79 LeftLarger PercIAExp1 Prime_1A Target_4N HjDEkAI dcDHkMa Congruent right correct Normal 774.5991
4 80 LeftLarger PercIAExp1 Prime_9A Target_9N HEAhmce bahemJD Congruent right error Normal 562.8971
4 81 LeftSmaller PercIBPrac Prime_6N Target_6A aLCfDAJ IFlmMdH Congruent right correct Normal 940.6428
4 82 LeftSmaller PercIBPrac Prime_4A Target_6A IdHkhal HGjmICA Incongruent right error Normal 511.374
4 83 LeftSmaller PercIBPrac Prime_6N Target_9N gkeJGah dDAhGkI Congruent right correct Normal 854.5398
4 84 LeftSmaller PercIBPrac Prime_1N Target_9N cahjCJg cbJFfig Incongruent right error Normal 503.1861
4 85 LeftSmaller PercIBPrac Prime_4N Target_9N aBihFHJ bHJDkjm Incongruent right error Normal 592.1236
4 86 LeftSmaller PercIBPrac Prime_6N Target_4N JBAmMLh BJiLabA Incongruent left error Normal 726.0591
4 87 LeftSmaller PercIBPrac Prime_4N Target_1A FiDlhLk KJDdHaI Congruent left correct Normal 628.3612
4 88 LeftSmaller PercIBPrac Prime_9N Target_4N liIemDa mgMAGLJ Incongruent left error Normal 889.7537
4 89 LeftSmaller PercIBPrac Prime_1N Target_6N lfDjHFE mjkKEhI Incongruent right error Normal 509.681
4 90 LeftSmaller PercIBPrac Prime_1N Target_9A ajFKkAE FEkGHIe Incongruent right error Normal 399.2389
4 91 LeftSmaller PercIBPrac Prime_1A Target_6N ilJBFdA fAiIFmG Incongruent right error Normal 569.6673
4 92 LeftSmaller PercIBPrac Prime_4A Target_9N kheGmlM AKHdLFh Incongruent right error Normal 491.5876
4 93 LeftSmaller PercIBPrac Prime_4N Target_1N CHkhiDg iGAMgIK Congruent left correct Normal 588.6307
4 94 LeftSmaller PercIBPrac Prime_9N Target_4A KBCiAgF IKfBhbL Incongruent right correct Normal 803.574
4 95 LeftSmaller PercIBPrac Prime_9N Target_9A kGKeJHh LMFfkKc Congruent right correct Normal 429.7178
4 96 LeftSmaller PercIBPrac Prime_6A Target_9N cHbhMAf dahBjJb Congruent right correct Normal 534.3976
4 97 LeftSmaller PercIBExp1 Prime_4A Target_9A kDGbMBi igGaBjD Incongruent right error Normal 483.2432
4 98 LeftSmaller PercIBExp1 Prime_6A Target_1N BbcdFCH fciFdDE Incongruent left error Normal 585.8915
4 99 LeftSmaller PercIBExp1 Prime_1N Target_6N iCEFKhd kCmehEl Incongruent right error Normal 429.3531
4 100 LeftSmaller PercIBExp1 Prime_1A Target_4N HgAiebI LafJDbC Congruent left correct Normal 773.1108
4 101 LeftSmaller PercIBExp1 Prime_6N Target_4N emkKCcb GcIkECB Incongruent left error Normal 590.0319
4 102 LeftSmaller PercIBExp1 Prime_4N Target_1N kBHbMhC kGLhbFc Congruent left correct Normal 618.5937
4 103 LeftSmaller PercIBExp1 Prime_1N Target_4A BHCIlam IFmegDj Congruent left correct Normal 655.8806
4 104 LeftSmaller PercIBExp1 Prime_9N Target_4N EIJjaKF jiKcdLC Incongruent left error Normal 706.5727
4 105 LeftSmaller PercIBExp1 Prime_4A Target_6A bkLgJdj ELCHBAb Incongruent right error Normal 455.3652
4 106 LeftSmaller PercIBExp1 Prime_4A Target_1N DdFLEgA jmGEhMB Congruent left correct Normal 690.4056
4 107 LeftSmaller PercIBExp1 Prime_4N Target_9A IjdLlga EbeajCF Incongruent right error Normal 558.9173
4 108 LeftSmaller PercIBExp1 Prime_4N Target_6N DKeadCL imFbAKl Incongruent right error Normal 590.4357
4 109 LeftSmaller PercIBExp1 Prime_9A Target_9A gCBDlEa eAgdMJb Congruent right correct Normal 518.6837
4 110 LeftSmaller PercIBExp1 Prime_1A Target_4A FfCGkcE jgBbHCa Congruent left correct Normal 577.0861
4 111 LeftSmaller PercIBExp1 Prime_6A Target_4N FLAfaCE ljdfAFD Incongruent left error Normal 689.4254
4 112 LeftSmaller PercIBExp1 Prime_4A Target_4N iIfBbLJ acCdAlL Congruent left correct Normal 654.6532
4 113 LeftSmaller PercIBExp1 Prime_4N Target_4N MGjbFIH jiaIGAD Congruent left correct Normal 514.5253
4 114 LeftSmaller PercIBExp1 Prime_9A Target_1A FlieBLD eacfEli Incongruent left error Normal 641.0138
4 115 LeftSmaller PercIBExp1 Prime_1N Target_9A JmKABdg jdCgfHk Incongruent right error Normal 538.9902
4 116 LeftSmaller PercIBExp1 Prime_4A Target_6N EkMKLfe LFgIcaE Incongruent right error Normal 816.1419
4 117 LeftSmaller PercIBExp1 Prime_6N Target_1A IDMHfEi HKJGaAC Incongruent left error Normal 508.9588
4 118 LeftSmaller PercIBExp1 Prime_1N Target_6A gmbKLGI hKgCdFl Incongruent right error Normal 493.8486
4 119 LeftSmaller PercIBExp1 Prime_6A Target_9N bGEcFgL kmJKHDC Congruent right correct Normal 585.8547
4 120 LeftSmaller PercIBExp1 Prime_9A Target_6A McdeJbD jkEhlHd Congruent right correct Normal 723.068
4 121 LeftSmaller PercIBExp1 Prime_9N Target_6A FKiBhla HGKgked Congruent right correct Normal 534.2614
4 122 LeftSmaller PercIBExp1 Prime_1A Target_6A LmgMJhK bABjChI Incongruent right error Late 27642.56
4 123 LeftSmaller PercIBExp1 Prime_1A Target_6N iaKElIG geChBmi Incongruent right error Normal 809.0796
4 124 LeftSmaller PercIBExp1 Prime_4N Target_4A FMfaKEk IaKmlgc Congruent left correct Normal 631.3994
4 125 LeftSmaller PercIBExp1 Prime_9N Target_9A GkBKAbi JBbhAlI Congruent right correct Normal 476.9336
4 126 LeftSmaller PercIBExp1 Prime_6A Target_6N FhmAkJa FaGflHh Congruent right correct Normal 586.4918
4 127 LeftSmaller PercIBExp1 Prime_6N Target_1N cmkhJIG jAGkKdJ Incongruent left error Normal 651.1682
4 128 LeftSmaller PercIBExp1 Prime_1N Target_1A JHIEdGc amfJAEe Congruent left correct Normal 494.2105
4 129 LeftSmaller PercIBExp1 Prime_1A Target_1A mHDljAk HfGlILD Congruent left correct Normal 520.2373
4 130 LeftSmaller PercIBExp1 Prime_9N Target_6N IlfmdEc DdaLBIG Congruent right correct Normal 611.9277
4 131 LeftSmaller PercIBExp1 Prime_1A Target_1N GBhbgCl MljJDEA Congruent left correct Normal 640.4056
4 132 LeftSmaller PercIBExp1 Prime_6N Target_9A DbaGHid DBElcmH Congruent right correct Normal 439.2627
4 133 LeftSmaller PercIBExp1 Prime_6A Target_4A FGIDKcm Gbgckaf Incongruent left error Normal 570.1834
4 134 LeftSmaller PercIBExp1 Prime_6N Target_6N KBeAjEG fEIgjFL Congruent right correct Normal 554.3544
4 135 LeftSmaller PercIBExp1 Prime_1A Target_9N DBCgdEa fkjbElJ Incongruent right error Normal 522.8988
4 136 LeftSmaller PercIBExp1 Prime_9N Target_4A JKFGlgm JaAmCiL Incongruent left error Normal 735.8977
4 137 LeftSmaller PercIBExp1 Prime_4N Target_9N GdJChIj fcegadb Incongruent right error Normal 620.8624
4 138 LeftSmaller PercIBExp1 Prime_1N Target_9N HidFAgb elKcGhd Incongruent right error Normal 572.6407
4 139 LeftSmaller PercIBExp1 Prime_9A Target_6N lKHFEDf aAFEBiH Congruent right correct Normal 585.7247
4 140 LeftSmaller PercIBExp1 Prime_1N Target_1N EbGDlHe JbKaedF Congruent left correct Normal 592.7694
4 141 LeftSmaller PercIBExp1 Prime_6N Target_4A IbedfgH MHGdChE Incongruent left error Normal 659.9458
4 142 LeftSmaller PercIBExp1 Prime_9N Target_9N jGMHDLk eBcHAdL Congruent right correct Normal 533.1305
4 143 LeftSmaller PercIBExp1 Prime_6A Target_6A hjfLJKD KjaEdFl Congruent right correct Normal 533.9102
4 144 LeftSmaller PercIBExp1 Prime_4N Target_1A AcfECkl AfheBdD Congruent left correct Normal 663.3409
4 145 LeftSmaller PercIBExp1 Prime_6A Target_9A MFLgjka geBjLGl Congruent right correct Normal 487.2493
4 146 LeftSmaller PercIBExp1 Prime_6A Target_1A BIELGmf iJMclmK Incongruent left error Normal 671.4356
4 147 LeftSmaller PercIBExp1 Prime_1N Target_4N GEaiJbK GJghMIb Congruent left correct Normal 528.0881
4 148 LeftSmaller PercIBExp1 Prime_9A Target_9N cmKDlLA ljDgiHA Congruent right correct Normal 484.0133
4 149 LeftSmaller PercIBExp1 Prime_4N Target_6A iDCKjhb cfieaCj Incongruent right error Normal 593.4412
4 150 LeftSmaller PercIBExp1 Prime_6N Target_9N BDigCmf fbaBMkF Congruent right correct Normal 510.119
4 151 LeftSmaller PercIBExp1 Prime_9N Target_1N GlDgjiE afiKLhI Incongruent left error Normal 586.5389
4 152 LeftSmaller PercIBExp1 Prime_4A Target_4A hKgCEbD aHMdjbg Congruent left correct Normal 573.5238
4 153 LeftSmaller PercIBExp1 Prime_9N Target_1A lDFimGc aJiEDeL Incongruent left error Normal 528.0171
4 154 LeftSmaller PercIBExp1 Prime_4A Target_9N DihjkFf dKBhkmE Incongruent right error Normal 616.1732
4 155 LeftSmaller PercIBExp1 Prime_9A Target_4N kGFKCiB mKbafMd Incongruent left error Normal 679.0903
4 156 LeftSmaller PercIBExp1 Prime_4A Target_1A DhJHcGg AibaDlM Congruent left correct Normal 500.7685
4 157 LeftSmaller PercIBExp1 Prime_6N Target_6A MDkILla fdhcDCk Congruent right correct Normal 807.3695
4 158 LeftSmaller PercIBExp1 Prime_1A Target_9A FmACLGd DfJKdCk Incongruent right error Normal 459.3649
4 159 LeftSmaller PercIBExp1 Prime_9A Target_1N ceiIlGb kEiIhjJ Incongruent left error Normal 599.2669
4 160 LeftSmaller PercIBExp1 Prime_9A Target_4A IHCakFe CMjJemL Incongruent left error Normal 557.0453
6 1 LeftSmaller PercIAPrac Prime_9A Target_9N MabCBeA eacAMfI Congruent right correct Normal 944.6173
6 2 LeftSmaller PercIAPrac Prime_1A Target_6N EaLAkDe LgkKDBG Incongruent right error Normal 946.2674
6 3 LeftSmaller PercIAPrac Prime_9A Target_4A lmbkAIM FbJBiEk Incongruent left error Normal 515.4077
6 4 LeftSmaller PercIAPrac Prime_6N Target_9A AefKmad JgBdbmH Congruent right correct Normal 863.3006
6 5 LeftSmaller PercIAPrac Prime_1A Target_4N McfkjLA CjalKhf Congruent left correct Normal 638.2127
6 6 LeftSmaller PercIAPrac Prime_4N Target_6N jAEimHJ ldhIGeJ Incongruent left correct Normal 999.593
6 7 LeftSmaller PercIAPrac Prime_1N Target_1N bgEjihl dIgleAj Congruent left correct Normal 663.0681
6 8 LeftSmaller PercIAPrac Prime_9A Target_1N amgHGDF GhIBbCd Incongruent left error Normal 746.1369
6 9 LeftSmaller PercIAPrac Prime_4N Target_6A JdmgKFG mblGcjC Incongruent right error Normal 498.6416
6 10 LeftSmaller PercIAPrac Prime_4A Target_4A EmFlkja ELaFiCe Congruent left correct Normal 432.2152
6 11 LeftSmaller PercIAPrac Prime_1A Target_4A eJMdcCB KbFGhkm Congruent right error Normal 666.0765
6 12 LeftSmaller PercIAPrac Prime_1A Target_9N lcELdDA dhkaIcb Incongruent right error Normal 730.5447
6 13 LeftSmaller PercIAPrac Prime_9A Target_6A LMdCKeb aKdebHG Congruent left error Normal 462.9779
6 14 LeftSmaller PercIAPrac Prime_6N Target_9N eLgBdmC cDfbLMC Congruent right correct Normal 366.1474
6 15 LeftSmaller PercIAPrac Prime_1A Target_1A JiAdefG icMFJEI Congruent left correct Normal 407.7556
6 16 LeftSmaller PercIAPrac Prime_1N Target_9A KAeHFmC glMLIJK Incongruent left correct Normal 549.7173
6 17 LeftSmaller PercIAExp1 Prime_4N Target_4N KMELbha mJlkBdj Congruent left correct Normal 221.6282
6 18 LeftSmaller PercIAExp1 Prime_4N Target_1A BjceDmg LKEhkGA Congruent right error Normal 475.8751
6 19 LeftSmaller PercIAExp1 Prime_1A Target_6N lAaDjhi CfDeacM Incongruent right error Normal 453.686
6 20 LeftSmaller PercIAExp1 Prime_9N Target_1A BLkMifa fJbDFGe Incongruent left error Normal 511.1281
6 21 LeftSmaller PercIAExp1 Prime_4A Target_1A bEjMelI iKIEDHA Congruent left correct Normal 667.2915
6 22 LeftSmaller PercIAExp1 Prime_4A Target_6A GKHdcfa AeJdIBE Incongruent right error Normal 282.607
6 23 LeftSmaller PercIAExp1 Prime_9A Target_6A kFBMlDJ kIAEeMH Congruent left error Normal 364.7513
6 24 LeftSmaller PercIAExp1 Prime_9A Target_9N ckGLAiK BJheLDa Congruent right correct Normal 437.8029
6 25 LeftSmaller PercIAExp1 Prime_4N Target_6N kAmleLC CdlIKHj Incongruent right error Normal 554.821
6 26 LeftSmaller PercIAExp1 Prime_4N Target_9A MHLcdIi iGDLgCf Incongruent left correct Normal 609.2692
6 27 LeftSmaller PercIAExp1 Prime_9N Target_4N LKEHlag kLeflih Incongruent left error Normal 656.4325
6 28 LeftSmaller PercIAExp1 Prime_6A Target_6A FHCbcKm DjIJGkf Congruent right correct Normal 589.603
6 29 LeftSmaller PercIAExp1 Prime_4N Target_4A MAflCDh lceHImh Congruent right error Normal 509.7191
6 30 LeftSmaller PercIAExp1 Prime_6N Target_9N ckLICjh ceAhJGK Congruent left error Normal 310.6549
6 31 LeftSmaller PercIAExp1 Prime_4N Target_6A aHLDABc jKilkDf Incongruent right error Normal 301.7485
6 32 LeftSmaller PercIAExp1 Prime_6N Target_1A heilELd EkdGBcj Incongruent right correct Normal 581.6464
6 33 LeftSmaller PercIAExp1 Prime_1A Target_9A FBCeAHI eCIgDlJ Incongruent right error Normal 417.1851
6 34 LeftSmaller PercIAExp1 Prime_9N Target_9A MJleimE HJdMDIG Congruent left error Normal 585.7588
6 35 LeftSmaller PercIAExp1 Prime_1A Target_4A bjifBmg gEiLBMD Congruent right error Normal 400.2902
6 36 LeftSmaller PercIAExp1 Prime_1N Target_4A AkfLaJd dJclBmk Congruent left correct Normal 385.4472
6 37 LeftSmaller PercIAExp1 Prime_1N Target_1N gDFkaIb DbdCBgH Congruent right error Normal 298.7837
6 38 LeftSmaller PercIAExp1 Prime_1N Target_9N icIljJA jAafBFi Incongruent right error Normal 342.7855
6 39 LeftSmaller PercIAExp1 Prime_9N Target_6N GFcAbHm EKgDjfa Congruent right correct Normal 632.5688
6 40 LeftSmaller PercIAExp1 Prime_6A Target_9A jDAIklB JfdAjkH Congruent left error Normal 484.1388
6 41 LeftSmaller PercIAExp1 Prime_9N Target_1N BJIGlKA BbIgCKJ Incongruent left error Normal 524.9328
6 42 LeftSmaller PercIAExp1 Prime_4A Target_9N CFAJMhK mhgEIBc Incongruent right error Normal 729.7331
6 43 LeftSmaller PercIAExp1 Prime_4N Target_9N jlGJdba GfeBmiF Incongruent right error Normal 661.0964
6 44 LeftSmaller PercIAExp1 Prime_1A Target_4N GFhLCHg CcGMDkj Congruent left correct Normal 605.6947
6 45 LeftSmaller PercIAExp1 Prime_6A Target_4A BcJiLKg DMbdiIL Incongruent left error Normal 556.4372
6 46 LeftSmaller PercIAExp1 Prime_1N Target_4N IKegBEH IgdGicB Congruent left correct Normal 414.7393
6 47 LeftSmaller PercIAExp1 Prime_1N Target_6A mbMhiCI dmfkgAJ Incongruent right error Normal 621.5837
6 48 LeftSmaller PercIAExp1 Prime_1A Target_1N edjkMEf DhJLEKG Congruent left correct Normal 622.5914
6 49 LeftSmaller PercIAExp1 Prime_9A Target_6N IcKbBiG DAdblFG Congruent right correct Normal 416.0993
6 50 LeftSmaller PercIAExp1 Prime_6A Target_1N aDGKmMi kiJgKdj Incongruent left error Normal 346.2791
6 51 LeftSmaller PercIAExp1 Prime_6A Target_9N hJmdkaB afMmKAJ Congruent right correct Normal 533.1216
6 52 LeftSmaller PercIAExp1 Prime_6N Target_6A cMaIKhA gLmGCdb Congruent right correct Normal 446.7824
6 53 LeftSmaller PercIAExp1 Prime_4A Target_1N fDkGLmj jbAadmI Congruent left correct Normal 436.0024
6 54 LeftSmaller PercIAExp1 Prime_6N Target_4A ehBJblj gIkCEmA Incongruent right correct Normal 416.3812
6 55 LeftSmaller PercIAExp1 Prime_4N Target_1N kcihmKe GEJIKkd Congruent left correct Normal 521.4139
6 56 LeftSmaller PercIAExp1 Prime_9N Target_6A CiemEjD EHAIblm Congruent right correct Normal 418.1128
6 57 LeftSmaller PercIAExp1 Prime_4A Target_4A LbjmadE hGfalDe Congruent left correct Normal 429.5588
6 58 LeftSmaller PercIAExp1 Prime_6N Target_9A gAjKLfG gIaJMHe Congruent right correct Normal 372.5704
6 59 LeftSmaller PercIAExp1 Prime_9A Target_1N fdbemEK IGFEADc Incongruent left error Normal 488.4909
6 60 LeftSmaller PercIAExp1 Prime_4A Target_4N EeJDblL GEdJKLl Congruent left correct Normal 541.2609
6 61 LeftSmaller PercIAExp1 Prime_6N Target_1N KCFGfDJ IFhLDHm Incongruent right correct Normal 564.0569
6 62 LeftSmaller PercIAExp1 Prime_9A Target_4N JfCikBD CEeGBFa Incongruent right correct Normal 485.1198
6 63 LeftSmaller PercIAExp1 Prime_9A Target_1A DeHCEdI lmIaGDH Incongruent left error Normal 532.1554
6 64 LeftSmaller PercIAExp1 Prime_6N Target_6N GaFJcBe hjcEefg Congruent right correct Normal 547.0628
6 65 LeftSmaller PercIAExp1 Prime_9N Target_4A aIeEcMd FAikaIc Incongruent left error Normal 839.3748
6 66 LeftSmaller PercIAExp1 Prime_9A Target_4A fCKIHji ifmakce Incongruent right correct Normal 526.5052
6 67 LeftSmaller PercIAExp1 Prime_6A Target_1A aIKFLCG BdACIcj Incongruent right correct Normal 559.9687
6 68 LeftSmaller PercIAExp1 Prime_9N Target_9N GEalfij ehMEHAG Congruent right correct Normal 519.842
6 69 LeftSmaller PercIAExp1 Prime_1N Target_6N EeCIjAd ijlmJcB Incongruent left correct Normal 533.8535
6 70 LeftSmaller PercIAExp1 Prime_1A Target_9N aMDdbjm hlKMFdE Incongruent left correct Normal 585.6055
6 71 LeftSmaller PercIAExp1 Prime_4A Target_9A GkFaiHg DceHagd Incongruent right error Normal 404.9037
6 72 LeftSmaller PercIAExp1 Prime_1N Target_9A BMejgJd CFimMaI Incongruent right error Normal 910.1859
6 73 LeftSmaller PercIAExp1 Prime_1A Target_6A GmKlfMb dciEHFl Incongruent right error Normal 585.7
6 74 LeftSmaller PercIAExp1 Prime_6N Target_4N BImAKbl GhcgKmJ Incongruent right correct Normal 620.0127
6 75 LeftSmaller PercIAExp1 Prime_6A Target_6N aAGKlHd fCEiJdk Congruent right correct Normal 659.1548
6 76 LeftSmaller PercIAExp1 Prime_6A Target_4N fmDaJGc ldKEbDc Incongruent left error Normal 555.2136
6 77 LeftSmaller PercIAExp1 Prime_9A Target_9A KmFlEab bDjgAJc Congruent right correct Normal 424.4851
6 78 LeftSmaller PercIAExp1 Prime_4A Target_6N mELeMfd EaimCbL Incongruent right error Normal 518.4931
6 79 LeftSmaller PercIAExp1 Prime_1A Target_1A kAeJjgH ABeKcIf Congruent left correct Normal 472.5159
6 80 LeftSmaller PercIAExp1 Prime_1N Target_1A KjBEGed fdDlJhj Congruent right error Normal 506.0199
6 81 LeftLarger PercIBPrac Prime_9A Target_6A daKHBAe FgfBCdh Congruent right error Normal 674.3511
6 82 LeftLarger PercIBPrac Prime_6A Target_6N aeHbCMd kEKaDFg Congruent left correct Normal 536.0976
6 83 LeftLarger PercIBPrac Prime_4A Target_4N bMhmJDI IeCcJkh Congruent left error Normal 784.282
6 84 LeftLarger PercIBPrac Prime_4N Target_4A FMaBChc egJLAdM Congruent right correct Normal 668.6797
6 85 LeftLarger PercIBPrac Prime_1A Target_4A BlcHikK kFEcbAM Congruent right correct Normal 466.5059
6 86 LeftLarger PercIBPrac Prime_9A Target_6N cgFLKdA kFKimaG Congruent left correct Normal 726.5552
6 87 LeftLarger PercIBPrac Prime_9A Target_4N EMHaKJI cDKJflB Incongruent left correct Normal 567.1952
6 88 LeftLarger PercIBPrac Prime_1N Target_9N aFKihLe KDlCmBi Incongruent left error Normal 652.0423
6 89 LeftLarger PercIBPrac Prime_6N Target_1A LhkdBmK hALfBlj Incongruent right error Normal 473.3226
6 90 LeftLarger PercIBPrac Prime_4N Target_4N CejkGJF ceiKMkE Congruent left error Normal 366.2291
6 91 LeftLarger PercIBPrac Prime_6A Target_9A FCGjgAc FgcAHha Congruent left correct Normal 563.7883
6 92 LeftLarger PercIBPrac Prime_6N Target_1N gCJbamG CDAjgda Incongruent right error Normal 598.0862
6 93 LeftLarger PercIBPrac Prime_1A Target_9A eJHGajK dHiGgae Incongruent left error Normal 775.9774
6 94 LeftLarger PercIBPrac Prime_4A Target_4A IHfJjab KakElJF Congruent right correct Normal 673.4304
6 95 LeftLarger PercIBPrac Prime_4N Target_1A Dimlcae HGBfjcJ Congruent left error Normal 442.0539
6 96 LeftLarger PercIBPrac Prime_4N Target_6A FhLKjHk mBMFhDG Incongruent right correct Normal 495.6526
6 97 LeftLarger PercIBExp1 Prime_9A Target_1N alcBCfE gChJLcf Incongruent left correct Normal 687.2793
6 98 LeftLarger PercIBExp1 Prime_4N Target_6N MJalBDE EFdjalb Incongruent right correct Normal 996.6932
6 99 LeftLarger PercIBExp1 Prime_9A Target_9N HAJFlGd JHMbEeA Congruent left correct Normal 561.9771
6 100 LeftLarger PercIBExp1 Prime_1A Target_6A HAjdKCM mckgfeJ Incongruent right correct Normal 553.4469
6 101 LeftLarger PercIBExp1 Prime_1A Target_9A bLaMcGd ilkGfcB Incongruent left error Normal 492.5747
6 102 LeftLarger PercIBExp1 Prime_6N Target_4A bKijgEF KBFgEIk Incongruent left correct Normal 751.1219
6 103 LeftLarger PercIBExp1 Prime_4A Target_1N IlLEjbk KJjGLfE Congruent left error Normal 536.1636
6 104 LeftLarger PercIBExp1 Prime_6N Target_9N MDCLIhc GFKjkLb Congruent left correct Normal 560.9805
6 105 LeftLarger PercIBExp1 Prime_6A Target_1N lABjHhe iCAelMK Incongruent right error Normal 1050.375
6 106 LeftLarger PercIBExp1 Prime_9N Target_6N ACgMKmG BlGdchb Congruent right error Normal 614.1941
6 107 LeftLarger PercIBExp1 Prime_1A Target_1N GEeFDIJ kDgLaIb Congruent left error Normal 312.3814
6 108 LeftLarger PercIBExp1 Prime_6A Target_6A mAjBGlF KJLdICA Congruent left correct Normal 613.1654
6 109 LeftLarger PercIBExp1 Prime_1N Target_1N KHEkFAD hbGeIDk Congruent right correct Normal 728.5681
6 110 LeftLarger PercIBExp1 Prime_4A Target_4A CmkfjgJ EljIicB Congruent left error Normal 482.3372
6 111 LeftLarger PercIBExp1 Prime_9N Target_4N KHEFDia gGKbhif Incongruent left correct Normal 467.5301
6 112 LeftLarger PercIBExp1 Prime_4N Target_1A aKLMIBl djAmbCg Congruent left error Normal 904.458
6 113 LeftLarger PercIBExp1 Prime_9N Target_1A feJGjai lmbHecj Incongruent left correct Normal 1274.528
6 114 LeftLarger PercIBExp1 Prime_4A Target_6N hHMlGFi ieLcJjl Incongruent right correct Normal 711.832
6 115 LeftLarger PercIBExp1 Prime_9A Target_9A IfCkbDl dmMfJBi Congruent right error Normal 548.4887
6 116 LeftLarger PercIBExp1 Prime_6N Target_9A cKkihld iDfAlIK Congruent right error Normal 668.4218
6 117 LeftLarger PercIBExp1 Prime_1A Target_6N bGCgafH cIjKGLH Incongruent left error Normal 449.8308
6 118 LeftLarger PercIBExp1 Prime_4N Target_9A cbidHlD lBaAHjC Incongruent right correct Normal 800.3954
6 119 LeftLarger PercIBExp1 Prime_6N Target_1N IkljeCL cLIeFkj Incongruent left correct Normal 701.1976
6 120 LeftLarger PercIBExp1 Prime_4A Target_9A EjkILMd HEhkgcL Incongruent left error Normal 492.4671
6 121 LeftLarger PercIBExp1 Prime_6A Target_9A hfClaGd fmJKdLG Congruent right error Normal 730.3021
6 122 LeftLarger PercIBExp1 Prime_4N Target_4N GdHcheB FlIDCck Congruent left error Normal 935.3306
6 123 LeftLarger PercIBExp1 Prime_6A Target_9N CDdIJbf ILimHbK Congruent left correct Normal 530.6513
6 124 LeftLarger PercIBExp1 Prime_6N Target_6N IDcFfgH lCLdIDk Congruent right error Normal 522.9255
6 125 LeftLarger PercIBExp1 Prime_1N Target_4A bgjhled AljhMcG Congruent right correct Normal 687.8556
6 126 LeftLarger PercIBExp1 Prime_9N Target_1N cLfMEAl bHAehcF Incongruent left correct Normal 977.2603
6 127 LeftLarger PercIBExp1 Prime_9N Target_4A KkJBMfd JlbkHje Incongruent right error Normal 639.5962
6 128 LeftLarger PercIBExp1 Prime_1N Target_6A ChFGlAe dLDBmMl Incongruent left error Normal 689.2464
6 129 LeftLarger PercIBExp1 Prime_9A Target_4A DjahAJH afImkCc Incongruent right error Normal 691.4325
6 130 LeftLarger PercIBExp1 Prime_1N Target_6N DHfmige JBGADlI Incongruent left error Normal 835.352
6 131 LeftLarger PercIBExp1 Prime_1A Target_4N BkaiAeI ibBfcdm Congruent left error Normal 958.6547
6 132 LeftLarger PercIBExp1 Prime_4A Target_1A ciFIgBJ FEegAhf Congruent left error Normal 866.6129
6 133 LeftLarger PercIBExp1 Prime_6A Target_6N gmFkfbK KjClieg Congruent right error Normal 1039.758
6 134 LeftLarger PercIBExp1 Prime_4A Target_4N KkEcCHB glMCBJb Congruent left error Normal 841.0799
6 135 LeftLarger PercIBExp1 Prime_9A Target_4N FgidfKD agIcABH Incongruent right error Normal 492.1296
6 136 LeftLarger PercIBExp1 Prime_9A Target_1A HDfFIGK BfACleM Incongruent right error Normal 771.516
6 137 LeftLarger PercIBExp1 Prime_6A Target_4N HKCMmfj GMEgaIl Incongruent left correct Normal 847.5888
6 138 LeftLarger PercIBExp1 Prime_4N Target_9N FledLCM EDCcIJF Incongruent left error Normal 621.1778
6 139 LeftLarger PercIBExp1 Prime_1N Target_1A KiEdjMJ imILgHl Congruent left error Normal 513.0727
6 140 LeftLarger PercIBExp1 Prime_4A Target_6A HcLEiKB HgAlkGj Incongruent right correct Normal 520.8625
6 141 LeftLarger PercIBExp1 Prime_1N Target_4N eaJbfEL ImKDbLc Congruent right correct Normal 796.7067
6 142 LeftLarger PercIBExp1 Prime_1A Target_4A MAmiLae kHGLIJj Congruent left error Normal 818.0381
6 143 LeftLarger PercIBExp1 Prime_4N Target_4A DMjehGK hFCGKkj Congruent left error Normal 606.4988
6 144 LeftLarger PercIBExp1 Prime_9N Target_6A fLeFgkJ lfgbmKa Congruent right error Normal 1099.513
6 145 LeftLarger PercIBExp1 Prime_9N Target_9N CGKhLHm CBdFgha Congruent left correct Normal 681.5768
6 146 LeftLarger PercIBExp1 Prime_6N Target_6A efDkgbA dKiLgef Congruent left correct Normal 856.658
6 147 LeftLarger PercIBExp1 Prime_4N Target_6A iCEBMbg kfhIGEH Incongruent right correct Normal 1151.182
6 148 LeftLarger PercIBExp1 Prime_9A Target_6A hAjfJdG mliHDej Congruent left correct Normal 466.7738
6 149 LeftLarger PercIBExp1 Prime_6N Target_1A cHBDMjb MaBhiKe Incongruent left correct Normal 601.5134
6 150 LeftLarger PercIBExp1 Prime_6A Target_1A gADjGmd DGbKElI Incongruent left correct Normal 641.7458
6 151 LeftLarger PercIBExp1 Prime_4N Target_1N gMBLceb jJlLiCa Congruent right correct Normal 876.671
6 152 LeftLarger PercIBExp1 Prime_9N Target_9A dImMKFa fdKAamI Congruent left correct Normal 480.1688
6 153 LeftLarger PercIBExp1 Prime_6A Target_4A FkgIaBe lAaDjdm Incongruent left correct Normal 616.7572
6 154 LeftLarger PercIBExp1 Prime_6N Target_4N DGFHJfk dHlGkEh Incongruent left correct Normal 478.1696
6 155 LeftLarger PercIBExp1 Prime_9A Target_6N hjemEMA GBMlcdD Congruent left correct Normal 853.0886
6 156 LeftLarger PercIBExp1 Prime_1A Target_9N lfgFHCD eDdMGbA Incongruent right correct Normal 569.3877
6 157 LeftLarger PercIBExp1 Prime_1N Target_9N aKDbgCF lhFaIdm Incongruent left error Normal 496.4529
6 158 LeftLarger PercIBExp1 Prime_1A Target_1A EjilCfG BjeMgCl Congruent left error Normal 655.0054
6 159 LeftLarger PercIBExp1 Prime_4A Target_9N cmAMEiF JdBkEih Incongruent right correct Normal 656.2785
6 160 LeftLarger PercIBExp1 Prime_1N Target_9A IibABja fFAIkGg Incongruent right correct Normal 1005.083
7 1 LeftLarger PercIAPrac Prime_1N Target_9N ImAcDlf LEkBafA Incongruent left error Normal 3030.379
7 2 LeftLarger PercIAPrac Prime_6N Target_6N ClbjHcA cmbeHhD Congruent left correct Normal 1801.091
7 3 LeftLarger PercIAPrac Prime_9A Target_6N MaFedKh MBhiIJC Congruent right error Normal 1716.29
7 4 LeftLarger PercIAPrac Prime_6N Target_6A lbBaCLe DeJkiCh Congruent right error Normal 2367.976
7 5 LeftLarger PercIAPrac Prime_6A Target_6A adIDGcg MfALdGE Congruent right error Normal 1235.692
7 6 LeftLarger PercIAPrac Prime_1A Target_1N GdBaHeL GhEdjbM Congruent left error Normal 1770.244
7 7 LeftLarger PercIAPrac Prime_1A Target_9A gieFADL JchlgDd Incongruent left error Normal 1850.881
7 8 LeftLarger PercIAPrac Prime_4N Target_9N mIKlEdM CgliDhE Incongruent right correct Normal 1606.081
7 9 LeftLarger PercIAPrac Prime_4N Target_9A ehfgkEB bDliCeE Incongruent right correct Normal 1666.339
7 10 LeftLarger PercIAPrac Prime_1N Target_1N KefhIcA MlCjKJi Congruent right correct Normal 1507.782
7 11 LeftLarger PercIAPrac Prime_1A Target_4N halcHme KLHkJdg Congruent right correct Normal 2909.518
7 12 LeftLarger PercIAPrac Prime_4A Target_1A kKIAfjC ckeLFah Congruent right correct Normal 2397.119
7 13 LeftLarger PercIAPrac Prime_1A Target_6N hmgLcDd heaFHGL Incongruent left error Normal 1449.409
7 14 LeftLarger PercIAPrac Prime_1A Target_1A hHfdlDK BmHMakJ Congruent left error Normal 1938.672
7 15 LeftLarger PercIAPrac Prime_4N Target_4N DbehEAm acDFMgK Congruent left error Normal 1963.059
7 16 LeftLarger PercIAPrac Prime_6A Target_6N jHlCGcI LKJECBj Congruent left correct Normal 1232.079
7 17 LeftLarger PercIAExp1 Prime_6A Target_9A LiFCIDh HGCMDJe Congruent left correct Normal 1150.825
7 18 LeftLarger PercIAExp1 Prime_9A Target_4A AjcLlIi kgIAhmM Incongruent right error Normal 385.511
7 19 LeftLarger PercIAExp1 Prime_1N Target_1A hIHciJg FEiLKMc Congruent right correct Normal 529.5719
7 20 LeftLarger PercIAExp1 Prime_9N Target_1A FmDhGjf BCefAEg Incongruent right error Normal 832.3231
7 21 LeftLarger PercIAExp1 Prime_6N Target_1N FIMlgLK JMKbCGL Incongruent left correct Normal 1281.896
7 22 LeftLarger PercIAExp1 Prime_6A Target_9N mlAHIcg ijcMAHa Congruent left correct Normal 1176.941
7 23 LeftLarger PercIAExp1 Prime_9N Target_9A alkKFgH AaCfLcg Congruent left correct Normal 1534.377
7 24 LeftLarger PercIAExp1 Prime_1N Target_6A dcDMBeA ikDLaHj Incongruent right correct Normal 647.4441
7 25 LeftLarger PercIAExp1 Prime_9A Target_1A AkJBbCG mKaEHjL Incongruent right error Normal 836.8723
7 26 LeftLarger PercIAExp1 Prime_9N Target_6N mBKkJfD JfGlEac Congruent right error Normal 1637.023
7 27 LeftLarger PercIAExp1 Prime_9N Target_9N jiafEDl lLedjJG Congruent right error Normal 1649.647
7 28 LeftLarger PercIAExp1 Prime_4A Target_6N gFJICKc FAGiMHB Incongruent left error Normal 1251.402
7 29 LeftLarger PercIAExp1 Prime_4A Target_1N hGaAHJE KdJlLcI Congruent left error Normal 1931.323
7 30 LeftLarger PercIAExp1 Prime_9A Target_1N IGAaFLJ fbdDJhe Incongruent left correct Normal 1617.61
7 31 LeftLarger PercIAExp1 Prime_9A Target_6N AlBIgeH hDlbKmi Congruent right error Normal 473.4992
7 32 LeftLarger PercIAExp1 Prime_4A Target_6A JECcMDB kiadjcL Incongruent right correct Normal 1028.095
7 33 LeftLarger PercIAExp1 Prime_9A Target_4N AbaGKMF JgbIMKa Incongruent right error Normal 1902.684
7 34 LeftLarger PercIAExp1 Prime_6N Target_4N HlDcAMm CmLbjha Incongruent right error Normal 1480.158
7 35 LeftLarger PercIAExp1 Prime_1N Target_9A EjHhlba AiKJeBI Incongruent left error Normal 831.081
7 36 LeftLarger PercIAExp1 Prime_1N Target_9N GAdCiem jGKLDhe Incongruent right correct Normal 715.1288
7 37 LeftLarger PercIAExp1 Prime_9N Target_4A bamGEBL KeCHDdl Incongruent left correct Normal 1655.926
7 38 LeftLarger PercIAExp1 Prime_4N Target_6A DAfcdeK GBMDkcI Incongruent left error Normal 902.2874
7 39 LeftLarger PercIAExp1 Prime_9N Target_4N LclFfkb EmHhFCM Incongruent right error Normal 527.7322
7 40 LeftLarger PercIAExp1 Prime_4A Target_4N gEAkfla JHBefCl Congruent right correct Normal 619.3237
7 41 LeftLarger PercIAExp1 Prime_1A Target_4A aBGgkhb khKAJDG Congruent left error Normal 785.9513
7 42 LeftLarger PercIAExp1 Prime_1A Target_9A EjfMJbk LCIGlMc Incongruent right correct Normal 954.5709
7 43 LeftLarger PercIAExp1 Prime_6A Target_6A JkMGdIL GmMgCKD Congruent right error Normal 1051.71
7 44 LeftLarger PercIAExp1 Prime_4N Target_9A fDLACei LgImiJa Incongruent left error Normal 1385.622
7 45 LeftLarger PercIAExp1 Prime_6N Target_6N ekIHhcC DkCfAhL Congruent left correct Normal 760.3314
7 46 LeftLarger PercIAExp1 Prime_9N Target_1N HcCjBaL jFeliBL Incongruent right error Normal 559.5978
7 47 LeftLarger PercIAExp1 Prime_4N Target_4A mEAJLIb fKCJjam Congruent right correct Normal 377.2618
7 48 LeftLarger PercIAExp1 Prime_6A Target_4N fLDhdIm jhAGHkg Incongruent right error Normal 651.4652
7 49 LeftLarger PercIAExp1 Prime_6A Target_4A JgbBdHK hdjBJHG Incongruent right error Normal 641.4085
7 50 LeftLarger PercIAExp1 Prime_4N Target_4N dFLjHIG IHJEadM Congruent left error Normal 675.7686
7 51 LeftLarger PercIAExp1 Prime_6N Target_9N gGMCldK JkjmcKa Congruent right error Normal 881.3565
7 52 LeftLarger PercIAExp1 Prime_4N Target_1N HLhkIGM eKJlEcm Congruent left error Normal 722.9122
7 53 LeftLarger PercIAExp1 Prime_4N Target_9N HBGbLIl aCMKLJh Incongruent right correct Normal 826.5379
7 54 LeftLarger PercIAExp1 Prime_4A Target_1A dhHMceK LDcKGJi Congruent right correct Normal 464.0164
7 55 LeftLarger PercIAExp1 Prime_1A Target_6A jHhlfeK DCGBjAa Incongruent right correct Normal 778.1682
7 56 LeftLarger PercIAExp1 Prime_1N Target_4A chigGFK JLaDjeA Congruent right correct Normal 674.3609
7 57 LeftLarger PercIAExp1 Prime_4N Target_1A HEhCeIk bIBkfCJ Congruent left error Normal 1217.633
7 58 LeftLarger PercIAExp1 Prime_1A Target_1N CAGhJDi jiBhAId Congruent right correct Normal 550.5426
7 59 LeftLarger PercIAExp1 Prime_1A Target_6N kBfJdLm mFBiHbM Incongruent right correct Normal 578.2579
7 60 LeftLarger PercIAExp1 Prime_4N Target_6N KGBhlJD BLhDdKk Incongruent left error Normal 914.2771
7 61 LeftLarger PercIAExp1 Prime_9A Target_6A gAbhJef DcCeajf Congruent left correct Normal 538.9282
7 62 LeftLarger PercIAExp1 Prime_6A Target_1A AjDLeEM gBiFDIc Incongruent right error Normal 608.2137
7 63 LeftLarger PercIAExp1 Prime_9A Target_9N chGImiA KmJbEfi Congruent right error Normal 844.9266
7 64 LeftLarger PercIAExp1 Prime_6N Target_4A agEAbGi FmDcdEe Incongruent right error Normal 1489.972
7 65 LeftLarger PercIAExp1 Prime_9N Target_6A MDALaIF jaAlGFb Congruent left correct Normal 615.2879
7 66 LeftLarger PercIAExp1 Prime_6N Target_9A EFHcdgL adBCGEh Congruent left correct Normal 651.1036
7 67 LeftLarger PercIAExp1 Prime_1A Target_1A bBlaDGf bFcJdiE Congruent left error Normal 997.9939
7 68 LeftLarger PercIAExp1 Prime_1N Target_6N BcJDLdE GdMHbkm Incongruent left error Normal 772.0525
7 69 LeftLarger PercIAExp1 Prime_6A Target_6N AMGfHIb GKehiAb Congruent right error Normal 645.5713
7 70 LeftLarger PercIAExp1 Prime_1N Target_1N HIlmiFE GCJLlBh Congruent right correct Normal 465.1591
7 71 LeftLarger PercIAExp1 Prime_1A Target_9N gMEbfDa CEcblGA Incongruent left error Normal 474.9573
7 72 LeftLarger PercIAExp1 Prime_6N Target_1A CMbfIhi dMEFjaA Incongruent right error Normal 532.6291
7 73 LeftLarger PercIAExp1 Prime_1A Target_4N LkGHBbg bflHcgF Congruent right correct Normal 520.9198
7 74 LeftLarger PercIAExp1 Prime_4A Target_9N fEIgbAL cIdDgjA Incongruent left error Normal 508.815
7 75 LeftLarger PercIAExp1 Prime_1N Target_4N bIhjeFc KJHgdFE Congruent right correct Normal 829.8742
7 76 LeftLarger PercIAExp1 Prime_4A Target_4A bEAlkLc ejfcbdL Congruent right correct Normal 365.6899
7 77 LeftLarger PercIAExp1 Prime_4A Target_9A gkBLbDj KGBLkfF Incongruent right correct Normal 507.7168
7 78 LeftLarger PercIAExp1 Prime_6A Target_1N IeEfFkB aIjhLJf Incongruent left correct Normal 811.2487
7 79 LeftLarger PercIAExp1 Prime_6N Target_6A dhiHjAI dFfgmBD Congruent right error Normal 717.2005
7 80 LeftLarger PercIAExp1 Prime_9A Target_9A aBAcmbF hHfedlI Congruent left correct Normal 566.6799
7 81 LeftSmaller PercIBPrac Prime_9N Target_6N DkeiIgE gdhmADJ Congruent left error Normal 1426.95
7 82 LeftSmaller PercIBPrac Prime_9A Target_9A DkbfiLI kALlFCa Congruent right correct Normal 804.5762
7 83 LeftSmaller PercIBPrac Prime_6N Target_1N MAKeEhi dCkijeL Incongruent right correct Normal 1754.456
7 84 LeftSmaller PercIBPrac Prime_4A Target_1A jdAkbiH MHJiFAh Congruent left correct Normal 1129.59
7 85 LeftSmaller PercIBPrac Prime_9A Target_4A BgaGkMe CcIFEkg Incongruent right correct Normal 704.5472
7 86 LeftSmaller PercIBPrac Prime_1A Target_6A jEdKkgL MDCLcIJ Incongruent left correct Normal 739.9993
7 87 LeftSmaller PercIBPrac Prime_4N Target_1N FHeiGDE Mkcjgbm Congruent right error Normal 884.307
7 88 LeftSmaller PercIBPrac Prime_1N Target_4A emDMcbK afkmFCg Congruent left correct Normal 890.5984
7 89 LeftSmaller PercIBPrac Prime_1N Target_6N JfEDjiI GFCAIdi Incongruent right error Normal 650.1035
7 90 LeftSmaller PercIBPrac Prime_9A Target_1A GmLaEDA lFkCfda Incongruent left error Normal 1815.528
7 91 LeftSmaller PercIBPrac Prime_1A Target_9N EebLcjH AJbFIam Incongruent left correct Normal 1423.997
7 92 LeftSmaller PercIBPrac Prime_1A Target_4A AfcDHlB jhGAbJE Congruent right error Normal 496.9248
7 93 LeftSmaller PercIBPrac Prime_6N Target_6N AbcMdif fJBlMKG Congruent right correct Normal 387.3702
7 94 LeftSmaller PercIBPrac Prime_1A Target_9A hJfGkEM MlKeckb Incongruent right error Normal 739.7741
7 95 LeftSmaller PercIBPrac Prime_9N Target_9A ejbLdaf fEkdGjb Congruent left error Normal 387.0817
7 96 LeftSmaller PercIBPrac Prime_1N Target_6A abDLliF MDcEIdB Incongruent right error Normal 480.382
7 97 LeftSmaller PercIBExp1 Prime_6N Target_6A bFLigfC MhdeGFb Congruent left error Normal 579.2714
7 98 LeftSmaller PercIBExp1 Prime_1A Target_4A HahEkKI kEBKfea Congruent left correct Normal 558.9934
7 99 LeftSmaller PercIBExp1 Prime_9N Target_9A bIHBijf lhJLeba Congruent right correct Normal 534.7078
7 100 LeftSmaller PercIBExp1 Prime_4A Target_1N ajlIChF kBgJHFf Congruent right error Normal 1105.117
7 101 LeftSmaller PercIBExp1 Prime_4A Target_6N jgaKeAl eGcFKhm Incongruent left correct Normal 682.3064
7 102 LeftSmaller PercIBExp1 Prime_9A Target_4N licMLGk aCMGAIL Incongruent right correct Normal 929.3558
7 103 LeftSmaller PercIBExp1 Prime_4N Target_9N lEiMcDI KHDImAi Incongruent right error Normal 1037.059
7 104 LeftSmaller PercIBExp1 Prime_1A Target_1A GhCmeiD kglaJKi Congruent left correct Normal 863.7138
7 105 LeftSmaller PercIBExp1 Prime_1A Target_9N iJelgGh eMKhjdG Incongruent right error Normal 705.6499
7 106 LeftSmaller PercIBExp1 Prime_4A Target_9N DlIHcfL LHcAjbm Incongruent left correct Normal 1623.417
7 107 LeftSmaller PercIBExp1 Prime_9A Target_9N AJKbFLc fcKibkE Congruent right correct Normal 1259.544
7 108 LeftSmaller PercIBExp1 Prime_6A Target_6N fkEHjIm mLDliCF Congruent left error Normal 767.2636
7 109 LeftSmaller PercIBExp1 Prime_9A Target_1N dlCcBmk MCHiGmL Incongruent right correct Normal 988.4678
7 110 LeftSmaller PercIBExp1 Prime_6A Target_4A KMEJfbL CmLajgd Incongruent left error Normal 989.2787
7 111 LeftSmaller PercIBExp1 Prime_6N Target_6N MkhaKAB LilHkFj Congruent left error Normal 988.0954
7 112 LeftSmaller PercIBExp1 Prime_4N Target_6A KcCdDJh eKkaJLA Incongruent right error Normal 1197.519
7 113 LeftSmaller PercIBExp1 Prime_1A Target_6A dDjIBhg kHDaBgh Incongruent right error Normal 562.7102
7 114 LeftSmaller PercIBExp1 Prime_6A Target_1A AcIgBEh CFmEHcl Incongruent left error Normal 984.1071
7 115 LeftSmaller PercIBExp1 Prime_6N Target_9N LgJDEeM cbiILhB Congruent right correct Normal 427.0623
7 116 LeftSmaller PercIBExp1 Prime_4N Target_1A HFLMchg bhdAeMB Congruent left correct Normal 908.4576
7 117 LeftSmaller PercIBExp1 Prime_9N Target_1N eGdibFm KlkImHh Incongruent left error Normal 862.9836
7 118 LeftSmaller PercIBExp1 Prime_6N Target_4N dfJIAeL GmdFAlK Incongruent right correct Normal 933.3506
7 119 LeftSmaller PercIBExp1 Prime_1A Target_9A GkgaemE CEkFLbf Incongruent right error Normal 258.9961
7 120 LeftSmaller PercIBExp1 Prime_9N Target_4A GmMHkbL HiCJLjk Incongruent left error Normal 796.4277
7 121 LeftSmaller PercIBExp1 Prime_9A Target_6N FKHkIGf JHgIcKm Congruent right correct Normal 1489.938
7 122 LeftSmaller PercIBExp1 Prime_1N Target_6A jJldFmK gmbHlJF Incongruent right error Normal 756.5191
7 123 LeftSmaller PercIBExp1 Prime_1N Target_4N ljGCHad dCLbFkB Congruent right error Normal 861.9586
7 124 LeftSmaller PercIBExp1 Prime_1N Target_9A ejICEga AbjfhCe Incongruent right error Normal 706.1245
7 125 LeftSmaller PercIBExp1 Prime_4A Target_4A EBfbihg kbMEdHc Congruent right error Normal 635.034
7 126 LeftSmaller PercIBExp1 Prime_9N Target_1A cedGaHE MiJIgjh Incongruent right correct Normal 585.3428
7 127 LeftSmaller PercIBExp1 Prime_4N Target_4A DfcKJia DaiegEf Congruent left correct Normal 536.516
7 128 LeftSmaller PercIBExp1 Prime_4A Target_9A GgjkKmd HgaBelG Incongruent left correct Normal 395.2397
7 129 LeftSmaller PercIBExp1 Prime_1N Target_1A GjIeMlb FlECHie Congruent left correct Normal 641.9577
7 130 LeftSmaller PercIBExp1 Prime_6A Target_6A MLGhKJi GHMEehj Congruent right correct Normal 353.2643
7 131 LeftSmaller PercIBExp1 Prime_9A Target_4A IhFAMbk mhKbLJe Incongruent right correct Normal 562.1853
7 132 LeftSmaller PercIBExp1 Prime_4N Target_1N GBfekJL GmMIjAh Congruent left correct Normal 435.7593
7 133 LeftSmaller PercIBExp1 Prime_4N Target_9A ADGEdCj hlJCAIM Incongruent right error Normal 454.6556
7 134 LeftSmaller PercIBExp1 Prime_4N Target_6N cELjFdb LMClcmh Incongruent right error Normal 250.8314
7 135 LeftSmaller PercIBExp1 Prime_6N Target_4A aDIFgBd bBcEmlC Incongruent right correct Normal 309.6422
7 136 LeftSmaller PercIBExp1 Prime_9A Target_9A jlhFJHA FEDfiJB Congruent right correct Normal 440.3825
7 137 LeftSmaller PercIBExp1 Prime_9A Target_6A BgAIHdC eMjDmck Congruent left error Normal 295.7656
7 138 LeftSmaller PercIBExp1 Prime_6A Target_4N aLlFmId imlBfDI Incongruent left error Normal 311.611
7 139 LeftSmaller PercIBExp1 Prime_6N Target_1A hjMCEJH cbelakf Incongruent left error Normal 203.9027
7 140 LeftSmaller PercIBExp1 Prime_9N Target_4N ElCLmMa HdjJbMG Incongruent left error Normal 309.8045
7 141 LeftSmaller PercIBExp1 Prime_1N Target_4A aHKiFgk GJfMlek Congruent right error Normal 250.2426
7 142 LeftSmaller PercIBExp1 Prime_4A Target_4N JjghLGd LeHkJci Congruent right error Normal 629.2723
7 143 LeftSmaller PercIBExp1 Prime_1N Target_1N iFKabDc FgfACLh Congruent right error Normal 603.1896
7 144 LeftSmaller PercIBExp1 Prime_6A Target_9A fDibaMK hgAkKGB Congruent right correct Normal 378.4169
7 145 LeftSmaller PercIBExp1 Prime_9N Target_9N BifGlCj mDcbhFl Congruent right correct Normal 257.0401
7 146 LeftSmaller PercIBExp1 Prime_4A Target_1A DJckeFb kALjEIB Congruent left correct Normal 255.8215
7 147 LeftSmaller PercIBExp1 Prime_9A Target_1A GcmFCeh fEDBGIj Incongruent right correct Normal 490.097
7 148 LeftSmaller PercIBExp1 Prime_4N Target_4N ImGDcJB AKeagkb Congruent right error Normal 556.5167
7 149 LeftSmaller PercIBExp1 Prime_9N Target_6N mEdbhCA gHFbmJC Congruent right correct Normal 381.6886
7 150 LeftSmaller PercIBExp1 Prime_1A Target_4N KEAfBHa fmihEdg Congruent left correct Normal 700.0661
7 151 LeftSmaller PercIBExp1 Prime_1N Target_9N fBLdDjh LeGADBd Incongruent right error Normal 611.5363
7 152 LeftSmaller PercIBExp1 Prime_4A Target_6A cEMKBFg IfDAMmg Incongruent right error Normal 395.947
7 153 LeftSmaller PercIBExp1 Prime_6N Target_9A KaCkLGb gHCkehf Congruent left error Normal 361.8127
7 154 LeftSmaller PercIBExp1 Prime_1A Target_1N hdGHDCb MeEcAiF Congruent right error Normal 249.5636
7 155 LeftSmaller PercIBExp1 Prime_1N Target_6N jCFdDcG KEaieBG Incongruent right error Normal 273.8248
7 156 LeftSmaller PercIBExp1 Prime_9N Target_6A hgcjaLH fMHBLgj Congruent right correct Normal 319.7186
7 157 LeftSmaller PercIBExp1 Prime_6A Target_9N JFcKMIl GDlkAbm Congruent left error Normal 388.9194
7 158 LeftSmaller PercIBExp1 Prime_6N Target_1N CADkIKj hkFiIdH Incongruent left error Normal 373.3319
7 159 LeftSmaller PercIBExp1 Prime_6A Target_1N JKgEkdL bKFiJMH Incongruent left error Normal 216.239
7 160 LeftSmaller PercIBExp1 Prime_1A Target_6N BliEKGC LGblFfC Incongruent left correct Normal 302.8742
8 1 LeftLarger PercIAPrac Prime_9A Target_1N MDmHlFe MfDJCGl Incongruent left correct Normal 1350.635
8 2 LeftLarger PercIAPrac Prime_6N Target_6N igheEdD IGLdCgj Congruent right error Normal 774.6744
8 3 LeftLarger PercIAPrac Prime_4A Target_4A FbgGKBE bMaBiAk Congruent right correct Normal 1133.111
8 4 LeftLarger PercIAPrac Prime_4N Target_1A LMBliFj jkIlBbM Congruent left error Normal 1004.42
8 5 LeftLarger PercIAPrac Prime_6A Target_6N JlHjmAG iAFHbfM Congruent left correct Normal 784.8446
8 6 LeftLarger PercIAPrac Prime_9A Target_4N MlDFEJa bJjkhKI Incongruent left correct Normal 1013.521
8 7 LeftLarger PercIAPrac Prime_1A Target_1A BidlJmK EhJAIkm Congruent right correct Normal 1162.074
8 8 LeftLarger PercIAPrac Prime_9N Target_1A KHCajdL cEfFDBd Incongruent left correct Normal 858.1172
8 9 LeftLarger PercIAPrac Prime_4A Target_6A fmJjkKB EMbgDLm Incongruent left error Normal 1327.969
8 10 LeftLarger PercIAPrac Prime_4A Target_1N JeDjcAi GjKElgd Congruent right correct Normal 831.6142
8 11 LeftLarger PercIAPrac Prime_4N Target_6N iHJBmge eGljaCF Incongruent right correct Normal 1045.922
8 12 LeftLarger PercIAPrac Prime_6A Target_4N gHFdJCj ilEDgjk Incongruent left correct Normal 1421.204
8 13 LeftLarger PercIAPrac Prime_4N Target_1N iGbFJLC BbdheHF Congruent left error Normal 854.4197
8 14 LeftLarger PercIAPrac Prime_9N Target_9N DfIGlAd LiaIcmJ Congruent right error Normal 791.3277
8 15 LeftLarger PercIAPrac Prime_9N Target_6A FKHJcLf bAmCljd Congruent left correct Normal 1204.018
8 16 LeftLarger PercIAPrac Prime_6A Target_4A gKDkGMc dhILmil Incongruent left correct Normal 1009.409
8 17 LeftLarger PercIAExp1 Prime_6N Target_4N MGKAkIc cdmgaLE Incongruent right error Normal 779.7552
