sub trial_no group_type block_type prime target mask1 mask2 congruency key_press key_error time_error RT
1 1 LeftSmaller PercCAPrac Prime_4A Target_4N MIALikc eGDLHlF Congruent right error Late 6957.25
1 2 LeftSmaller PercCAPrac Prime_9A Target_9N mlgAhDG GCmlBcL Congruent left correct Normal 4364.996
1 3 LeftSmaller PercCAPrac Prime_9A Target_6N KDemGIi GIEDchd Congruent right error Normal 4080.565
1 4 LeftSmaller PercCAPrac Prime_6N Target_1N HGhclkI KMIJCmG Incongruent left error Normal 3316.96
1 5 LeftSmaller PercCAPrac Prime_1A Target_4N lGIfheJ fKJAhdi Congruent right error Normal 2259.405
1 6 LeftSmaller PercCAPrac Prime_6A Target_4N fCmHBMl emlDEBc Incongruent right correct Normal 2231.987
1 7 LeftSmaller PercCAPrac Prime_6N Target_6A CJjeadM IFmbcaE Congruent right error Normal 2676.137
1 8 LeftSmaller PercCAPrac Prime_4N Target_6N lBaCAmd mEeMAGI Incongruent left error Normal 3148.485
1 9 LeftSmaller PercCAPrac Prime_6N Target_6N jEgGKdL KCELHMB Congruent right error Normal 1823.691
1 10 LeftSmaller PercCAPrac Prime_4N Target_1A JEFeDlH cemhMJD Congruent left correct Normal 3064.443
1 11 LeftSmaller PercCAPrac Prime_1N Target_1A adCkHeL JfihHFA Congruent right error Normal 1822.25
1 12 LeftSmaller PercCAPrac Prime_6A Target_6N eCdFmAG fBAlCgj Congruent right error Normal 4034.671
1 13 LeftSmaller PercCAPrac Prime_4A Target_9N mfDKIkj CBbdlaJ Incongruent right correct Normal 1573.077
1 14 LeftSmaller PercCAPrac Prime_6N Target_9N FbHijMm BfmJDgi Congruent right error Normal 2456.306
1 15 LeftSmaller PercCAPrac Prime_4A Target_1A FKdCMfH eEILcGa Congruent left correct Normal 2903.227
1 16 LeftSmaller PercCAPrac Prime_1N Target_6A gCAlbiI khFJijB Incongruent right correct Normal 3740.815
1 17 LeftSmaller PercCAExp1 Prime_1N Target_1N HdKDAmg HLghbAJ Congruent left correct Normal 1481.403
1 18 LeftSmaller PercCAExp1 Prime_4A Target_4A jBkFaGh GDBJhjI Congruent left correct Normal 1471.469
1 19 LeftSmaller PercCAExp1 Prime_6A Target_6A FgDcEKA LgMDBHJ Congruent right error Normal 1637.154
1 20 LeftSmaller PercCAExp1 Prime_9N Target_1N DaFeAjC HCEGmMF Incongruent right correct Normal 1921.216
1 21 LeftSmaller PercCAExp1 Prime_6A Target_9A akHdLlB cHAhJil Congruent left correct Normal 2235.538
1 22 LeftSmaller PercCAExp1 Prime_9N Target_1A jMliCHe HekBIDL Incongruent left error Normal 1542.989
1 23 LeftSmaller PercCAExp1 Prime_9N Target_4A fJjcgkG gmIjfea Incongruent right correct Normal 1714.416
1 24 LeftSmaller PercCAExp1 Prime_6A Target_1A gkEJBDK fIDcglE Incongruent right correct Normal 3166.095
1 25 LeftSmaller PercCAExp1 Prime_9A Target_1A aAcmJdD hEAMiHI Incongruent left error Normal 1486.852
1 26 LeftSmaller PercCAExp1 Prime_4A Target_9A keKCBEF hCfEGDl Incongruent right correct Normal 1238.17
1 27 LeftSmaller PercCAExp1 Prime_6A Target_9N IdifHJG maGeABF Congruent right error Normal 1546.958
1 28 LeftSmaller PercCAExp1 Prime_4N Target_6N KAhDiEl lEaimDd Incongruent right correct Normal 2538.538
1 29 LeftSmaller PercCAExp1 Prime_9A Target_6N CJhbkgM BaAemlL Congruent left correct Normal 1968.231
1 30 LeftSmaller PercCAExp1 Prime_4N Target_1N aLMECkF fLmgeAD Congruent right error Normal 1888.092
1 31 LeftSmaller PercCAExp1 Prime_1N Target_4N bdfJghK kchiGCM Congruent right error Normal 2233.202
1 32 LeftSmaller PercCAExp1 Prime_9N Target_9A KIgmHiC jECaiMg Congruent left correct Normal 3018.35
1 33 LeftSmaller PercCAExp1 Prime_6N Target_9N AfJKkhC KbeBAIj Congruent left correct Normal 2073.035
1 34 LeftSmaller PercCAExp1 Prime_4A Target_4N ECLGAHg CKjigmh Congruent left correct Normal 2185.89
1 35 LeftSmaller PercCAExp1 Prime_9A Target_6A fLjdAGH dhLICjk Congruent right error Normal 2344.702
1 36 LeftSmaller PercCAExp1 Prime_4A Target_1N iJgCeFj MEkBLlc Congruent right error Normal 2916.163
1 37 LeftSmaller PercCAExp1 Prime_6N Target_6A kKdiBAm GecHKil Congruent right error Normal 1785.862
1 38 LeftSmaller PercCAExp1 Prime_9N Target_6N hClfmGF fkiaMKl Congruent left correct Normal 1432.375
1 39 LeftSmaller PercCAExp1 Prime_6A Target_6N DeBGJgL kLlDdjf Congruent left correct Normal 1639.54
1 40 LeftSmaller PercCAExp1 Prime_4N Target_1A KkaGhFe GMlDbIh Congruent right error Normal 3590.431
1 41 LeftSmaller PercCAExp1 Prime_4N Target_4A aecHBjG EfleDmC Congruent right error Normal 4855.985
1 42 LeftSmaller PercCAExp1 Prime_9N Target_9N HIGDeLF CFgjicI Congruent right error Normal 4429.773
1 43 LeftSmaller PercCAExp1 Prime_6N Target_4A DBLekKg iJLdGHF Incongruent right correct Normal 4705.015
1 44 LeftSmaller PercCAExp1 Prime_9A Target_4N dCkBhfD CdbHBGA Incongruent left error Normal 3463.961
1 45 LeftSmaller PercCAExp1 Prime_9N Target_6A HeFdaDL acDGmEL Congruent left correct Normal 2556.618
1 46 LeftSmaller PercCAExp1 Prime_6A Target_1N BcKHifb DBhcMbH Incongruent right correct Normal 1752.338
1 47 LeftSmaller PercCAExp1 Prime_1A Target_4N KmAgLbf eJFMAgd Congruent right error Normal 2059.548
1 48 LeftSmaller PercCAExp1 Prime_4A Target_6A mEKlABc ClkLHeA Incongruent left error Normal 2654.722
1 49 LeftSmaller PercCAExp1 Prime_6A Target_4A ElHGFAj eJBgiId Incongruent right correct Normal 2596.688
1 50 LeftSmaller PercCAExp1 Prime_4N Target_6A HkFEKba HiFAgab Incongruent left error Normal 1702.262
1 51 LeftSmaller PercCAExp1 Prime_1N Target_9N HIDJKdL ckEmlJK Incongruent left error Normal 2880.827
1 52 LeftSmaller PercCAExp1 Prime_1A Target_1A bcdlKjI bdgLJfE Congruent right error Normal 1686.667
1 53 LeftSmaller PercCAExp1 Prime_4A Target_9N aJIekFE kJBGafi Incongruent right correct Normal 1546.37
1 54 LeftSmaller PercCAExp1 Prime_1N Target_6N cKiEJjD DIHFjAa Incongruent left error Normal 2670.008
1 55 LeftSmaller PercCAExp1 Prime_4N Target_9A ljAbdFh efalBAc Incongruent left error Normal 2883.873
1 56 LeftSmaller PercCAExp1 Prime_1A Target_9A GCbgaDd dIJeHiL Incongruent left error Normal 1870.625
1 57 LeftSmaller PercCAExp1 Prime_6A Target_4N EAJHfic DklMBej Incongruent right correct Normal 1975.94
1 58 LeftSmaller PercCAExp1 Prime_4A Target_1A amKeDhf JgIdlmE Congruent left correct Normal 2936.001
1 59 LeftSmaller PercCAExp1 Prime_6N Target_9A KaHDECb JcGeEkB Congruent left correct Late 5176.682
1 60 LeftSmaller PercCAExp1 Prime_1A Target_1N lGLdMDg LCBHdEA Congruent right error Late 5966.564
1 61 LeftSmaller PercCAExp1 Prime_4A Target_6N ChfGlaL hABDgdL Incongruent right correct Normal 2264.847
1 62 LeftSmaller PercCAExp1 Prime_1N Target_4A AfIBHGE kgDFdBJ Congruent left correct Normal 1846.696
1 63 LeftSmaller PercCAExp1 Prime_1N Target_9A dhbiBkD FiAdfIH Incongruent left error Normal 1302.42
1 64 LeftSmaller PercCAExp1 Prime_6N Target_1A aBDAJdH GiHmgeD Incongruent right correct Normal 1538.34
1 65 LeftSmaller PercCAExp1 Prime_1A Target_6A JLmMhki eLcIKHi Incongruent right correct Normal 4605.632
1 66 LeftSmaller PercCAExp1 Prime_4N Target_4N LFhjKIg JjKIFGb Congruent left correct Normal 1897.476
1 67 LeftSmaller PercCAExp1 Prime_9A Target_9N jfldgAM MBdgfiE Congruent left correct Normal 2043.21
1 68 LeftSmaller PercCAExp1 Prime_9A Target_9A FGAkafg lECLida Congruent right error Normal 2360.288
1 69 LeftSmaller PercCAExp1 Prime_1N Target_6A HljIiLk DljaIfC Incongruent right correct Normal 2141.97
1 70 LeftSmaller PercCAExp1 Prime_4N Target_9N CKkHLEJ MicBhGL Incongruent right correct Normal 2298.875
1 71 LeftSmaller PercCAExp1 Prime_1A Target_6N mhKEFkb JmiBaGL Incongruent right correct Normal 2382.646
1 72 LeftSmaller PercCAExp1 Prime_1A Target_4A dHCFKAB jkIHeGa Congruent left correct Normal 2573.546
1 73 LeftSmaller PercCAExp1 Prime_6N Target_4N akjiIHF CeIcmdB Incongruent right correct Late 5493.269
1 74 LeftSmaller PercCAExp1 Prime_6N Target_1N AMjHLdl ImglMDf Incongruent left error Normal 2533.817
1 75 LeftSmaller PercCAExp1 Prime_9A Target_1N AJkaDHb lGEaicD Incongruent left error Normal 1775.853
1 76 LeftSmaller PercCAExp1 Prime_1N Target_1A mAlIBLG CMjfgHF Congruent left correct Normal 1207.484
1 77 LeftSmaller PercCAExp1 Prime_1A Target_9N FaldIhG BAcLJbl Incongruent right correct Normal 1717.032
1 78 LeftSmaller PercCAExp1 Prime_6N Target_6N KMJEBjk mHcFgGJ Congruent left correct Normal 1986.842
1 79 LeftSmaller PercCAExp1 Prime_9A Target_4A AlkdhKL FakMGed Incongruent right correct Normal 1324.311
1 80 LeftSmaller PercCAExp1 Prime_9N Target_4N jAcDFBL cFJmjeH Incongruent left error Normal 1233.215
1 81 LeftLarger PercCBPrac Prime_6A Target_9N BDLfJbi cjCMFJg Congruent left error Normal 3087.103
1 82 LeftLarger PercCBPrac Prime_9N Target_6A MgBKmhl mjIgabh Congruent left error Normal 1351.437
1 83 LeftLarger PercCBPrac Prime_9A Target_6N kJacgBE GKiHDEe Congruent left error Normal 1405.643
1 84 LeftLarger PercCBPrac Prime_6N Target_1N jalceDh alMGgHD Incongruent right error Normal 1473.487
1 85 LeftLarger PercCBPrac Prime_9A Target_6A fKIeagd AGIdKbg Congruent left error Normal 1606.441
1 86 LeftLarger PercCBPrac Prime_4A Target_9N bEeJAhG mChcaBG Incongruent right error Normal 1899.972
1 87 LeftLarger PercCBPrac Prime_9N Target_1A GlBdaHh IkbEdJg Incongruent left correct Normal 1092.436
1 88 LeftLarger PercCBPrac Prime_1N Target_1A BIdLeFj MEaAlgh Congruent right correct Normal 1809.587
1 89 LeftLarger PercCBPrac Prime_4A Target_9A KEMicja LBjmfgH Incongruent right error Normal 2412.676
1 90 LeftLarger PercCBPrac Prime_1A Target_4A LeHDhJg bjkiLBG Congruent right correct Normal 1863.652
1 91 LeftLarger PercCBPrac Prime_9A Target_9A lKEiLmJ cLjHBIi Congruent right correct Normal 1355.586
1 92 LeftLarger PercCBPrac Prime_9N Target_6N dBAIDhH hdgaKGm Congruent left error Normal 1394.769
1 93 LeftLarger PercCBPrac Prime_6N Target_4N gEFjhkB AKbiGLE Incongruent left correct Normal 4013.955
1 94 LeftLarger PercCBPrac Prime_9N Target_1N dLgbJAa JElfMbC Incongruent right error Normal 1341.314
1 95 LeftLarger PercCBPrac Prime_6N Target_4A gkAIJEb MlicAIB Incongruent left correct Normal 2810.231
1 96 LeftLarger PercCBPrac Prime_6N Target_9A kgjAHfl lBmEiAb Congruent right correct Normal 1226.606
1 97 LeftLarger PercCBExp1 Prime_4A Target_9A lihHCAc EBMdGjk Incongruent left correct Normal 2573.821
1 98 LeftLarger PercCBExp1 Prime_6A Target_9N cGMiEhA acdEHFk Congruent right correct Normal 2036.887
1 99 LeftLarger PercCBExp1 Prime_1N Target_4A mIigdBc GlEMBJF Congruent right correct Normal 1662.089
1 100 LeftLarger PercCBExp1 Prime_6N Target_4A LEdmHie ACkhHGb Incongruent right error Normal 2007.928
1 101 LeftLarger PercCBExp1 Prime_4N Target_4N AGkeKCj BeJCKcj Congruent left error Normal 1454.675
1 102 LeftLarger PercCBExp1 Prime_6N Target_9N ACDMIlf hCgGMIF Congruent left error Normal 2281.881
1 103 LeftLarger PercCBExp1 Prime_6A Target_6N DHikABL dLJfAFH Congruent right correct Normal 1596.526
1 104 LeftLarger PercCBExp1 Prime_1A Target_9A KDlHIma bFMADGg Incongruent right error Normal 1831.207
1 105 LeftLarger PercCBExp1 Prime_4N Target_4A bBHigjF bMFJmDe Congruent left error Normal 2152.164
1 106 LeftLarger PercCBExp1 Prime_1N Target_1A MdmkLlK lacEfgF Congruent right correct Normal 2334.095
1 107 LeftLarger PercCBExp1 Prime_4N Target_6N fJEMHgI KafbkjJ Incongruent left correct Normal 2465.046
1 108 LeftLarger PercCBExp1 Prime_9A Target_9N giLFmHa fhDKFLb Congruent left error Normal 2149.399
1 109 LeftLarger PercCBExp1 Prime_6N Target_1A kahGFEJ gJHEaeB Incongruent left correct Normal 2534.457
1 110 LeftLarger PercCBExp1 Prime_4N Target_9N BEbhCcf EDcKIHa Incongruent right error Normal 2104.054
1 111 LeftLarger PercCBExp1 Prime_9N Target_1N jIeKiDl iAmcjMB Incongruent left correct Normal 2054.994
1 112 LeftLarger PercCBExp1 Prime_6N Target_4N CjElDca ciDeIfd Incongruent right error Normal 2466.292
1 113 LeftLarger PercCBExp1 Prime_6A Target_4A aDgCcbH ighdHGB Incongruent left correct Normal 1715.168
1 114 LeftLarger PercCBExp1 Prime_1N Target_4N hdlKkjF gFKmdEc Congruent left error Normal 2977.362
1 115 LeftLarger PercCBExp1 Prime_6N Target_1N lEgJjcD AIFGiBE Incongruent left correct Normal 2543.902
1 116 LeftLarger PercCBExp1 Prime_4A Target_4N imfbIkD ibjcLfC Congruent right correct Normal 1829.363
1 117 LeftLarger PercCBExp1 Prime_1A Target_1A IcElHgD aghbfHm Congruent left error Normal 1722.809
1 118 LeftLarger PercCBExp1 Prime_6N Target_9A EihjAda fIFiKCh Congruent left error Normal 1891.43
1 119 LeftLarger PercCBExp1 Prime_1N Target_1N EgmKLji EjFacDG Congruent right correct Normal 1933.449
1 120 LeftLarger PercCBExp1 Prime_1A Target_6N agFmCkD fIEGjMe Incongruent left correct Normal 2085.748
1 121 LeftLarger PercCBExp1 Prime_4N Target_6A lLHDKFi geBIHaL Incongruent left correct Normal 2636.618
1 122 LeftLarger PercCBExp1 Prime_1A Target_1N hjFAiaH eAhHFMj Congruent right correct Normal 3184.263
1 123 LeftLarger PercCBExp1 Prime_4N Target_9A icfLdeH jMlKmFk Incongruent right error Normal 1909.07
1 124 LeftLarger PercCBExp1 Prime_9A Target_1A lFEHbLA aIjFkMG Incongruent left correct Normal 1931.269
1 125 LeftLarger PercCBExp1 Prime_9N Target_4A eDlAaFI GgEIBHm Incongruent right error Normal 1754.827
1 126 LeftLarger PercCBExp1 Prime_9A Target_9A kHIhBFK MfdHFLA Congruent left error Normal 2275.596
1 127 LeftLarger PercCBExp1 Prime_9N Target_4N EGklHDB MKgCcfe Incongruent right error Normal 2493.064
1 128 LeftLarger PercCBExp1 Prime_9N Target_1A gmDlGeI dHihBJA Incongruent left correct Normal 1817.234
1 129 LeftLarger PercCBExp1 Prime_4N Target_1N dhkjiEa BiGMAHc Congruent right correct Normal 3099.703
1 130 LeftLarger PercCBExp1 Prime_6A Target_1A GIeglCL mKJAbFM Incongruent left correct Normal 4110.332
1 131 LeftLarger PercCBExp1 Prime_4A Target_1N GMcahbk eifGbAj Congruent right correct Normal 3290.951
1 132 LeftLarger PercCBExp1 Prime_1N Target_6N eDBEfbL iEkMBaF Incongruent right error Normal 2339.733
1 133 LeftLarger PercCBExp1 Prime_6A Target_1N BbeCgHc aHkIMFD Incongruent right error Normal 2193.772
1 134 LeftLarger PercCBExp1 Prime_9A Target_4A bHKmfJE akKhegf Incongruent left correct Normal 3395.843
1 135 LeftLarger PercCBExp1 Prime_1N Target_6A EgemDfH jaIkmDF Incongruent left correct Normal 1814.907
1 136 LeftLarger PercCBExp1 Prime_1A Target_4A HCeFhBk BGgLHIl Congruent left error Normal 3227.764
1 137 LeftLarger PercCBExp1 Prime_9N Target_6A EigjaDd kJMDaFg Congruent left error Normal 2334.846
1 138 LeftLarger PercCBExp1 Prime_1N Target_9A eAILiBh KLfChga Incongruent left correct Normal 1483.802
1 139 LeftLarger PercCBExp1 Prime_4A Target_6A iaDjFlJ IBgALbj Incongruent left correct Normal 2668.029
1 140 LeftLarger PercCBExp1 Prime_6A Target_9A cDMdEHg LGBFdaK Congruent right correct Normal 2339.691
1 141 LeftLarger PercCBExp1 Prime_6N Target_6A bImkaKj IkblDeH Congruent right correct Normal 2051.417
1 142 LeftLarger PercCBExp1 Prime_1N Target_9N gmeEiAb KILBalH Incongruent left correct Normal 2120.363
1 143 LeftLarger PercCBExp1 Prime_9N Target_9N LkilGIH LcFMDCJ Congruent left error Normal 1989.802
1 144 LeftLarger PercCBExp1 Prime_6A Target_4N KeJCbgI mdiIlLM Incongruent right error Normal 1973.666
1 145 LeftLarger PercCBExp1 Prime_6A Target_6A iGahdJD GmBeLbE Congruent left error Normal 2216.069
1 146 LeftLarger PercCBExp1 Prime_1A Target_6A CJbfEeL AcMgIFB Incongruent left correct Normal 2418.922
1 147 LeftLarger PercCBExp1 Prime_9A Target_1N FDedKHb cjimHAD Incongruent right error Normal 1910.493
1 148 LeftLarger PercCBExp1 Prime_4A Target_6N gHCaIbL EHLCBih Incongruent left correct Normal 2918.98
1 149 LeftLarger PercCBExp1 Prime_9A Target_6N JDKjMfh LCHiGJk Congruent left error Normal 1886.802
1 150 LeftLarger PercCBExp1 Prime_9A Target_6A fFBCcGe gdMlcmF Congruent left error Normal 1488.748
1 151 LeftLarger PercCBExp1 Prime_4A Target_1A klGCHjB hbDmHIM Congruent left error Normal 2652.879
1 152 LeftLarger PercCBExp1 Prime_4A Target_4A FgMbdKh MhcJadG Congruent right correct Normal 2777.009
1 153 LeftLarger PercCBExp1 Prime_6N Target_6N cFjaBLd dEahgFk Congruent right correct Normal 2228.495
1 154 LeftLarger PercCBExp1 Prime_9N Target_6N bldFkiK KhijFHd Congruent left error Normal 1530.32
1 155 LeftLarger PercCBExp1 Prime_1A Target_4N dLafGAC gEmjCcF Congruent right correct Normal 1607.337
1 156 LeftLarger PercCBExp1 Prime_1A Target_9N IGchlBL KGCfiDg Incongruent left correct Normal 2229.076
1 157 LeftLarger PercCBExp1 Prime_4N Target_1A ELmMfkg KAbCFjl Congruent right correct Normal 1718.981
1 158 LeftLarger PercCBExp1 Prime_4A Target_9N DeEdGmC LhMBbJK Incongruent left correct Normal 2382.811
1 159 LeftLarger PercCBExp1 Prime_9A Target_4N mkHLelf MjGelgE Incongruent right error Normal 1943.042
1 160 LeftLarger PercCBExp1 Prime_9N Target_9A EDhlgHi efmElMF Congruent right correct Normal 3182.341
2 1 LeftSmaller PercCAPrac Prime_6N Target_1N DFfgJlK BjlEidI Incongruent left error Normal 971.8898
2 2 LeftSmaller PercCAPrac Prime_4A Target_4N dLJgABC EJjGAKB Congruent left correct Normal 775.6058
2 3 LeftSmaller PercCAPrac Prime_4N Target_4A GbJgkEj GCEDIeb Congruent left correct Normal 592.6684
2 4 LeftSmaller PercCAPrac Prime_1N Target_6A CDaMJgG DielIGE Incongruent right correct Normal 492.3987
2 5 LeftSmaller PercCAPrac Prime_4N Target_9N cafJhIG AmbIiHh Incongruent right correct Normal 463.6473
2 6 LeftSmaller PercCAPrac Prime_9A Target_9A HcgFkLD BCcMmKh Congruent right error Normal 394.7045
2 7 LeftSmaller PercCAPrac Prime_4N Target_6A fFgCMhB IGEAMmC Incongruent right correct Normal 375.2036
2 8 LeftSmaller PercCAPrac Prime_4A Target_6N kmJIdMf EghfiKc Incongruent left error Normal 390.3749
2 9 LeftSmaller PercCAPrac Prime_6A Target_1N GDdJbKl JHiGhKF Incongruent left error Normal 544.8983
2 10 LeftSmaller PercCAPrac Prime_9A Target_4A kaHKIfL HhiakEK Incongruent left error Normal 611.9574
2 11 LeftSmaller PercCAPrac Prime_9A Target_1A lbcGAeB fbdKCMm Incongruent left error Normal 492.3758
2 12 LeftSmaller PercCAPrac Prime_1N Target_4N lcdGLjE JEklgFm Congruent left correct Normal 709.0395
2 13 LeftSmaller PercCAPrac Prime_1A Target_4A dcgHjKA DECAHha Congruent right error Normal 426.3489
2 14 LeftSmaller PercCAPrac Prime_6N Target_6N cebAaid lbmAach Congruent right error Normal 517.5041
2 15 LeftSmaller PercCAPrac Prime_6A Target_6N mBcFaMk CdIjLli Congruent right error Normal 431.6959
2 16 LeftSmaller PercCAPrac Prime_6A Target_9N CJEjeKA cIebLiD Congruent right error Normal 582.6746
2 17 LeftSmaller PercCAExp1 Prime_4A Target_4N dGbHJBA CJDfgHa Congruent left correct Normal 965.6217
2 18 LeftSmaller PercCAExp1 Prime_9A Target_6A iCakEfI GlBceMm Congruent right error Normal 1475.108
2 19 LeftSmaller PercCAExp1 Prime_9N Target_6N cghfAkI CcALmbg Congruent right error Normal 1053.664
2 20 LeftSmaller PercCAExp1 Prime_6A Target_1A DGLeKAm FgLejHA Incongruent left error Normal 1337.844
2 21 LeftSmaller PercCAExp1 Prime_6N Target_6A idEmBlI JMIDmGf Congruent right error Normal 674.9088
2 22 LeftSmaller PercCAExp1 Prime_1N Target_9N jakmJGE DJBMAhm Incongruent right correct Normal 834.5691
2 23 LeftSmaller PercCAExp1 Prime_9A Target_1N meECdik kfBCjID Incongruent left error Normal 842.5257
2 24 LeftSmaller PercCAExp1 Prime_6A Target_6A gMKejCh cLabiHB Congruent right error Normal 747.4242
2 25 LeftSmaller PercCAExp1 Prime_6A Target_1N fhGabBK FdEjGLl Incongruent left error Normal 1059.542
2 26 LeftSmaller PercCAExp1 Prime_1N Target_4A lHJGgCB cgCKfia Congruent left correct Normal 1234.937
2 27 LeftSmaller PercCAExp1 Prime_4A Target_9N GjbHdAJ lcGhMEK Incongruent right correct Normal 1316.441
2 28 LeftSmaller PercCAExp1 Prime_6A Target_4A bJHAacL lCMIAbe Incongruent left error Normal 713.8893
2 29 LeftSmaller PercCAExp1 Prime_6A Target_9N hdjeLAi KfkHEGc Congruent right error Normal 691.9216
2 30 LeftSmaller PercCAExp1 Prime_6N Target_4N AhfBFgL aldKIFC Incongruent left error Normal 611.4587
2 31 LeftSmaller PercCAExp1 Prime_9A Target_9A dMgFKED IJdbgjm Congruent right error Normal 543.1603
2 32 LeftSmaller PercCAExp1 Prime_6A Target_6N EdHKbDF MHKaDhi Congruent right error Normal 681.3414
2 33 LeftSmaller PercCAExp1 Prime_6N Target_9N kaGbelB HAhliMC Congruent right error Normal 586.3718
2 34 LeftSmaller PercCAExp1 Prime_4N Target_1N BjAILbH eHfJmdF Congruent left correct Normal 520.2442
2 35 LeftSmaller PercCAExp1 Prime_4A Target_4A dMgeKcm gAGLCij Congruent left correct Normal 559.5641
2 36 LeftSmaller PercCAExp1 Prime_9A Target_1A HgMlFGA mglMAGI Incongruent left error Normal 598.1346
2 37 LeftSmaller PercCAExp1 Prime_4N Target_6N FDaHMCe ijCadfD Incongruent right correct Normal 652.1792
2 38 LeftSmaller PercCAExp1 Prime_1N Target_6A CcFdAMJ dbADBlh Incongruent right correct Normal 605.1089
2 39 LeftSmaller PercCAExp1 Prime_6N Target_4A hbGMagD JHgkhGK Incongruent left error Normal 619.7557
2 40 LeftSmaller PercCAExp1 Prime_4A Target_1A MlJCKDk FcHIjbd Congruent left correct Normal 563.071
2 41 LeftSmaller PercCAExp1 Prime_4N Target_9A FjbHMAG HbDBdfJ Incongruent right correct Normal 568.9794
2 42 LeftSmaller PercCAExp1 Prime_4A Target_9A gGCdiEM MIeEbjc Incongruent right correct Normal 464.0312
2 43 LeftSmaller PercCAExp1 Prime_9A Target_4N iIcBmHE icgJAkD Incongruent left error Normal 529.5126
2 44 LeftSmaller PercCAExp1 Prime_1N Target_6N dDkGFAJ eBaGIgi Incongruent right correct Normal 643.507
2 45 LeftSmaller PercCAExp1 Prime_1A Target_9A kdCIFcA eDKbdiI Incongruent right correct Normal 499.3878
2 46 LeftSmaller PercCAExp1 Prime_1N Target_4N FJMgIBd KaFbLJe Congruent left correct Normal 915.7109
2 47 LeftSmaller PercCAExp1 Prime_9N Target_1A GlKAjHF FCAlKjL Incongruent left error Normal 560.6285
2 48 LeftSmaller PercCAExp1 Prime_6N Target_1N KaHDcLJ bgIJmlG Incongruent left error Normal 679.6617
2 49 LeftSmaller PercCAExp1 Prime_4A Target_6A GjbcKHa kHDGJie Incongruent right correct Normal 472.3364
2 50 LeftSmaller PercCAExp1 Prime_6N Target_6N jlEmJhB eFhLcfd Congruent right error Normal 665.8975
2 51 LeftSmaller PercCAExp1 Prime_4N Target_4A ckgAHaD IHajBGh Congruent left correct Normal 633.0598
2 52 LeftSmaller PercCAExp1 Prime_1A Target_9N jecLhDi lhIAfJB Incongruent right correct Normal 623.3765
2 53 LeftSmaller PercCAExp1 Prime_1N Target_9A GcJmFCe fhjLHla Incongruent right correct Normal 463.8567
2 54 LeftSmaller PercCAExp1 Prime_4A Target_6N eBEDILk daKGjli Incongruent right correct Normal 647.5794
2 55 LeftSmaller PercCAExp1 Prime_6N Target_1A bmgEckh clMKAFi Incongruent left error Normal 515.2182
2 56 LeftSmaller PercCAExp1 Prime_9A Target_4A alEIgGD CeLIGhJ Incongruent left error Normal 822.4854
2 57 LeftSmaller PercCAExp1 Prime_6A Target_4N DfcMBEF jCacJfI Incongruent left error Normal 552.3312
2 58 LeftSmaller PercCAExp1 Prime_4N Target_9N MeDcFEl amgBehk Incongruent right correct Late 15773.08
2 59 LeftSmaller PercCAExp1 Prime_1A Target_1N cIilEJC ediIcBL Congruent left correct Normal 2729.142
2 60 LeftSmaller PercCAExp1 Prime_6A Target_9A HDckLBE iKJIdmM Congruent right error Normal 4358.201
2 61 LeftSmaller PercCAExp1 Prime_9N Target_9A gjeifhE JIGgdjD Congruent right error Normal 971.2951
2 62 LeftSmaller PercCAExp1 Prime_4A Target_1N DMmEAih ciAEehL Congruent left correct Late 34923.34
2 63 LeftSmaller PercCAExp1 Prime_9N Target_4N GAgBJHk ABgkaiJ Incongruent left error Normal 936.1085
2 64 LeftSmaller PercCAExp1 Prime_4N Target_6A kMDCIcj abcGfkD Incongruent right correct Normal 494.9287
2 65 LeftSmaller PercCAExp1 Prime_9N Target_4A iMcHdCB eBaHjgm Incongruent left error Normal 446.9664
2 66 LeftSmaller PercCAExp1 Prime_1A Target_6N EakLfjC LlkfgDC Incongruent right correct Normal 600.7585
2 67 LeftSmaller PercCAExp1 Prime_1A Target_1A DKhmjbi HiFMcAI Congruent left correct Normal 510.7659
2 68 LeftSmaller PercCAExp1 Prime_9N Target_1N JcmeDgd IeAEhFc Incongruent left error Normal 621.2233
2 69 LeftSmaller PercCAExp1 Prime_4N Target_1A FhkJgDf hFaDGEf Congruent left correct Normal 537.5149
2 70 LeftSmaller PercCAExp1 Prime_9N Target_9N JHcCmFB jfdaLgl Congruent right error Normal 565.9344
2 71 LeftSmaller PercCAExp1 Prime_4N Target_4N FfICLkA ckmbjKI Congruent left correct Normal 516.5721
2 72 LeftSmaller PercCAExp1 Prime_1A Target_4N aEmilKG geKfmFa Congruent left correct Normal 676.7467
2 73 LeftSmaller PercCAExp1 Prime_9N Target_6A jeIfkgh KgEJicb Congruent right error Normal 678.3281
2 74 LeftSmaller PercCAExp1 Prime_1N Target_1N lkiJajE aFljMBJ Congruent left correct Normal 727.7584
2 75 LeftSmaller PercCAExp1 Prime_1A Target_6A GabLlcF gcaLlJi Incongruent right correct Normal 901.527
2 76 LeftSmaller PercCAExp1 Prime_1N Target_1A FgHMLja biCJdle Congruent left correct Normal 445.8442
2 77 LeftSmaller PercCAExp1 Prime_9A Target_6N JAGFgdb faigkDH Congruent right error Normal 876.4237
2 78 LeftSmaller PercCAExp1 Prime_9A Target_9N mjklidE cmabfMl Congruent right error Normal 436.2067
2 79 LeftSmaller PercCAExp1 Prime_6N Target_9A GbmJBLe DCbeAcG Congruent right error Normal 487.5947
2 80 LeftSmaller PercCAExp1 Prime_1A Target_4A mBFcaDK HKDdhmi Congruent left correct Normal 494.2623
2 81 LeftLarger PercCBPrac Prime_1A Target_4N EjgLFbC lgJfeKF Congruent right correct Normal 3270.097
2 82 LeftLarger PercCBPrac Prime_4A Target_1A djHGDBl AkLbchJ Congruent left error Normal 2834.552
2 83 LeftLarger PercCBPrac Prime_6N Target_4N fakBKlF FagcmAM Incongruent left correct Normal 3004.775
2 84 LeftLarger PercCBPrac Prime_6N Target_6N ijIFDhe EiFHAlf Congruent right correct Normal 3394.977
2 85 LeftLarger PercCBPrac Prime_4N Target_4A HCJfcFm FgLbKhe Congruent left error Normal 4077.312
2 86 LeftLarger PercCBPrac Prime_9N Target_9N EkgHdmG cFAilHg Congruent right correct Normal 956.3486
2 87 LeftLarger PercCBPrac Prime_1A Target_6A DbAFaIG gGejkKm Incongruent right error Normal 1145.044
2 88 LeftLarger PercCBPrac Prime_4A Target_9N KlBgaJF GFdgcCk Incongruent right error Normal 2677.868
2 89 LeftLarger PercCBPrac Prime_6A Target_1A JeLhmFK DhGAgIb Incongruent left correct Normal 3625.353
2 90 LeftLarger PercCBPrac Prime_6A Target_9N MJldGDA LEDJjAl Congruent right correct Normal 3333.49
2 91 LeftLarger PercCBPrac Prime_9A Target_4A kicLGbe mHFKLgb Incongruent left correct Normal 2552.598
2 92 LeftLarger PercCBPrac Prime_6A Target_9A eIiBCAh bdlEcji Congruent right correct Normal 982.9515
2 93 LeftLarger PercCBPrac Prime_1A Target_1N BgkdjfI eJckbIK Congruent left error Normal 661.2611
2 94 LeftLarger PercCBPrac Prime_6N Target_6A JlBMAFh kBdGKDH Congruent right correct Normal 1209.872
2 95 LeftLarger PercCBPrac Prime_1A Target_6N dAeibGF ljLMmBe Incongruent right error Normal 1258.378
2 96 LeftLarger PercCBPrac Prime_6A Target_4A ikmhfjd BImkaEC Incongruent left correct Normal 671.3031
2 97 LeftLarger PercCBExp1 Prime_9A Target_6N gilfFch LbIgcEd Congruent right correct Normal 1142.553
2 98 LeftLarger PercCBExp1 Prime_6A Target_6N ihCaGHj cdgiIbf Congruent right correct Normal 1008.497
2 99 LeftLarger PercCBExp1 Prime_4N Target_9N blFLHBE lLGIHfj Incongruent right error Normal 539.9322
2 100 LeftLarger PercCBExp1 Prime_4N Target_6N mIhliFc GmBKEgJ Incongruent right error Normal 495.9841
2 101 LeftLarger PercCBExp1 Prime_1N Target_9N KgHchdk gMABICd Incongruent right error Normal 448.763
2 102 LeftLarger PercCBExp1 Prime_1N Target_9A AGbcCFk lBAKhCm Incongruent right error Normal 726.7551
2 103 LeftLarger PercCBExp1 Prime_1A Target_1A ICHdaDG kEFcgdi Congruent left error Normal 631.5052
2 104 LeftLarger PercCBExp1 Prime_4N Target_1N BeEJDck KimjIJb Congruent left error Normal 621.1196
2 105 LeftLarger PercCBExp1 Prime_6A Target_4A iAfjCag DJmlhCA Incongruent left correct Normal 804.0965
2 106 LeftLarger PercCBExp1 Prime_1A Target_9N deKaFHk AhCbeHd Incongruent right error Normal 743.7342
2 107 LeftLarger PercCBExp1 Prime_4A Target_6A GCAMhmi GHMJgah Incongruent right error Normal 1235.533
2 108 LeftLarger PercCBExp1 Prime_9N Target_4A ALCbcHE AjDIcaG Incongruent left correct Normal 1150.07
2 109 LeftLarger PercCBExp1 Prime_6A Target_9A BMFlEmd BcifMDH Congruent right correct Normal 1857.272
2 110 LeftLarger PercCBExp1 Prime_9N Target_9N BMJakfG AkiLHdE Congruent right correct Normal 1401.515
2 111 LeftLarger PercCBExp1 Prime_1A Target_1N cLkDlFf kcdjMDg Congruent left error Normal 782.825
2 112 LeftLarger PercCBExp1 Prime_6N Target_1N kbEBjcL GIdeiAg Incongruent left correct Normal 658.6058
2 113 LeftLarger PercCBExp1 Prime_4N Target_9A FMCIELK DgkMcde Incongruent right error Normal 927.8121
2 114 LeftLarger PercCBExp1 Prime_6N Target_6A aEJGhLm HglCGaL Congruent right correct Normal 1751.881
2 115 LeftLarger PercCBExp1 Prime_4N Target_1A dCmLEFi maEAbeF Congruent left error Normal 861.2428
2 116 LeftLarger PercCBExp1 Prime_1N Target_4A bmhdiCF BmfMHaJ Congruent left error Normal 2255.662
2 117 LeftLarger PercCBExp1 Prime_4A Target_4N EBKFlJA HgEMieD Congruent right correct Normal 996.183
2 118 LeftLarger PercCBExp1 Prime_4N Target_4N fIJhkHC gfMDGjI Congruent left error Normal 1088.636
2 119 LeftLarger PercCBExp1 Prime_1A Target_6N FdeaEMD FeHmkCi Incongruent right error Normal 4207.283
2 120 LeftLarger PercCBExp1 Prime_9A Target_1A feKjHhA edcDHlK Incongruent right error Normal 2610.239
2 121 LeftLarger PercCBExp1 Prime_6A Target_1A abkEehm eDmAkEf Incongruent right error Normal 1492.455
2 122 LeftLarger PercCBExp1 Prime_1N Target_6A bGFLakJ AHCfbeg Incongruent right error Normal 1294.732
2 123 LeftLarger PercCBExp1 Prime_4N Target_6A AbIheLg LlaACIg Incongruent left correct Normal 1697.54
2 124 LeftLarger PercCBExp1 Prime_9N Target_6A mLelbBh gBLmAbd Congruent right correct Normal 2040.449
2 125 LeftLarger PercCBExp1 Prime_6N Target_4N MbIjkEc iMcAjge Incongruent left correct Late 7871.548
2 126 LeftLarger PercCBExp1 Prime_6N Target_1A ChgKLmc hikmeHG Incongruent left correct Normal 2255.96
2 127 LeftLarger PercCBExp1 Prime_4A Target_9N AGCFHie JCBeDGg Incongruent right error Normal 2787.155
2 128 LeftLarger PercCBExp1 Prime_9A Target_1N fkdDBeG fIFLlgD Incongruent left correct Normal 3321.872
2 129 LeftLarger PercCBExp1 Prime_6N Target_9A MCAEDKe mdLgKCe Congruent right correct Normal 3760.055
2 130 LeftLarger PercCBExp1 Prime_6A Target_4N fdeIlbC mKLacfl Incongruent left correct Normal 1321.604
2 131 LeftLarger PercCBExp1 Prime_6N Target_4A jfeCIJm MamhBlH Incongruent left correct Normal 1840.663
2 132 LeftLarger PercCBExp1 Prime_1N Target_1A ekhmCGE IKdBfkC Congruent right correct Normal 2678.947
2 133 LeftLarger PercCBExp1 Prime_4N Target_4A aCljEmb aFlkghb Congruent left error Normal 1766.873
2 134 LeftLarger PercCBExp1 Prime_4A Target_1A dHgaAhB BMadLhg Congruent left error Normal 1346.075
2 135 LeftLarger PercCBExp1 Prime_9N Target_1A DCeEdIK gCbFJij Incongruent left correct Normal 658.8265
2 136 LeftLarger PercCBExp1 Prime_1N Target_4N eECKdaf AfbBCla Congruent left error Normal 562.5613
2 137 LeftLarger PercCBExp1 Prime_9N Target_1N IdFJaKg bciALJF Incongruent left correct Normal 826.6155
2 138 LeftLarger PercCBExp1 Prime_9N Target_9A FAMDkBh iIBeaHJ Congruent right correct Normal 2870.191
2 139 LeftLarger PercCBExp1 Prime_1A Target_9A MblCBLD JlBHcej Incongruent right error Normal 1036.813
2 140 LeftLarger PercCBExp1 Prime_9A Target_6A aGCgAbm lICJmEL Congruent right correct Normal 1024.584
2 141 LeftLarger PercCBExp1 Prime_9A Target_4A heMIBCL FidKajc Incongruent left correct Normal 761.1397
2 142 LeftLarger PercCBExp1 Prime_6N Target_9N ElGAKCd eKbgjfG Congruent right correct Normal 830.5848
2 143 LeftLarger PercCBExp1 Prime_6N Target_6N jIFldah dDJHjam Congruent right correct Normal 714.9578
2 144 LeftLarger PercCBExp1 Prime_6A Target_9N BhIaldg gBFfMEG Congruent right correct Normal 793.3276
2 145 LeftLarger PercCBExp1 Prime_4A Target_1N MamAhDF aGMcECJ Congruent left error Normal 560.0072
2 146 LeftLarger PercCBExp1 Prime_9N Target_6N cklMDhB mBAGgel Congruent right correct Normal 772.1534
2 147 LeftLarger PercCBExp1 Prime_9N Target_4N jGJHAka HIifGgJ Incongruent right error Normal 3562.526
2 148 LeftLarger PercCBExp1 Prime_4A Target_6N IidHFKG AkIFaic Incongruent right error Normal 846.2756
2 149 LeftLarger PercCBExp1 Prime_9A Target_9N jAfkelE kLFcCAE Congruent left error Normal 719.7301
2 150 LeftLarger PercCBExp1 Prime_6A Target_6A MlgmcdI abAIjKe Congruent left error Normal 1376.507
2 151 LeftLarger PercCBExp1 Prime_1A Target_4A eIaJjBA AfjdEKL Congruent left error Normal 2146.679
2 152 LeftLarger PercCBExp1 Prime_9A Target_9A mfleDad jKDlaIM Congruent right correct Normal 1138.798
2 153 LeftLarger PercCBExp1 Prime_6A Target_1N ekBdLDc MfJEgIh Incongruent left correct Normal 845.4269
2 154 LeftLarger PercCBExp1 Prime_1N Target_1N ACikElj HfcIFGJ Congruent left error Normal 2788.835
2 155 LeftLarger PercCBExp1 Prime_1A Target_6A lBDdkGh MdlGhKi Incongruent right error Normal 2018.047
2 156 LeftLarger PercCBExp1 Prime_9A Target_4N fhMGAiD klJMhGA Incongruent left correct Normal 951.1628
2 157 LeftLarger PercCBExp1 Prime_1A Target_4N dHamjkL lMhkjKb Congruent left error Normal 958.4964
2 158 LeftLarger PercCBExp1 Prime_4A Target_9A FhEMdfH JIGmAFg Incongruent right error Normal 706.5208
2 159 LeftLarger PercCBExp1 Prime_4A Target_4A BhJjblI KhMjkDd Congruent left error Normal 820.0651
2 160 LeftLarger PercCBExp1 Prime_1N Target_6N GCKBFJE KHlijdc Incongruent right error Normal 2094.491
3 1 LeftLarger PercCAPrac Prime_1A Target_1A afkMJLA MlADbKd Congruent right correct Normal 593.8015
3 2 LeftLarger PercCAPrac Prime_6N Target_9N gAHLKBj IGBmKeE Congruent right correct Normal 1347.395
3 3 LeftLarger PercCAPrac Prime_4A Target_1A iHMgGCA hfjbgFH Congruent left error Normal 1142.699
3 4 LeftLarger PercCAPrac Prime_4N Target_6N FgImdGa DGfiCcM Incongruent left correct Normal 973.0195
3 5 LeftLarger PercCAPrac Prime_6N Target_1N lgFdmjL DMAgLeG Incongruent left correct Normal 1502.957
3 6 LeftLarger PercCAPrac Prime_4N Target_4N eJgjfkL DIJKjib Congruent left error Normal 961.6427
3 7 LeftLarger PercCAPrac Prime_1N Target_4A mgHbAcJ CGalfkE Congruent left error Normal 787.3206
3 8 LeftLarger PercCAPrac Prime_9N Target_1A hDdKfCb abHMfJL Incongruent right error Normal 900.8716
3 9 LeftLarger PercCAPrac Prime_4N Target_9A GceLmJd BjAIekb Incongruent left correct Normal 1101.906
3 10 LeftLarger PercCAPrac Prime_6N Target_4N JeEhGfA IjdmEKb Incongruent left correct Normal 922.232
3 11 LeftLarger PercCAPrac Prime_6A Target_6N KgGEdji KfCLEJG Congruent left error Normal 837.3944
3 12 LeftLarger PercCAPrac Prime_9A Target_9N mfcBFaE ajJgcBl Congruent left error Normal 892.379
3 13 LeftLarger PercCAPrac Prime_1A Target_9N hHLfbIC KhgbHlJ Incongruent right error Normal 1215.754
3 14 LeftLarger PercCAPrac Prime_4A Target_1N AaegCch eaJCGdE Congruent left error Normal 921.7532
3 15 LeftLarger PercCAPrac Prime_4A Target_9N edfCBMh FHIfEkd Incongruent left correct Normal 839.1147
3 16 LeftLarger PercCAPrac Prime_4N Target_1A jgAbhLl aFhcLdD Congruent right correct Normal 1147.394
3 17 LeftLarger PercCAExp1 Prime_9N Target_9A HjcBiCG ChbFBmk Congruent right correct Normal 894.159
3 18 LeftLarger PercCAExp1 Prime_6A Target_6N aEDdFlG bLEdeMg Congruent left error Normal 1083.033
3 19 LeftLarger PercCAExp1 Prime_1A Target_1A agBLMDc mbEIJFd Congruent right correct Normal 1259.708
3 20 LeftLarger PercCAExp1 Prime_4A Target_4A cAGiaCe iBhgGHm Congruent right correct Normal 1380.303
3 21 LeftLarger PercCAExp1 Prime_4A Target_6A EkgHfiM JIfklKd Incongruent right error Normal 1097.925
3 22 LeftLarger PercCAExp1 Prime_4N Target_4N FgmCbDe CDgfHBE Congruent left error Normal 713.4436
3 23 LeftLarger PercCAExp1 Prime_1N Target_6A FLIeJaH IDdhmci Incongruent right error Normal 983.7519
3 24 LeftLarger PercCAExp1 Prime_1A Target_4N CelBgMK HBlFKcf Congruent right correct Normal 990.2906
3 25 LeftLarger PercCAExp1 Prime_9A Target_1A clHFdgJ JkHgFMG Incongruent left correct Normal 742.476
3 26 LeftLarger PercCAExp1 Prime_1A Target_1N CEKlBAI dleCBHF Congruent left error Normal 766.9354
3 27 LeftLarger PercCAExp1 Prime_6N Target_6A jMaJDlF fDaIejG Congruent left error Normal 984.3086
3 28 LeftLarger PercCAExp1 Prime_6A Target_4A BeimkAH BbaKCdf Incongruent left correct Normal 891.8713
3 29 LeftLarger PercCAExp1 Prime_9N Target_4N AdJMbHk fBKJclM Incongruent right error Normal 1017.052
3 30 LeftLarger PercCAExp1 Prime_4A Target_9A HLbdjDK FaDBgej Incongruent left correct Normal 1092.362
3 31 LeftLarger PercCAExp1 Prime_9A Target_6A GkBbMCJ lhgajek Congruent right correct Normal 819.138
3 32 LeftLarger PercCAExp1 Prime_4N Target_9N DaCElMe egCEfIb Incongruent right error Normal 1074.247
3 33 LeftLarger PercCAExp1 Prime_6A Target_6A ADImGja eDAGklK Congruent right correct Normal 930.6076
3 34 LeftLarger PercCAExp1 Prime_9A Target_4A ikmdFBM cGdlmkF Incongruent left correct Normal 1136.451
3 35 LeftLarger PercCAExp1 Prime_6N Target_4N GmLFMbc JiEjKcD Incongruent left correct Normal 977.6219
3 36 LeftLarger PercCAExp1 Prime_1N Target_1A mglCHJh KBjfCgD Congruent left error Normal 955.2691
3 37 LeftLarger PercCAExp1 Prime_9N Target_6N iFmgeGk LlIebAE Congruent left error Normal 1628.446
3 38 LeftLarger PercCAExp1 Prime_9A Target_4N jKIamBD dFaMDIg Incongruent right error Normal 1350.549
3 39 LeftLarger PercCAExp1 Prime_1A Target_9N CIAKbdh aldIGJC Incongruent right error Normal 1067.221
3 40 LeftLarger PercCAExp1 Prime_6A Target_1N FjfLkMC jAlehbI Incongruent left correct Normal 920.8036
3 41 LeftLarger PercCAExp1 Prime_9N Target_1A fjgHBIA GAMFdlc Incongruent left correct Normal 975.276
3 42 LeftLarger PercCAExp1 Prime_4A Target_1N EHjlCmL CHgdeAG Congruent left error Normal 831.1497
3 43 LeftLarger PercCAExp1 Prime_4N Target_6A bLfBHgD GAlfIKm Incongruent right error Normal 1009.95
3 44 LeftLarger PercCAExp1 Prime_6A Target_1A eAECIjL lGcLMJf Incongruent left correct Normal 891.9837
3 45 LeftLarger PercCAExp1 Prime_1N Target_4A dhLkagC HLEADck Congruent right correct Normal 981.5489
3 46 LeftLarger PercCAExp1 Prime_1A Target_9A LMBIgif edclbfM Incongruent right error Normal 1033.72
3 47 LeftLarger PercCAExp1 Prime_9A Target_6N aJbjHmA jmdMkia Congruent right correct Normal 741.59
3 48 LeftLarger PercCAExp1 Prime_1N Target_1N mafleKC CGEclAd Congruent right correct Normal 971.4619
3 49 LeftLarger PercCAExp1 Prime_6N Target_4A eDMEich mgFEGJM Incongruent right error Normal 1033.647
3 50 LeftLarger PercCAExp1 Prime_6N Target_9A fgJeDcb GALeKid Congruent right correct Normal 996.8195
3 51 LeftLarger PercCAExp1 Prime_9N Target_9N hbgmELD LKJklad Congruent right correct Normal 1096.342
3 52 LeftLarger PercCAExp1 Prime_1A Target_6A bBdlAFe IaKcLmk Incongruent left correct Normal 657.2968
3 53 LeftLarger PercCAExp1 Prime_9A Target_1N fmFDlhE BDlehgE Incongruent left correct Normal 682.5948
3 54 LeftLarger PercCAExp1 Prime_1N Target_9A jChkBIm LfHgJFd Incongruent right error Normal 967.5048
3 55 LeftLarger PercCAExp1 Prime_1N Target_9N fkKEeJc bAKlcGM Incongruent left correct Normal 1380.828
3 56 LeftLarger PercCAExp1 Prime_9N Target_6A LdhMliI gElAcHa Congruent left error Normal 910.6762
3 57 LeftLarger PercCAExp1 Prime_9A Target_9A EIHLFiC jDBAIci Congruent left error Normal 1084.687
3 58 LeftLarger PercCAExp1 Prime_4N Target_1A bfgBelA hEdfDkg Congruent right correct Normal 2075.201
3 59 LeftLarger PercCAExp1 Prime_6A Target_9N jgmLBfI aglCiId Congruent left error Normal 1442.365
3 60 LeftLarger PercCAExp1 Prime_6N Target_1N fldFgjh dgIiJLb Incongruent right error Normal 814.2452
3 61 LeftLarger PercCAExp1 Prime_4A Target_6N MdaeCcm djgmblk Incongruent right error Normal 908.1798
3 62 LeftLarger PercCAExp1 Prime_1N Target_4N FcBehKG HMKDFbi Congruent left error Normal 944.7148
3 63 LeftLarger PercCAExp1 Prime_1A Target_6N bgHFeEC DGJEHgA Incongruent right error Normal 1264.481
3 64 LeftLarger PercCAExp1 Prime_9A Target_9N fgAlDiB HjBJdFl Congruent right correct Normal 701.854
3 65 LeftLarger PercCAExp1 Prime_4A Target_9N GeDkfhc KCAhefL Incongruent right error Normal 549.878
3 66 LeftLarger PercCAExp1 Prime_6A Target_4N DjIKElM eAHcLid Incongruent left correct Normal 2077.986
3 67 LeftLarger PercCAExp1 Prime_4A Target_4N MfLKDBb emJGgIA Congruent left error Normal 721.4077
3 68 LeftLarger PercCAExp1 Prime_4N Target_4A FgAMiaD LECacMd Congruent left error Normal 1128.526
3 69 LeftLarger PercCAExp1 Prime_6A Target_9A iEfgBAK MhmiCej Congruent left error Normal 1703.236
3 70 LeftLarger PercCAExp1 Prime_4A Target_1A fLFjbHK jhKJbGi Congruent right correct Normal 554.301
3 71 LeftLarger PercCAExp1 Prime_9N Target_1N dHJcGjb GfBKHFc Incongruent right error Normal 958.4843
3 72 LeftLarger PercCAExp1 Prime_4N Target_9A bikEgHG BlaDEKI Incongruent right error Normal 651.3824
3 73 LeftLarger PercCAExp1 Prime_6N Target_1A IfCMkme mjgBiGe Incongruent left correct Normal 1363.205
3 74 LeftLarger PercCAExp1 Prime_6N Target_9N mCAfiKI LhJbBjm Congruent left error Normal 1665.575
3 75 LeftLarger PercCAExp1 Prime_6N Target_6N AbEgmfJ BGaChdi Congruent left error Normal 2017.435
3 76 LeftLarger PercCAExp1 Prime_1N Target_6N eBHKcaM aIFEgdM Incongruent left correct Normal 1806.041
3 77 LeftLarger PercCAExp1 Prime_1A Target_4A AfCHhDj LEdkecb Congruent left error Normal 2347.352
3 78 LeftLarger PercCAExp1 Prime_4N Target_1N aJKEmBg iGFfbIk Congruent left error Normal 2390.542
3 79 LeftLarger PercCAExp1 Prime_9N Target_4A MEiDljJ JkeMfhE Incongruent left correct Normal 1926.11
3 80 LeftLarger PercCAExp1 Prime_4N Target_6N eBdMGmL aKlGdeL Incongruent right error Normal 1658.465
3 81 LeftSmaller PercCBPrac Prime_9N Target_1A bcglLAK hklDIiG Incongruent left error Normal 1594.274
3 82 LeftSmaller PercCBPrac Prime_1N Target_9N MGCIkJl EDFkKij Incongruent right correct Normal 1090.289
3 83 LeftSmaller PercCBPrac Prime_1A Target_1N hJbFaeM dJFihLa Congruent left correct Normal 1569.04
3 84 LeftSmaller PercCBPrac Prime_6N Target_1N FeaMIbG MDBIFKJ Incongruent left error Normal 1251.392
3 85 LeftSmaller PercCBPrac Prime_1N Target_9A CBkhAgD CMDJfKe Incongruent right correct Normal 1794.218
3 86 LeftSmaller PercCBPrac Prime_1A Target_9N MIDfJhH DiFlcIL Incongruent right correct Normal 917.0573
3 87 LeftSmaller PercCBPrac Prime_4A Target_1A DchLmkI dhgjAmi Congruent left correct Normal 1256.489
3 88 LeftSmaller PercCBPrac Prime_9A Target_1A chFlJgB FBGfhgJ Incongruent left error Normal 943.0185
3 89 LeftSmaller PercCBPrac Prime_4A Target_9A KkBehcf AMmJdBK Incongruent right correct Normal 930.1581
3 90 LeftSmaller PercCBPrac Prime_6A Target_6N lGBLAfb LdgEaDB Congruent right error Normal 880.7073
3 91 LeftSmaller PercCBPrac Prime_1N Target_1N EklbKCd edhifmF Congruent left correct Normal 1216.993
3 92 LeftSmaller PercCBPrac Prime_6A Target_1N DFAamKl jfFgiKE Incongruent left error Normal 1277.614
3 93 LeftSmaller PercCBPrac Prime_6N Target_9N HMkjFDB bEMjhLH Congruent right error Normal 841.1548
3 94 LeftSmaller PercCBPrac Prime_6N Target_9A lHihGLd MDGHclj Congruent left correct Normal 845.9734
3 95 LeftSmaller PercCBPrac Prime_9N Target_6N HGdcKJM IEldCfK Congruent left correct Normal 799.4266
3 96 LeftSmaller PercCBPrac Prime_9A Target_1N FAdjILh hEAjfdG Incongruent left error Normal 1046.21
3 97 LeftSmaller PercCBExp1 Prime_4A Target_6N cdCGeLm hCEiIdg Incongruent right correct Normal 1197.928
3 98 LeftSmaller PercCBExp1 Prime_1A Target_1A glGKFhE mFciLBd Congruent right error Normal 1546.728
3 99 LeftSmaller PercCBExp1 Prime_6N Target_4A hKMFJgA jBkeFcL Incongruent right correct Normal 1943.144
3 100 LeftSmaller PercCBExp1 Prime_6N Target_6N IcMbGFl gFBaHIK Congruent left correct Normal 1035.439
3 101 LeftSmaller PercCBExp1 Prime_9A Target_4N kijHGFf DCcMmdB Incongruent left error Normal 1153.767
3 102 LeftSmaller PercCBExp1 Prime_4A Target_4A HAIEaFk MiAckaI Congruent left correct Normal 1004.234
3 103 LeftSmaller PercCBExp1 Prime_6A Target_6N cIJDaEm iAhadck Congruent left correct Normal 737.6931
3 104 LeftSmaller PercCBExp1 Prime_4A Target_9N GbfkEmF FdEeAfi Incongruent right correct Normal 1228.73
3 105 LeftSmaller PercCBExp1 Prime_4A Target_1A cmFiMBL CGEmclh Congruent right error Normal 1527.146
3 106 LeftSmaller PercCBExp1 Prime_1N Target_1A BMjgEiK mgljLCb Congruent right error Normal 1114.904
3 107 LeftSmaller PercCBExp1 Prime_9N Target_4N IJbDHCA JkjdAfa Incongruent left error Normal 1204.216
3 108 LeftSmaller PercCBExp1 Prime_6N Target_9A ebdDJkl iDgdICB Congruent left correct Normal 1224.699
3 109 LeftSmaller PercCBExp1 Prime_9A Target_9N kBghDbm bgKahJD Congruent left correct Normal 1139.824
3 110 LeftSmaller PercCBExp1 Prime_6A Target_1N GAiKIda iJhFDmL Incongruent right correct Normal 1628.054
3 111 LeftSmaller PercCBExp1 Prime_1N Target_6A eDGjIKf LJigGah Incongruent right correct Normal 1749.255
3 112 LeftSmaller PercCBExp1 Prime_9N Target_6A jLakcHd GAbMeDl Congruent right error Normal 1594.182
3 113 LeftSmaller PercCBExp1 Prime_1N Target_9N mKLAIDg lfjDIHd Incongruent right correct Normal 1131.905
3 114 LeftSmaller PercCBExp1 Prime_4A Target_1N EgAFhKL cgCajbf Congruent right error Normal 1448.456
3 115 LeftSmaller PercCBExp1 Prime_9N Target_1A hliIdLE GLhEFgl Incongruent right correct Normal 1621.244
3 116 LeftSmaller PercCBExp1 Prime_1N Target_6N jIcFfMa hACedca Incongruent right correct Normal 1767.08
3 117 LeftSmaller PercCBExp1 Prime_4N Target_6A fFcBHIC aeGAjCM Incongruent left error Normal 1383.536
3 118 LeftSmaller PercCBExp1 Prime_1A Target_6N ElKiIHg HdfglcE Incongruent right correct Normal 1589.954
3 119 LeftSmaller PercCBExp1 Prime_6A Target_1A HGIflAC EjLGclm Incongruent right correct Normal 1992.777
3 120 LeftSmaller PercCBExp1 Prime_1N Target_4A ClbgDaM IigJdLh Congruent left correct Normal 1936.685
3 121 LeftSmaller PercCBExp1 Prime_9A Target_6A cBAiKCF bDfLcCM Congruent left correct Normal 863.0441
3 122 LeftSmaller PercCBExp1 Prime_6N Target_4N JAbfKka klJcIeg Incongruent left error Normal 2186.064
3 123 LeftSmaller PercCBExp1 Prime_6N Target_1N mkadJLj iHEIGkj Incongruent right correct Normal 1804.299
3 124 LeftSmaller PercCBExp1 Prime_1N Target_4N MCALGDE kDFlGgM Congruent left correct Normal 916.2586
3 125 LeftSmaller PercCBExp1 Prime_4N Target_9A hGHDIfd GbEjMkF Incongruent left error Normal 1198.415
3 126 LeftSmaller PercCBExp1 Prime_9N Target_9A ahlCAJd GlDekgK Congruent left correct Normal 1063.475
3 127 LeftSmaller PercCBExp1 Prime_6N Target_1A cFbIKDa ECicbMg Incongruent left error Normal 1420.146
3 128 LeftSmaller PercCBExp1 Prime_9A Target_1A cGmlAjE LmckgEj Incongruent left error Normal 1377.782
3 129 LeftSmaller PercCBExp1 Prime_9A Target_4A CKfFImB CmMakie Incongruent left error Normal 1025.025
3 130 LeftSmaller PercCBExp1 Prime_9N Target_4A GIDdMmi IHlDmEF Incongruent right correct Normal 1303.051
3 131 LeftSmaller PercCBExp1 Prime_4N Target_4N JEicGhb hfJkgcM Congruent left correct Normal 1369.492
3 132 LeftSmaller PercCBExp1 Prime_4A Target_4N aIAhEFD DBFiCJc Congruent left correct Normal 819.9578
3 133 LeftSmaller PercCBExp1 Prime_1A Target_1N mlABjie AebkMjH Congruent left correct Normal 826.8374
3 134 LeftSmaller PercCBExp1 Prime_4N Target_1N blIkeai LcaglkF Congruent left correct Normal 963.1607
3 135 LeftSmaller PercCBExp1 Prime_1N Target_1N LHMfdbC lfGJhDB Congruent left correct Normal 626.5043
3 136 LeftSmaller PercCBExp1 Prime_6A Target_4A fmekGDB BdhMkJl Incongruent left error Normal 1151.44
3 137 LeftSmaller PercCBExp1 Prime_9A Target_6N jcJhadb dlJLkDa Congruent left correct Normal 936.8089
3 138 LeftSmaller PercCBExp1 Prime_1A Target_6A ieCLBEG iMFeaCl Incongruent right correct Normal 1246.647
3 139 LeftSmaller PercCBExp1 Prime_6A Target_6A JIlMmCF LEKlaBJ Congruent right error Normal 921.463
3 140 LeftSmaller PercCBExp1 Prime_1N Target_9A KcfjEMm GDadhcM Incongruent right correct Normal 1435.58
3 141 LeftSmaller PercCBExp1 Prime_6A Target_9A mJCbgjM AkDHcKb Congruent right error Normal 974.6385
3 142 LeftSmaller PercCBExp1 Prime_6N Target_6A dmLJIkD dJaegHi Congruent right error Normal 1676.635
3 143 LeftSmaller PercCBExp1 Prime_4A Target_9A jeHKbgD cmdGFEg Incongruent left error Normal 612.5765
3 144 LeftSmaller PercCBExp1 Prime_4N Target_6N dKFbjBc fHLhJIA Incongruent right correct Normal 1411.111
3 145 LeftSmaller PercCBExp1 Prime_1A Target_9N IedMKGl MFegcbC Incongruent left error Normal 1293.182
3 146 LeftSmaller PercCBExp1 Prime_4N Target_4A HFghfEb EiIDjek Congruent left correct Normal 2507.332
3 147 LeftSmaller PercCBExp1 Prime_9N Target_9N BlKIhDa dFMDGfI Congruent left correct Normal 2131.291
3 148 LeftSmaller PercCBExp1 Prime_4A Target_6A GaBdAfH MDgLmja Incongruent right correct Normal 1378.016
3 149 LeftSmaller PercCBExp1 Prime_9A Target_1N hMiBIDg kGaiMIL Incongruent left error Normal 1498.451
3 150 LeftSmaller PercCBExp1 Prime_4N Target_9N ekIiGEH jCJDEKm Incongruent right correct Normal 2015.144
3 151 LeftSmaller PercCBExp1 Prime_9A Target_9A kEfFcMh GkFBDlJ Congruent left correct Normal 1307.478
3 152 LeftSmaller PercCBExp1 Prime_1A Target_9A gAfILka Kdalgkb Incongruent left error Normal 876.0412
3 153 LeftSmaller PercCBExp1 Prime_6A Target_9N cKlLIMC DmaCGkB Congruent right error Normal 904.9316
3 154 LeftSmaller PercCBExp1 Prime_4N Target_1A LKDecCl HmElbfi Congruent right error Normal 1728.093
3 155 LeftSmaller PercCBExp1 Prime_6N Target_9N iEKJhDk dgKClmB Congruent left correct Normal 622.0837
3 156 LeftSmaller PercCBExp1 Prime_9N Target_1N elcIFDE LchCMdH Incongruent left error Normal 1036.882
3 157 LeftSmaller PercCBExp1 Prime_6A Target_4N gdblEcF jfHEmDd Incongruent left error Normal 982.5581
3 158 LeftSmaller PercCBExp1 Prime_1A Target_4A KMGkmLf AFjJHek Congruent left correct Normal 1470.748
3 159 LeftSmaller PercCBExp1 Prime_9N Target_6N IekFMJB LahFbMA Congruent left correct Normal 1339.403
3 160 LeftSmaller PercCBExp1 Prime_1A Target_4N flIedbm AeEadIb Congruent left correct Normal 1310.356
4 1 LeftLarger PercCAPrac Prime_6N Target_4A BIcebDC aedMfLI Incongruent left correct Late 7707.432
4 2 LeftLarger PercCAPrac Prime_6A Target_4N eEKfGFi MBabKig Incongruent left correct Normal 2061.364
4 3 LeftLarger PercCAPrac Prime_9N Target_6N hAIceCL GKHfbeD Congruent left error Normal 2604.826
4 4 LeftLarger PercCAPrac Prime_1A Target_9N KGHMaLc ekghbGm Incongruent right error Normal 1610.624
4 5 LeftLarger PercCAPrac Prime_1N Target_6N eDAIiFb eicCEIK Incongruent right error Normal 1873.71
4 6 LeftLarger PercCAPrac Prime_4A Target_1N mihdLEe JDEFhbM Congruent left error Normal 1775.93
4 7 LeftLarger PercCAPrac Prime_9A Target_4N khBbfda lmEeIjK Incongruent left correct Normal 1056.416
4 8 LeftLarger PercCAPrac Prime_6A Target_9A bMglBmi bEMaAGH Congruent left error Normal 1167.018
4 9 LeftLarger PercCAPrac Prime_1N Target_1A DlhKFka DcdBEbL Congruent left error Normal 947.7054
4 10 LeftLarger PercCAPrac Prime_1N Target_9N FjDhfGM iGLmJdg Incongruent right error Normal 848.0871
4 11 LeftLarger PercCAPrac Prime_1A Target_4A HgICicj dgcAlME Congruent left error Normal 1345.177
4 12 LeftLarger PercCAPrac Prime_9A Target_6A DIkfAcK bkIDdha Congruent right correct Normal 840.1259
4 13 LeftLarger PercCAPrac Prime_4A Target_9N LmHgeEa kCHBGgE Incongruent right error Normal 746.1914
4 14 LeftLarger PercCAPrac Prime_6A Target_6A IkHbefh FgCJdMl Congruent right correct Normal 748.8549
4 15 LeftLarger PercCAPrac Prime_1A Target_6N FGaedlB JFCBAkE Incongruent right error Normal 709.6043
4 16 LeftLarger PercCAPrac Prime_1A Target_1A LhHlIgK cdlHfAh Congruent left error Normal 654.4313
4 17 LeftLarger PercCAExp1 Prime_6A Target_9A KecHjEk HgIhkFE Congruent right correct Normal 784.4257
4 18 LeftLarger PercCAExp1 Prime_4A Target_4A hbclfKC EdmfBcb Congruent left error Normal 1193.873
4 19 LeftLarger PercCAExp1 Prime_9N Target_6A jJBfCkG eLGKADm Congruent right correct Normal 626.6241
4 20 LeftLarger PercCAExp1 Prime_6N Target_1N HahdjEK GCcJMHL Incongruent left correct Normal 737.0911
4 21 LeftLarger PercCAExp1 Prime_1A Target_6A bGJEidD kHKLCAJ Incongruent right error Normal 433.2629
4 22 LeftLarger PercCAExp1 Prime_9A Target_6N cjHeGga BJkmiAF Congruent left error Normal 632.6923
4 23 LeftLarger PercCAExp1 Prime_4A Target_6N bCehmKI GbjLIHJ Incongruent right error Normal 552.7372
4 24 LeftLarger PercCAExp1 Prime_6A Target_6A hflmkgF KimCHlb Congruent right correct Normal 656.823
4 25 LeftLarger PercCAExp1 Prime_4A Target_9N aihbMIl DLclMBh Incongruent right error Normal 754.7638
4 26 LeftLarger PercCAExp1 Prime_1N Target_9A KbAEDMI HFKmiAJ Incongruent right error Normal 574.9279
4 27 LeftLarger PercCAExp1 Prime_4N Target_6N CkJMEib LDAKkFb Incongruent left correct Normal 891.9438
4 28 LeftLarger PercCAExp1 Prime_9A Target_1N MaKEDcI mBKCfdg Incongruent left correct Normal 692.8448
4 29 LeftLarger PercCAExp1 Prime_1A Target_1A mbcMjaI BjglDiG Congruent left error Normal 470.1336
4 30 LeftLarger PercCAExp1 Prime_9N Target_1A CBKGHMJ BGEjJmD Incongruent left correct Normal 509.7996
4 31 LeftLarger PercCAExp1 Prime_9A Target_4A FCcaKEL DFHiKJb Incongruent left correct Normal 593.6201
4 32 LeftLarger PercCAExp1 Prime_1N Target_4N mEcjkGl iKMhEgJ Congruent left error Normal 636.1102
4 33 LeftLarger PercCAExp1 Prime_1A Target_6N ihlDLfC dHGFjec Incongruent right error Normal 531.2891
4 34 LeftLarger PercCAExp1 Prime_1N Target_4A mHgJeMA gMBebhf Congruent left error Normal 531.3182
4 35 LeftLarger PercCAExp1 Prime_9N Target_4N FGgldMB ijEAlHa Incongruent left correct Normal 626.2782
4 36 LeftLarger PercCAExp1 Prime_4A Target_9A halibHL cGDfkFB Incongruent right error Normal 518.5668
4 37 LeftLarger PercCAExp1 Prime_4A Target_1A FKjEbAJ ahlAdFg Congruent left error Normal 466.0879
4 38 LeftLarger PercCAExp1 Prime_4N Target_1N FaehMAi FDcGhAE Congruent left error Normal 608.4146
4 39 LeftLarger PercCAExp1 Prime_6N Target_9N LCcjgEI GFacLDC Congruent right correct Normal 499.1064
4 40 LeftLarger PercCAExp1 Prime_9N Target_1N lfMKJCA IgiGAFk Incongruent left correct Normal 649.4281
4 41 LeftLarger PercCAExp1 Prime_6A Target_9N HJgdAjB eGMhKLb Congruent right correct Normal 544.4264
4 42 LeftLarger PercCAExp1 Prime_9N Target_4A gDlAhIM cBmMeaG Incongruent left correct Normal 661.3553
4 43 LeftLarger PercCAExp1 Prime_9A Target_9N JelbIMh AdmDlkE Congruent right correct Normal 503.0792
4 44 LeftLarger PercCAExp1 Prime_1N Target_6A fGeJLCH ldhgAGL Incongruent right error Normal 723.9261
4 45 LeftLarger PercCAExp1 Prime_9N Target_9A ehELcFI jGChkmM Congruent right correct Normal 484.9816
4 46 LeftLarger PercCAExp1 Prime_4N Target_4A blCAHha EKFJaie Congruent left error Normal 531.7188
4 47 LeftLarger PercCAExp1 Prime_6N Target_6N hEIciHe kHACEIG Congruent right correct Normal 798.1881
4 48 LeftLarger PercCAExp1 Prime_4N Target_9A jiKHMgh leGjBDg Incongruent right error Normal 596.6283
4 49 LeftLarger PercCAExp1 Prime_9A Target_1A edmlKBf dMCGcgA Incongruent left correct Normal 565.0329
4 50 LeftLarger PercCAExp1 Prime_1N Target_6N FJidGBK KLBejdf Incongruent right error Normal 576.3689
4 51 LeftLarger PercCAExp1 Prime_1A Target_9N BDHafcG LgJjEHf Incongruent right error Normal 570.1246
4 52 LeftLarger PercCAExp1 Prime_9A Target_6A lHhACfF akJbEiG Congruent right correct Normal 754.1785
4 53 LeftLarger PercCAExp1 Prime_9N Target_9N kaCKAcJ eDiJaAd Congruent right correct Normal 467.3649
4 54 LeftLarger PercCAExp1 Prime_4N Target_4N dDkICea IdikjDb Congruent left error Normal 565.3725
4 55 LeftLarger PercCAExp1 Prime_1N Target_1N MfEeagd IHELfKd Congruent left error Normal 596.3959
4 56 LeftLarger PercCAExp1 Prime_6A Target_6N feimdbF DeLcajg Congruent right correct Normal 985.325
4 57 LeftLarger PercCAExp1 Prime_4A Target_1N mcbkIBJ EmLbJGC Congruent left error Normal 533.5161
4 58 LeftLarger PercCAExp1 Prime_6N Target_4N aHiJglL mlGEFfe Incongruent right error Normal 492.3292
4 59 LeftLarger PercCAExp1 Prime_6A Target_1N AMhEGjL fahHJdL Incongruent left correct Normal 764.6182
4 60 LeftLarger PercCAExp1 Prime_1A Target_9A LDdjIGc jhgIaAl Incongruent right error Normal 514.923
4 61 LeftLarger PercCAExp1 Prime_9N Target_6N fbGekDJ dMJHbCK Congruent right correct Normal 857.0723
4 62 LeftLarger PercCAExp1 Prime_4A Target_4N BlHIKiG dMfhABm Congruent left error Normal 846.3882
4 63 LeftLarger PercCAExp1 Prime_6N Target_6A AICfjJL FjgAGDM Congruent right correct Normal 632.0201
4 64 LeftLarger PercCAExp1 Prime_4N Target_6A agMfFHD KeimDGf Incongruent right error Normal 748.8684
4 65 LeftLarger PercCAExp1 Prime_1A Target_1N cIhKJEB IgdCDfi Congruent left error Normal 760.1736
4 66 LeftLarger PercCAExp1 Prime_1A Target_4A cHIdMkE MikcmdE Congruent left error Normal 817.2034
4 67 LeftLarger PercCAExp1 Prime_1A Target_4N AMFLCHg bjIKcaG Congruent left error Normal 961.4917
4 68 LeftLarger PercCAExp1 Prime_9A Target_4N KicdgMG flacAGj Incongruent right error Normal 739.6257
4 69 LeftLarger PercCAExp1 Prime_4N Target_9N cLJMElA ehaMJkl Incongruent right error Normal 642.3385
4 70 LeftLarger PercCAExp1 Prime_6A Target_4A ALKGjcl dbjFmIM Incongruent right error Normal 523.7676
4 71 LeftLarger PercCAExp1 Prime_6A Target_1A efaEiBk GCebLgf Incongruent left correct Normal 838.9235
4 72 LeftLarger PercCAExp1 Prime_6N Target_1A iHKldBF dkeiHcD Incongruent left correct Normal 557.4742
4 73 LeftLarger PercCAExp1 Prime_4A Target_6A kFBeChg eELCAFM Incongruent right error Normal 664.1727
4 74 LeftLarger PercCAExp1 Prime_9A Target_9A LFmeblC ChmBaAj Congruent right correct Normal 417.2755
4 75 LeftLarger PercCAExp1 Prime_1N Target_9N GdHlBiD kjbMBFi Incongruent right error Normal 517.3238
4 76 LeftLarger PercCAExp1 Prime_4N Target_1A CHmdDgk djEHlmC Congruent left error Normal 539.0358
4 77 LeftLarger PercCAExp1 Prime_1N Target_1A kfAcMFh JceaHdb Congruent left error Normal 448.0953
4 78 LeftLarger PercCAExp1 Prime_6A Target_4N AjHmcEl lciJIBd Incongruent left correct Normal 791.5094
4 79 LeftLarger PercCAExp1 Prime_6N Target_4A fgMlhKB ELjhakf Incongruent left correct Normal 497.5507
4 80 LeftLarger PercCAExp1 Prime_6N Target_9A ifkBClG kaMIBJC Congruent right correct Normal 391.1441
4 81 LeftSmaller PercCBPrac Prime_1A Target_1N kAlcjaM MDAfKFJ Congruent left correct Normal 1779.82
4 82 LeftSmaller PercCBPrac Prime_9A Target_6N FkclhjL CHjLaeh Congruent left correct Normal 1224.622
4 83 LeftSmaller PercCBPrac Prime_6A Target_1N FjBLCfl dhmakHi Incongruent left error Normal 654.3355
4 84 LeftSmaller PercCBPrac Prime_1N Target_1A ClMKfIH jMEieGh Congruent left correct Normal 867.5018
4 85 LeftSmaller PercCBPrac Prime_4A Target_9A GhLgEjJ AHEJgeB Incongruent right correct Normal 555.2748
4 86 LeftSmaller PercCBPrac Prime_4N Target_1N aMlAbIG IHaifbC Congruent left correct Normal 744.9679
4 87 LeftSmaller PercCBPrac Prime_6N Target_4N CjBfbIH IFGcAlh Incongruent left error Normal 1042.38
4 88 LeftSmaller PercCBPrac Prime_1N Target_4N MJghlGF dJBILmE Congruent right error Normal 926.6414
4 89 LeftSmaller PercCBPrac Prime_9N Target_9N ecdjAJD eKiHFEh Congruent right error Normal 957.9772
4 90 LeftSmaller PercCBPrac Prime_9A Target_1A gBJEelM MaFDCAe Incongruent right correct Normal 1141.914
4 91 LeftSmaller PercCBPrac Prime_6A Target_9A fMIGhEB AGKbaeF Congruent left correct Normal 628.8399
4 92 LeftSmaller PercCBPrac Prime_4N Target_6A ajFkeCg maBhAGK Incongruent left error Normal 1272.873
4 93 LeftSmaller PercCBPrac Prime_6A Target_4A cFbHJEh kmhicHa Incongruent right correct Normal 754.1528
4 94 LeftSmaller PercCBPrac Prime_6N Target_1A mGLDblE kiLjEmf Incongruent left error Normal 681.8677
4 95 LeftSmaller PercCBPrac Prime_1A Target_9A dGlFckJ hCmkDLj Incongruent left error Normal 779.427
4 96 LeftSmaller PercCBPrac Prime_9N Target_9A CeMBmLJ dLFhKIB Congruent right error Normal 550.8357
4 97 LeftSmaller PercCBExp1 Prime_1A Target_1N caEALJm MhIamJL Congruent right error Normal 750.7727
4 98 LeftSmaller PercCBExp1 Prime_6A Target_1A iKElbjJ kfbhGie Incongruent right correct Normal 521.6211
4 99 LeftSmaller PercCBExp1 Prime_4N Target_6N camLDkK AbiBhaK Incongruent left error Normal 601.4089
4 100 LeftSmaller PercCBExp1 Prime_1N Target_1N lakMbHD jaKbeHD Congruent right error Normal 754.6965
4 101 LeftSmaller PercCBExp1 Prime_4N Target_4A JCAGdEj AChGgjd Congruent right error Normal 635.8781
4 102 LeftSmaller PercCBExp1 Prime_9A Target_1N AlkagJi fbjdcLg Incongruent right correct Normal 607.7937
4 103 LeftSmaller PercCBExp1 Prime_9N Target_4N AilgLka KjHcFaf Incongruent right correct Normal 577.8936
4 104 LeftSmaller PercCBExp1 Prime_1A Target_9N FDhMGBJ gkJEMjc Incongruent left error Normal 717.2522
4 105 LeftSmaller PercCBExp1 Prime_4N Target_1N hHlKEID EiacgDF Congruent right error Normal 447.8211
4 106 LeftSmaller PercCBExp1 Prime_6N Target_4N KdkDGiA CDMfcgK Incongruent right correct Normal 764.8742
4 107 LeftSmaller PercCBExp1 Prime_4A Target_4N ahBjLel kDIblhf Congruent right error Normal 470.6095
4 108 LeftSmaller PercCBExp1 Prime_4A Target_4A cmblkij gKHMjmF Congruent right error Normal 449.9257
4 109 LeftSmaller PercCBExp1 Prime_6N Target_1N CBhdmbc IHMLaCe Incongruent left error Normal 852.2466
4 110 LeftSmaller PercCBExp1 Prime_1A Target_4A cKaIJFd Bmikdce Congruent right error Normal 621.2994
4 111 LeftSmaller PercCBExp1 Prime_1N Target_6N LjcBiGk bghBEMF Incongruent left error Normal 775.3545
4 112 LeftSmaller PercCBExp1 Prime_4N Target_9A gkfmLaj LKhFeIb Incongruent left error Normal 629.7457
4 113 LeftSmaller PercCBExp1 Prime_1A Target_9A JAbIEeK biEkJAK Incongruent left error Normal 671.5757
4 114 LeftSmaller PercCBExp1 Prime_6N Target_9A fJmhLag lFfeHki Congruent left correct Normal 650.3531
4 115 LeftSmaller PercCBExp1 Prime_6A Target_4A IEFAcmM EDdjGBf Incongruent right correct Normal 520.5363
4 116 LeftSmaller PercCBExp1 Prime_1N Target_6A cBlaeMF LjfMhJc Incongruent right correct Normal 1150.216
4 117 LeftSmaller PercCBExp1 Prime_9A Target_9N gfCbdGI KbDIjcg Congruent right error Normal 1044.258
4 118 LeftSmaller PercCBExp1 Prime_9N Target_4A kKjDage MEJfFei Incongruent left error Normal 650.7002
4 119 LeftSmaller PercCBExp1 Prime_6N Target_4A idEAhIH lhjAaKi Incongruent right correct Normal 608.178
4 120 LeftSmaller PercCBExp1 Prime_4A Target_1A GKcafAb MhcdjBK Congruent right error Normal 1041.909
4 121 LeftSmaller PercCBExp1 Prime_4N Target_6A gfJBLAG gelkbmh Incongruent left error Normal 585.4437
4 122 LeftSmaller PercCBExp1 Prime_1A Target_6A BjLcCag fhHgiDI Incongruent left error Normal 528.2638
4 123 LeftSmaller PercCBExp1 Prime_6N Target_6N GjEcBlm EmagbJG Congruent left correct Normal 589.9503
4 124 LeftSmaller PercCBExp1 Prime_1N Target_9A dLjElIA AEdMeGh Incongruent left error Normal 738.4588
4 125 LeftSmaller PercCBExp1 Prime_6N Target_9N iKACjIG KHFfEdB Congruent left correct Normal 673.7721
4 126 LeftSmaller PercCBExp1 Prime_6N Target_1A MibLDgK ejLbdCK Incongruent right correct Normal 642.8217
4 127 LeftSmaller PercCBExp1 Prime_4A Target_6A MdJGaDB kmDMgHb Incongruent left error Normal 553.4943
4 128 LeftSmaller PercCBExp1 Prime_9A Target_9A HLjbCJA cCDAigl Congruent left correct Normal 636.0329
4 129 LeftSmaller PercCBExp1 Prime_1N Target_1A laHEKMF mflhdFC Congruent right error Normal 614.6041
4 130 LeftSmaller PercCBExp1 Prime_9N Target_6N fajCdlM aFLkljI Congruent left correct Normal 436.3531
4 131 LeftSmaller PercCBExp1 Prime_4N Target_1A gGkJKCH dKgGeFc Congruent right error Normal 733.045
4 132 LeftSmaller PercCBExp1 Prime_1N Target_9N eCdMbDj MgcFKeb Incongruent right correct Normal 545.6993
4 133 LeftSmaller PercCBExp1 Prime_6A Target_1N IaBhemk mBekMdE Incongruent left error Normal 679.8366
4 134 LeftSmaller PercCBExp1 Prime_9A Target_6N kgEheDG liGLEBa Congruent left correct Normal 819.579
4 135 LeftSmaller PercCBExp1 Prime_1A Target_4N emBGgFL IhHeDEG Congruent left correct Normal 571.608
4 136 LeftSmaller PercCBExp1 Prime_6A Target_9A mAFDdCB BjiACFa Congruent left correct Normal 1153.513
4 137 LeftSmaller PercCBExp1 Prime_1N Target_4N BEGhJAI DMIEJif Congruent right error Normal 815.2063
4 138 LeftSmaller PercCBExp1 Prime_9N Target_1N dMKGhCl iDKGFbj Incongruent right correct Normal 771.8166
4 139 LeftSmaller PercCBExp1 Prime_9N Target_6A CgAFHGe MLHdBci Congruent left correct Normal 561.7054
4 140 LeftSmaller PercCBExp1 Prime_4A Target_6N fIClhKA MLkGlaj Incongruent left error Normal 519.2104
4 141 LeftSmaller PercCBExp1 Prime_9N Target_1A AHcglJB AhFbHLK Incongruent right correct Normal 590.1441
4 142 LeftSmaller PercCBExp1 Prime_9N Target_9A gdLFjiI fEMFmbJ Congruent left correct Normal 489.0598
4 143 LeftSmaller PercCBExp1 Prime_9A Target_6A bhHemKA gkJDmbh Congruent left correct Normal 599.3641
4 144 LeftSmaller PercCBExp1 Prime_1N Target_4A aeGhdiL fEiChjM Congruent left correct Normal 640.2848
4 145 LeftSmaller PercCBExp1 Prime_9N Target_9N chgfjIF EdGIMDC Congruent right error Normal 529.8224
4 146 LeftSmaller PercCBExp1 Prime_6N Target_6A dAlijec FBAjcke Congruent right error Normal 808.5016
4 147 LeftSmaller PercCBExp1 Prime_4N Target_9N gMFBHDk KGemFdb Incongruent left error Normal 764.4664
4 148 LeftSmaller PercCBExp1 Prime_6A Target_4N cfDHjiF meAhkiF Incongruent left error Normal 1057.341
4 149 LeftSmaller PercCBExp1 Prime_9A Target_1A KehECDb KChIfmj Incongruent left error Normal 542.9823
4 150 LeftSmaller PercCBExp1 Prime_6A Target_6N jaegimI dIkfFge Congruent left correct Normal 1027.713
4 151 LeftSmaller PercCBExp1 Prime_4A Target_1N dhCKImi jDHAhLI Congruent right error Normal 606.7695
4 152 LeftSmaller PercCBExp1 Prime_4A Target_9N BgLlMbI fhmIAJG Incongruent right correct Normal 664.1618
4 153 LeftSmaller PercCBExp1 Prime_6A Target_9N CLIejbi kiDcCaj Congruent right error Normal 638.0952
4 154 LeftSmaller PercCBExp1 Prime_6A Target_6A HiGjgCh iCJFgMh Congruent left correct Normal 751.3963
4 155 LeftSmaller PercCBExp1 Prime_4N Target_4N aljMeDB MGcfblC Congruent right error Normal 643.8117
4 156 LeftSmaller PercCBExp1 Prime_1A Target_1A gMdBKEe jIcMhLk Congruent right error Normal 594.7587
4 157 LeftSmaller PercCBExp1 Prime_1A Target_6N eMfmJcj FBLjlim Incongruent left error Normal 825.2138
4 158 LeftSmaller PercCBExp1 Prime_9A Target_4A aFgjmAK bmdhafI Incongruent left error Normal 575.3346
4 159 LeftSmaller PercCBExp1 Prime_4A Target_9A CFaelIJ IglEdDb Incongruent right correct Normal 537.9135
4 160 LeftSmaller PercCBExp1 Prime_9A Target_4N bFCIADg hgGIiMm Incongruent right correct Normal 1265.417
6 1 LeftSmaller PercCAPrac Prime_6N Target_6A bKiFeCm faIhgei Congruent left correct Normal 778.3599
6 2 LeftSmaller PercCAPrac Prime_9N Target_6A feDCKJg KLiegCj Congruent left correct Normal 938.085
6 3 LeftSmaller PercCAPrac Prime_9N Target_1A HbKBCjJ FDJBLcg Incongruent right correct Normal 1075.716
6 4 LeftSmaller PercCAPrac Prime_9N Target_4A icJFmhE FjMlCLB Incongruent left error Normal 482.9293
6 5 LeftSmaller PercCAPrac Prime_4A Target_9N dJjcGBh mdkhFAB Incongruent left error Normal 1374.144
6 6 LeftSmaller PercCAPrac Prime_6A Target_1N iBhblmI igGlCka Incongruent right correct Normal 1087.145
6 7 LeftSmaller PercCAPrac Prime_4A Target_4A eEgklmA AMgIKja Congruent left correct Normal 688.8604
6 8 LeftSmaller PercCAPrac Prime_4N Target_9N gmJliEH LiheEAG Incongruent right correct Normal 1126.919
6 9 LeftSmaller PercCAPrac Prime_6N Target_9N HkmgAjG fLHDdbh Congruent right error Normal 941.323
6 10 LeftSmaller PercCAPrac Prime_9N Target_1N cJIlECh lgFJLcI Incongruent right correct Normal 1145.423
6 11 LeftSmaller PercCAPrac Prime_4A Target_4N KAaJHbD gCbcFeI Congruent left correct Normal 994.9186
6 12 LeftSmaller PercCAPrac Prime_1N Target_9A KmlDGkB kLJdmFe Incongruent right correct Normal 1088.345
6 13 LeftSmaller PercCAPrac Prime_1A Target_9A MmHAlKh CJfMAhi Incongruent right correct Normal 823.5084
6 14 LeftSmaller PercCAPrac Prime_6A Target_6N gKHiDeJ AdDIkEe Congruent left correct Normal 793.5619
6 15 LeftSmaller PercCAPrac Prime_1N Target_1N bcFaHCi FkJmafD Congruent left correct Normal 1361.304
6 16 LeftSmaller PercCAPrac Prime_4A Target_1N iFefGCb edkcgEB Congruent right error Normal 761.6867
6 17 LeftSmaller PercCAExp1 Prime_9A Target_1A HJadIhM mDcBgKf Incongruent left error Normal 829.9448
6 18 LeftSmaller PercCAExp1 Prime_6A Target_9A fMcJDlB EdJmLce Congruent left correct Normal 952.0872
6 19 LeftSmaller PercCAExp1 Prime_6N Target_1N hgdmkEf FCIehkG Incongruent right correct Normal 926.262
6 20 LeftSmaller PercCAExp1 Prime_1N Target_4N FLkJKhE KibJkhB Congruent left correct Normal 993.0735
6 21 LeftSmaller PercCAExp1 Prime_9A Target_6N BHMcFJg IGhdiMb Congruent left correct Normal 678.092
6 22 LeftSmaller PercCAExp1 Prime_1A Target_1N JhEBHAe IgFCEDG Congruent left correct Normal 1123.929
6 23 LeftSmaller PercCAExp1 Prime_4A Target_6A jeKCfmG daClHDG Incongruent left error Normal 840.3756
6 24 LeftSmaller PercCAExp1 Prime_4A Target_4N biJcGeM JLGCdgM Congruent right error Normal 1048.296
6 25 LeftSmaller PercCAExp1 Prime_4N Target_4A gmeEhci bEeLDMa Congruent left correct Normal 986.2079
6 26 LeftSmaller PercCAExp1 Prime_4N Target_4N LGjbcea bKFDcEg Congruent left correct Normal 692.4977
6 27 LeftSmaller PercCAExp1 Prime_9A Target_1N KcEdfBi AjbMIEm Incongruent right correct Normal 1015.275
6 28 LeftSmaller PercCAExp1 Prime_1A Target_4A gcALlmh caCimAf Congruent left correct Normal 573.6129
6 29 LeftSmaller PercCAExp1 Prime_4A Target_9A bmIjfDl bkiELGI Incongruent right correct Normal 582.0325
6 30 LeftSmaller PercCAExp1 Prime_6N Target_4N KADGCbk dGEDBFb Incongruent right correct Normal 1704.926
6 31 LeftSmaller PercCAExp1 Prime_1N Target_9N HCAhJgB AJaBkbh Incongruent right correct Normal 886.3495
6 32 LeftSmaller PercCAExp1 Prime_1A Target_9N KjIdaFl IDMjfAG Incongruent left error Normal 901.3657
6 33 LeftSmaller PercCAExp1 Prime_6N Target_1A LHjfkel jDEkFaH Incongruent left error Normal 731.976
6 34 LeftSmaller PercCAExp1 Prime_4A Target_1A bMHmjLh ijIFhbB Congruent left correct Normal 958.527
6 35 LeftSmaller PercCAExp1 Prime_1N Target_1A gKeJlfC mIJFekc Congruent left correct Normal 908.7181
6 36 LeftSmaller PercCAExp1 Prime_6N Target_9A hJlHamA lJcILjK Congruent right error Normal 685.3194
6 37 LeftSmaller PercCAExp1 Prime_9N Target_1N lBCdchH ldmBkhK Incongruent right correct Normal 1067.634
6 38 LeftSmaller PercCAExp1 Prime_6A Target_6N khdEmiL MlJcijk Congruent left correct Normal 980.6797
6 39 LeftSmaller PercCAExp1 Prime_9N Target_1A cbBlIKE cdDaFJl Incongruent right correct Normal 833.4168
6 40 LeftSmaller PercCAExp1 Prime_1N Target_9A ELdliHb DceiaHk Incongruent left error Normal 1360.67
6 41 LeftSmaller PercCAExp1 Prime_9A Target_9A jLmgGBD bcMmigL Congruent left correct Normal 594.4364
6 42 LeftSmaller PercCAExp1 Prime_6N Target_9N BFEkMDg HglBhAG Congruent left correct Normal 1248.038
6 43 LeftSmaller PercCAExp1 Prime_6A Target_6A AlgdDIB gkflIDi Congruent left correct Normal 504.7132
6 44 LeftSmaller PercCAExp1 Prime_4N Target_9N gKiCcmD HEBKlCg Incongruent left error Normal 762.9894
6 45 LeftSmaller PercCAExp1 Prime_6A Target_4A kcMlmHe kcihDIC Incongruent right correct Normal 1051.959
6 46 LeftSmaller PercCAExp1 Prime_9A Target_4A DlCLKIF lIEMAKL Incongruent right correct Normal 1178.347
6 47 LeftSmaller PercCAExp1 Prime_9N Target_9A jkCJFGc HghiLAD Congruent right error Normal 1339.314
6 48 LeftSmaller PercCAExp1 Prime_9N Target_4A cgjifEH jhcBCHk Incongruent left error Normal 601.5273
6 49 LeftSmaller PercCAExp1 Prime_4N Target_1N jaDcklG JeIFBhj Congruent left correct Normal 1009.096
6 50 LeftSmaller PercCAExp1 Prime_1A Target_4N lIJgDmb HFcJhgE Congruent right error Normal 992.9855
6 51 LeftSmaller PercCAExp1 Prime_6N Target_4A MBJICeF EGailfm Incongruent left error Normal 723.7802
6 52 LeftSmaller PercCAExp1 Prime_4A Target_4A LfhFAba EgLFdHc Congruent left correct Normal 928.0924
6 53 LeftSmaller PercCAExp1 Prime_1N Target_4A BMgAlfk DcjBMbK Congruent right error Normal 885.2503
6 54 LeftSmaller PercCAExp1 Prime_9N Target_6N aDkchMB deHghcf Congruent left correct Normal 942.9228
6 55 LeftSmaller PercCAExp1 Prime_6A Target_4N AemMagF FBiEAkd Incongruent left error Normal 773.2342
6 56 LeftSmaller PercCAExp1 Prime_1N Target_1N gbeiFhJ JcfiEFK Congruent left correct Normal 735.036
6 57 LeftSmaller PercCAExp1 Prime_9A Target_9N EeHDkjC cdkhbBE Congruent right error Normal 607.8789
6 58 LeftSmaller PercCAExp1 Prime_1N Target_6N AkMjbFf hLmAFgl Incongruent left error Normal 554.6311
6 59 LeftSmaller PercCAExp1 Prime_1N Target_6A IKdhLgm jDKEBhm Incongruent left error Normal 695.1544
6 60 LeftSmaller PercCAExp1 Prime_6N Target_6A laGHADh fgJaFkK Congruent left correct Normal 731.7242
6 61 LeftSmaller PercCAExp1 Prime_1A Target_1A KBGijEA bEFIikc Congruent right error Normal 581.4791
6 62 LeftSmaller PercCAExp1 Prime_4N Target_6A eGHiIEm eDicMkh Incongruent left error Normal 496.7915
6 63 LeftSmaller PercCAExp1 Prime_1A Target_6A meiLlfc mhkiMJa Incongruent left error Normal 476.9373
6 64 LeftSmaller PercCAExp1 Prime_6A Target_1N GIjEkMd ELjeDGi Incongruent right correct Normal 496.6441
6 65 LeftSmaller PercCAExp1 Prime_9N Target_9N mgKIAjB JCMIhFA Congruent left correct Normal 416.1695
6 66 LeftSmaller PercCAExp1 Prime_4A Target_6N mkCjliA EMClGcd Incongruent left error Normal 739.3582
6 67 LeftSmaller PercCAExp1 Prime_9N Target_4N gJhlMdi DaClkmA Incongruent left error Normal 1025.903
6 68 LeftSmaller PercCAExp1 Prime_1A Target_6N ElMadKi eEcIfJL Incongruent right correct Normal 703.5727
6 69 LeftSmaller PercCAExp1 Prime_4A Target_1N leCBabA hLleHKd Congruent right error Normal 904.7597
6 70 LeftSmaller PercCAExp1 Prime_1A Target_9A kFhglJe KGBkgLF Incongruent left error Normal 730.2767
6 71 LeftSmaller PercCAExp1 Prime_6N Target_6N ACjkbDL jhcGIgH Congruent left correct Normal 810.5708
6 72 LeftSmaller PercCAExp1 Prime_9N Target_6A mjEIlfa GbKeihH Congruent left correct Normal 503.7551
6 73 LeftSmaller PercCAExp1 Prime_4N Target_9A eAMdfEL fAcDIEi Incongruent left error Normal 677.061
6 74 LeftSmaller PercCAExp1 Prime_6A Target_9N GlDjFbH LMACGJk Congruent left correct Normal 635.9728
6 75 LeftSmaller PercCAExp1 Prime_6A Target_1A IlDgACa keIbLdC Incongruent right correct Normal 644.6687
6 76 LeftSmaller PercCAExp1 Prime_4N Target_6N ejFfbMg FKGdcAh Incongruent left error Normal 1052.399
6 77 LeftSmaller PercCAExp1 Prime_4N Target_1A kBfcldC FDLaJke Congruent right error Normal 994.0065
6 78 LeftSmaller PercCAExp1 Prime_9A Target_6A IbjmGcC mDCjhgG Congruent left correct Normal 707.9523
6 79 LeftSmaller PercCAExp1 Prime_9A Target_4N BbiKaEM biHhBKm Incongruent left error Normal 898.3644
6 80 LeftSmaller PercCAExp1 Prime_4A Target_9N DIhKagk fIiCecd Incongruent right correct Normal 739.7706
6 81 LeftLarger PercCBPrac Prime_6A Target_4A EBamLjF ALiaMDl Incongruent left correct Normal 870.6521
6 82 LeftLarger PercCBPrac Prime_4A Target_4N AKlakhg mfDHJaF Congruent right correct Normal 420.9474
6 83 LeftLarger PercCBPrac Prime_9N Target_4A cejmHaB blCcjJG Incongruent left correct Normal 621.2576
6 84 LeftLarger PercCBPrac Prime_1N Target_4A BabHMFE cAkfgMG Congruent right correct Normal 631.4121
6 85 LeftLarger PercCBPrac Prime_6A Target_1N JMGigDm DKlikhg Incongruent left correct Normal 966.441
6 86 LeftLarger PercCBPrac Prime_9N Target_6N DGbhFBH FefcdlA Congruent right correct Normal 749.7226
6 87 LeftLarger PercCBPrac Prime_6N Target_1N ECFacMd kmHbGlE Incongruent left correct Normal 685.2922
6 88 LeftLarger PercCBPrac Prime_1A Target_1N jADlkgf dLJijFG Congruent right correct Normal 725.9859
6 89 LeftLarger PercCBPrac Prime_4A Target_9N ecAbIlj gmICBbi Incongruent left correct Normal 872.8841
6 90 LeftLarger PercCBPrac Prime_4N Target_9N LhJCHEf cBLjdeD Incongruent right error Normal 587.4663
6 91 LeftLarger PercCBPrac Prime_1N Target_9A GjDbamE ACjgHlF Incongruent right error Normal 628.3956
6 92 LeftLarger PercCBPrac Prime_6A Target_1A kADdgeE CcJLFka Incongruent left correct Normal 601.042
6 93 LeftLarger PercCBPrac Prime_1A Target_4N CcjAmhH HKCcaej Congruent left error Normal 846.575
6 94 LeftLarger PercCBPrac Prime_6N Target_4A cEMafhK ADlbMij Incongruent right error Normal 575.5847
6 95 LeftLarger PercCBPrac Prime_4A Target_1A AhdKlLJ EaHMJkc Congruent left error Normal 793.9635
6 96 LeftLarger PercCBPrac Prime_9A Target_9N BiIljAf bjhaGie Congruent right correct Normal 566.1515
6 97 LeftLarger PercCBExp1 Prime_4A Target_6A aGjBmcD mDEAlgd Incongruent right error Normal 542.7043
6 98 LeftLarger PercCBExp1 Prime_6A Target_4A BjiDCMg BbEKLml Incongruent left correct Normal 673.5853
6 99 LeftLarger PercCBExp1 Prime_1N Target_6N EFCfhBH adbkcFL Incongruent right error Normal 652.1475
6 100 LeftLarger PercCBExp1 Prime_4N Target_6A iEImJAC dKmLaIF Incongruent right error Normal 704.6962
6 101 LeftLarger PercCBExp1 Prime_9A Target_4N cjMHhIk bgMiJFK Incongruent left correct Normal 736.2318
6 102 LeftLarger PercCBExp1 Prime_6A Target_9N hCMFlIi hMfdHaL Congruent right correct Normal 593.5066
6 103 LeftLarger PercCBExp1 Prime_4N Target_4A fiJFkcE IaiLFgm Congruent right correct Normal 1461.079
6 104 LeftLarger PercCBExp1 Prime_6N Target_9N HbaKiDC lJEDcCG Congruent right correct Normal 643.7592
6 105 LeftLarger PercCBExp1 Prime_4A Target_6N dcBIKJD jMDkdlC Incongruent right error Normal 743.8443
6 106 LeftLarger PercCBExp1 Prime_1N Target_9N BfclKAb IdKkFeD Incongruent right error Normal 571.8615
6 107 LeftLarger PercCBExp1 Prime_1N Target_6A jCFIbKc KEJBILF Incongruent right error Normal 856.9226
6 108 LeftLarger PercCBExp1 Prime_4A Target_9N MCghiBd dFmjMCg Incongruent left correct Normal 472.2208
6 109 LeftLarger PercCBExp1 Prime_1A Target_6A GaKgEdb bHfAiBJ Incongruent right error Normal 603.2712
6 110 LeftLarger PercCBExp1 Prime_4N Target_6N BMCegFK FHmhLGg Incongruent right error Normal 506.4319
6 111 LeftLarger PercCBExp1 Prime_4N Target_1N LbGgdil lfJdhMD Congruent left error Normal 495.9777
6 112 LeftLarger PercCBExp1 Prime_6A Target_9A EFfbBAK KJckCMI Congruent right correct Normal 387.9102
6 113 LeftLarger PercCBExp1 Prime_1A Target_9A geCdDMi FiHBdfD Incongruent right error Normal 444.0632
6 114 LeftLarger PercCBExp1 Prime_1A Target_4A AgFaekI GBHJELi Congruent left error Normal 444.347
6 115 LeftLarger PercCBExp1 Prime_4N Target_9A iEDfBlF Hhegcmj Incongruent right error Normal 517.367
6 116 LeftLarger PercCBExp1 Prime_6A Target_1N dJHbLhM dlgECFD Incongruent left correct Normal 623.9437
6 117 LeftLarger PercCBExp1 Prime_1N Target_1N fDFaMJb BmGKbFe Congruent left error Normal 531.2423
6 118 LeftLarger PercCBExp1 Prime_9A Target_6A diAjgDl lmGdLik Congruent right correct Normal 615.0295
6 119 LeftLarger PercCBExp1 Prime_1A Target_1N KDlhjGL BJjAlHE Congruent left error Normal 458.3331
6 120 LeftLarger PercCBExp1 Prime_1N Target_9A bCmhIKM dlgGMFi Incongruent right error Normal 473.3952
6 121 LeftLarger PercCBExp1 Prime_1N Target_1A LGKEMaA GfIahHE Congruent left error Normal 374.6628
6 122 LeftLarger PercCBExp1 Prime_9A Target_6N abiELGI MLgcHBe Congruent right correct Normal 459.1998
6 123 LeftLarger PercCBExp1 Prime_9A Target_9A FJfeKEB hFALiGI Congruent right correct Normal 412.7433
6 124 LeftLarger PercCBExp1 Prime_6N Target_4N gkbEMFJ aCdhIfk Incongruent left correct Normal 460.1935
6 125 LeftLarger PercCBExp1 Prime_4A Target_1A bLFiEfa iMhHeFc Congruent left error Normal 522.7903
6 126 LeftLarger PercCBExp1 Prime_9N Target_6N bidEkeI kLAcIHi Congruent right correct Normal 605.6349
6 127 LeftLarger PercCBExp1 Prime_9N Target_4A JcBFCkG CBlKMGi Incongruent right error Normal 672.9209
6 128 LeftLarger PercCBExp1 Prime_6N Target_6A DbmGjIk blFhdAg Congruent right correct Normal 531.9767
6 129 LeftLarger PercCBExp1 Prime_1A Target_9N lGiCgAk ChDMGgm Incongruent right error Normal 597.4549
6 130 LeftLarger PercCBExp1 Prime_6A Target_1A imEhDed jJlBGDc Incongruent left correct Normal 682.6374
6 131 LeftLarger PercCBExp1 Prime_9N Target_9A fbDhGeM fHgEFdl Congruent right correct Normal 480.2477
6 132 LeftLarger PercCBExp1 Prime_6N Target_1N CKjMcem GaIcKBE Incongruent left correct Normal 519.7224
6 133 LeftLarger PercCBExp1 Prime_9A Target_1N glLjJcM CDimbFA Incongruent left correct Normal 880.4177
6 134 LeftLarger PercCBExp1 Prime_6A Target_6A IDagLdB EkbGIDd Congruent right correct Normal 981.1048
6 135 LeftLarger PercCBExp1 Prime_6N Target_4A miAGeFJ KbdgcLI Incongruent right error Normal 694.0572
6 136 LeftLarger PercCBExp1 Prime_4A Target_9A bFefjci ELjaeDh Incongruent right error Normal 649.2291
6 137 LeftLarger PercCBExp1 Prime_4A Target_1N Acijmkf jeGIigk Congruent left error Normal 612.0954
6 138 LeftLarger PercCBExp1 Prime_6N Target_1A dCBAkeJ LhIBiAF Incongruent left correct Normal 589.3533
6 139 LeftLarger PercCBExp1 Prime_9N Target_9N bhLCkjJ DIEcldk Congruent right correct Normal 664.8605
6 140 LeftLarger PercCBExp1 Prime_9A Target_1A JMHmjAE aLJDefc Incongruent left correct Normal 528.4216
6 141 LeftLarger PercCBExp1 Prime_9N Target_6A KIbFJED CAFJlIM Congruent right correct Normal 485.3488
6 142 LeftLarger PercCBExp1 Prime_6N Target_6N GJHkjfB FHJgKlm Congruent right correct Normal 627.4982
6 143 LeftLarger PercCBExp1 Prime_6A Target_4N FjJLMeC GbJihMd Incongruent right error Normal 741.221
6 144 LeftLarger PercCBExp1 Prime_9N Target_4N CJLhgDm GJKhCcM Incongruent right error Normal 1208.101
6 145 LeftLarger PercCBExp1 Prime_4A Target_4A JmaFkid BkKmldE Congruent left error Normal 549.1555
6 146 LeftLarger PercCBExp1 Prime_9N Target_1N bLeEGjJ gEhCmli Incongruent left correct Normal 759.5948
6 147 LeftLarger PercCBExp1 Prime_1A Target_1A jACeJEd geilFCb Congruent left error Normal 748.2193
6 148 LeftLarger PercCBExp1 Prime_4N Target_1A JCmlLME MLBkGJH Congruent left error Normal 583.6673
6 149 LeftLarger PercCBExp1 Prime_1A Target_6N IKMFdkf jaGIfDB Incongruent left correct Normal 1021.653
6 150 LeftLarger PercCBExp1 Prime_6N Target_9A fIdceLJ cIAGFDE Congruent right correct Normal 444.8921
6 151 LeftLarger PercCBExp1 Prime_1N Target_4N ikMImKH dCbDgmj Congruent left error Normal 617.1863
6 152 LeftLarger PercCBExp1 Prime_9A Target_9N fDbHcMI bdDCaKc Congruent right correct Normal 698.3626
6 153 LeftLarger PercCBExp1 Prime_1A Target_4N haeKBCl eGHmKJb Congruent left error Normal 894.5759
6 154 LeftLarger PercCBExp1 Prime_6A Target_6N fJAmMej FlMJfik Congruent right correct Normal 689.8283
6 155 LeftLarger PercCBExp1 Prime_1N Target_4A MbjEJDm CgmbHDe Congruent left error Normal 706.1162
6 156 LeftLarger PercCBExp1 Prime_4N Target_9N klKeCbH fKIcMha Incongruent right error Normal 580.8346
6 157 LeftLarger PercCBExp1 Prime_4A Target_4N DKCfGHd FAJcmag Congruent left error Normal 907.0432
6 158 LeftLarger PercCBExp1 Prime_9N Target_1A MedgcFD dGacMeD Incongruent right error Normal 1585.754
6 159 LeftLarger PercCBExp1 Prime_9A Target_4A HfgKLFh dfhLbjm Incongruent left correct Normal 558.8517
6 160 LeftLarger PercCBExp1 Prime_4N Target_4N eBgEcDi fdakDbG Congruent left error Normal 802.0897
7 1 LeftLarger PercCAPrac Prime_4N Target_9N fDLlHdE kBCcjJG Incongruent right error Normal 1850.594
7 2 LeftLarger PercCAPrac Prime_4A Target_1A efMJiHa FJEfDGj Congruent left error Normal 2108.35
7 3 LeftLarger PercCAPrac Prime_4N Target_1N cLAHDKI hKFmebi Congruent left error Normal 1403.935
7 4 LeftLarger PercCAPrac Prime_4N Target_4N DdliEFb KIgDmCA Congruent right correct Normal 1361.263
7 5 LeftLarger PercCAPrac Prime_9N Target_1N LahBcAk CiEDkKJ Incongruent right error Normal 1383.164
7 6 LeftLarger PercCAPrac Prime_1A Target_1A hEFBfde hgcLjli Congruent right correct Normal 2645.46
7 7 LeftLarger PercCAPrac Prime_1A Target_6A EijMmbh CamiKkd Incongruent left correct Normal 2018.92
7 8 LeftLarger PercCAPrac Prime_9A Target_1A mLIkeEM mIHkgAj Incongruent left correct Normal 2210.11
7 9 LeftLarger PercCAPrac Prime_6A Target_6N gHEbAcB FhCagkc Congruent left error Normal 1825.567
7 10 LeftLarger PercCAPrac Prime_9N Target_9N JbKjMCa gKIiMGJ Congruent right correct Normal 1351.934
7 11 LeftLarger PercCAPrac Prime_1A Target_6N eGaDIEA DLBEdgG Incongruent right error Normal 1714.698
7 12 LeftLarger PercCAPrac Prime_9A Target_6N lFGMKIA cHkjleF Congruent left error Normal 1678.161
7 13 LeftLarger PercCAPrac Prime_1A Target_4N HKGbLAl lJCjGBH Congruent left error Normal 735.4978
7 14 LeftLarger PercCAPrac Prime_6A Target_4N BFkeKMb mLHFkgb Incongruent right error Normal 1462.516
7 15 LeftLarger PercCAPrac Prime_4N Target_6N mLhIJcB DAdbcKB Incongruent left correct Normal 1016.377
7 16 LeftLarger PercCAPrac Prime_4A Target_1N Ebacgli mGAJBel Congruent left error Normal 520.7725
7 17 LeftLarger PercCAExp1 Prime_4N Target_9A hAjJBkl HmJkCAI Incongruent right error Normal 1333.031
7 18 LeftLarger PercCAExp1 Prime_1N Target_6A LcMdIbl mCLaicg Incongruent right error Normal 1165.269
7 19 LeftLarger PercCAExp1 Prime_1A Target_4A dFgGiaE GhMjDHg Congruent right correct Normal 1332.171
7 20 LeftLarger PercCAExp1 Prime_4A Target_9A BJDjcdl mGkAlEH Incongruent left correct Normal 1030.232
7 21 LeftLarger PercCAExp1 Prime_6N Target_9A aHmKjiM aCAmlDg Congruent right correct Normal 1673.352
7 22 LeftLarger PercCAExp1 Prime_1N Target_4A KjkiIDB amFMAiB Congruent left error Normal 2454.57
7 23 LeftLarger PercCAExp1 Prime_9A Target_6N kdcKjbe GBDgdMj Congruent right correct Normal 1755.66
7 24 LeftLarger PercCAExp1 Prime_4N Target_1N FmeigEc fgMKchm Congruent left error Normal 1879.292
7 25 LeftLarger PercCAExp1 Prime_1A Target_9A iHBCcld dIJBDeg Incongruent left correct Normal 1511.447
7 26 LeftLarger PercCAExp1 Prime_1A Target_9N BFDbkGC adjchBE Incongruent right error Normal 1985.876
7 27 LeftLarger PercCAExp1 Prime_9N Target_6A GkIDfBi cbHhagl Congruent right correct Normal 2402.662
7 28 LeftLarger PercCAExp1 Prime_6A Target_4A eKhLaCI iKGFJBm Incongruent left correct Normal 2571.092
7 29 LeftLarger PercCAExp1 Prime_6N Target_1A EJmgjMI igHDChM Incongruent left correct Normal 2024.732
7 30 LeftLarger PercCAExp1 Prime_9N Target_1A GJhajbE AELfiBI Incongruent left correct Normal 2785.429
7 31 LeftLarger PercCAExp1 Prime_9A Target_4A iDkaBHL dGHglKe Incongruent right error Normal 1272.534
7 32 LeftLarger PercCAExp1 Prime_6A Target_1A idDcCAJ mcKHLlE Incongruent left correct Normal 1312.971
7 33 LeftLarger PercCAExp1 Prime_9N Target_9N JIBEGlg JLHeflm Congruent left error Normal 1383.022
7 34 LeftLarger PercCAExp1 Prime_9A Target_1A HGCFbgd gahbcKL Incongruent right error Normal 1742.735
7 35 LeftLarger PercCAExp1 Prime_6A Target_9A DClbIdG fgaJLmE Congruent right correct Normal 1517.529
7 36 LeftLarger PercCAExp1 Prime_9A Target_1N GKDIjLm JDiFgbf Incongruent right error Normal 1132.191
7 37 LeftLarger PercCAExp1 Prime_4N Target_9N EaJgIci MBcJEeI Incongruent left correct Normal 1278.619
7 38 LeftLarger PercCAExp1 Prime_4A Target_4N kDiaeCJ GIBKiJD Congruent right correct Normal 1213.076
7 39 LeftLarger PercCAExp1 Prime_6A Target_4N EmLIJbF kCjDEbM Incongruent right error Normal 1574.113
7 40 LeftLarger PercCAExp1 Prime_1A Target_1N FejICkE HejCbmF Congruent right correct Normal 1319.806
7 41 LeftLarger PercCAExp1 Prime_1N Target_1N IbCGLKj idLaecb Congruent left error Normal 919.4986
7 42 LeftLarger PercCAExp1 Prime_1A Target_4N hFIdEMk HMEAkal Congruent right correct Normal 1203.05
7 43 LeftLarger PercCAExp1 Prime_6A Target_1N AabmHCd JkgKdEF Incongruent right error Normal 1925.731
7 44 LeftLarger PercCAExp1 Prime_9A Target_9A CfkmLba CbkLFDc Congruent left error Normal 1029.82
7 45 LeftLarger PercCAExp1 Prime_6N Target_4N jlEDLaH kAcEKLg Incongruent right error Normal 792.2458
7 46 LeftLarger PercCAExp1 Prime_4N Target_6N KAdGLJF iECgGaL Incongruent left correct Normal 1079.727
7 47 LeftLarger PercCAExp1 Prime_9N Target_9A aHEgflI DHLEleB Congruent left error Normal 1229.223
7 48 LeftLarger PercCAExp1 Prime_1N Target_1A JLEfaIM aMmeCLK Congruent right correct Normal 1452.882
7 49 LeftLarger PercCAExp1 Prime_4A Target_4A EHIdGBi lbcaJHm Congruent right correct Normal 1007.326
7 50 LeftLarger PercCAExp1 Prime_9N Target_1N gCmIJci jFLidAh Incongruent right error Normal 540.707
7 51 LeftLarger PercCAExp1 Prime_9N Target_4A IjGdaBM GjHCheM Incongruent right error Normal 1585.406
7 52 LeftLarger PercCAExp1 Prime_6N Target_1N bBIcgMD JMjcHFa Incongruent left correct Normal 706.3684
7 53 LeftLarger PercCAExp1 Prime_9A Target_9N LGKIClD bkliFHI Congruent left error Normal 1264.392
7 54 LeftLarger PercCAExp1 Prime_4A Target_1A BLKAbeE mCGiIjl Congruent left error Normal 1030.604
7 55 LeftLarger PercCAExp1 Prime_6N Target_6N CIlhgJL EdBghJK Congruent left error Normal 1226.705
7 56 LeftLarger PercCAExp1 Prime_9A Target_4N lHFadGf jmGMDEK Incongruent right error Normal 755.7261
7 57 LeftLarger PercCAExp1 Prime_6N Target_9N EIhFMGm dijIcfD Congruent right correct Normal 793.4818
7 58 LeftLarger PercCAExp1 Prime_6A Target_9N ldghLAC fkmEcIA Congruent right correct Normal 601.0677
7 59 LeftLarger PercCAExp1 Prime_4N Target_6A FmkHbKG aIfADmK Incongruent left correct Normal 1501.638
7 60 LeftLarger PercCAExp1 Prime_9N Target_6N HIaLBig jfmLMCc Congruent right correct Normal 942.5552
7 61 LeftLarger PercCAExp1 Prime_4A Target_9N mdAEclB heEFfkm Incongruent right error Normal 636.8555
7 62 LeftLarger PercCAExp1 Prime_6N Target_4A JhbELGH JALcBbE Incongruent right error Normal 973.1613
7 63 LeftLarger PercCAExp1 Prime_6A Target_6A CElFDLB aeCkiJj Congruent right correct Normal 629.5437
7 64 LeftLarger PercCAExp1 Prime_4N Target_4N CJkcIHh DEAeKHi Congruent left error Normal 903.6971
7 65 LeftLarger PercCAExp1 Prime_1A Target_1A eBFcKMJ DFjhBJA Congruent left error Normal 1120.558
7 66 LeftLarger PercCAExp1 Prime_1A Target_6A jmEFBHf lihBAIH Incongruent left correct Normal 1754.59
7 67 LeftLarger PercCAExp1 Prime_6A Target_6N bkhAFmM aGdgfec Congruent right correct Normal 770.6875
7 68 LeftLarger PercCAExp1 Prime_1N Target_9N CebkFBG fBJMlkc Incongruent right error Normal 541.679
7 69 LeftLarger PercCAExp1 Prime_9A Target_6A EmGlDfF jcMCLJe Congruent right correct Normal 678.5296
7 70 LeftLarger PercCAExp1 Prime_4A Target_6N CBjMimb HlcDGdk Incongruent right error Normal 467.9193
7 71 LeftLarger PercCAExp1 Prime_1N Target_9A hBjEAeJ fICldBD Incongruent left correct Normal 210.7393
7 72 LeftLarger PercCAExp1 Prime_4A Target_1N kGmleiK CakiImE Congruent left error Normal 398.6603
7 73 LeftLarger PercCAExp1 Prime_6N Target_6A gimBdbM MmKhgea Congruent left error Normal 674.0924
7 74 LeftLarger PercCAExp1 Prime_4N Target_4A kGFChjE JBEbgMa Congruent left error Normal 170.138
7 75 LeftLarger PercCAExp1 Prime_4A Target_6A hBcdHek eGCIfhb Incongruent right error Normal 154.9309
7 76 LeftLarger PercCAExp1 Prime_4N Target_1A gHBfFGD iEhgbcJ Congruent right correct Normal 269.6094
7 77 LeftLarger PercCAExp1 Prime_9N Target_4N dAfmejb BDkhKFJ Incongruent right error Normal 589.7237
7 78 LeftLarger PercCAExp1 Prime_1A Target_6N CFkdBLe kGBDdEi Incongruent left correct Normal 528.4774
7 79 LeftLarger PercCAExp1 Prime_1N Target_4N amhCDIM EIgBGij Congruent left error Normal 894.9438
7 80 LeftLarger PercCAExp1 Prime_1N Target_6N DlcmBjd EjmacAh Incongruent left correct Normal 477.7555
7 81 LeftSmaller PercCBPrac Prime_4N Target_9N LIGMEJB icMLHgb Incongruent right correct Normal 2522.698
7 82 LeftSmaller PercCBPrac Prime_1N Target_6A hgJkECF iGlgjde Incongruent right correct Normal 626.1837
7 83 LeftSmaller PercCBPrac Prime_1A Target_4N gbFfihD DlgdieC Congruent left correct Normal 481.1011
7 84 LeftSmaller PercCBPrac Prime_9N Target_1A eBfAImC jmKleAi Incongruent right correct Normal 987.8055
7 85 LeftSmaller PercCBPrac Prime_9A Target_4A LlMadbe cgCdJei Incongruent left error Normal 568.8168
7 86 LeftSmaller PercCBPrac Prime_9A Target_1N KbhFBiE GeJKIlc Incongruent left error Normal 490.9935
7 87 LeftSmaller PercCBPrac Prime_1N Target_4A FHMgcjC BCgGLif Congruent left correct Normal 659.7844
7 88 LeftSmaller PercCBPrac Prime_4N Target_1A iEHBbDm dJDEmjH Congruent right error Normal 678.4665
7 89 LeftSmaller PercCBPrac Prime_6N Target_4A hGFBeal lMmikDf Incongruent left error Normal 1857.489
7 90 LeftSmaller PercCBPrac Prime_6A Target_9N hGmlLdb gBJCKmL Congruent right error Normal 1941.422
7 91 LeftSmaller PercCBPrac Prime_4A Target_9N BJhbADL fLDgech Incongruent left error Normal 2216.01
7 92 LeftSmaller PercCBPrac Prime_9A Target_9A FJikDdj GHeaKMk Congruent right error Normal 1923.939
7 93 LeftSmaller PercCBPrac Prime_4N Target_6A HFAGDEl dEmAClH Incongruent left error Normal 1173.41
7 94 LeftSmaller PercCBPrac Prime_4N Target_9A FBjlkDf ldFiKgb Incongruent left error Normal 1253.444
7 95 LeftSmaller PercCBPrac Prime_1A Target_6N iklaBFJ GKcBhId Incongruent left error Normal 1156.922
7 96 LeftSmaller PercCBPrac Prime_9N Target_9N lcKJbEI DCgfIKi Congruent left correct Normal 876.5887
7 97 LeftSmaller PercCBExp1 Prime_6N Target_9N aLBFfbM hCGdkMm Congruent left correct Normal 1774.083
7 98 LeftSmaller PercCBExp1 Prime_1N Target_4N gdbjBFi eblAFjC Congruent left correct Normal 734.4274
7 99 LeftSmaller PercCBExp1 Prime_9A Target_1N MChimeg jemkgDc Incongruent left error Normal 1124.88
7 100 LeftSmaller PercCBExp1 Prime_1A Target_9A aGLdJCM jleDbdc Incongruent right correct Normal 1060.899
7 101 LeftSmaller PercCBExp1 Prime_6A Target_4A JlIMjmD bJHFeAI Incongruent right correct Normal 1248.268
7 102 LeftSmaller PercCBExp1 Prime_6A Target_6A fdFLlBM DBLEgMJ Congruent right error Normal 1596.243
7 103 LeftSmaller PercCBExp1 Prime_6A Target_1A HDIlBAC laLBDbg Incongruent left error Normal 1336.444
7 104 LeftSmaller PercCBExp1 Prime_4N Target_9A IkCEAji JgEiMdc Incongruent right correct Normal 1410.76
7 105 LeftSmaller PercCBExp1 Prime_1A Target_4A HEdBcGJ Ihcbfae Congruent left correct Normal 632.4685
7 106 LeftSmaller PercCBExp1 Prime_9A Target_1A eaEGiHh EDCAjhg Incongruent left error Normal 997.9938
7 107 LeftSmaller PercCBExp1 Prime_9A Target_6N MCkhdcJ LFGbMaD Congruent right error Normal 1089.783
7 108 LeftSmaller PercCBExp1 Prime_9A Target_9N bFLGJgj kMJCALG Congruent left correct Normal 1466.048
7 109 LeftSmaller PercCBExp1 Prime_6N Target_6N aFHADfi FEALIMa Congruent left correct Normal 1071.672
7 110 LeftSmaller PercCBExp1 Prime_1A Target_1N BAglCEH fhEabmC Congruent right error Normal 1179.969
7 111 LeftSmaller PercCBExp1 Prime_4N Target_1A fgdbECL bEIFHck Congruent left correct Normal 1283.212
7 112 LeftSmaller PercCBExp1 Prime_1N Target_1A bLHkBmG gIjkHGa Congruent left correct Normal 842.3404
7 113 LeftSmaller PercCBExp1 Prime_4N Target_6N hajdCGE LICegAm Incongruent right correct Normal 702.9211
7 114 LeftSmaller PercCBExp1 Prime_6A Target_1N fhiIKFM gEdkMie Incongruent left error Normal 861.4278
7 115 LeftSmaller PercCBExp1 Prime_6N Target_4A gDjCKGh cbIFMLl Incongruent left error Normal 771.1293
7 116 LeftSmaller PercCBExp1 Prime_4N Target_6A hKbDCcM dkBbLHl Incongruent left error Normal 557.8741
7 117 LeftSmaller PercCBExp1 Prime_6A Target_4N KjGLbcm GcghHKa Incongruent left error Normal 884.3344
7 118 LeftSmaller PercCBExp1 Prime_4N Target_4N KiCdjJl dAILDfG Congruent left correct Normal 507.3471
7 119 LeftSmaller PercCBExp1 Prime_9N Target_6N lAhEkcj aAjMGlg Congruent left correct Normal 676.5479
7 120 LeftSmaller PercCBExp1 Prime_4A Target_6N djlAEmg AeFBkME Incongruent right correct Normal 511.6984
7 121 LeftSmaller PercCBExp1 Prime_4A Target_4N mAGaich GegCjHM Congruent right error Normal 619.283
7 122 LeftSmaller PercCBExp1 Prime_9A Target_6A LdMgcEf jmbJLKc Congruent right error Normal 599.0881
7 123 LeftSmaller PercCBExp1 Prime_9A Target_4N iLJAjkc mLiEMeH Incongruent right correct Normal 442.5109
7 124 LeftSmaller PercCBExp1 Prime_9N Target_4A IkibKgc kDcmMIa Incongruent left error Normal 802.9194
7 125 LeftSmaller PercCBExp1 Prime_9N Target_1A LBDfcMi IBkMCmH Incongruent right correct Normal 672.4805
7 126 LeftSmaller PercCBExp1 Prime_6A Target_6N lKIGihg KFfcMGD Congruent right error Normal 612.0116
7 127 LeftSmaller PercCBExp1 Prime_1A Target_6N MJaHfiG jdCHDAc Incongruent right correct Normal 630.4576
7 128 LeftSmaller PercCBExp1 Prime_6N Target_1N MgFGLfe DbJICGd Incongruent left error Normal 377.1212
7 129 LeftSmaller PercCBExp1 Prime_1A Target_9N KdDJcBC fiBmIFj Incongruent left error Normal 222.51
7 130 LeftSmaller PercCBExp1 Prime_9N Target_4N jldmMBa LcajfFh Incongruent right correct Normal 182.4329
7 131 LeftSmaller PercCBExp1 Prime_1N Target_9N LjcGDEd mIlcBfa Incongruent right correct Normal 545.2424
7 132 LeftSmaller PercCBExp1 Prime_1A Target_6A mbkJGFd jCFdJag Incongruent right correct Normal 526.4269
7 133 LeftSmaller PercCBExp1 Prime_4N Target_9N dEKjHgB MBhbgcf Incongruent right correct Normal 603.5979
7 134 LeftSmaller PercCBExp1 Prime_6N Target_6A ILfKaBe JgKicfC Congruent left correct Normal 630.9944
7 135 LeftSmaller PercCBExp1 Prime_6A Target_9N mIBfeJG BbgCGEk Congruent left correct Normal 540.3939
7 136 LeftSmaller PercCBExp1 Prime_4A Target_4A AfgIaJb BDcaJGj Congruent right error Normal 655.2317
7 137 LeftSmaller PercCBExp1 Prime_1A Target_1A CElMaeL ejfKAgI Congruent left correct Normal 1362.955
7 138 LeftSmaller PercCBExp1 Prime_1N Target_4A CfDMGAc KfHehlD Congruent left correct Normal 1762.92
7 139 LeftSmaller PercCBExp1 Prime_1N Target_9A DfeFCLm LIJMfhm Incongruent right correct Normal 1191.611
7 140 LeftSmaller PercCBExp1 Prime_9N Target_9N jfhBiJC MAFlkie Congruent left correct Normal 1035.326
7 141 LeftSmaller PercCBExp1 Prime_9A Target_4A DbjekdG aEGdCfH Incongruent right correct Normal 1641.925
7 142 LeftSmaller PercCBExp1 Prime_1N Target_1N bfCmaFJ AkciJjm Congruent left correct Normal 2119.217
7 143 LeftSmaller PercCBExp1 Prime_6N Target_1A fdBAhmK bLBjlEG Incongruent left error Normal 520.8921
7 144 LeftSmaller PercCBExp1 Prime_1N Target_6A cBAGDbl dlFIbjD Incongruent right correct Normal 601.6849
7 145 LeftSmaller PercCBExp1 Prime_6N Target_4N LhkjKIa BmAdiJG Incongruent right correct Normal 933.3883
7 146 LeftSmaller PercCBExp1 Prime_4N Target_4A HmMgifa eMdLmKg Congruent left correct Normal 1127.651
7 147 LeftSmaller PercCBExp1 Prime_1N Target_6N HEflKDF lidmaLh Incongruent right correct Normal 595.0908
7 148 LeftSmaller PercCBExp1 Prime_9N Target_9A AljiBIc JiDFMGc Congruent right error Normal 642.628
7 149 LeftSmaller PercCBExp1 Prime_4A Target_6A Efgemha HBjGbka Incongruent right correct Normal 645.442
7 150 LeftSmaller PercCBExp1 Prime_6A Target_9A KikaEbG FaEHhdm Congruent left correct Normal 552.6169
7 151 LeftSmaller PercCBExp1 Prime_1A Target_4N kHEfGag HijgEel Congruent right error Normal 793.6715
7 152 LeftSmaller PercCBExp1 Prime_6N Target_9A fJaBEKH mhFjLid Congruent left correct Normal 779.9596
7 153 LeftSmaller PercCBExp1 Prime_4A Target_1N lIKdaec BfmkgIl Congruent left correct Normal 719.2708
7 154 LeftSmaller PercCBExp1 Prime_4A Target_1A DfjgGAh IhAGmlC Congruent right error Normal 626.4293
7 155 LeftSmaller PercCBExp1 Prime_9N Target_1N jEFLmHM KAjDGcM Incongruent left error Normal 905.9407
7 156 LeftSmaller PercCBExp1 Prime_4A Target_9A ElLgJCd GbgjeKc Incongruent left error Normal 630.803
7 157 LeftSmaller PercCBExp1 Prime_9A Target_9A CcfMLKe MbgChkj Congruent right error Normal 514.9821
7 158 LeftSmaller PercCBExp1 Prime_4N Target_1N Ecgbkah gfAIaDk Congruent right error Normal 616.8736
7 159 LeftSmaller PercCBExp1 Prime_9N Target_6A LgAEmkl DehmlkI Congruent right error Normal 1213.963
7 160 LeftSmaller PercCBExp1 Prime_4A Target_9N aklCLDB MkFGHEJ Incongruent right correct Normal 590.6153
8 1 LeftLarger PercCAPrac Prime_1N Target_6A kLmlKFH JbmLHia Incongruent right error Normal 608.5197
8 2 LeftLarger PercCAPrac Prime_6A Target_9N GHLgkAf MgbkDHa Congruent right correct Normal 1211.917
8 3 LeftLarger PercCAPrac Prime_9A Target_4A LAEMjKc BfldLJb Incongruent left correct Normal 1580.771
8 4 LeftLarger PercCAPrac Prime_4N Target_9A IbglHcm bGFedfi Incongruent left correct Normal 1110.166
8 5 LeftLarger PercCAPrac Prime_6A Target_4A ifGIKad khdeJmD Incongruent left correct Normal 1240.299
8 6 LeftLarger PercCAPrac Prime_6A Target_6N DmJgfHj DAEbjda Congruent right correct Normal 728.3707
8 7 LeftLarger PercCAPrac Prime_9N Target_1A bjKhdEe hmkiEej Incongruent left correct Normal 1098.78
8 8 LeftLarger PercCAPrac Prime_6N Target_6N dHACghK aHdgBbG Congruent right correct Normal 777.6515
8 9 LeftLarger PercCAPrac Prime_9A Target_9N KaGgMeC bJghLka Congruent right correct Normal 956.5568
8 10 LeftLarger PercCAPrac Prime_6A Target_6A igDlhLd klCgdMc Congruent right correct Normal 711.8472
8 11 LeftLarger PercCAPrac Prime_9A Target_1A kIgBCKj icJmIhd Incongruent right error Normal 954.1452
8 12 LeftLarger PercCAPrac Prime_4A Target_4N GiFIbgH ghacGHI Congruent right correct Normal 3617.044
8 13 LeftLarger PercCAPrac Prime_1N Target_1A mJFgAGB cKbBAle Congruent left error Normal 856.435
8 14 LeftLarger PercCAPrac Prime_4A Target_9A beIlcFf gkfKaFM Incongruent left correct Normal 1331.494
8 15 LeftLarger PercCAPrac Prime_6A Target_1N DaBgehK JLfMHEc Incongruent left correct Normal 1594.042
8 16 LeftLarger PercCAPrac Prime_4N Target_1N EelhBLM JeFhjaM Congruent right correct Normal 854.8297
8 17 LeftLarger PercCAExp1 Prime_1N Target_9N hFLeGKM klgJfMF Incongruent left correct Normal 781.2523
