sub trial_no group_type block_type prime target mask1 mask2 congruency key_press key_error time_error RT
801 1 LeftLarger PercIAPrac Prime_9N Target_9A EBfMGDh DclIKmh Congruent left correct Normal 1070.505
801 2 LeftLarger PercIAPrac Prime_6N Target_9A EMGmAjF FJhHCBi Congruent left correct Normal 985.8233
801 3 LeftLarger PercIAPrac Prime_4A Target_6A GIEJBCM AiaBEJc Incongruent right correct Normal 891.6788
801 4 LeftLarger PercIAPrac Prime_4A Target_1A KFCLeGc JkelcbL Congruent right correct Normal 1000.837
801 5 LeftLarger PercIAPrac Prime_6A Target_6N cIMJCFl dabiCcF Congruent right error Normal 808.3702
801 6 LeftLarger PercIAPrac Prime_4A Target_4N hiAFdkI fHAblkJ Congruent left error Normal 1197.445
801 7 LeftLarger PercIAPrac Prime_6N Target_1N FdljELf ElgIdfF Incongruent left correct Normal 1357.278
801 8 LeftLarger PercIAPrac Prime_1N Target_6A EAiIbLB kLhafci Incongruent right correct Normal 1007.427
801 9 LeftLarger PercIAPrac Prime_4N Target_9A FKGMkmH BcfGmkM Incongruent right correct Normal 1887.59
801 10 LeftLarger PercIAPrac Prime_4N Target_9N DlcHECk kCfmJcK Incongruent left error Normal 777.3037
801 11 LeftLarger PercIAPrac Prime_6N Target_1A kADgleB CKkHBDj Incongruent right error Normal 1220.347
801 12 LeftLarger PercIAPrac Prime_4N Target_1A cjmHfhL IJbKgCB Congruent right correct Normal 918.4086
801 13 LeftLarger PercIAPrac Prime_9A Target_9A BGJdLlM cjIklhd Congruent right error Normal 1116.936
801 14 LeftLarger PercIAPrac Prime_1N Target_4N kADmhfe CJiHEja Congruent left error Normal 1193.744
801 15 LeftLarger PercIAPrac Prime_6N Target_6N cgdmbaB kjghEMG Congruent right error Normal 1043.069
801 16 LeftLarger PercIAPrac Prime_9A Target_9N IjfLlcd BDMGAkH Congruent right error Normal 710.9776
801 17 LeftLarger PercIAExp1 Prime_4A Target_9A KhIBgMf MfjmbAJ Incongruent right correct Normal 974.7851
801 18 LeftLarger PercIAExp1 Prime_9N Target_4N hcJIEFa iBHfbaK Incongruent left correct Normal 952.4822
801 19 LeftLarger PercIAExp1 Prime_6N Target_9N IlCFfdK bDmEjdM Congruent right error Normal 1286.088
801 20 LeftLarger PercIAExp1 Prime_9N Target_1N EkfGJjM jIiaJMH Incongruent left correct Normal 887.9531
801 21 LeftLarger PercIAExp1 Prime_4N Target_9A IgLJHEk KHehAjC Incongruent right correct Normal 1042.609
801 22 LeftLarger PercIAExp1 Prime_1A Target_6N cKfiGIJ kCDdFeb Incongruent left error Normal 1196.298
801 23 LeftLarger PercIAExp1 Prime_4N Target_4A ELfaICh FdDLGIE Congruent left error Normal 1562.484
801 24 LeftLarger PercIAExp1 Prime_4A Target_6A DLHAcEa lEhCkfA Incongruent right correct Normal 719.7969
801 25 LeftLarger PercIAExp1 Prime_4A Target_6N jbMiLaA GBDlHAm Incongruent right correct Normal 1202.109
801 26 LeftLarger PercIAExp1 Prime_9A Target_1N fjlMDmA DEKCiJL Incongruent left correct Normal 1104.74
801 27 LeftLarger PercIAExp1 Prime_6N Target_6N kcKaGFi giIGaLH Congruent left correct Normal 954.756
801 28 LeftLarger PercIAExp1 Prime_4A Target_1N dmchMID cFbkHDl Congruent right correct Normal 914.0691
801 29 LeftLarger PercIAExp1 Prime_9A Target_9A DBgjMma jlAhIHi Congruent left correct Normal 1235.201
801 30 LeftLarger PercIAExp1 Prime_6A Target_6A jJDMKhe eaHjKDd Congruent right error Normal 1102.842
801 31 LeftLarger PercIAExp1 Prime_9N Target_9N BAhFaMi KmclaCD Congruent left correct Normal 1503.387
801 32 LeftLarger PercIAExp1 Prime_4A Target_4A dbaeIBc lBKLdIE Congruent left error Normal 708.9362
801 33 LeftLarger PercIAExp1 Prime_9A Target_4N cFeJaBD GkcCFhj Incongruent left correct Normal 1458.335
801 34 LeftLarger PercIAExp1 Prime_4A Target_4N gDldCLe ahEcDbg Congruent right correct Normal 952.1883
801 35 LeftLarger PercIAExp1 Prime_6A Target_4A hILEFfj FjHbmhK Incongruent left correct Normal 805.1421
801 36 LeftLarger PercIAExp1 Prime_1A Target_4N fDmHahA hfFDJHb Congruent right correct Normal 1033.42
801 37 LeftLarger PercIAExp1 Prime_9N Target_6A dmJlFeg DiMHhBK Congruent left correct Normal 920.3641
801 38 LeftLarger PercIAExp1 Prime_6A Target_1A HkEfiJG DlecIKM Incongruent left correct Normal 1631.883
801 39 LeftLarger PercIAExp1 Prime_9A Target_6N MkABiIm HcbEeLh Congruent left correct Normal 1227.956
801 40 LeftLarger PercIAExp1 Prime_6N Target_1A CeKAIBb JfCMdgI Incongruent left correct Normal 2217.988
801 41 LeftLarger PercIAExp1 Prime_6A Target_4N kDKBfCH BihgGJA Incongruent left correct Normal 870.2131
801 42 LeftLarger PercIAExp1 Prime_1N Target_6N lmdMjHE jCgFmDH Incongruent right correct Normal 850.7808
801 43 LeftLarger PercIAExp1 Prime_9N Target_1A LJGlHfa iKbMBIG Incongruent left correct Normal 1163.492
801 44 LeftLarger PercIAExp1 Prime_1N Target_1N bhFBCHf klJIjgc Congruent left error Normal 950.6354
801 45 LeftLarger PercIAExp1 Prime_1A Target_4A bCMFKAE lEdJkaK Congruent right correct Normal 647.9135
801 46 LeftLarger PercIAExp1 Prime_6N Target_6A bgLKfCc hIcGAlK Congruent left correct Normal 1090.467
801 47 LeftLarger PercIAExp1 Prime_6A Target_6N MEDmjHi HjFlIkL Congruent left correct Normal 954.0053
801 48 LeftLarger PercIAExp1 Prime_6A Target_9A KhfcFJm dgIKCiA Congruent left correct Normal 1148.39
801 49 LeftLarger PercIAExp1 Prime_1N Target_9N JebkCAf IkmHdGj Incongruent right correct Normal 560.2395
801 50 LeftLarger PercIAExp1 Prime_9N Target_4A iglGaDE dbkHADB Incongruent left correct Normal 1134.406
801 51 LeftLarger PercIAExp1 Prime_1N Target_6A CLImiMd KjhaIMb Incongruent right correct Normal 867.4936
801 52 LeftLarger PercIAExp1 Prime_4N Target_9N LFgieMD agBkGld Incongruent left error Normal 1310.481
801 53 LeftLarger PercIAExp1 Prime_6N Target_4N fijCJEI fkaJDlh Incongruent left correct Normal 1307.063
801 54 LeftLarger PercIAExp1 Prime_6N Target_1N MDgleGi AMjhBeE Incongruent left correct Normal 1416.111
801 55 LeftLarger PercIAExp1 Prime_4N Target_4N DmdAjlc HElFmcf Congruent right correct Normal 1709.632
801 56 LeftLarger PercIAExp1 Prime_1A Target_6A cICJAjl LfbglkK Incongruent right correct Normal 1067.983
801 57 LeftLarger PercIAExp1 Prime_9N Target_9A daCcmiG JediDCj Congruent left correct Normal 743.6779
801 58 LeftLarger PercIAExp1 Prime_9A Target_6A FdKCcHi MlhmkbA Congruent left correct Normal 826.0898
801 59 LeftLarger PercIAExp1 Prime_4N Target_1N mlcbEfF lIBKCjE Congruent right correct Normal 958.0238
801 60 LeftLarger PercIAExp1 Prime_1A Target_9N cJmhGBj kGlbBIF Incongruent right correct Normal 1192.974
801 61 LeftLarger PercIAExp1 Prime_1A Target_9A idMGmjA gAJKhDf Incongruent right correct Normal 864.448
801 62 LeftLarger PercIAExp1 Prime_6A Target_1N mEhFJDe bmBEdkK Incongruent left correct Normal 851.6155
801 63 LeftLarger PercIAExp1 Prime_4A Target_9N JEKAIac BgJDebi Incongruent right correct Normal 725.0853
801 64 LeftLarger PercIAExp1 Prime_1A Target_1N GlIJmdL IcEAfbB Congruent right correct Normal 1093.266
801 65 LeftLarger PercIAExp1 Prime_1N Target_4N aKGcJEi LjEkDAd Congruent left error Normal 922.167
801 66 LeftLarger PercIAExp1 Prime_6N Target_4A jghJkiC eIfDkgi Incongruent left correct Normal 720.9868
801 67 LeftLarger PercIAExp1 Prime_4N Target_6A CilAfhg FCamELb Incongruent right correct Normal 1013.034
801 68 LeftLarger PercIAExp1 Prime_1N Target_1A MgKDkaJ IefMdHB Congruent left error Normal 1222.072
801 69 LeftLarger PercIAExp1 Prime_9A Target_1A FedAmHg cbdABfk Incongruent left correct Normal 715.8021
801 70 LeftLarger PercIAExp1 Prime_6N Target_9A HMbJDlg CakDcHg Congruent right error Normal 835.688
801 71 LeftLarger PercIAExp1 Prime_1N Target_9A HCljFkd CjKcFgE Incongruent left error Normal 705.1179
801 72 LeftLarger PercIAExp1 Prime_9A Target_9N fLbBCFh jHKJeDL Congruent left correct Normal 675.5624
801 73 LeftLarger PercIAExp1 Prime_4A Target_1A JCkiKEB bfiEgKJ Congruent right correct Normal 1056.544
801 74 LeftLarger PercIAExp1 Prime_4N Target_1A kjlcIDf lbceIHf Congruent left error Normal 951.0223
801 75 LeftLarger PercIAExp1 Prime_1A Target_1A LcdKaAk kaLeKAj Congruent right correct Normal 1329.787
801 76 LeftLarger PercIAExp1 Prime_4N Target_6N kBKMgDJ gcMjHGk Incongruent left error Normal 1456.577
801 77 LeftLarger PercIAExp1 Prime_1N Target_4A gdeHJcE IemlJdC Congruent left error Normal 1453.156
801 78 LeftLarger PercIAExp1 Prime_9N Target_6N CiFJDdM iBbeAfL Congruent right error Normal 1397.583
801 79 LeftLarger PercIAExp1 Prime_9A Target_4A mjKBkcM agJkMCj Incongruent left correct Normal 522.2652
801 80 LeftLarger PercIAExp1 Prime_6A Target_9N MJLAHDG FBkELih Congruent left correct Normal 751.701
801 81 LeftSmaller PercIBPrac Prime_6A Target_4N CjJDmcl GcgJBFm Incongruent right correct Normal 784.9735
801 82 LeftSmaller PercIBPrac Prime_1N Target_1N FcCejkb cKBiAaC Congruent right error Normal 1151.494
801 83 LeftSmaller PercIBPrac Prime_6N Target_9A jLediDB ciebLAl Congruent right correct Normal 1290.553
801 84 LeftSmaller PercIBPrac Prime_6A Target_4A LBaGiek IDbFkcg Incongruent right correct Normal 1631.971
801 85 LeftSmaller PercIBPrac Prime_4N Target_9A lBDIdCG KigdcJl Incongruent left correct Normal 1250.183
801 86 LeftSmaller PercIBPrac Prime_4A Target_6N lbjMgeE BLlJEGI Incongruent left correct Normal 1469.241
801 87 LeftSmaller PercIBPrac Prime_9N Target_9N LikefID KLhIJFD Congruent right correct Normal 630.6739
801 88 LeftSmaller PercIBPrac Prime_1A Target_6N mIgABGd jbhEFfJ Incongruent left correct Normal 490.0488
801 89 LeftSmaller PercIBPrac Prime_4A Target_4A JeECfiL klDjadc Congruent left correct Normal 1101.372
801 90 LeftSmaller PercIBPrac Prime_9N Target_9A dCefDjL fKHgaec Congruent right correct Normal 966.0676
801 91 LeftSmaller PercIBPrac Prime_6A Target_6A lhDkcbm dGMKIaB Congruent right correct Normal 828.2402
801 92 LeftSmaller PercIBPrac Prime_1N Target_6N FgkADmH GKiLDJA Incongruent left correct Normal 1094.155
801 93 LeftSmaller PercIBPrac Prime_1N Target_6A iemHKjc JBDGjlk Incongruent right error Normal 787.2965
801 94 LeftSmaller PercIBPrac Prime_1N Target_4A mfCjiIA cHDGAKk Congruent right error Normal 1086.301
801 95 LeftSmaller PercIBPrac Prime_6A Target_1A gmaLhci mbkDEMe Incongruent right correct Normal 1727.173
801 96 LeftSmaller PercIBPrac Prime_4A Target_1N LigECJc LEKIeaM Congruent right error Normal 988.6358
801 97 LeftSmaller PercIBExp1 Prime_6N Target_1A lbdCHDf LBJDHGh Incongruent right correct Normal 981.1749
801 98 LeftSmaller PercIBExp1 Prime_9N Target_1A HfmjMFD iklJbDC Incongruent right correct Normal 1070.146
801 99 LeftSmaller PercIBExp1 Prime_1A Target_4A jkFEKbf lhCcIGa Congruent right error Normal 970.075
801 100 LeftSmaller PercIBExp1 Prime_9A Target_9N HDcJfGm LAhebjI Congruent right correct Normal 562.0107
801 101 LeftSmaller PercIBExp1 Prime_4A Target_4N lehMCHA jDBIeFC Congruent left correct Normal 448.6852
801 102 LeftSmaller PercIBExp1 Prime_4N Target_6A eEaHghL Dhebajg Incongruent right error Normal 664.3273
801 103 LeftSmaller PercIBExp1 Prime_9A Target_6N CMjLgbi DcieMmg Congruent right correct Normal 841.3069
801 104 LeftSmaller PercIBExp1 Prime_9A Target_1N KgaFEhc cHBdJaE Incongruent right correct Normal 618.8021
801 105 LeftSmaller PercIBExp1 Prime_4A Target_1A LdCejfc AckHhJf Congruent left correct Normal 745.6934
801 106 LeftSmaller PercIBExp1 Prime_4N Target_1A DfCiGIE ACMEKmF Congruent left correct Normal 746.527
801 107 LeftSmaller PercIBExp1 Prime_1N Target_6N dmhJLbj beEAHlG Incongruent left correct Normal 1023.933
801 108 LeftSmaller PercIBExp1 Prime_1N Target_1N aHkbCMK DeHGMhb Congruent right error Normal 669.7378
801 109 LeftSmaller PercIBExp1 Prime_4N Target_9N KijdmlL DEbmBch Incongruent left correct Normal 1253.27
801 110 LeftSmaller PercIBExp1 Prime_4N Target_1N aGDlHKh mIMlKDe Congruent left correct Normal 1201.734
801 111 LeftSmaller PercIBExp1 Prime_6A Target_6A chKjFif HEFDBje Congruent right correct Normal 846.4187
801 112 LeftSmaller PercIBExp1 Prime_1A Target_1A khgJKcj DEGJhbf Congruent left correct Normal 820.5724
801 113 LeftSmaller PercIBExp1 Prime_4A Target_9N IbAjBFJ gHFbemM Incongruent left correct Normal 912.0059
801 114 LeftSmaller PercIBExp1 Prime_6N Target_6N jMlEfcL dCckMIl Congruent right correct Normal 535.195
801 115 LeftSmaller PercIBExp1 Prime_9N Target_1N CEIDekj EdACjFi Incongruent right correct Normal 859.9111
801 116 LeftSmaller PercIBExp1 Prime_6N Target_6A mhKfBEl JfMdlGb Congruent right correct Normal 461.1199
801 117 LeftSmaller PercIBExp1 Prime_4A Target_1N bjDfCFE gHKLheJ Congruent left correct Normal 746.1032
801 118 LeftSmaller PercIBExp1 Prime_4A Target_6N lMCGDdb bafKeEh Incongruent left correct Normal 427.4937
801 119 LeftSmaller PercIBExp1 Prime_4N Target_6N edBAEjl fleMbdJ Incongruent left correct Normal 770.4665
801 120 LeftSmaller PercIBExp1 Prime_9N Target_4N dDGEBka BDKhgCF Incongruent left error Normal 565.3166
801 121 LeftSmaller PercIBExp1 Prime_6N Target_9N JcGKkeC FDJbaHE Congruent right correct Normal 942.984
801 122 LeftSmaller PercIBExp1 Prime_6N Target_1N IfgMaiF maMAfKd Incongruent left error Normal 726.8041
801 123 LeftSmaller PercIBExp1 Prime_4A Target_6A eADjcMa MBjahmF Incongruent left correct Normal 910.9458
801 124 LeftSmaller PercIBExp1 Prime_1A Target_9A MeJgbFl JKIhMdf Incongruent left correct Normal 794.1427
801 125 LeftSmaller PercIBExp1 Prime_9N Target_6A LClHmMe kJBKjfl Congruent right correct Normal 841.8625
801 126 LeftSmaller PercIBExp1 Prime_6A Target_6N BMgfeAi EKcCabk Congruent right correct Normal 591.9912
801 127 LeftSmaller PercIBExp1 Prime_1A Target_9N dbJGLcA AfaFLdH Incongruent left correct Normal 671.7614
801 128 LeftSmaller PercIBExp1 Prime_9A Target_4A MdGDCiJ CeFMhIH Incongruent right correct Normal 1129.211
801 129 LeftSmaller PercIBExp1 Prime_1A Target_1N lHIgcGD JaKfHdA Congruent left correct Normal 1062.102
801 130 LeftSmaller PercIBExp1 Prime_4N Target_4N hbdcakg HJgalBG Congruent right error Normal 883.2883
801 131 LeftSmaller PercIBExp1 Prime_9A Target_9A dfLAFIm GiMbHCg Congruent right correct Normal 756.9525
801 132 LeftSmaller PercIBExp1 Prime_9A Target_6A CLIcMmi lfekmBi Congruent right correct Normal 1086.873
801 133 LeftSmaller PercIBExp1 Prime_6N Target_4A KJiDfCm gmekCEB Incongruent right correct Normal 1349.071
801 134 LeftSmaller PercIBExp1 Prime_1N Target_9N dfLiJIe IKEaHeJ Incongruent left correct Normal 748.8691
801 135 LeftSmaller PercIBExp1 Prime_6N Target_4N GaDiMFe jileLkG Incongruent right correct Normal 1071.299
801 136 LeftSmaller PercIBExp1 Prime_1N Target_1A BmIALMj JAgfCbK Congruent left correct Normal 739.2148
801 137 LeftSmaller PercIBExp1 Prime_9N Target_9N KFkHGDe McBbjkI Congruent right correct Normal 733.3806
801 138 LeftSmaller PercIBExp1 Prime_1N Target_6A lEjbHFi jmEaKHC Incongruent left correct Normal 1782.161
801 139 LeftSmaller PercIBExp1 Prime_4A Target_4A ebEcIaM kBEFJDf Congruent right error Normal 1061.571
801 140 LeftSmaller PercIBExp1 Prime_9N Target_6N HmFjLID GgdMeHA Congruent right correct Normal 701.0363
801 141 LeftSmaller PercIBExp1 Prime_1N Target_4A gGFIHJC gIekHDa Congruent right error Normal 1145.598
801 142 LeftSmaller PercIBExp1 Prime_6A Target_4N ijkfGla hIlamGF Incongruent right correct Normal 593.0412
801 143 LeftSmaller PercIBExp1 Prime_9A Target_1A agcmFIk JkMHibg Incongruent right correct Normal 1097.81
801 144 LeftSmaller PercIBExp1 Prime_6N Target_9A kcCBjIH aecAjDk Congruent right correct Normal 814.0076
801 145 LeftSmaller PercIBExp1 Prime_6A Target_9N mFdHJCD BlaCDdk Congruent right correct Normal 879.7636
801 146 LeftSmaller PercIBExp1 Prime_4N Target_9A KGfhDFB jKHmDkM Incongruent left correct Normal 996.4829
801 147 LeftSmaller PercIBExp1 Prime_1A Target_6A AIMmFch mALgBab Incongruent left correct Normal 1040.894
801 148 LeftSmaller PercIBExp1 Prime_4N Target_4A dcGFagC cbhIikM Congruent right error Normal 992.0683
801 149 LeftSmaller PercIBExp1 Prime_1N Target_4N JaejfFD HAjhdEI Congruent right error Normal 1041.986
801 150 LeftSmaller PercIBExp1 Prime_6A Target_1A efAimkL gBIMiGm Incongruent right correct Normal 2350.121
801 151 LeftSmaller PercIBExp1 Prime_9A Target_4N DHilefC BCAkfdc Incongruent right correct Normal 659.7318
801 152 LeftSmaller PercIBExp1 Prime_4A Target_9A gEhcLFH IdlJcMA Incongruent left correct Normal 1604.01
801 153 LeftSmaller PercIBExp1 Prime_6A Target_1N HmgjhEB AmHLGha Incongruent right correct Normal 1011.231
801 154 LeftSmaller PercIBExp1 Prime_6A Target_4A hHLjlmd fmaGije Incongruent right correct Normal 1150.81
801 155 LeftSmaller PercIBExp1 Prime_1N Target_9A bMeLhCg JKBkgAl Incongruent left correct Normal 890.4645
801 156 LeftSmaller PercIBExp1 Prime_1A Target_4N iEcgjdH CFEIAal Congruent left correct Normal 1008.204
801 157 LeftSmaller PercIBExp1 Prime_1A Target_6N BEiFhlJ iaHdeFD Incongruent right error Normal 924.9275
801 158 LeftSmaller PercIBExp1 Prime_9N Target_4A AgDIjBC DGcMgaJ Incongruent right correct Normal 921.9871
801 159 LeftSmaller PercIBExp1 Prime_9N Target_9A eHDJGkM aEAdGeL Congruent left error Normal 748.0423
801 160 LeftSmaller PercIBExp1 Prime_6A Target_9A dgjLebC MjlEIgf Congruent left error Normal 1379.311
803 1 LeftSmaller PercIAPrac Prime_9N Target_6A FmeafMG fFliHem Congruent left error Normal 534.1146
803 2 LeftSmaller PercIAPrac Prime_9A Target_6A eajIMGf iCEaMBF Congruent left error Normal 424.0223
803 3 LeftSmaller PercIAPrac Prime_1A Target_4A fGLbDgH FKHmDlj Congruent right error Normal 309.4287
803 4 LeftSmaller PercIAPrac Prime_9A Target_4A iGbJfKB LfKCHjI Incongruent left error Normal 314.4466
803 5 LeftSmaller PercIAPrac Prime_6A Target_9N GilFAeg dghcajm Congruent left error Normal 294.9859
803 6 LeftSmaller PercIAPrac Prime_6A Target_1N AjbeCHi gBmieHh Incongruent right correct Normal 289.5663
803 7 LeftSmaller PercIAPrac Prime_4A Target_4N HBfJjIm LKIaEkd Congruent left correct Normal 765.5709
803 8 LeftSmaller PercIAPrac Prime_9N Target_4N IdBHKjE hfBbgJK Incongruent left error Normal 514.306
803 9 LeftSmaller PercIAPrac Prime_1N Target_4N EkaGcdH iEImcDG Congruent left correct Normal 281.5113
803 10 LeftSmaller PercIAPrac Prime_4N Target_4N KafGjBh jKGgDEk Congruent right error Normal 457.3226
803 11 LeftSmaller PercIAPrac Prime_6N Target_4N IlamHBA ahbjciC Incongruent right correct Normal 350.2333
803 12 LeftSmaller PercIAPrac Prime_1N Target_6A HCdaDlk KdMhgGb Incongruent right error Normal 410.5408
803 13 LeftSmaller PercIAPrac Prime_4N Target_6N McfHaFg aKhLmbg Incongruent right error Normal 313.6964
803 14 LeftSmaller PercIAPrac Prime_4A Target_4A iMkJLfH FbIJDBk Congruent right error Normal 270.123
803 15 LeftSmaller PercIAPrac Prime_6N Target_1N fhBJbHe cEmkahL Incongruent right correct Normal 404.5081
803 16 LeftSmaller PercIAPrac Prime_6N Target_9N MFiKabD GdcDKIE Congruent left error Normal 280.4193
803 17 LeftSmaller PercIAExp1 Prime_1N Target_4N gMjKfcB jmDICEG Congruent left correct Normal 401.6735
803 18 LeftSmaller PercIAExp1 Prime_6N Target_9N cIGDebk IdMKBje Congruent left error Normal 353.2696
803 19 LeftSmaller PercIAExp1 Prime_9A Target_4N khEgMKl DGdHeLF Incongruent right correct Normal 274.8047
803 20 LeftSmaller PercIAExp1 Prime_4N Target_4A bIBjlek iGjmcBf Congruent right error Normal 233.2338
803 21 LeftSmaller PercIAExp1 Prime_6N Target_9A bCIJHec GaCfjdF Congruent right correct Normal 257.707
803 22 LeftSmaller PercIAExp1 Prime_9A Target_1N egljGAF dfCjcAa Incongruent left error Normal 318.044
803 23 LeftSmaller PercIAExp1 Prime_4A Target_4A DeCifBH GeDEkKC Congruent right error Normal 212.9666
803 24 LeftSmaller PercIAExp1 Prime_1N Target_9A bgJimGE aciGlCM Incongruent right error Normal 224.8791
803 25 LeftSmaller PercIAExp1 Prime_4N Target_9A EMhmHJi cbGIFjJ Incongruent left correct Normal 247.0283
803 26 LeftSmaller PercIAExp1 Prime_9A Target_9A MIDJKlm JhKGaDi Congruent left error Normal 238.701
803 27 LeftSmaller PercIAExp1 Prime_4A Target_1N kiABHIE MFLEcBm Congruent left correct Normal 234.0063
803 28 LeftSmaller PercIAExp1 Prime_1N Target_1A JHdAMjC gkMLEiH Congruent left correct Normal 163.0192
803 29 LeftSmaller PercIAExp1 Prime_1A Target_9N aMkJcfH emjCbMH Incongruent right error Normal 114.679
803 30 LeftSmaller PercIAExp1 Prime_4N Target_6A LIAiMab HjLfIbE Incongruent left correct Early 45.67254
803 31 LeftSmaller PercIAExp1 Prime_6A Target_1A FcDJgjC BiEeLdG Incongruent right correct Normal 266.8462
803 32 LeftSmaller PercIAExp1 Prime_9N Target_1N mIhdFKH JGMBKah Incongruent right correct Early 91.38583
803 33 LeftSmaller PercIAExp1 Prime_6A Target_1N hEeHLdg cGEbLBM Incongruent left error Normal 256.9288
803 34 LeftSmaller PercIAExp1 Prime_1A Target_4A kMGfHAd KfJieGC Congruent left correct Normal 282.1861
803 35 LeftSmaller PercIAExp1 Prime_4N Target_1N KeFkLig ecLHFiD Congruent right error Early 77.89222
803 36 LeftSmaller PercIAExp1 Prime_4N Target_1A khfAcGa eKJkbdj Congruent left correct Normal 252.5418
803 37 LeftSmaller PercIAExp1 Prime_9N Target_9N abhgJAc IafClke Congruent right correct Normal 258.5755
803 38 LeftSmaller PercIAExp1 Prime_6N Target_4N eiIFCDj CAiamBK Incongruent right correct Normal 349.8751
803 39 LeftSmaller PercIAExp1 Prime_9N Target_4N IkcjiAg GhBbIJD Incongruent right correct Normal 319.0721
803 40 LeftSmaller PercIAExp1 Prime_9N Target_6N EJmDeaH MKaiLjd Congruent right correct Normal 193.455
803 41 LeftSmaller PercIAExp1 Prime_6A Target_9N gjHJACd idfIAGB Congruent right correct Normal 267.3205
803 42 LeftSmaller PercIAExp1 Prime_6N Target_1N MHcKgEm cfGJjeg Incongruent left error Normal 293.787
803 43 LeftSmaller PercIAExp1 Prime_9N Target_4A kmJFehM BmhjLdl Incongruent right correct Normal 284.3267
803 44 LeftSmaller PercIAExp1 Prime_6A Target_4N LicMefH hIaeBKd Incongruent right correct Normal 143.1334
803 45 LeftSmaller PercIAExp1 Prime_4A Target_1A lLHBFeh fmKhBcH Congruent left correct Normal 182.2703
803 46 LeftSmaller PercIAExp1 Prime_1N Target_6A jHaiFEm JgCaBDl Incongruent right error Normal 227.5603
803 47 LeftSmaller PercIAExp1 Prime_9N Target_6A HGglIKh LdmHKMG Congruent left error Normal 356.4701
803 48 LeftSmaller PercIAExp1 Prime_4A Target_9N kLecfBC gdCGlcB Incongruent right error Normal 327.7625
803 49 LeftSmaller PercIAExp1 Prime_9A Target_9N gacLADI bHLEBCi Congruent right correct Normal 344.9263
803 50 LeftSmaller PercIAExp1 Prime_1A Target_1A JCGHmeb KiFlDha Congruent left correct Normal 271.4558
803 51 LeftSmaller PercIAExp1 Prime_1A Target_6N JadFlgD KClMcGd Incongruent left correct Normal 348.4993
803 52 LeftSmaller PercIAExp1 Prime_4N Target_9N hdmaFBe mhJdaLI Incongruent right error Normal 261.3812
803 53 LeftSmaller PercIAExp1 Prime_4A Target_4N MIhfebm EeDkKjg Congruent right error Normal 343.1535
803 54 LeftSmaller PercIAExp1 Prime_9A Target_1A CacMFhD LmCAGdE Incongruent left error Normal 422.8687
803 55 LeftSmaller PercIAExp1 Prime_1N Target_1N JlCdjAf FlLCAcm Congruent right error Normal 274.9217
803 56 LeftSmaller PercIAExp1 Prime_1N Target_6N KAfMlHJ CMidJBk Incongruent right error Normal 297.439
803 57 LeftSmaller PercIAExp1 Prime_9N Target_1A jgFGdkf AMjHBEK Incongruent left error Normal 283.1113
803 58 LeftSmaller PercIAExp1 Prime_4A Target_6N jeBKILi mBCbhiH Incongruent left correct Normal 328.0739
803 59 LeftSmaller PercIAExp1 Prime_4A Target_9A AckeClE BEAfIHJ Incongruent right error Normal 292.566
803 60 LeftSmaller PercIAExp1 Prime_4A Target_6A gfeILGH fjLMigk Incongruent left correct Normal 276.2205
803 61 LeftSmaller PercIAExp1 Prime_6A Target_4A fGmiMKJ McmEibC Incongruent right correct Normal 232.6474
803 62 LeftSmaller PercIAExp1 Prime_6N Target_1A bHLaFEi LGEBglI Incongruent left error Normal 238.914
803 63 LeftSmaller PercIAExp1 Prime_6A Target_6N ieamBHC aGdFMHK Congruent right correct Normal 231.0881
803 64 LeftSmaller PercIAExp1 Prime_9A Target_4A IilJEcA gdMGEbC Incongruent left error Normal 281.3821
803 65 LeftSmaller PercIAExp1 Prime_4N Target_6N mdJHIFf eHELkGi Incongruent right error Normal 268.6454
803 66 LeftSmaller PercIAExp1 Prime_1N Target_4A ljFgiBH DEijgCB Congruent left correct Normal 357.5602
803 67 LeftSmaller PercIAExp1 Prime_6N Target_6A mKejFCB ehliCKj Congruent right correct Normal 284.7392
803 68 LeftSmaller PercIAExp1 Prime_1A Target_6A FhcMEHL cMmkeHa Incongruent left correct Normal 381.9115
803 69 LeftSmaller PercIAExp1 Prime_1A Target_4N DfcBeIG GgkAJlc Congruent right error Normal 258.7939
803 70 LeftSmaller PercIAExp1 Prime_9N Target_9A bFLcJHa JKCcbka Congruent left error Normal 392.7359
803 71 LeftSmaller PercIAExp1 Prime_1N Target_9N CbMcFBI ieHabdL Incongruent right error Normal 318.3931
803 72 LeftSmaller PercIAExp1 Prime_6A Target_6A fMKLgih JkMlHbD Congruent left error Normal 386.5635
803 73 LeftSmaller PercIAExp1 Prime_9A Target_6A BGehbdE EkJAfdm Congruent left error Normal 371.8393
803 74 LeftSmaller PercIAExp1 Prime_9A Target_6N jcKGDId GgcFkMf Congruent right correct Normal 423.6014
803 75 LeftSmaller PercIAExp1 Prime_6A Target_9A HcELaml cLehbki Congruent right correct Normal 296.045
803 76 LeftSmaller PercIAExp1 Prime_6N Target_6N meKbCLM GFglbji Congruent right correct Normal 394.2218
803 77 LeftSmaller PercIAExp1 Prime_1A Target_9A ifFjeLI dMliFbK Incongruent right error Normal 325.6273
803 78 LeftSmaller PercIAExp1 Prime_1A Target_1N LmFjEaH lmLfdce Congruent left correct Normal 379.0748
803 79 LeftSmaller PercIAExp1 Prime_4N Target_4N akeCKEF mdIJbEL Congruent left correct Normal 396.5748
803 80 LeftSmaller PercIAExp1 Prime_6N Target_4A flKBLDc HgFkJGb Incongruent right correct Normal 281.2275
803 81 LeftLarger PercIBPrac Prime_9A Target_1A mFdkiej DmKBhEc Incongruent right error Normal 583.4914
803 82 LeftLarger PercIBPrac Prime_9A Target_6A hGCmjBg JkeKEiC Congruent right error Normal 434.9465
803 83 LeftLarger PercIBPrac Prime_6A Target_6N mkjhedJ LKeFImf Congruent right error Normal 344.2396
803 84 LeftLarger PercIBPrac Prime_4A Target_9A daAcbiD ebdlkgh Incongruent left error Normal 320.5231
803 85 LeftLarger PercIBPrac Prime_6A Target_1N GemAKjb LGjIcHK Incongruent left correct Normal 259.3095
803 86 LeftLarger PercIBPrac Prime_4A Target_4A MfEedJL iMeJBad Congruent right correct Normal 247.208
803 87 LeftLarger PercIBPrac Prime_6N Target_1N hAHcGib dImJCKH Incongruent left correct Normal 293.115
803 88 LeftLarger PercIBPrac Prime_9A Target_1N CibMlck kjGBmJL Incongruent right error Normal 323.4388
803 89 LeftLarger PercIBPrac Prime_4N Target_1N EJMIehD EFjbGmd Congruent left error Normal 288.9134
803 90 LeftLarger PercIBPrac Prime_1N Target_4N EekJCLF GBjJdcC Congruent right correct Normal 338.9449
803 91 LeftLarger PercIBPrac Prime_1N Target_4A JIjimgH kiMmcaC Congruent left error Normal 367.8704
803 92 LeftLarger PercIBPrac Prime_6A Target_1A jGFlBmh JlfbGiF Incongruent left correct Normal 340.6973
803 93 LeftLarger PercIBPrac Prime_1A Target_4N geIFGdm iIEHeAf Congruent right correct Normal 217.9751
803 94 LeftLarger PercIBPrac Prime_6N Target_9N Jbmjkig IlheHma Congruent left correct Normal 299.0081
803 95 LeftLarger PercIBPrac Prime_9N Target_1N cdCEjla heLclaB Incongruent right error Normal 273.0613
803 96 LeftLarger PercIBPrac Prime_6N Target_9A lcAHGfM BiEAJae Congruent left correct Normal 314.3375
803 97 LeftLarger PercIBExp1 Prime_6A Target_6A dHKCBFL BeHGJLK Congruent left correct Normal 375.4876
803 98 LeftLarger PercIBExp1 Prime_1N Target_4N LlKBACk jiFHeCE Congruent right correct Normal 335.7769
803 99 LeftLarger PercIBExp1 Prime_9A Target_6A fjAFIEd FCbGhIA Congruent right error Normal 328.4405
803 100 LeftLarger PercIBExp1 Prime_1A Target_9N GiHdJaB lJGgMaD Incongruent right correct Normal 278.2963
803 101 LeftLarger PercIBExp1 Prime_6A Target_4A LdJDifg kHhglfi Incongruent left correct Normal 233.1611
803 102 LeftLarger PercIBExp1 Prime_1A Target_6N LdilEDb gkhBFlm Incongruent left error Normal 202.4596
803 103 LeftLarger PercIBExp1 Prime_6N Target_6N flcLECM dgjHKJL Congruent right error Normal 247.2343
803 104 LeftLarger PercIBExp1 Prime_6N Target_9N CkHLGFf LafBFmi Congruent right error Normal 277.2691
803 105 LeftLarger PercIBExp1 Prime_9N Target_4N FbMhgaA aMKIeJl Incongruent left correct Normal 342.5556
803 106 LeftLarger PercIBExp1 Prime_1A Target_4A lecBJDA BcehjJk Congruent left error Normal 301.4241
803 107 LeftLarger PercIBExp1 Prime_9A Target_1N dIbEAca dIJjAeh Incongruent left correct Normal 347.4362
803 108 LeftLarger PercIBExp1 Prime_9N Target_1A dLcHaFK EFamMCB Incongruent right error Normal 249.7707
803 109 LeftLarger PercIBExp1 Prime_1N Target_9N LclhdHf FcHajCI Incongruent right correct Normal 277.7238
803 110 LeftLarger PercIBExp1 Prime_6A Target_9A HhmFbiI fKlFCJL Congruent left correct Normal 280.1118
803 111 LeftLarger PercIBExp1 Prime_6N Target_1A GJlbkAh lgchaEI Incongruent left correct Normal 321.7862
803 112 LeftLarger PercIBExp1 Prime_9N Target_9N AEDmkMI diEbjIk Congruent right error Normal 258.9301
803 113 LeftLarger PercIBExp1 Prime_4A Target_4N BhdAJgH eJLmGcC Congruent right correct Normal 356.5565
803 114 LeftLarger PercIBExp1 Prime_9A Target_9N CIhiKHc edDAifF Congruent right error Normal 292.6135
803 115 LeftLarger PercIBExp1 Prime_4A Target_1A cihJgGA miKFAjG Congruent left error Normal 323.6751
803 116 LeftLarger PercIBExp1 Prime_1N Target_1N IEgMLim ladfMIj Congruent left error Normal 339.5978
803 117 LeftLarger PercIBExp1 Prime_6N Target_9A idmcAGF laLhFec Congruent right error Normal 240.9402
803 118 LeftLarger PercIBExp1 Prime_4A Target_1N GmMDafJ KDJIicE Congruent right correct Normal 379.568
803 119 LeftLarger PercIBExp1 Prime_1A Target_1N mgCEBhe CEbFAfm Congruent right correct Normal 289.2199
803 120 LeftLarger PercIBExp1 Prime_1N Target_9A jEeaGlb mEhcKie Incongruent left error Normal 267.0095
803 121 LeftLarger PercIBExp1 Prime_4A Target_6A iBlIHJe fKLdgBi Incongruent left error Normal 294.0163
803 122 LeftLarger PercIBExp1 Prime_1N Target_6A fCKAHmc hBIMaFE Incongruent right correct Normal 283.1865
803 123 LeftLarger PercIBExp1 Prime_4N Target_1A hlGBAiH HfbmkAj Congruent right correct Normal 486.6046
803 124 LeftLarger PercIBExp1 Prime_1A Target_9A ijeAkJa DjFJGmH Incongruent right correct Normal 309.6203
803 125 LeftLarger PercIBExp1 Prime_9N Target_6N JLbmfkl lgfJEDi Congruent left correct Normal 303.8203
803 126 LeftLarger PercIBExp1 Prime_4A Target_4A gEChDFc DGkdgaA Congruent right correct Normal 302.0929
803 127 LeftLarger PercIBExp1 Prime_6A Target_4N cdBlkmi cJbBHkd Incongruent left correct Normal 425.7676
803 128 LeftLarger PercIBExp1 Prime_9A Target_4A ABJDFid kcKmibh Incongruent left correct Normal 471.1687
803 129 LeftLarger PercIBExp1 Prime_9N Target_4A dGfbhEm bJLGdcj Incongruent right error Normal 276.3358
803 130 LeftLarger PercIBExp1 Prime_4N Target_6N BkdbEgh lcjMELA Incongruent left error Normal 247.0251
803 131 LeftLarger PercIBExp1 Prime_1N Target_6N iaChIfg bBGlKme Incongruent left error Normal 294.6675
803 132 LeftLarger PercIBExp1 Prime_6N Target_4A BDLfJiA KmcbFLa Incongruent right error Normal 316.4516
803 133 LeftLarger PercIBExp1 Prime_9A Target_1A lCMmcDe KadAbLM Incongruent right error Normal 279.1135
803 134 LeftLarger PercIBExp1 Prime_6A Target_6N KcIAfhi FEgjlBL Congruent left correct Normal 428.6721
803 135 LeftLarger PercIBExp1 Prime_4N Target_1N AgmjIkD lDLFmhf Congruent left error Normal 493.6932
803 136 LeftLarger PercIBExp1 Prime_9A Target_4N DGlABjJ iehAjIK Incongruent right error Normal 284.6214
803 137 LeftLarger PercIBExp1 Prime_6N Target_1N HbJCAMB CELjBGd Incongruent left correct Normal 469.8797
803 138 LeftLarger PercIBExp1 Prime_9N Target_6A jGakEhc DmiBEKL Congruent right error Normal 438.0264
803 139 LeftLarger PercIBExp1 Prime_1A Target_4N cLBkbam mEkHgbD Congruent left error Normal 534.9761
803 140 LeftLarger PercIBExp1 Prime_6A Target_1N aLChigk DlfIbeM Incongruent left correct Normal 473.3899
803 141 LeftLarger PercIBExp1 Prime_4N Target_6A heGDFmj gEcakbG Incongruent right correct Normal 373.8926
803 142 LeftLarger PercIBExp1 Prime_4A Target_9N GEdiKbH hEmikeF Incongruent right correct Normal 397.8361
803 143 LeftLarger PercIBExp1 Prime_4N Target_9N jcaKAJh FaLgjlB Incongruent right correct Normal 418.8846
803 144 LeftLarger PercIBExp1 Prime_4A Target_9A hjeIJkG LFAicfK Incongruent left error Normal 328.5446
803 145 LeftLarger PercIBExp1 Prime_9A Target_9A lBeDLJd iAKhdmG Congruent left correct Normal 392.2147
803 146 LeftLarger PercIBExp1 Prime_9A Target_6N kEgbdMa IbdmLGA Congruent left correct Normal 386.7128
803 147 LeftLarger PercIBExp1 Prime_6N Target_6A IdBjGJc kJAbBLH Congruent left correct Normal 427.2944
803 148 LeftLarger PercIBExp1 Prime_1N Target_1A glCejEF lMGIiaj Congruent right correct Normal 345.597
803 149 LeftLarger PercIBExp1 Prime_9N Target_1N khMLBKF MmfJgEG Incongruent right error Normal 411.8801
803 150 LeftLarger PercIBExp1 Prime_4N Target_4N IfHBmdk akIjDKM Congruent right correct Normal 307.4171
803 151 LeftLarger PercIBExp1 Prime_4A Target_6N IEjdCbA kFjlGMm Incongruent right correct Normal 472.2066
803 152 LeftLarger PercIBExp1 Prime_6A Target_1A fdmgBGD eKmHfDb Incongruent right error Normal 383.7163
803 153 LeftLarger PercIBExp1 Prime_9N Target_9A JDMGmlF iGBdjFb Congruent right error Normal 267.5382
803 154 LeftLarger PercIBExp1 Prime_6N Target_4N LebCdMK lfGJmFe Incongruent right error Normal 289.6123
803 155 LeftLarger PercIBExp1 Prime_1N Target_4A aJDiLGC bGlAIBH Congruent right correct Normal 425.9832
803 156 LeftLarger PercIBExp1 Prime_1A Target_6A LcMhdKJ DIjLacF Incongruent left error Normal 465.3947
803 157 LeftLarger PercIBExp1 Prime_4N Target_4A JcFAdjb gHGLFcK Congruent left error Normal 579.8138
803 158 LeftLarger PercIBExp1 Prime_1A Target_1A lCHhBcM idheDEI Congruent left error Normal 650.7318
803 159 LeftLarger PercIBExp1 Prime_4N Target_9A JjahEGb gDlmaEK Incongruent right correct Normal 443.4158
803 160 LeftLarger PercIBExp1 Prime_6A Target_9N GlALgfC GmFHiel Congruent left correct Normal 325.4436
804 1 LeftLarger PercIAPrac Prime_6N Target_4A cIhKMAl cDbJHeh Incongruent right error Normal 2165.219
804 2 LeftLarger PercIAPrac Prime_4A Target_6N ikDlgbF kdAGDbj Incongruent left error Normal 692.089
804 3 LeftLarger PercIAPrac Prime_4N Target_6A IaKfleB HiGcIdD Incongruent right correct Normal 3221.581
804 4 LeftLarger PercIAPrac Prime_9A Target_6N AclBJMF gABeaHK Congruent left correct Normal 2412.839
804 5 LeftLarger PercIAPrac Prime_6A Target_4A DHfeFgC eLMlCID Incongruent right error Normal 1557.168
804 6 LeftLarger PercIAPrac Prime_4N Target_1N Cgjcbad HbcFfBh Congruent right correct Normal 2733.613
804 7 LeftLarger PercIAPrac Prime_4N Target_9N mghkBbI ACIDjbh Incongruent right correct Normal 1523.184
804 8 LeftLarger PercIAPrac Prime_9N Target_4A AjBgDIh aLmBJiH Incongruent right error Normal 2480.056
804 9 LeftLarger PercIAPrac Prime_4N Target_1A IEecmCK kLghGCJ Congruent right correct Normal 1495.811
804 10 LeftLarger PercIAPrac Prime_9N Target_9A lBKDFmk BidfCkA Congruent left correct Normal 2095.572
804 11 LeftLarger PercIAPrac Prime_1N Target_4N FkdCAmH emfkLgh Congruent right correct Normal 2015.999
804 12 LeftLarger PercIAPrac Prime_6A Target_1N ihdkfcM fKFgeli Incongruent left correct Normal 1579.759
804 13 LeftLarger PercIAPrac Prime_6N Target_9A ahLEmBb MaCclIE Congruent left correct Normal 2247.808
804 14 LeftLarger PercIAPrac Prime_4N Target_4A DbeAELF MbKfjDe Congruent right correct Normal 1652.517
804 15 LeftLarger PercIAPrac Prime_4A Target_9A GCMBeiF CigGLaI Incongruent right correct Normal 2414.586
804 16 LeftLarger PercIAPrac Prime_1N Target_6A IaidmcE IhJjFfD Incongruent right correct Normal 1219.066
804 17 LeftLarger PercIAExp1 Prime_4A Target_1N CFmjMKl fMLAcGl Congruent right correct Normal 832.7174
804 18 LeftLarger PercIAExp1 Prime_6A Target_4N IGMlChc kDJhIEG Incongruent left correct Normal 1593.411
804 19 LeftLarger PercIAExp1 Prime_4N Target_6A mLgfBke mGBAMaC Incongruent right correct Normal 1041.185
804 20 LeftLarger PercIAExp1 Prime_4N Target_9A mLbGfcA BjiEcfD Incongruent right correct Normal 885.1612
804 21 LeftLarger PercIAExp1 Prime_1A Target_4N DgjcFam fAbjlDk Congruent right correct Normal 1435.705
804 22 LeftLarger PercIAExp1 Prime_9A Target_4A LMJHmeh dIECaDb Incongruent left correct Normal 1196.754
804 23 LeftLarger PercIAExp1 Prime_4A Target_6A lHcaLhk JGImcbl Incongruent right correct Normal 807.0332
804 24 LeftLarger PercIAExp1 Prime_9N Target_6N hGiJEaC dGEiLBK Congruent left correct Normal 1137.001
804 25 LeftLarger PercIAExp1 Prime_4A Target_9A bemBDIk FmaJACj Incongruent right correct Normal 1453.036
804 26 LeftLarger PercIAExp1 Prime_9A Target_9N EekaJAK cGgJMlB Congruent left correct Normal 1926.655
804 27 LeftLarger PercIAExp1 Prime_6A Target_9A AehJMFl jkaBDfm Congruent right error Normal 1496.644
804 28 LeftLarger PercIAExp1 Prime_1N Target_9A eDmGEba JCEAcmG Incongruent right correct Normal 872.992
804 29 LeftLarger PercIAExp1 Prime_4N Target_1N kMLEaeh dmlBHID Congruent right correct Normal 910.6963
804 30 LeftLarger PercIAExp1 Prime_4A Target_9N jkbcdaA lAJHkLG Incongruent right correct Normal 1067.444
804 31 LeftLarger PercIAExp1 Prime_6N Target_9A GjMHgkf CIkKdlj Congruent left correct Normal 819.2716
804 32 LeftLarger PercIAExp1 Prime_9N Target_9N jadbAEG AigdkBC Congruent left correct Normal 2026.903
804 33 LeftLarger PercIAExp1 Prime_9N Target_9A bgDJKch eHGBcIK Congruent left correct Normal 1057.109
804 34 LeftLarger PercIAExp1 Prime_1A Target_6N KBfadJg fHILcBG Incongruent right correct Normal 1028.651
804 35 LeftLarger PercIAExp1 Prime_9N Target_6A CgGiEFI amIFLdJ Congruent left correct Normal 763.3454
804 36 LeftLarger PercIAExp1 Prime_9A Target_1N EChDmFI MfdmFaG Incongruent left correct Normal 1106.29
804 37 LeftLarger PercIAExp1 Prime_1N Target_9N hDGLfke AdBMiIC Incongruent right correct Normal 1054.814
804 38 LeftLarger PercIAExp1 Prime_1N Target_6N iIBHJCE fLklCGa Incongruent right correct Normal 1145.24
804 39 LeftLarger PercIAExp1 Prime_6N Target_6N DmbCBeH kfAhGHc Congruent left correct Normal 1723.728
804 40 LeftLarger PercIAExp1 Prime_9A Target_6A BCIGifa CkFdbGI Congruent left correct Normal 805.9524
804 41 LeftLarger PercIAExp1 Prime_6N Target_6A IAkMLiJ glHjkAF Congruent right error Normal 993.9132
804 42 LeftLarger PercIAExp1 Prime_6N Target_9N kgLDKHG aecjIlf Congruent right error Normal 682.8407
804 43 LeftLarger PercIAExp1 Prime_4N Target_6N JIEdmHA lajheBd Incongruent right correct Normal 712.0194
804 44 LeftLarger PercIAExp1 Prime_6N Target_1A bgaAjEk bMagfeh Incongruent right error Normal 1728.629
804 45 LeftLarger PercIAExp1 Prime_1A Target_9N FlKfacm gdcfBkm Incongruent right correct Normal 722.6296
804 46 LeftLarger PercIAExp1 Prime_9N Target_1A GMLhFKa FLhEMfJ Incongruent left correct Normal 1212.65
804 47 LeftLarger PercIAExp1 Prime_4N Target_1A LcHIfkg EHkdJLF Congruent right correct Normal 428.7391
804 48 LeftLarger PercIAExp1 Prime_4A Target_1A BlehCIM KFhfjAa Congruent right correct Normal 701.6205
804 49 LeftLarger PercIAExp1 Prime_6A Target_6A dgDFMKC aeGbiHB Congruent right error Normal 1067.445
804 50 LeftLarger PercIAExp1 Prime_4A Target_4N FAajkHl jGbilFd Congruent right correct Normal 886.999
804 51 LeftLarger PercIAExp1 Prime_6N Target_4A MKHEkfa IAhBlab Incongruent left correct Normal 1120.039
804 52 LeftLarger PercIAExp1 Prime_9A Target_6N iFHjGId JDKdLlC Congruent left correct Normal 1198.081
804 53 LeftLarger PercIAExp1 Prime_1A Target_4A EHhlKGc cEeDKIG Congruent right correct Normal 686.6479
804 54 LeftLarger PercIAExp1 Prime_1A Target_1A gAjLkfE IGhkAlC Congruent right correct Normal 1873.282
804 55 LeftLarger PercIAExp1 Prime_1N Target_4N iKhElMF EeLKbMj Congruent right correct Normal 869.5381
804 56 LeftLarger PercIAExp1 Prime_6N Target_4N CkdAmaE DAHChif Incongruent left correct Normal 918.0485
804 57 LeftLarger PercIAExp1 Prime_4N Target_9N iHmgaFJ dkFcgCL Incongruent left error Normal 2596.309
804 58 LeftLarger PercIAExp1 Prime_6N Target_1N GIBcAjg HeFBfaA Incongruent left correct Normal 2467.012
804 59 LeftLarger PercIAExp1 Prime_4N Target_4N LaDhcAJ HMbejkE Congruent right correct Normal 1951.742
804 60 LeftLarger PercIAExp1 Prime_6A Target_1N MGfDihg DCiKfhH Incongruent left correct Normal 1373.33
804 61 LeftLarger PercIAExp1 Prime_9A Target_4N lbFcLBI AeIkhJM Incongruent left correct Normal 704.7395
804 62 LeftLarger PercIAExp1 Prime_1N Target_1A hHjDdKA JHkDAKI Congruent right correct Normal 957.7236
804 63 LeftLarger PercIAExp1 Prime_1A Target_9A FjdaeLI JHaKlBF Incongruent left error Normal 1322.356
804 64 LeftLarger PercIAExp1 Prime_9A Target_9A ceJgFHl lLGfAcj Congruent right error Normal 888.0227
804 65 LeftLarger PercIAExp1 Prime_1N Target_6A LmEHfJD cHFKhdb Incongruent right correct Normal 822.5588
804 66 LeftLarger PercIAExp1 Prime_9N Target_4A FghdCGA lDeEFkc Incongruent left correct Normal 779.7282
804 67 LeftLarger PercIAExp1 Prime_4N Target_4A ekIdCKB kLfGFCK Congruent right correct Normal 810.4458
804 68 LeftLarger PercIAExp1 Prime_6A Target_4A eaJIdhj lDGBIMK Incongruent left correct Normal 790.4834
804 69 LeftLarger PercIAExp1 Prime_1A Target_6A LEbMaKe LaiKmeJ Incongruent right correct Normal 1074.012
804 70 LeftLarger PercIAExp1 Prime_9A Target_1A iFbKMJk hlgcKCI Incongruent left correct Normal 618.9601
804 71 LeftLarger PercIAExp1 Prime_6A Target_6N LfkmcjG FaCDEhI Congruent left correct Normal 716.5597
804 72 LeftLarger PercIAExp1 Prime_6A Target_9N HdFJIji fGmDklb Congruent left correct Normal 950.0434
804 73 LeftLarger PercIAExp1 Prime_1A Target_1N hEFljHe ICeadHh Congruent right correct Normal 433.6251
804 74 LeftLarger PercIAExp1 Prime_9N Target_4N GImeidJ dMkFgIG Incongruent left correct Normal 1429.74
804 75 LeftLarger PercIAExp1 Prime_9N Target_1N LMJikhB GEjKMmD Incongruent right error Normal 1237.046
804 76 LeftLarger PercIAExp1 Prime_1N Target_4A MmdjBHK JfbMBAL Congruent right correct Normal 2421.1
804 77 LeftLarger PercIAExp1 Prime_1N Target_1N JBGalgK MmGCElI Congruent left error Normal 1137.137
804 78 LeftLarger PercIAExp1 Prime_4A Target_4A lDfKAdB bgBhklG Congruent left error Normal 1561.336
804 79 LeftLarger PercIAExp1 Prime_6A Target_1A Feadhjl bCAMihB Incongruent left correct Normal 986.4098
804 80 LeftLarger PercIAExp1 Prime_4A Target_6N AIBgakf MCihckg Incongruent right correct Normal 905.4851
804 81 LeftSmaller PercIBPrac Prime_1N Target_6A IlefKhi EkeHIlJ Incongruent left correct Normal 908.8006
804 82 LeftSmaller PercIBPrac Prime_1N Target_9A EhdMiCb EkaAHKD Incongruent left correct Normal 881.248
804 83 LeftSmaller PercIBPrac Prime_9A Target_4A ebKckCA JLGbHCd Incongruent right correct Normal 993.654
804 84 LeftSmaller PercIBPrac Prime_1A Target_1N elbFkKB bMkGlgE Congruent left correct Normal 706.5883
804 85 LeftSmaller PercIBPrac Prime_4A Target_9A hMliHdL KBdkhce Incongruent left correct Normal 933.2609
804 86 LeftSmaller PercIBPrac Prime_9A Target_6N kAfmiBe klEgGdh Congruent right correct Normal 1143.057
804 87 LeftSmaller PercIBPrac Prime_1A Target_9A gCfjMiI aJcKdfI Incongruent left correct Normal 633.3863
804 88 LeftSmaller PercIBPrac Prime_1N Target_4A GKmhjFf GLeJAkD Congruent left correct Normal 915.2969
804 89 LeftSmaller PercIBPrac Prime_6N Target_9A EGLeHbD BHDdFmc Congruent right correct Normal 925.2685
804 90 LeftSmaller PercIBPrac Prime_9N Target_1A jAJDLbf ILmhegd Incongruent right correct Normal 709.4056
804 91 LeftSmaller PercIBPrac Prime_9A Target_6A bldgDEj kKIAgEl Congruent right correct Normal 954.4225
804 92 LeftSmaller PercIBPrac Prime_9N Target_6A DgJlHfb EbGHfBj Congruent right correct Normal 670.997
804 93 LeftSmaller PercIBPrac Prime_9A Target_4N IHdhEFC iLcdeAa Incongruent right correct Normal 995.2259
804 94 LeftSmaller PercIBPrac Prime_1A Target_1A dCBbhEk JifgklC Congruent left correct Normal 638.9555
804 95 LeftSmaller PercIBPrac Prime_6A Target_1N hjKdbGE IFCkJBh Incongruent right correct Normal 538.7559
804 96 LeftSmaller PercIBPrac Prime_1N Target_1N hIelHgJ CMiamej Congruent left correct Normal 634.7708
804 97 LeftSmaller PercIBExp1 Prime_4N Target_6N ElfmDbj DeGaAKI Incongruent left correct Normal 928.2289
804 98 LeftSmaller PercIBExp1 Prime_6A Target_4N glMeCfd FhcmlCg Incongruent right correct Normal 985.3762
804 99 LeftSmaller PercIBExp1 Prime_6N Target_6A KgkejIb eiElcmd Congruent left error Normal 1019.494
804 100 LeftSmaller PercIBExp1 Prime_9A Target_9A AFGgDHh kGEdigJ Congruent right correct Normal 1708.166
804 101 LeftSmaller PercIBExp1 Prime_6N Target_1A cHEfGDg ElKFejM Incongruent left error Normal 1144.928
804 102 LeftSmaller PercIBExp1 Prime_4N Target_1N jFdbaGi idfEKgC Congruent left correct Normal 951.1078
804 103 LeftSmaller PercIBExp1 Prime_9N Target_4N IAaHglc icElDaj Incongruent right correct Normal 1303.145
804 104 LeftSmaller PercIBExp1 Prime_1N Target_6N JHLlfKe fCkBKiM Incongruent left correct Normal 899.6041
804 105 LeftSmaller PercIBExp1 Prime_9A Target_6N fmeJijc diaKDge Congruent right correct Normal 864.6532
804 106 LeftSmaller PercIBExp1 Prime_1N Target_1N ekDlMBi jLKFfba Congruent left correct Normal 1411.842
804 107 LeftSmaller PercIBExp1 Prime_4A Target_4A mdeIAMg HdCbjLi Congruent left correct Normal 1674.59
804 108 LeftSmaller PercIBExp1 Prime_1N Target_1A mJAjIdf Lflgeik Congruent left correct Normal 761.3047
804 109 LeftSmaller PercIBExp1 Prime_9N Target_4A DgijFKL jhmaGEK Incongruent right correct Normal 960.5946
804 110 LeftSmaller PercIBExp1 Prime_1A Target_6N ejJmIab mheDBjg Incongruent left correct Normal 916.381
804 111 LeftSmaller PercIBExp1 Prime_4A Target_4N jlAMgkI kCKEIib Congruent right error Normal 900.2078
804 112 LeftSmaller PercIBExp1 Prime_1A Target_9A kmclFDj JjaLlhF Incongruent left correct Normal 1206.242
804 113 LeftSmaller PercIBExp1 Prime_1A Target_4A kFDHMCf agbGcHD Congruent left correct Normal 793.2942
804 114 LeftSmaller PercIBExp1 Prime_1A Target_9N MhbCAmE mAgEIbd Incongruent left correct Normal 959.2324
804 115 LeftSmaller PercIBExp1 Prime_1A Target_4N gkhlfKB bkhecLD Congruent left correct Normal 929.7625
804 116 LeftSmaller PercIBExp1 Prime_9N Target_9A Dclakhb mIedDHb Congruent right correct Normal 1761.075
804 117 LeftSmaller PercIBExp1 Prime_4N Target_9A HEGIfDg mGdfDAc Incongruent left correct Normal 1809.112
804 118 LeftSmaller PercIBExp1 Prime_1N Target_4A AlKIbHd cbDmFlA Congruent left correct Normal 1181.179
804 119 LeftSmaller PercIBExp1 Prime_4A Target_1A ecMbBHE IiBfbKe Congruent left correct Normal 863.0291
804 120 LeftSmaller PercIBExp1 Prime_9N Target_9N ajeCmEH bGiHafj Congruent right correct Normal 887.4393
804 121 LeftSmaller PercIBExp1 Prime_9N Target_6N lHkJjeK HjEgedF Congruent right correct Normal 1549.522
804 122 LeftSmaller PercIBExp1 Prime_6N Target_1N hKjagMb BdDICFk Incongruent left error Normal 2298.056
804 123 LeftSmaller PercIBExp1 Prime_9N Target_1A BemFGbA glcLabJ Incongruent right correct Normal 1361.201
804 124 LeftSmaller PercIBExp1 Prime_6N Target_4N dCcJaKg GdFEcbf Incongruent right correct Normal 1035.064
804 125 LeftSmaller PercIBExp1 Prime_9A Target_1N hEeJMmB AFKjBbe Incongruent left error Normal 1162.64
804 126 LeftSmaller PercIBExp1 Prime_6N Target_4A CklIBJm EJaKeCk Incongruent right correct Normal 1108.142
804 127 LeftSmaller PercIBExp1 Prime_1N Target_9N GKekDMd jFAhiBJ Incongruent right error Normal 3184.366
804 128 LeftSmaller PercIBExp1 Prime_4A Target_6A adAeCIM BdFiDej Incongruent left correct Normal 1106.154
804 129 LeftSmaller PercIBExp1 Prime_4N Target_9N LIjMeEi dCKlhfm Incongruent left correct Normal 988.9749
804 130 LeftSmaller PercIBExp1 Prime_4A Target_9A ciBFhbM bkgEKAl Incongruent right error Normal 1402.652
804 131 LeftSmaller PercIBExp1 Prime_6A Target_6A KfmkhEM BEhKjLc Congruent left error Normal 1084.466
804 132 LeftSmaller PercIBExp1 Prime_4A Target_9N gBAaJiK bjmKdDe Incongruent left correct Normal 750.7689
804 133 LeftSmaller PercIBExp1 Prime_4N Target_4A iGFBCDE JDcMCdf Congruent right error Normal 1595.025
804 134 LeftSmaller PercIBExp1 Prime_9A Target_1A IkmdjgF amkEHJA Incongruent right correct Normal 1132.828
804 135 LeftSmaller PercIBExp1 Prime_4N Target_1A GLMEhIA CbJlEAf Congruent left correct Normal 837.1619
804 136 LeftSmaller PercIBExp1 Prime_6A Target_6N fkEidgb FMaKlbg Congruent right correct Normal 732.8536
804 137 LeftSmaller PercIBExp1 Prime_4N Target_4N gcmLJEf McdAlfC Congruent left correct Normal 1652.265
804 138 LeftSmaller PercIBExp1 Prime_6N Target_9A CeJfAEd BemaCGF Congruent right correct Normal 856.3345
804 139 LeftSmaller PercIBExp1 Prime_6A Target_1A GLFiAHl djiBmLh Incongruent right correct Normal 839.7929
804 140 LeftSmaller PercIBExp1 Prime_9A Target_9N FBjlEga emMGBJa Congruent right correct Normal 915.258
804 141 LeftSmaller PercIBExp1 Prime_6A Target_4A AbDGlfH DGgbKHc Incongruent right correct Normal 1736.318
804 142 LeftSmaller PercIBExp1 Prime_4A Target_6N jCMdkIL AhmLeID Incongruent left correct Normal 624.1593
804 143 LeftSmaller PercIBExp1 Prime_9A Target_4A KFeCijI JhEGldm Incongruent right correct Normal 1331.074
804 144 LeftSmaller PercIBExp1 Prime_1A Target_1A CIGiJca FGEebkf Congruent left correct Normal 1151.057
804 145 LeftSmaller PercIBExp1 Prime_6A Target_1N cJBHeGg mcEhKMb Incongruent right correct Normal 1087.807
804 146 LeftSmaller PercIBExp1 Prime_6A Target_9N HMmFhli iAdIlkD Congruent right correct Normal 2088.115
804 147 LeftSmaller PercIBExp1 Prime_1N Target_4N FeLKHEc dGMKjla Congruent left correct Normal 1082.928
804 148 LeftSmaller PercIBExp1 Prime_1A Target_1N fgMKLkD kKcLeDm Congruent left correct Normal 1100.599
804 149 LeftSmaller PercIBExp1 Prime_9N Target_6A fAjcJHD IAMmeak Congruent right correct Normal 899.1205
804 150 LeftSmaller PercIBExp1 Prime_4A Target_1N lJacImg iMGhEBa Congruent left correct Normal 983.0855
804 151 LeftSmaller PercIBExp1 Prime_9N Target_1N kjfhbKg LAcFbID Incongruent right correct Normal 1107.743
804 152 LeftSmaller PercIBExp1 Prime_1A Target_6A lmeMEgb LgAICjf Incongruent left correct Normal 657.0757
804 153 LeftSmaller PercIBExp1 Prime_6N Target_9N becMaIf fmhcFgd Congruent right correct Normal 1100.961
804 154 LeftSmaller PercIBExp1 Prime_9A Target_4N cMJmaIH mgALhJM Incongruent right correct Normal 846.5413
804 155 LeftSmaller PercIBExp1 Prime_1N Target_6A HkjbleK LdgEKFa Incongruent left correct Normal 856.5523
804 156 LeftSmaller PercIBExp1 Prime_4N Target_6A FKMHLIC MiedEIh Incongruent left correct Normal 1207.014
804 157 LeftSmaller PercIBExp1 Prime_6N Target_6N HJBGMek JdKjGmC Congruent left error Normal 1680.552
804 158 LeftSmaller PercIBExp1 Prime_1N Target_9A JamDHgd AHmeGjL Incongruent right error Normal 2794.722
804 159 LeftSmaller PercIBExp1 Prime_6A Target_9A BiefFlh BkIbLEA Congruent right correct Normal 1231.57
804 160 LeftSmaller PercIBExp1 Prime_9A Target_6A cHlbEmd cFlgHma Congruent right correct Normal 1495.256
805 1 LeftSmaller PercIAPrac Prime_1A Target_1A dJDgkij BIMgbJD Congruent left correct Normal 1191.362
805 2 LeftSmaller PercIAPrac Prime_4N Target_1N mBJKGbM aGicDfK Congruent left correct Normal 941.6838
805 3 LeftSmaller PercIAPrac Prime_1A Target_6N khBegbL HJkbFgK Incongruent left correct Normal 1105.471
805 4 LeftSmaller PercIAPrac Prime_1A Target_9A JFaIDME gBKILJA Incongruent left correct Normal 545.0271
805 5 LeftSmaller PercIAPrac Prime_9A Target_4N CJlKEMB fLKEjDJ Incongruent right correct Normal 1290.455
805 6 LeftSmaller PercIAPrac Prime_1N Target_4A gMCHEDe igGmCfM Congruent left correct Normal 726.5057
805 7 LeftSmaller PercIAPrac Prime_1A Target_9N eBcmKlC EMDieAj Incongruent left correct Normal 712.6515
805 8 LeftSmaller PercIAPrac Prime_4N Target_1A LBlmhfK FdkDbmM Congruent right error Normal 575.9944
805 9 LeftSmaller PercIAPrac Prime_6A Target_1N BiDfbaL bKgIhEF Incongruent right correct Normal 823.0356
805 10 LeftSmaller PercIAPrac Prime_6A Target_9A JFedhHj BmIhHkC Congruent right correct Normal 1089.683
805 11 LeftSmaller PercIAPrac Prime_9A Target_9A gBCKiEm kAFdelb Congruent left error Normal 1234.515
805 12 LeftSmaller PercIAPrac Prime_9N Target_1N GdbkIKJ JCcefhI Incongruent right correct Normal 972.9327
805 13 LeftSmaller PercIAPrac Prime_9N Target_6A kEAFLgb GIKHhDa Congruent right correct Normal 703.2232
805 14 LeftSmaller PercIAPrac Prime_6N Target_6N kGJbDAj CfLFegb Congruent right correct Normal 960.2769
805 15 LeftSmaller PercIAPrac Prime_1A Target_1N KljLcgk lhjCHfJ Congruent right error Normal 1427.696
805 16 LeftSmaller PercIAPrac Prime_1N Target_4N CclfKIe fbIDiAa Congruent right error Normal 969.3499
805 17 LeftSmaller PercIAExp1 Prime_9N Target_1A eFJMChI FaKDIhG Incongruent right correct Normal 520.4573
805 18 LeftSmaller PercIAExp1 Prime_6N Target_9A LfmJFkG GEFIhMA Congruent right correct Normal 751.2711
805 19 LeftSmaller PercIAExp1 Prime_9A Target_6A EgAMlDI efAFkdI Congruent left error Normal 1257.919
805 20 LeftSmaller PercIAExp1 Prime_4A Target_9A dCmIGbH IHjdcmF Incongruent left correct Normal 504.2347
805 21 LeftSmaller PercIAExp1 Prime_6A Target_6A ifblemh FcCMabL Congruent right correct Normal 885.5908
805 22 LeftSmaller PercIAExp1 Prime_4N Target_6A cimfACg CLlIkmH Incongruent left correct Normal 774.0197
805 23 LeftSmaller PercIAExp1 Prime_6A Target_9A KbLDdkc kdcelJj Congruent right correct Normal 877.2648
805 24 LeftSmaller PercIAExp1 Prime_6A Target_4A DFEdCcK HAmDclg Incongruent right correct Normal 727.7955
805 25 LeftSmaller PercIAExp1 Prime_6N Target_9N AbCmgEL IBDlGgJ Congruent right correct Normal 712.567
805 26 LeftSmaller PercIAExp1 Prime_1N Target_1A lKDmacM mAdfbJi Congruent left correct Normal 587.8779
805 27 LeftSmaller PercIAExp1 Prime_9N Target_9A meKFMHC MCaghIj Congruent right correct Normal 415.5685
805 28 LeftSmaller PercIAExp1 Prime_9A Target_4N fLKbeFa dCgbkFc Incongruent right correct Normal 1031.587
805 29 LeftSmaller PercIAExp1 Prime_4A Target_1A faCglbM GHkCAdL Congruent left correct Normal 824.6491
805 30 LeftSmaller PercIAExp1 Prime_1N Target_4N kELcdmB HMAemLF Congruent left correct Normal 942.063
805 31 LeftSmaller PercIAExp1 Prime_1A Target_1A aedCKHE IfHGbjh Congruent right error Normal 805.7146
805 32 LeftSmaller PercIAExp1 Prime_4A Target_4A jlJCceL MHfFKmL Congruent right error Normal 859.8831
805 33 LeftSmaller PercIAExp1 Prime_9N Target_4A KfDbLgJ HjhLmiB Incongruent right correct Normal 793.8889
805 34 LeftSmaller PercIAExp1 Prime_6N Target_4N hfjADlJ lGLhFKA Incongruent right correct Normal 678.1973
805 35 LeftSmaller PercIAExp1 Prime_1N Target_6A gCfemlM iFMeGaL Incongruent left correct Normal 861.9165
805 36 LeftSmaller PercIAExp1 Prime_9A Target_6N kEiGbmM FMjBmKH Congruent right correct Normal 1313.097
805 37 LeftSmaller PercIAExp1 Prime_1N Target_6N LiBkGAH bDCeABE Incongruent left correct Normal 680.1437
805 38 LeftSmaller PercIAExp1 Prime_4N Target_9A FijLCAa kdKgEGF Incongruent left correct Normal 777.7008
805 39 LeftSmaller PercIAExp1 Prime_6A Target_1A fcLBaEM Hljmefc Incongruent right correct Normal 702.6216
805 40 LeftSmaller PercIAExp1 Prime_1A Target_9A MHDEfeF GCMaLAj Incongruent left correct Normal 1280.913
805 41 LeftSmaller PercIAExp1 Prime_6N Target_6N KDFelEI McKbjFL Congruent left error Normal 874.9882
805 42 LeftSmaller PercIAExp1 Prime_6N Target_1A AlkFbjI ELJFCmf Incongruent right correct Normal 937.374
805 43 LeftSmaller PercIAExp1 Prime_1N Target_1N hJGcLAF iEhDFBJ Congruent right error Normal 805.1932
805 44 LeftSmaller PercIAExp1 Prime_1A Target_6N HCLgjDG chfblIa Incongruent left correct Normal 954.6098
805 45 LeftSmaller PercIAExp1 Prime_1A Target_4N bdFKJDB bCecdgh Congruent left correct Normal 914.8018
805 46 LeftSmaller PercIAExp1 Prime_1A Target_9N iIfeahd djCFlhf Incongruent left correct Normal 1345.565
805 47 LeftSmaller PercIAExp1 Prime_4A Target_4N jlAFdGC dGbIjgL Congruent left correct Normal 1487.508
805 48 LeftSmaller PercIAExp1 Prime_4N Target_9N HCjFmEA McDJfIF Incongruent left correct Normal 828.6955
805 49 LeftSmaller PercIAExp1 Prime_9N Target_6A akdGELi CDHIldE Congruent right correct Normal 928.1393
805 50 LeftSmaller PercIAExp1 Prime_4N Target_1N aeDMIlj JKFmCBi Congruent left correct Normal 894.5034
805 51 LeftSmaller PercIAExp1 Prime_4N Target_1A gIHCLel LdCFEAM Congruent left correct Normal 1098.467
805 52 LeftSmaller PercIAExp1 Prime_9A Target_4A aCfjmIJ cDGlkdm Incongruent right correct Normal 1057.142
805 53 LeftSmaller PercIAExp1 Prime_9A Target_1N ahkbfFG jkELHDI Incongruent right correct Normal 800.8376
805 54 LeftSmaller PercIAExp1 Prime_9N Target_6N jcLehAE MlEfKci Congruent right correct Normal 783.6289
805 55 LeftSmaller PercIAExp1 Prime_6N Target_4A dchgMAF hIHlDAb Incongruent right correct Normal 1070.793
805 56 LeftSmaller PercIAExp1 Prime_6A Target_6N DCgAcBE eEhDAaB Congruent right correct Normal 1543.578
805 57 LeftSmaller PercIAExp1 Prime_9N Target_1N dbBJgjF CIKGJMH Incongruent right correct Normal 1341.11
805 58 LeftSmaller PercIAExp1 Prime_9A Target_9N MKBEjbm KHiFJaE Congruent right correct Normal 1274.834
805 59 LeftSmaller PercIAExp1 Prime_4N Target_4N deEGMbH FDiCKme Congruent right error Normal 983.6067
805 60 LeftSmaller PercIAExp1 Prime_1N Target_4A hEHBMCl iEgeJLF Congruent left correct Normal 968.4486
805 61 LeftSmaller PercIAExp1 Prime_6N Target_6A dKmJkAl GmbckjJ Congruent right correct Normal 1185.134
805 62 LeftSmaller PercIAExp1 Prime_9A Target_9A JaliCcF DFhgdjL Congruent right correct Normal 1005.674
805 63 LeftSmaller PercIAExp1 Prime_4A Target_1N ahBEdfb mlDGbFe Congruent left correct Normal 961.8626
805 64 LeftSmaller PercIAExp1 Prime_1A Target_4A cGlHmhA LIEhmcK Congruent left correct Normal 1222.163
805 65 LeftSmaller PercIAExp1 Prime_4A Target_6A iEAhFCc AgalJbe Incongruent left correct Normal 1122.209
805 66 LeftSmaller PercIAExp1 Prime_6A Target_1N lijmHEI IKaMfEm Incongruent right correct Normal 897.788
805 67 LeftSmaller PercIAExp1 Prime_4A Target_6N Lalihbj ClBikfM Incongruent left correct Normal 2436.907
805 68 LeftSmaller PercIAExp1 Prime_1N Target_9N bfBdgeL kDlhKJE Incongruent right error Normal 905.26
805 69 LeftSmaller PercIAExp1 Prime_1A Target_6A bfkBEJa gbDFEmc Incongruent left correct Normal 891.446
805 70 LeftSmaller PercIAExp1 Prime_4N Target_6N HAJfGhM HgIjclE Incongruent left correct Normal 939.0653
805 71 LeftSmaller PercIAExp1 Prime_9N Target_9N iIHmFMA JHDAeEk Congruent right correct Normal 1136.239
805 72 LeftSmaller PercIAExp1 Prime_9A Target_1A ciFmjfh khBECma Incongruent right correct Normal 879.4434
805 73 LeftSmaller PercIAExp1 Prime_6A Target_4N MaegbdA MlcHkGE Incongruent right correct Normal 1006.51
805 74 LeftSmaller PercIAExp1 Prime_4N Target_4A KHeEDdI Jgkejlm Congruent left correct Normal 1232.313
805 75 LeftSmaller PercIAExp1 Prime_4A Target_9N MAIbHCd GJMFbfj Incongruent left correct Normal 1379.36
805 76 LeftSmaller PercIAExp1 Prime_9N Target_4N KFEJfGI ECHGMJj Incongruent right correct Normal 738.4148
805 77 LeftSmaller PercIAExp1 Prime_1N Target_9A jlLHhDf clhfJjb Incongruent left correct Normal 1280.085
805 78 LeftSmaller PercIAExp1 Prime_6N Target_1N ImlhiCB djGIaim Incongruent right correct Normal 748.1474
805 79 LeftSmaller PercIAExp1 Prime_1A Target_1N AaGmiIk BFGliHc Congruent right error Normal 1504.321
805 80 LeftSmaller PercIAExp1 Prime_6A Target_9N bdGAmBC begdMkF Congruent right correct Normal 1436.227
805 81 LeftLarger PercIBPrac Prime_9N Target_6N ijkKEFl eMgjBCK Congruent left correct Normal 691.7449
805 82 LeftLarger PercIBPrac Prime_1A Target_6A GbJBgIK FGCJLhE Incongruent right correct Normal 685.6525
805 83 LeftLarger PercIBPrac Prime_9N Target_1A GIAMdFf mKJafBg Incongruent left correct Normal 756.5666
805 84 LeftLarger PercIBPrac Prime_6N Target_9A blghaAe bifMGgD Congruent right error Normal 722.3869
805 85 LeftLarger PercIBPrac Prime_9A Target_9N ijLEJbd gfJmDFL Congruent left correct Normal 929.764
805 86 LeftLarger PercIBPrac Prime_6N Target_1N jKhAiaD BlIGcgm Incongruent left correct Normal 688.4558
805 87 LeftLarger PercIBPrac Prime_1A Target_4N kClfBhL dKmBJfA Congruent right correct Normal 817.2552
805 88 LeftLarger PercIBPrac Prime_9A Target_9A EKegADi bECcgil Congruent left correct Normal 805.1325
805 89 LeftLarger PercIBPrac Prime_9N Target_9N amAbKBJ LKHCcmA Congruent left correct Normal 1105.103
805 90 LeftLarger PercIBPrac Prime_1A Target_1A gkjcHed LfmFGKh Congruent left error Normal 953.0204
805 91 LeftLarger PercIBPrac Prime_1N Target_9N JicjehG djLlJDg Incongruent right correct Normal 1155.445
805 92 LeftLarger PercIBPrac Prime_9N Target_4N FhaibeM JFmDKec Incongruent left correct Normal 1099.57
805 93 LeftLarger PercIBPrac Prime_9A Target_1A iJaecmM FeibJDM Incongruent left correct Normal 881.2557
805 94 LeftLarger PercIBPrac Prime_1A Target_9A eBiadhL cbEACgB Incongruent left error Normal 1366.41
805 95 LeftLarger PercIBPrac Prime_6A Target_1N MAmibhd hacBgHk Incongruent left correct Normal 1133.873
805 96 LeftLarger PercIBPrac Prime_4A Target_9A beGLgBc lmEfcjD Incongruent right correct Normal 1179.881
805 97 LeftLarger PercIBExp1 Prime_6A Target_9N kFMaCIe bkhedAi Congruent left correct Normal 737.9336
805 98 LeftLarger PercIBExp1 Prime_1N Target_6A ALCIEGM ieCGcDg Incongruent right correct Normal 586.0994
805 99 LeftLarger PercIBExp1 Prime_9A Target_1N HKbeGjh klKIeCE Incongruent left correct Normal 691.1234
805 100 LeftLarger PercIBExp1 Prime_4A Target_4A kIhLmaK EKIikel Congruent left error Normal 956.8221
805 101 LeftLarger PercIBExp1 Prime_1N Target_1N daHAgif daHfIch Congruent left error Normal 899.2168
805 102 LeftLarger PercIBExp1 Prime_1N Target_9N bIFmfhd cgKAIMD Incongruent right correct Normal 1010.767
805 103 LeftLarger PercIBExp1 Prime_4A Target_6A mfiFGhg IJFDhlC Incongruent right correct Normal 616.9683
805 104 LeftLarger PercIBExp1 Prime_4N Target_4A MEidKle cACEeMI Congruent right correct Normal 1022.38
805 105 LeftLarger PercIBExp1 Prime_9A Target_9N iIAgfdD cKeHBGg Congruent left correct Normal 1070.664
805 106 LeftLarger PercIBExp1 Prime_4N Target_6N iLCGdmb IeLibkg Incongruent right correct Normal 871.4705
805 107 LeftLarger PercIBExp1 Prime_6A Target_4A mjiHBGD fMIKlEg Incongruent left correct Normal 761.1388
805 108 LeftLarger PercIBExp1 Prime_9N Target_9N AjaeigL gCmIheA Congruent left correct Normal 1017.951
805 109 LeftLarger PercIBExp1 Prime_6A Target_9A MKCfaFI igdFkLC Congruent left correct Normal 685.5114
805 110 LeftLarger PercIBExp1 Prime_6N Target_6A FdiHCDI iDLkbCm Congruent left correct Normal 980.4106
805 111 LeftLarger PercIBExp1 Prime_1N Target_1A GgCdIMk abfCjLi Congruent left error Normal 763.985
805 112 LeftLarger PercIBExp1 Prime_6A Target_4N aAdcfCI bFhgGBJ Incongruent left correct Normal 674.7626
805 113 LeftLarger PercIBExp1 Prime_9A Target_1A IKhBCAf lLJgdGf Incongruent left correct Normal 768.1904
805 114 LeftLarger PercIBExp1 Prime_9A Target_4A BJjGhfA lBDAhIE Incongruent left correct Normal 638.3604
805 115 LeftLarger PercIBExp1 Prime_4N Target_9N JGdlefH dKjGMEl Incongruent right correct Normal 717.5197
805 116 LeftLarger PercIBExp1 Prime_6N Target_9A JmBKiha EkbcleJ Congruent left correct Normal 947.6874
805 117 LeftLarger PercIBExp1 Prime_4A Target_1A mMCbkie BfCGeJM Congruent right correct Normal 947.8686
805 118 LeftLarger PercIBExp1 Prime_9N Target_9A LbBIdam djmbHKi Congruent right error Normal 810.4364
805 119 LeftLarger PercIBExp1 Prime_6N Target_1N ILJBfKh leLdKAI Incongruent left correct Normal 888.0545
805 120 LeftLarger PercIBExp1 Prime_6A Target_1A gHGiaAE FKlGeAC Incongruent left correct Normal 1107.752
805 121 LeftLarger PercIBExp1 Prime_1A Target_1N EMKLBgf JjaiCHA Congruent left error Normal 1194.081
805 122 LeftLarger PercIBExp1 Prime_4A Target_4N EIcBFda chkaKGD Congruent right correct Normal 1144.121
805 123 LeftLarger PercIBExp1 Prime_1A Target_6N fBFmkdb DfghHaJ Incongruent right correct Normal 1265.3
805 124 LeftLarger PercIBExp1 Prime_6N Target_6N cBDLCMK BdlHFmh Congruent left correct Normal 1206.735
805 125 LeftLarger PercIBExp1 Prime_6A Target_1N clJkBEH KCJbMHG Incongruent left correct Normal 774.1125
805 126 LeftLarger PercIBExp1 Prime_9A Target_4N elLhIBj MDiGCgF Incongruent left correct Normal 832.8116
805 127 LeftLarger PercIBExp1 Prime_1A Target_6A iEbBaMK fLMjClA Incongruent right correct Normal 1192.725
805 128 LeftLarger PercIBExp1 Prime_1A Target_4N gMCHhmc EDJkgKi Congruent right correct Normal 703.6075
805 129 LeftLarger PercIBExp1 Prime_9N Target_4A lhHdKgm lAJjFgi Incongruent left correct Normal 768.0232
805 130 LeftLarger PercIBExp1 Prime_9A Target_6A mecDBbf BCIdaem Congruent left correct Normal 761.3995
805 131 LeftLarger PercIBExp1 Prime_4N Target_1A mdlHkMC fCbLmBk Congruent left error Normal 724.5719
805 132 LeftLarger PercIBExp1 Prime_6N Target_4N mDbfLha GJkEblL Incongruent left correct Normal 805.5856
805 133 LeftLarger PercIBExp1 Prime_9N Target_6N jFgfEhd jFmLHEa Congruent left correct Normal 892.5253
805 134 LeftLarger PercIBExp1 Prime_1A Target_1A EadgiDK dIgkcCJ Congruent right correct Normal 1156.466
805 135 LeftLarger PercIBExp1 Prime_6N Target_1A DaFhJmG mJEfFab Incongruent left correct Normal 627.2659
805 136 LeftLarger PercIBExp1 Prime_9N Target_4N DLCeHfi LEIGJAh Incongruent left correct Normal 708.504
805 137 LeftLarger PercIBExp1 Prime_4A Target_9A HdaGeFK aHciLmG Incongruent left error Normal 662.1085
805 138 LeftLarger PercIBExp1 Prime_9N Target_6A cCghjeA EcJhmGe Congruent left correct Normal 534.1627
805 139 LeftLarger PercIBExp1 Prime_1N Target_4N EiHfkcI kKaClDd Congruent right correct Normal 730.5775
805 140 LeftLarger PercIBExp1 Prime_9N Target_1N cJECIbG ljhdBeD Incongruent left correct Normal 1028.728
805 141 LeftLarger PercIBExp1 Prime_4N Target_1N GKIejEL JkleGhB Congruent right correct Normal 632.9026
805 142 LeftLarger PercIBExp1 Prime_6A Target_6A lLajdFc mDCbMeB Congruent left correct Normal 806.1945
805 143 LeftLarger PercIBExp1 Prime_1A Target_4A JaBAeEh mdAKMie Congruent left error Normal 1189.526
805 144 LeftLarger PercIBExp1 Prime_1N Target_4A aIdCckh BkjAhIK Congruent right correct Normal 1246.206
805 145 LeftLarger PercIBExp1 Prime_4A Target_9N jbBcFLG GCFDafB Incongruent right correct Normal 871.0607
805 146 LeftLarger PercIBExp1 Prime_4A Target_6N iHJmBDK gkKGjei Incongruent right correct Normal 657.5091
805 147 LeftLarger PercIBExp1 Prime_4A Target_1N IBJMclh ACLfkmJ Congruent right correct Normal 821.6933
805 148 LeftLarger PercIBExp1 Prime_9A Target_9A fIhjGKm CBhFkdK Congruent left correct Normal 590.2669
805 149 LeftLarger PercIBExp1 Prime_9N Target_1A dAJKCih ABbGaJK Incongruent right error Normal 818.8329
805 150 LeftLarger PercIBExp1 Prime_1N Target_6N bHLlCgE FighLkm Incongruent right correct Normal 914.6061
805 151 LeftLarger PercIBExp1 Prime_1N Target_9A giMDmFa ACfKibG Incongruent left error Normal 1397.024
805 152 LeftLarger PercIBExp1 Prime_1A Target_9N HlFemEg bMdcfaD Incongruent right correct Normal 1029.201
805 153 LeftLarger PercIBExp1 Prime_4N Target_4N ifcedjb lkLJDmh Congruent left error Normal 770.6242
805 154 LeftLarger PercIBExp1 Prime_6N Target_4A keihcba aBIkgCf Incongruent left correct Normal 833.9286
805 155 LeftLarger PercIBExp1 Prime_1A Target_9A jLKHihM jMbIHDm Incongruent left error Normal 906.5825
805 156 LeftLarger PercIBExp1 Prime_6N Target_9N cGCMehE FJBCdel Congruent left correct Normal 980.1308
805 157 LeftLarger PercIBExp1 Prime_6A Target_6N BkFCADJ BLChlDa Congruent left correct Normal 695.3115
805 158 LeftLarger PercIBExp1 Prime_4N Target_9A LefbcCD kKlhLMc Incongruent right correct Normal 664.3639
805 159 LeftLarger PercIBExp1 Prime_4N Target_6A lakLGjF GIDlmde Incongruent right correct Normal 978.8864
805 160 LeftLarger PercIBExp1 Prime_9A Target_6N KahbEmC iEBjgDf Congruent left correct Normal 889.5043
806 1 LeftSmaller PercIAPrac Prime_9N Target_9N HMCkjFK hHkIbal Congruent left error Normal 1505.975
806 2 LeftSmaller PercIAPrac Prime_4N Target_1N EHFebdG kcBaiGf Congruent left correct Normal 1087.725
806 3 LeftSmaller PercIAPrac Prime_9A Target_6A KIhMDCB kCdDgLe Congruent right correct Normal 4522.305
806 4 LeftSmaller PercIAPrac Prime_9A Target_1A BJKECAD lmcMFEL Incongruent right correct Normal 1595.956
806 5 LeftSmaller PercIAPrac Prime_1N Target_1N KEJAbFG eCJaGHi Congruent right error Normal 978.0173
806 6 LeftSmaller PercIAPrac Prime_1N Target_9N IJGhMEe HIgaKcl Incongruent left correct Normal 920.0198
806 7 LeftSmaller PercIAPrac Prime_4N Target_6N eKaGMdj EFLAHDk Incongruent left correct Normal 889.6012
806 8 LeftSmaller PercIAPrac Prime_6N Target_9N cmhiFlg dFJCmjH Congruent right correct Normal 830.9237
806 9 LeftSmaller PercIAPrac Prime_6N Target_1A BemFlCM akdHhIG Incongruent right correct Normal 876.405
806 10 LeftSmaller PercIAPrac Prime_4A Target_4A cJmBhlA aEABmbK Congruent left correct Normal 1023.118
806 11 LeftSmaller PercIAPrac Prime_1A Target_9N HecLJMI KFgAeIL Incongruent left correct Normal 1427.185
806 12 LeftSmaller PercIAPrac Prime_4N Target_1A LHAgFkf beADJdm Congruent left correct Normal 1123.642
806 13 LeftSmaller PercIAPrac Prime_6A Target_1A eIjkibm gfJDaFl Incongruent right correct Normal 735.098
806 14 LeftSmaller PercIAPrac Prime_9A Target_6N MJECcmB kLaBKgG Congruent right correct Normal 729.6151
806 15 LeftSmaller PercIAPrac Prime_4A Target_6A keIiafm IMhaKDJ Incongruent left correct Normal 720.3864
806 16 LeftSmaller PercIAPrac Prime_4A Target_1A FEAdkeM AJEHFma Congruent left correct Normal 732.1887
806 17 LeftSmaller PercIAExp1 Prime_4A Target_6N aLECkDi aFejHhA Incongruent left correct Normal 725.521
806 18 LeftSmaller PercIAExp1 Prime_4A Target_9A ilLJmGa KMfGLma Incongruent left correct Normal 525.8173
806 19 LeftSmaller PercIAExp1 Prime_9N Target_6A aFgIECi KAGHcaB Congruent left error Normal 743.8282
806 20 LeftSmaller PercIAExp1 Prime_6A Target_9A fHbLAJj KhBjfCb Congruent right correct Normal 974.9984
806 21 LeftSmaller PercIAExp1 Prime_1N Target_1N fmAjECa GALfbCB Congruent right error Normal 843.9146
806 22 LeftSmaller PercIAExp1 Prime_1N Target_9N ElbKHiG eCKdfGg Incongruent left correct Normal 949.0938
806 23 LeftSmaller PercIAExp1 Prime_9N Target_4A GjbIHDJ GiKCfDh Incongruent left error Normal 1188.031
806 24 LeftSmaller PercIAExp1 Prime_9A Target_1N klEbjCa JclkAfI Incongruent right correct Normal 543.846
806 25 LeftSmaller PercIAExp1 Prime_6N Target_1A BiaCbgI bGBlkjE Incongruent right correct Normal 2575.832
806 26 LeftSmaller PercIAExp1 Prime_1N Target_9A iheDjcl hBIHCAg Incongruent right error Normal 1119.834
806 27 LeftSmaller PercIAExp1 Prime_9A Target_1A fMAGJBE cjDBdEm Incongruent right correct Normal 539.0049
806 28 LeftSmaller PercIAExp1 Prime_9N Target_1N HGdjgfm KGMJElf Incongruent right correct Normal 829.512
806 29 LeftSmaller PercIAExp1 Prime_6N Target_4A MDEIGkJ adAGKLh Incongruent right correct Normal 812.2207
806 30 LeftSmaller PercIAExp1 Prime_1N Target_4A kMmEFIH IhHGgEB Congruent right error Normal 800.7487
806 31 LeftSmaller PercIAExp1 Prime_6N Target_6A MbHKEaC fCFiHjk Congruent left error Normal 814.4621
806 32 LeftSmaller PercIAExp1 Prime_6N Target_6N cjGaJEB GiCaLje Congruent left error Normal 1250.499
806 33 LeftSmaller PercIAExp1 Prime_1A Target_4A hFgcMEJ lHDBahA Congruent right error Normal 476.0437
806 34 LeftSmaller PercIAExp1 Prime_6A Target_6A EhbaDAC gMbBEid Congruent left error Normal 729.3304
806 35 LeftSmaller PercIAExp1 Prime_9A Target_9N EBgciJh cFMBIbf Congruent left error Normal 1049.581
806 36 LeftSmaller PercIAExp1 Prime_4N Target_6A lCDIHfk FEbgDKA Incongruent left correct Normal 790.564
806 37 LeftSmaller PercIAExp1 Prime_6A Target_4N icLKAjG FJCkKDb Incongruent right correct Normal 721.852
806 38 LeftSmaller PercIAExp1 Prime_4N Target_1A DBMFklG LadlfFD Congruent left correct Normal 482.2264
806 39 LeftSmaller PercIAExp1 Prime_4A Target_4N JicEAae hlGKbIm Congruent left correct Normal 967.1833
806 40 LeftSmaller PercIAExp1 Prime_9N Target_6N hgADGdF ijDMkKb Congruent right correct Normal 723.8362
806 41 LeftSmaller PercIAExp1 Prime_9A Target_6A AkGHDgI kfDEhCg Congruent left error Normal 776.1146
806 42 LeftSmaller PercIAExp1 Prime_9N Target_1A mIEdicb GIdEHLC Incongruent right correct Normal 821.4726
806 43 LeftSmaller PercIAExp1 Prime_1A Target_1N mHDbkFi dcAebDE Congruent right error Normal 1028.283
806 44 LeftSmaller PercIAExp1 Prime_9A Target_9A afdLcAg bmCLHDa Congruent right correct Normal 914.187
806 45 LeftSmaller PercIAExp1 Prime_1N Target_6N AfKdCIh dIHfKLc Incongruent right error Normal 1160.099
806 46 LeftSmaller PercIAExp1 Prime_1A Target_6N gHeBJmG EKDClej Incongruent left correct Normal 668.7892
806 47 LeftSmaller PercIAExp1 Prime_1A Target_9A fkCdmMg lBIELKJ Incongruent left correct Normal 529.6117
806 48 LeftSmaller PercIAExp1 Prime_9N Target_9A FmlaMDL ImkMLaK Congruent right correct Normal 977.7568
806 49 LeftSmaller PercIAExp1 Prime_1N Target_6A LgEiCbG kMALCJh Incongruent right error Normal 965.5025
806 50 LeftSmaller PercIAExp1 Prime_9N Target_9N ilfdMgC MhIGAHe Congruent left error Normal 747.4802
806 51 LeftSmaller PercIAExp1 Prime_6N Target_9A CmJhHMl gDbHGLi Congruent right correct Normal 999.8858
806 52 LeftSmaller PercIAExp1 Prime_6N Target_1N JkLEdBl GEeaHlm Incongruent right correct Normal 820.5805
806 53 LeftSmaller PercIAExp1 Prime_1N Target_1A aLgkBAD ajiLHgK Congruent right error Normal 801.4943
806 54 LeftSmaller PercIAExp1 Prime_4N Target_1N MkELeFd HAcgmeI Congruent left correct Normal 807.8031
806 55 LeftSmaller PercIAExp1 Prime_6A Target_1N ALHIbcJ dgJHCKI Incongruent right correct Normal 891.7787
806 56 LeftSmaller PercIAExp1 Prime_4N Target_6N bCjhJGc cIBlCDk Incongruent left correct Normal 821.2785
806 57 LeftSmaller PercIAExp1 Prime_9A Target_4N bHkcKDG DafJBAK Incongruent right correct Normal 682.6678
806 58 LeftSmaller PercIAExp1 Prime_1A Target_9N abAkHjF LleiEMI Incongruent left correct Normal 831.4683
806 59 LeftSmaller PercIAExp1 Prime_4N Target_4A BGHhkFi kMLFdlA Congruent right error Normal 956.4936
806 60 LeftSmaller PercIAExp1 Prime_9A Target_6N EKIiBHJ IamMFLl Congruent right correct Normal 1017.688
806 61 LeftSmaller PercIAExp1 Prime_6A Target_4A hKgJGcB EAgHkGB Incongruent right correct Normal 727.1467
806 62 LeftSmaller PercIAExp1 Prime_6A Target_6N lMhJfkE EbkMGfD Congruent left error Normal 1114.103
806 63 LeftSmaller PercIAExp1 Prime_6A Target_9N MciKehC lHDCEdc Congruent right correct Normal 1397.095
806 64 LeftSmaller PercIAExp1 Prime_4A Target_6A hGKJeCE emcMEFb Incongruent left correct Normal 786.1605
806 65 LeftSmaller PercIAExp1 Prime_4A Target_9N mdFCJgE baAIEmc Incongruent left correct Normal 986.7651
806 66 LeftSmaller PercIAExp1 Prime_4N Target_9N hKedfJi kfelJDc Incongruent left correct Normal 719.5555
806 67 LeftSmaller PercIAExp1 Prime_1A Target_4N iMLKjHf LAdhCjM Congruent left correct Normal 756.7962
806 68 LeftSmaller PercIAExp1 Prime_9A Target_4A cFDAebh BlJdeMg Incongruent right correct Normal 540.1179
806 69 LeftSmaller PercIAExp1 Prime_1A Target_6A BbgiECL AlbMcmf Incongruent right error Normal 842.4434
806 70 LeftSmaller PercIAExp1 Prime_4A Target_1N LjFecfC BCJmMaK Congruent left correct Normal 809.8941
806 71 LeftSmaller PercIAExp1 Prime_1N Target_4N GhHLbkf DJFEdjM Congruent left correct Normal 804.6253
806 72 LeftSmaller PercIAExp1 Prime_4A Target_1A CMjgelG cahHlKB Congruent left correct Normal 694.5372
806 73 LeftSmaller PercIAExp1 Prime_6N Target_9N dlCeHJG BgAMJlG Congruent right correct Normal 542.9576
806 74 LeftSmaller PercIAExp1 Prime_9N Target_4N mIleMbg HbdJFmL Incongruent right correct Normal 826.4157
806 75 LeftSmaller PercIAExp1 Prime_6N Target_4N aCcLDbI KeIBmLH Incongruent left error Normal 1005.052
806 76 LeftSmaller PercIAExp1 Prime_6A Target_1A HfiAhlJ IMgakBA Incongruent right correct Normal 592.608
806 77 LeftSmaller PercIAExp1 Prime_4A Target_4A LMkJcEI KaDMhEH Congruent right error Normal 746.6457
806 78 LeftSmaller PercIAExp1 Prime_4N Target_4N mBJeilC MmbdlHA Congruent right error Normal 770.5745
806 79 LeftSmaller PercIAExp1 Prime_4N Target_9A fdHLmhI FEfdghD Incongruent left correct Normal 849.8817
806 80 LeftSmaller PercIAExp1 Prime_1A Target_1A dIHibLJ HJiICcE Congruent left correct Normal 738.3995
806 81 LeftLarger PercIBPrac Prime_9N Target_6A akHMDbi jfLHJMF Congruent right error Normal 862.1816
806 82 LeftLarger PercIBPrac Prime_4A Target_9A CjAgecF lEKdGba Incongruent left error Normal 623.0132
806 83 LeftLarger PercIBPrac Prime_4N Target_6A DkJaGKF dhmciAg Incongruent right correct Normal 1643.321
806 84 LeftLarger PercIBPrac Prime_1N Target_9A IAjEhDk AGmDecd Incongruent left error Normal 1084.399
806 85 LeftLarger PercIBPrac Prime_9N Target_6N cAEIdaL gGkHMCl Congruent left correct Normal 1579.932
806 86 LeftLarger PercIBPrac Prime_9A Target_9N KjAFDGJ jEhmHIi Congruent left correct Normal 1123.743
806 87 LeftLarger PercIBPrac Prime_6N Target_6N iDbFflm IjfFHJB Congruent left correct Normal 1310.802
806 88 LeftLarger PercIBPrac Prime_1A Target_9N JlIGEdh kCbEgAK Incongruent right correct Normal 1156.109
806 89 LeftLarger PercIBPrac Prime_9N Target_1N gMbjCEf chdmDJj Incongruent left correct Normal 1731.792
806 90 LeftLarger PercIBPrac Prime_6N Target_6A mjMIdeg fDLHAbE Congruent right error Normal 1248.96
806 91 LeftLarger PercIBPrac Prime_9N Target_1A DjgHfKb MHBFcjJ Incongruent left correct Normal 1159.14
806 92 LeftLarger PercIBPrac Prime_9A Target_6A gEKJecm ghLmBIH Congruent left correct Normal 1121.958
806 93 LeftLarger PercIBPrac Prime_4N Target_9N meHhjBJ lAhEBDL Incongruent right correct Normal 1185.628
806 94 LeftLarger PercIBPrac Prime_1N Target_6N eKGJEBH ihgDEAB Incongruent right correct Normal 1429.931
806 95 LeftLarger PercIBPrac Prime_1A Target_4A AKgHfmd EKgcdCl Congruent right correct Normal 1466.883
806 96 LeftLarger PercIBPrac Prime_6A Target_6A cJhKHeF GEKlDFh Congruent right error Normal 1650.71
806 97 LeftLarger PercIBExp1 Prime_9A Target_6N KmlGfeI EiGaAgh Congruent left correct Normal 1215.569
806 98 LeftLarger PercIBExp1 Prime_9N Target_4A HCDGbhi FLmIlKc Incongruent left correct Normal 924.8825
806 99 LeftLarger PercIBExp1 Prime_4A Target_6N cAdeJgj GdhfLbe Incongruent right correct Normal 961.5868
806 100 LeftLarger PercIBExp1 Prime_9A Target_1A FDjhdLE HJcKEme Incongruent left correct Normal 758.3624
806 101 LeftLarger PercIBExp1 Prime_6N Target_1A acILFKH BFKDJic Incongruent left correct Normal 871.3909
806 102 LeftLarger PercIBExp1 Prime_6N Target_4A ECMjbcJ DCkbAih Incongruent left correct Normal 918.8148
806 103 LeftLarger PercIBExp1 Prime_1A Target_1N BJLehcI BhiIfke Congruent right correct Normal 1255.107
806 104 LeftLarger PercIBExp1 Prime_1A Target_9A GiegEhK EleDbAK Incongruent right correct Normal 1391.167
806 105 LeftLarger PercIBExp1 Prime_4N Target_1N LeDAKja gdjFMGk Congruent left error Normal 1019.598
806 106 LeftLarger PercIBExp1 Prime_4A Target_6A JGhLMId KAGJlhM Incongruent right correct Normal 943.5228
806 107 LeftLarger PercIBExp1 Prime_9N Target_1N CHGKAid lHimGdj Incongruent left correct Normal 961.2547
806 108 LeftLarger PercIBExp1 Prime_6N Target_6N dJDhlIK AlImiCj Congruent left correct Normal 843.8922
806 109 LeftLarger PercIBExp1 Prime_9A Target_9A gLbmDIK IghEKAF Congruent right error Normal 972.9179
806 110 LeftLarger PercIBExp1 Prime_6A Target_9N CdKDMAG KmkcFeb Congruent right error Normal 1310.065
806 111 LeftLarger PercIBExp1 Prime_1A Target_4N iBhFfJE cEGHeKI Congruent left error Normal 689.6112
806 112 LeftLarger PercIBExp1 Prime_1A Target_9N BMcLGhk ceiEDKM Incongruent right correct Normal 820.5335
806 113 LeftLarger PercIBExp1 Prime_1N Target_4N HkgjKEf LEFamdI Congruent right correct Normal 886.7174
806 114 LeftLarger PercIBExp1 Prime_4A Target_1N Mlemajf EbclMhk Congruent right correct Normal 808.9126
806 115 LeftLarger PercIBExp1 Prime_6A Target_6N mfEgIcA dlabJKf Congruent left correct Normal 969.3508
806 116 LeftLarger PercIBExp1 Prime_4N Target_9N jBdLKae jKEHcGJ Incongruent right correct Normal 664.6573
806 117 LeftLarger PercIBExp1 Prime_4A Target_4A MGdiALk JAeHCbD Congruent right correct Normal 782.8387
806 118 LeftLarger PercIBExp1 Prime_9N Target_1A fMIcmLd jCBbLlh Incongruent right error Normal 911.999
806 119 LeftLarger PercIBExp1 Prime_4N Target_4N cfADKBH jImDhGJ Congruent right correct Normal 842.8951
806 120 LeftLarger PercIBExp1 Prime_6A Target_1A HMkELBf IJAhcbK Incongruent left correct Normal 890.7167
806 121 LeftLarger PercIBExp1 Prime_1A Target_1A hdifmcg lFehKLJ Congruent left error Normal 811.1106
806 122 LeftLarger PercIBExp1 Prime_9N Target_4N LKGlgHB HEhekDB Incongruent right error Normal 1231.184
806 123 LeftLarger PercIBExp1 Prime_1N Target_9A dajhJcA gHAfbGc Incongruent right correct Normal 1318.696
806 124 LeftLarger PercIBExp1 Prime_6N Target_4N amBeGfk CLEcbGh Incongruent left correct Normal 695.2346
806 125 LeftLarger PercIBExp1 Prime_1N Target_9N DAadGfc jlHLFcC Incongruent left error Normal 890.0835
806 126 LeftLarger PercIBExp1 Prime_6A Target_4A CIhclgb fEDahIj Incongruent left correct Normal 1434.328
806 127 LeftLarger PercIBExp1 Prime_6N Target_9A HcifdbG fkIGjhb Congruent left correct Normal 751.0603
806 128 LeftLarger PercIBExp1 Prime_9N Target_9A LbJgMaf FIjdKmb Congruent left correct Normal 609.5677
806 129 LeftLarger PercIBExp1 Prime_6A Target_9A BFLfAkg eLkJGml Congruent left correct Normal 643.0502
806 130 LeftLarger PercIBExp1 Prime_9A Target_4A McJbfkg EADHbKi Incongruent left correct Normal 824.6051
806 131 LeftLarger PercIBExp1 Prime_9A Target_1N ieCIjfJ ekgdJlc Incongruent left correct Normal 538.131
806 132 LeftLarger PercIBExp1 Prime_4N Target_6A LKIeghk DkEeMLI Incongruent left error Normal 664.6905
806 133 LeftLarger PercIBExp1 Prime_9N Target_9N jkEBAgi HajCgBe Congruent left correct Normal 1155.349
806 134 LeftLarger PercIBExp1 Prime_4A Target_9A eEkChig ciCHJdL Incongruent right correct Normal 564.3979
806 135 LeftLarger PercIBExp1 Prime_4A Target_1A fMhbHEc IEfDLBC Congruent right correct Normal 651.3161
806 136 LeftLarger PercIBExp1 Prime_6A Target_1N BLbiIAh mbBilAc Incongruent left correct Normal 1185.971
806 137 LeftLarger PercIBExp1 Prime_4A Target_9N hHKAMcg gDefFHA Incongruent right correct Normal 697.5221
806 138 LeftLarger PercIBExp1 Prime_4N Target_4A FGmaMlf fIBDmEa Congruent left error Normal 924.2011
806 139 LeftLarger PercIBExp1 Prime_9N Target_6A KjCGieB hEJMDfm Congruent left correct Normal 731.8053
806 140 LeftLarger PercIBExp1 Prime_1N Target_1N ekCKjmD EJhagcj Congruent left error Normal 680.1012
806 141 LeftLarger PercIBExp1 Prime_9A Target_4N MLdbGEJ AcfmGgi Incongruent left correct Normal 727.2914
806 142 LeftLarger PercIBExp1 Prime_4A Target_4N ikmcEeC KCglMmG Congruent right correct Normal 906.6611
806 143 LeftLarger PercIBExp1 Prime_4N Target_9A MJCdfHb IhBEJFf Incongruent right correct Normal 870.0722
806 144 LeftLarger PercIBExp1 Prime_1N Target_4A cDEfCkA dJjahLF Congruent right correct Normal 751.2547
806 145 LeftLarger PercIBExp1 Prime_9N Target_6N FjkLDHC BMhiame Congruent left correct Normal 706.1829
806 146 LeftLarger PercIBExp1 Prime_4N Target_1A dLmCHhb LEiAgCK Congruent right correct Normal 791.9488
806 147 LeftLarger PercIBExp1 Prime_4N Target_6N AgmcdDh JeacHBM Incongruent right correct Normal 765.8892
806 148 LeftLarger PercIBExp1 Prime_1N Target_6A AaHkCBl gjehAHb Incongruent right correct Normal 831.193
806 149 LeftLarger PercIBExp1 Prime_1A Target_6N hGKMeHd GMmCgIk Incongruent left error Normal 824.6656
806 150 LeftLarger PercIBExp1 Prime_1A Target_4A gaAGIKE kCFcLHg Congruent right correct Normal 836.6616
806 151 LeftLarger PercIBExp1 Prime_6N Target_1N bjMHLld ajAcHdk Incongruent right error Normal 1320.953
806 152 LeftLarger PercIBExp1 Prime_1N Target_6N mchaKif iDCGfEB Incongruent right correct Normal 1187.991
806 153 LeftLarger PercIBExp1 Prime_6N Target_9N jcBJaDK DmIlHLA Congruent left correct Normal 938.5265
806 154 LeftLarger PercIBExp1 Prime_9A Target_9N bcIkFmf gFfMdBA Congruent left correct Normal 761.3424
806 155 LeftLarger PercIBExp1 Prime_1A Target_6A bLDaGhg ejBAIKd Incongruent left error Normal 785.662
806 156 LeftLarger PercIBExp1 Prime_9A Target_6A IMjhlgH jmLhgFI Congruent left correct Normal 939.8153
806 157 LeftLarger PercIBExp1 Prime_6A Target_4N KbGJAle AimIFfD Incongruent left correct Normal 1064.473
806 158 LeftLarger PercIBExp1 Prime_6A Target_6A fCFJdIi lagIkKE Congruent right error Normal 980.1848
806 159 LeftLarger PercIBExp1 Prime_1N Target_1A ekDfHGA bBKafMi Congruent left error Normal 671.9587
806 160 LeftLarger PercIBExp1 Prime_6N Target_6A CMfmBGI MIJDGlL Congruent right error Normal 714.4071
807 1 LeftLarger PercIAPrac Prime_1A Target_4A aeIblhA iEgBDcI Congruent right correct Normal 878.6186
807 2 LeftLarger PercIAPrac Prime_9A Target_9N DaAIgdE BICcihe Congruent left correct Late 11730.4
807 3 LeftLarger PercIAPrac Prime_6A Target_4N dKFagLl LgiEChf Incongruent left correct Normal 1910.033
807 4 LeftLarger PercIAPrac Prime_4A Target_6A laKdcfJ lahbBiJ Incongruent right correct Normal 791.7157
807 5 LeftLarger PercIAPrac Prime_1N Target_9A bJlHcjK eKcmIJB Incongruent left error Normal 1166.281
807 6 LeftLarger PercIAPrac Prime_6N Target_6N FMGLkBK hcBAldi Congruent right error Normal 1274.46
807 7 LeftLarger PercIAPrac Prime_9N Target_9A DibKFCJ MCDJHjF Congruent left correct Normal 1134.752
807 8 LeftLarger PercIAPrac Prime_4N Target_1A mGhFIij fCHgJAc Congruent left error Normal 1427.949
807 9 LeftLarger PercIAPrac Prime_4N Target_4N GMefFIi FdHmfEJ Congruent right correct Normal 1279.102
807 10 LeftLarger PercIAPrac Prime_1A Target_6N CbjgLdM lHgcdIB Incongruent left error Normal 969.3161
807 11 LeftLarger PercIAPrac Prime_1N Target_1N IlibJDG CdlBKgM Congruent right correct Normal 796.0843
807 12 LeftLarger PercIAPrac Prime_4N Target_9A liMLgkG hjLmJbE Incongruent left error Normal 994.9073
807 13 LeftLarger PercIAPrac Prime_9A Target_4A KIiCMef KFCfmlD Incongruent right error Normal 1134.809
807 14 LeftLarger PercIAPrac Prime_1N Target_1A CgjLFEd cDHGJBf Congruent left error Normal 621.6612
807 15 LeftLarger PercIAPrac Prime_1N Target_4A HMbdgAa GldCKJH Congruent right correct Normal 616.4333
807 16 LeftLarger PercIAPrac Prime_4A Target_9A GkLAMKE IHfJkbi Incongruent left error Normal 894.5984
807 17 LeftLarger PercIAExp1 Prime_9N Target_4A fmAJElC JFfgkEl Incongruent left correct Normal 525.5416
807 18 LeftLarger PercIAExp1 Prime_4A Target_1A gHLfeBI CBfcFIg Congruent left error Normal 694.2117
807 19 LeftLarger PercIAExp1 Prime_4A Target_4N DIhmLiG eikgmEd Congruent left error Normal 592.3448
807 20 LeftLarger PercIAExp1 Prime_6A Target_4N HjBJMCm cGdkIaE Incongruent left correct Normal 692.9265
807 21 LeftLarger PercIAExp1 Prime_4N Target_4A jHKbkaf HGFfhbA Congruent right correct Normal 397.0983
807 22 LeftLarger PercIAExp1 Prime_6N Target_6A LAhkIGd aAlcfKj Congruent left correct Normal 671.0885
807 23 LeftLarger PercIAExp1 Prime_1A Target_6N mbdhKDG aBFeCid Incongruent right correct Normal 786.9409
807 24 LeftLarger PercIAExp1 Prime_1A Target_9N Adabegc ABebfjk Incongruent left error Normal 811.9653
807 25 LeftLarger PercIAExp1 Prime_9A Target_1A aCIHhib FDlMBde Incongruent left correct Normal 987.7111
807 26 LeftLarger PercIAExp1 Prime_4A Target_6N HCaiELe GckgCLK Incongruent right correct Normal 1001.553
807 27 LeftLarger PercIAExp1 Prime_4N Target_1N ikIDAcb fgFLMCj Congruent right correct Normal 1005.616
807 28 LeftLarger PercIAExp1 Prime_9N Target_9A dJAkEbc IeDKBfL Congruent left correct Normal 1061.678
807 29 LeftLarger PercIAExp1 Prime_9N Target_1A lGbIBcM LblmiJj Incongruent left correct Normal 913.5334
807 30 LeftLarger PercIAExp1 Prime_1A Target_9A KDFiegC EakIAce Incongruent right correct Normal 936.1516
807 31 LeftLarger PercIAExp1 Prime_9N Target_1N EJCjdfM jmdMcKC Incongruent left correct Normal 792.4676
807 32 LeftLarger PercIAExp1 Prime_1A Target_4A MkdCLBg kgCEiGK Congruent right correct Normal 931.3653
807 33 LeftLarger PercIAExp1 Prime_1N Target_6A EHjmkeM jEhBaJc Incongruent right correct Normal 852.1759
807 34 LeftLarger PercIAExp1 Prime_1N Target_6N kifgEaD BlecmbJ Incongruent right correct Normal 812.2036
807 35 LeftLarger PercIAExp1 Prime_6A Target_6A ibJgHGM CbgcGdj Congruent left correct Normal 987.5629
807 36 LeftLarger PercIAExp1 Prime_6N Target_6N jJfiMCc IdjkEbC Congruent right error Normal 1027.566
807 37 LeftLarger PercIAExp1 Prime_9A Target_4N EmMAfBI hiLJmde Incongruent left correct Normal 932.1153
807 38 LeftLarger PercIAExp1 Prime_4N Target_9N EJeDjbg mbLMejh Incongruent right correct Normal 1103.035
807 39 LeftLarger PercIAExp1 Prime_4N Target_4N KfGbIEe HgAeKmi Congruent left error Normal 652.2237
807 40 LeftLarger PercIAExp1 Prime_1A Target_4N efAEdDJ JbFHMLk Congruent right correct Normal 788.7064
807 41 LeftLarger PercIAExp1 Prime_9A Target_4A kEfdGMH LmhKFdH Incongruent right error Normal 768.2072
807 42 LeftLarger PercIAExp1 Prime_1A Target_1N ambCLiI HDagbMF Congruent left error Normal 1002.091
807 43 LeftLarger PercIAExp1 Prime_6A Target_9N kGbjKhF BmLFHKk Congruent right error Normal 694.7808
807 44 LeftLarger PercIAExp1 Prime_4A Target_4A CfecdDA CHmkGjA Congruent left error Normal 772.3673
807 45 LeftLarger PercIAExp1 Prime_4N Target_6A cJIhHdC LKkMEcf Incongruent right correct Normal 677.9985
807 46 LeftLarger PercIAExp1 Prime_9N Target_6N dakMGAE CGFbLak Congruent right error Normal 980.1886
807 47 LeftLarger PercIAExp1 Prime_9A Target_6A BAFMCec iLdhECD Congruent left correct Normal 636.5991
807 48 LeftLarger PercIAExp1 Prime_9A Target_9N bBGmeFI MlJFmkB Congruent right error Normal 716.7629
807 49 LeftLarger PercIAExp1 Prime_4A Target_9N LeflhGM EmFhIBG Incongruent right correct Normal 1004.521
807 50 LeftLarger PercIAExp1 Prime_4A Target_1N LMIdfac HkMIlfa Congruent left error Normal 1168.375
807 51 LeftLarger PercIAExp1 Prime_9N Target_9N lkeLMKH bFlimHf Congruent right error Normal 778.4109
807 52 LeftLarger PercIAExp1 Prime_6N Target_4N lFgfhbm ILBmbdC Incongruent left correct Normal 1150.053
807 53 LeftLarger PercIAExp1 Prime_6A Target_1N gHhDjKJ leCjLga Incongruent right error Normal 981.3803
807 54 LeftLarger PercIAExp1 Prime_6A Target_9A ADGMaJe DGiBdje Congruent left correct Normal 1136.934
807 55 LeftLarger PercIAExp1 Prime_1A Target_6A CkBghbL kbJhFgL Incongruent right correct Normal 566.9863
807 56 LeftLarger PercIAExp1 Prime_4N Target_9A FCakHhD gMEljAK Incongruent right correct Normal 1058.164
807 57 LeftLarger PercIAExp1 Prime_6N Target_9A mbkaKEL KBjkaMc Congruent left correct Normal 669.5292
807 58 LeftLarger PercIAExp1 Prime_1N Target_1N feDKiCl EcIJjel Congruent left error Normal 1164.45
807 59 LeftLarger PercIAExp1 Prime_1N Target_1A ibaheHJ IiEFkeb Congruent right correct Normal 626.2865
807 60 LeftLarger PercIAExp1 Prime_6N Target_1N fkMKeIb aCfcgHj Incongruent left correct Normal 966.8355
807 61 LeftLarger PercIAExp1 Prime_9N Target_6A gkFABdj CdIFLMk Congruent left correct Normal 922.4101
807 62 LeftLarger PercIAExp1 Prime_9A Target_6N DBMajEJ aMDBhdi Congruent right error Normal 711.3318
807 63 LeftLarger PercIAExp1 Prime_6N Target_1A bJhmIaF CjHdkml Incongruent right error Normal 648.8874
807 64 LeftLarger PercIAExp1 Prime_6A Target_4A BAIjaig kibchCa Incongruent left correct Normal 691.6577
807 65 LeftLarger PercIAExp1 Prime_9A Target_1N cDKlGMF DecImfL Incongruent right error Normal 569.2029
807 66 LeftLarger PercIAExp1 Prime_6A Target_1A hACcaBE MAmlLjH Incongruent right error Normal 1030.147
807 67 LeftLarger PercIAExp1 Prime_6N Target_9N fGFCDdL EGhgAja Congruent left correct Normal 799.5947
807 68 LeftLarger PercIAExp1 Prime_1N Target_9A aJeILdC GgBiDKl Incongruent right correct Normal 977.1798
807 69 LeftLarger PercIAExp1 Prime_1N Target_4N GdlFjHg IbikefD Congruent right correct Normal 838.6606
807 70 LeftLarger PercIAExp1 Prime_1A Target_1A gHAbGeJ EGDHBkl Congruent left error Normal 707.5466
807 71 LeftLarger PercIAExp1 Prime_6N Target_4A dAbDgjE HbKBIEG Incongruent left correct Normal 801.6147
807 72 LeftLarger PercIAExp1 Prime_4A Target_9A jHmFJib IaHfjhJ Incongruent left error Normal 611.1609
807 73 LeftLarger PercIAExp1 Prime_4N Target_6N FmJGlIA DbBLGki Incongruent right correct Normal 824.7158
807 74 LeftLarger PercIAExp1 Prime_6A Target_6N GChaAjB mIdcfLh Congruent left correct Normal 687.3673
807 75 LeftLarger PercIAExp1 Prime_4A Target_6A BFKlkiM KeBaHjA Incongruent right correct Normal 589.6287
807 76 LeftLarger PercIAExp1 Prime_1N Target_9N jlBMKbh IkAMelG Incongruent right correct Normal 854.473
807 77 LeftLarger PercIAExp1 Prime_1N Target_4A EDdCjcI ADcEkgG Congruent right correct Normal 655.234
807 78 LeftLarger PercIAExp1 Prime_9A Target_9A GChkEDe DJfelBg Congruent right error Normal 851.1408
807 79 LeftLarger PercIAExp1 Prime_4N Target_1A lJGEjkh mFIiDhC Congruent right correct Normal 916.6246
807 80 LeftLarger PercIAExp1 Prime_9N Target_4N HFkdLGD dDIBcEa Incongruent right error Normal 1181.02
807 81 LeftSmaller PercIBPrac Prime_1A Target_1N iHDbBkC medciCG Congruent left correct Normal 668.8763
807 82 LeftSmaller PercIBPrac Prime_4A Target_6N KaHklJC FMIDhfi Incongruent left correct Normal 682.8971
807 83 LeftSmaller PercIBPrac Prime_6A Target_9N EABfdmG BgcaJHG Congruent left error Normal 941.1499
807 84 LeftSmaller PercIBPrac Prime_9N Target_9A ICgHeki baBECLi Congruent right correct Normal 626.0453
807 85 LeftSmaller PercIBPrac Prime_4N Target_1N LKbFgmG lGcfhMj Congruent left correct Normal 709.8339
807 86 LeftSmaller PercIBPrac Prime_1N Target_1A fleIGEc jJCcgfd Congruent right error Normal 537.619
807 87 LeftSmaller PercIBPrac Prime_4A Target_9N AeLBGIM jMFGEkC Incongruent right error Normal 696.3086
807 88 LeftSmaller PercIBPrac Prime_6A Target_4N CBmafkj LAehJmb Incongruent left error Normal 717.6122
807 89 LeftSmaller PercIBPrac Prime_6A Target_6N FleAcaj mBKIibE Congruent right correct Normal 435.3464
807 90 LeftSmaller PercIBPrac Prime_1A Target_4N LbeHkAD GHEKaIh Congruent left correct Normal 733.0556
807 91 LeftSmaller PercIBPrac Prime_6N Target_1A FgaeLjc bjgMDem Incongruent right correct Normal 816.1137
807 92 LeftSmaller PercIBPrac Prime_4N Target_4A EfMidgI EfKGDmk Congruent left correct Normal 871.0206
807 93 LeftSmaller PercIBPrac Prime_1A Target_1A FejfgMD kJhaFdD Congruent right error Normal 757.5806
807 94 LeftSmaller PercIBPrac Prime_1N Target_1N eJkBAgi jiGbdBk Congruent left correct Normal 826.9877
807 95 LeftSmaller PercIBPrac Prime_6N Target_9N ICMLjlJ dkKDBmc Congruent right correct Normal 616.7917
807 96 LeftSmaller PercIBPrac Prime_6A Target_1N FBjhLmG jlLMeKf Incongruent right correct Normal 727.092
807 97 LeftSmaller PercIBExp1 Prime_9A Target_1A aFihKED mcJEBbI Incongruent right correct Normal 599.3207
807 98 LeftSmaller PercIBExp1 Prime_6N Target_4A iaJckbg cFIgbKG Incongruent right correct Normal 438.6491
807 99 LeftSmaller PercIBExp1 Prime_9A Target_9A ikFhHAK MeBlKgb Congruent right correct Normal 607.2459
807 100 LeftSmaller PercIBExp1 Prime_9A Target_4A BeKGLci KGibFlI Incongruent left error Normal 534.2946
807 101 LeftSmaller PercIBExp1 Prime_4A Target_9A BIbMAjG daEGhCM Incongruent right error Normal 683.7119
807 102 LeftSmaller PercIBExp1 Prime_1A Target_1A abBHdkj fcAKILE Congruent left correct Normal 538.024
807 103 LeftSmaller PercIBExp1 Prime_4N Target_9N feMdcKH BeiMEHg Incongruent left correct Normal 832.9237
807 104 LeftSmaller PercIBExp1 Prime_1A Target_9A EheBAMd DkMKBgl Incongruent right error Normal 709.2032
807 105 LeftSmaller PercIBExp1 Prime_1N Target_1A HIEcfMe FgALMCf Congruent right error Normal 559.395
807 106 LeftSmaller PercIBExp1 Prime_6A Target_4N cGKgFIj LDClaJg Incongruent left error Normal 673.4263
807 107 LeftSmaller PercIBExp1 Prime_9N Target_1A gmdbMBj FambjkK Incongruent right correct Normal 895.8388
807 108 LeftSmaller PercIBExp1 Prime_9N Target_4N AaMHehk IajmkCh Incongruent right correct Normal 778.1372
807 109 LeftSmaller PercIBExp1 Prime_1N Target_9N fMGJHcC KjaDIJM Incongruent right error Normal 838.0714
807 110 LeftSmaller PercIBExp1 Prime_1A Target_6A FbELikG FMHIcmD Incongruent left correct Normal 338.8189
807 111 LeftSmaller PercIBExp1 Prime_9N Target_9A ajIBegG BmafKEi Congruent right correct Normal 434.1708
807 112 LeftSmaller PercIBExp1 Prime_1A Target_4N FfEaemJ cJHlbKh Congruent left correct Normal 406.2374
807 113 LeftSmaller PercIBExp1 Prime_4A Target_4N bdiBFaC HaGdEFh Congruent right error Normal 599.2184
807 114 LeftSmaller PercIBExp1 Prime_4N Target_6N lcMiBjC jIaeJMG Incongruent left correct Normal 1103.021
807 115 LeftSmaller PercIBExp1 Prime_9N Target_4A HDmJLcG gGaDMHJ Incongruent right correct Normal 458.8314
807 116 LeftSmaller PercIBExp1 Prime_4A Target_6N EmdBAhF CBAhkJH Incongruent right error Normal 1075.24
807 117 LeftSmaller PercIBExp1 Prime_1N Target_6A iBJbelK EmAIfBa Incongruent left correct Normal 727.3024
807 118 LeftSmaller PercIBExp1 Prime_1A Target_1N LjBgFJl hJcBGKi Congruent right error Normal 442.2233
807 119 LeftSmaller PercIBExp1 Prime_1N Target_4N MGjgkdl KiBfILD Congruent left correct Normal 835.1494
807 120 LeftSmaller PercIBExp1 Prime_6N Target_9A IciHdMG icMJEDH Congruent right correct Normal 564.7865
807 121 LeftSmaller PercIBExp1 Prime_9A Target_6N eFAKGal mECiDFk Congruent right correct Normal 662.476
807 122 LeftSmaller PercIBExp1 Prime_4A Target_4A gMfJDhB MKIFcej Congruent left correct Normal 955.5252
807 123 LeftSmaller PercIBExp1 Prime_4A Target_1A ljCbMJG IbfEgFH Congruent right error Normal 453.8915
807 124 LeftSmaller PercIBExp1 Prime_6A Target_6N gEecDif KGgJMmd Congruent left error Normal 610.5065
807 125 LeftSmaller PercIBExp1 Prime_4N Target_1N LeKDChB BbiEflH Congruent right error Normal 984.4106
807 126 LeftSmaller PercIBExp1 Prime_9A Target_6A IDFCahL gLMChli Congruent right correct Normal 635.3307
807 127 LeftSmaller PercIBExp1 Prime_4N Target_1A CGedMAJ fmjBelM Congruent left correct Normal 539.2565
807 128 LeftSmaller PercIBExp1 Prime_6N Target_1A giJemDK KclahHB Incongruent right correct Normal 576.7978
807 129 LeftSmaller PercIBExp1 Prime_9A Target_9N bLhcdMg lgfkdAH Congruent left error Normal 726.2081
807 130 LeftSmaller PercIBExp1 Prime_1N Target_4A HgIFdKB LHimajB Congruent right error Normal 424.0184
807 131 LeftSmaller PercIBExp1 Prime_9N Target_6A jickhdA AakjiBf Congruent left error Normal 630.7745
807 132 LeftSmaller PercIBExp1 Prime_1A Target_9N kFIiKhB ClmdiBE Incongruent right error Normal 388.4699
807 133 LeftSmaller PercIBExp1 Prime_4N Target_4N JCgKbHm kmeblHc Congruent left correct Normal 748.375
807 134 LeftSmaller PercIBExp1 Prime_6N Target_6N aIfghLA iagbBjL Congruent right correct Normal 321.2781
807 135 LeftSmaller PercIBExp1 Prime_4N Target_6A DdaebBc faeCgAh Incongruent right error Normal 489.328
807 136 LeftSmaller PercIBExp1 Prime_6N Target_4N ehiHEGL dClKAaj Incongruent left error Normal 610.7413
807 137 LeftSmaller PercIBExp1 Prime_9N Target_9N bkKagAF GimJMfK Congruent right correct Normal 372.5818
807 138 LeftSmaller PercIBExp1 Prime_9A Target_1N LBgaiEk CEJjbaD Incongruent left error Normal 402.5805
807 139 LeftSmaller PercIBExp1 Prime_6N Target_9N bgJCKfj ceGgibF Congruent right correct Normal 454.0183
807 140 LeftSmaller PercIBExp1 Prime_6A Target_6A lFfJGhL AFJHhdc Congruent right correct Normal 1157.676
807 141 LeftSmaller PercIBExp1 Prime_6A Target_4A gJedlFG kDlJFgL Incongruent right correct Normal 581.1034
807 142 LeftSmaller PercIBExp1 Prime_4A Target_1N kGEdJKF admEChi Congruent right error Normal 827.1438
807 143 LeftSmaller PercIBExp1 Prime_4N Target_9A feaJCdI fgcjBmC Incongruent left correct Normal 719.8781
807 144 LeftSmaller PercIBExp1 Prime_9N Target_6N GEkfJMb EjGIeiK Congruent right correct Normal 701.3554
807 145 LeftSmaller PercIBExp1 Prime_4A Target_6A JEMmFad EHCFDKd Incongruent left correct Normal 439.7615
807 146 LeftSmaller PercIBExp1 Prime_1N Target_1N JmFgCef diIKHlG Congruent right error Normal 597.0657
807 147 LeftSmaller PercIBExp1 Prime_6A Target_9N IcEBLKd mGaEHci Congruent left error Normal 981.1117
807 148 LeftSmaller PercIBExp1 Prime_4N Target_4A lGMjIHL bafJCBG Congruent left correct Normal 880.5396
807 149 LeftSmaller PercIBExp1 Prime_6N Target_1N KmgLbfF bGmFDcM Incongruent right correct Normal 672.8981
807 150 LeftSmaller PercIBExp1 Prime_6N Target_6A dJejDhE IfBkeGl Congruent right correct Normal 717.1199
807 151 LeftSmaller PercIBExp1 Prime_6A Target_9A aFhDELg mGdKJbM Congruent left error Normal 424.4095
807 152 LeftSmaller PercIBExp1 Prime_1A Target_4A elfgdMc DBFiECM Congruent left correct Normal 714.2282
807 153 LeftSmaller PercIBExp1 Prime_1A Target_6N KmIAdDE jGgmIha Incongruent right error Normal 808.2766
807 154 LeftSmaller PercIBExp1 Prime_9A Target_4N cfEeJBG fdCbigJ Incongruent right correct Normal 1046.689
