sub trial_no group_type block_type prime target mask1 mask2 congruency key_press key_error time_error RT
601 1 LeftLarger RTTaskAPrac Prime_4A Target_4N DMIKlJH abFLjcM Congruent right correct Late 1459.818
601 2 LeftLarger RTTaskAPrac Prime_9N Target_1N IKEjcgH BlcjiCI Incongruent right correct Late 1064.473
601 3 LeftLarger RTTaskAPrac Prime_1A Target_9A JDdhgek MijgDFd Incongruent left correct Late 1005.096
601 4 LeftLarger RTTaskAPrac Prime_6N Target_6A mhbGIAf bGiIfem Congruent left correct Late 1323.413
601 5 LeftLarger RTTaskAPrac Prime_4N Target_1A GgCkDKa gmlahLc Congruent right correct Normal 677.1187
601 6 LeftLarger RTTaskAPrac Prime_9N Target_1N jIbJkGa CmbKhjJ Incongruent right correct Normal 641.6405
601 7 LeftLarger RTTaskAPrac Prime_9N Target_4N AHEaCdh kDdIcGH Incongruent right correct Normal 945.8129
601 8 LeftLarger RTTaskAPrac Prime_6N Target_9A dheDkmi GDIBCbA Congruent left correct Normal 570.5021
601 9 LeftLarger RTTaskAPrac Prime_6A Target_4N HaKihFG eiChHgj Incongruent right correct Normal 943.0598
601 10 LeftLarger RTTaskAPrac Prime_6A Target_9N bAKlGjF jhgiGaK Congruent left correct Normal 719.6949
601 11 LeftLarger RTTaskAPrac Prime_4A Target_4N jMblaKJ DgmCkIe Congruent right correct Normal 800.0234
601 12 LeftLarger RTTaskAPrac Prime_6N Target_1A LHadDCl igMAIfk Incongruent right correct Normal 611.0681
601 13 LeftLarger RTTaskAPrac Prime_6A Target_4A cAjMbLH khdmgiK Incongruent right correct Normal 557.9751
601 14 LeftLarger RTTaskAPrac Prime_4A Target_6N HeEglMf dGjBKFa Incongruent right error Normal 736.3117
601 15 LeftLarger RTTaskAPrac Prime_4A Target_6N KEbcDFA bJdaMAF Incongruent left correct Late 1455.206
601 16 LeftLarger RTTaskAPrac Prime_9N Target_1A FjCEIgK JCHfeGd Incongruent right correct Normal 638.3008
601 17 LeftLarger RTTaskAPrac Prime_1A Target_9A agbJBIF cCBDhJL Incongruent left correct Normal 694.799
601 18 LeftLarger RTTaskAPrac Prime_4A Target_6N eGHCBfM egFMaCH Incongruent left correct Late 1683.081
601 19 LeftLarger RTTaskAPrac Prime_6N Target_6A bhfgdcE ICJekal Congruent left correct Normal 687.2463
601 20 LeftLarger RTTaskAPrac Prime_4N Target_9A JAKDLhM bdjDaEk Incongruent left correct Normal 500.6183
601 21 LeftLarger RTTaskAPrac Prime_4N Target_4A GildLac dLhEDKm Congruent right correct Normal 886.4149
601 22 LeftLarger RTTaskAPrac Prime_4A Target_6N GDhBCKE eFMBfgK Incongruent left correct Normal 630.6053
601 23 LeftLarger RTTaskAPrac Prime_1A Target_9N MbeGHhJ HbCcEeK Incongruent left correct Normal 611.2521
601 24 LeftLarger RTTaskAExp1 Prime_1A Target_1N DhMKkGI mEGgIdb Congruent right correct Normal 608.1588
601 25 LeftLarger RTTaskAExp1 Prime_4A Target_1N EBIcLmd ghiGlcD Congruent right correct Normal 456.7181
601 26 LeftLarger RTTaskAExp1 Prime_6A Target_6A fcaMelH icLdHfe Congruent left correct Normal 525.7528
601 27 LeftLarger RTTaskAExp1 Prime_6N Target_9N lBdfaDh ifbLlAC Congruent left correct Normal 594.5499
601 28 LeftLarger RTTaskAExp1 Prime_1N Target_1A kDheLJB GHMiJbC Congruent right correct Normal 450.2127
601 29 LeftLarger RTTaskAExp1 Prime_1A Target_9A LbeCGcI IHAJdFE Incongruent left correct Normal 648.3796
601 30 LeftLarger RTTaskAExp1 Prime_1N Target_6A ClDeGka JLbhKFk Incongruent left correct Normal 963.1742
601 31 LeftLarger RTTaskAExp1 Prime_6A Target_6N ImJajDF bIDhaAl Congruent left correct Normal 513.5985
601 32 LeftLarger RTTaskAExp1 Prime_9A Target_9A lJkhIMH KJkAHmh Congruent left correct Normal 502.1831
601 33 LeftLarger RTTaskAExp1 Prime_4N Target_4A bJHcBkd JCFIhiG Congruent right correct Normal 639.5536
601 34 LeftLarger RTTaskAExp1 Prime_9A Target_1N LEaedDA JdbDmcK Incongruent right correct Normal 638.0889
601 35 LeftLarger RTTaskAExp1 Prime_4N Target_6N KblfjMD fgBhiHl Incongruent left correct Normal 539.003
601 36 LeftLarger RTTaskAExp1 Prime_4A Target_9N djlFBhi BDFhgck Incongruent left correct Normal 587.1811
601 37 LeftLarger RTTaskAExp1 Prime_1N Target_9A eFmjGbK faHcMJl Incongruent left correct Normal 508.2142
601 38 LeftLarger RTTaskAExp1 Prime_9A Target_6A Cagkhld fhJCKiB Congruent left correct Normal 568.218
601 39 LeftLarger RTTaskAExp1 Prime_9A Target_6N LAhMjDF aAkmJBh Congruent left correct Normal 570.1847
601 40 LeftLarger RTTaskAExp1 Prime_4N Target_9N IhMgDFm bIHkhdC Incongruent left correct Normal 561.7195
601 41 LeftLarger RTTaskAExp1 Prime_4N Target_1N HCEfmKA IgFmKba Congruent right correct Normal 612.0408
601 42 LeftLarger RTTaskAExp1 Prime_1A Target_4A feFLjAk dhkBIDa Congruent right correct Normal 972.87
601 43 LeftLarger RTTaskAExp1 Prime_4A Target_4N eiclKaM JhDjiCf Congruent right correct Normal 945.987
601 44 LeftLarger RTTaskAExp1 Prime_1N Target_6N LMhiIBm CBMjfdH Incongruent left correct Normal 720.1895
601 45 LeftLarger RTTaskAExp1 Prime_1N Target_1N jBdcaHb lHadeDB Congruent right correct Normal 522.6544
601 46 LeftLarger RTTaskAExp1 Prime_6A Target_9A keKaEfc iHKGIdl Congruent left correct Normal 551.3779
601 47 LeftLarger RTTaskAExp1 Prime_6N Target_4N imldkHK bILMcCk Incongruent right correct Normal 883.6509
601 48 LeftLarger RTTaskAExp1 Prime_6N Target_1N cJhlgGd cEdFeKI Incongruent right correct Normal 604.4592
601 49 LeftLarger RTTaskAExp1 Prime_6A Target_9N bkCHBhc MBmeIjL Congruent left correct Normal 480.6572
601 50 LeftLarger RTTaskAExp1 Prime_6N Target_6A HdICDhK gJmGafk Congruent left correct Normal 814.4997
601 51 LeftLarger RTTaskAExp1 Prime_1N Target_4N AEmGHaf IjcFlMb Congruent right correct Late 1071.209
601 52 LeftLarger RTTaskAExp1 Prime_9N Target_1N jfbKmGD BKDEbGi Incongruent right correct Normal 528.0466
601 53 LeftLarger RTTaskAExp1 Prime_6N Target_1A iIFAKLJ IFjicdm Incongruent right correct Normal 432.7051
601 54 LeftLarger RTTaskAExp1 Prime_6A Target_4N HIbidBc ALdfMgK Incongruent right correct Late 1055.617
601 55 LeftLarger RTTaskAExp1 Prime_9N Target_6N FgmJkfc feLbKEm Congruent left correct Normal 797.1899
601 56 LeftLarger RTTaskAExp1 Prime_4N Target_9A KJdMFml fekAgDJ Incongruent left correct Normal 549.1242
601 57 LeftLarger RTTaskAExp1 Prime_9A Target_9N HkEDMfa IikaJBL Congruent left correct Normal 694.4078
601 58 LeftLarger RTTaskAExp1 Prime_9N Target_4A cdibhGm KlIFiEG Incongruent right correct Normal 576.1638
601 59 LeftLarger RTTaskAExp1 Prime_9A Target_4N keCmFjd fiCLFbK Incongruent right correct Normal 486.9817
601 60 LeftLarger RTTaskAExp1 Prime_4A Target_4A CbGejLM lecJmFf Congruent left error Normal 782.7797
601 61 LeftLarger RTTaskAExp1 Prime_4N Target_1A amFfliC FaBijME Congruent right correct Normal 520.8302
601 62 LeftLarger RTTaskAExp1 Prime_1N Target_9N jglbKLB JmaFibL Incongruent left correct Normal 608.3479
601 63 LeftLarger RTTaskAExp1 Prime_6N Target_9A MICHLKb mgFkGMj Congruent left correct Normal 591.1544
601 64 LeftLarger RTTaskAExp1 Prime_9N Target_1A bcKDgFk hMDmeLJ Incongruent right correct Normal 453.1303
601 65 LeftLarger RTTaskAExp1 Prime_1N Target_4A aIAEijL IBFEhAL Congruent left error Normal 666.4715
601 66 LeftLarger RTTaskAExp1 Prime_4A Target_1A mMGFIlk LKmbAgM Congruent right correct Normal 568.581
601 67 LeftLarger RTTaskAExp1 Prime_1A Target_4N jEkDIiM AJcIGhB Congruent right correct Normal 877.9368
601 68 LeftLarger RTTaskAExp1 Prime_4A Target_6A HKidlML JHhbmMD Incongruent left correct Normal 877.5403
601 69 LeftLarger RTTaskAExp1 Prime_6A Target_1A ImdHfLJ LCDlEaI Incongruent right correct Normal 656.5885
601 70 LeftLarger RTTaskAExp1 Prime_4A Target_9A EdJcLkH dGEHKfm Incongruent left correct Normal 568.3254
601 71 LeftLarger RTTaskAExp1 Prime_4A Target_6N EFGjBbJ KhMiJml Incongruent left correct Normal 770.6249
601 72 LeftLarger RTTaskAExp1 Prime_6A Target_1N ELHFiAg DcFaCjG Incongruent right correct Normal 513.7972
601 73 LeftLarger RTTaskAExp1 Prime_1N Target_4A afgGLJA EGAgiak Congruent right correct Normal 880.9046
601 74 LeftLarger RTTaskAExp1 Prime_9A Target_4A gdBkhHK MlgLeiF Incongruent right correct Normal 613.9341
601 75 LeftLarger RTTaskAExp1 Prime_6A Target_4A hjckfJm HADJMiF Incongruent right correct Late 1317.963
601 76 LeftLarger RTTaskAExp1 Prime_6A Target_4N kGmlDgH cHjhCJM Incongruent right correct Normal 585.9499
601 77 LeftLarger RTTaskAExp1 Prime_9A Target_1A CJFgIDk aDjFAmI Incongruent right correct Normal 617.4682
601 78 LeftLarger RTTaskAExp1 Prime_1A Target_1A KcjGiME hjfCLHI Congruent right correct Normal 417.639
601 79 LeftLarger RTTaskAExp1 Prime_6N Target_6N EfKMmlD CKkGihb Congruent left correct Normal 563.8133
601 80 LeftLarger RTTaskAExp1 Prime_6N Target_4A HGKakfi HKGCekm Incongruent right correct Normal 583.8605
601 81 LeftLarger RTTaskAExp1 Prime_1N Target_4N ImFcAli djmKFlh Congruent right correct Normal 703.1423
601 82 LeftLarger RTTaskAExp1 Prime_9N Target_4N AkKhCGI CfJLGAc Incongruent right correct Normal 462.727
601 83 LeftLarger RTTaskAExp1 Prime_1A Target_6A DdbFmIH AfihdaD Incongruent left correct Normal 557.4877
601 84 LeftLarger RTTaskAExp1 Prime_4N Target_6A aJleIHE ekAlLMB Incongruent left correct Normal 687.9256
601 85 LeftLarger RTTaskAExp1 Prime_4A Target_4A HBmAgJh AlkJiEd Congruent right correct Normal 501.2971
601 86 LeftLarger RTTaskAExp1 Prime_1A Target_6N hkGKbad HGIjciC Incongruent left correct Normal 699.5638
601 87 LeftLarger RTTaskAExp1 Prime_1A Target_9N HJBliIk glKCbAh Incongruent left correct Normal 583.7712
601 88 LeftLarger RTTaskAExp1 Prime_4N Target_4N GcemhdD ICDdGKj Congruent right correct Normal 409.9397
601 89 LeftLarger RTTaskAExp1 Prime_9N Target_6A EiglaKc kcCeGiF Congruent left correct Normal 727.2567
601 90 LeftLarger RTTaskAExp1 Prime_6A Target_4A ElLFbeB edhFflj Incongruent right correct Normal 598.7739
601 91 LeftLarger RTTaskAExp1 Prime_9N Target_9N CfiLIem miECjFa Congruent left correct Normal 507.4179
601 92 LeftLarger RTTaskAExp1 Prime_9N Target_9A LdHMfIl hmkKbDL Congruent left correct Normal 551.9856
601 93 LeftLarger RTTaskAExp2 Prime_1N Target_1A IkBedHj fhiblMJ Congruent right correct Normal 671.7019
601 94 LeftLarger RTTaskAExp2 Prime_9A Target_6A JecDkAm cHgAKmM Congruent left correct Normal 610.4184
601 95 LeftLarger RTTaskAExp2 Prime_4A Target_1A mECKlci kaLIgeA Congruent right correct Normal 468.2211
601 96 LeftLarger RTTaskAExp2 Prime_4N Target_6N JFifdlA HjJklcd Incongruent left correct Normal 486.8696
601 97 LeftLarger RTTaskAExp2 Prime_1N Target_4N kLbEFCi kGijFLf Congruent right correct Normal 679.7896
601 98 LeftLarger RTTaskAExp2 Prime_1N Target_9N AMCFHcD glGdKeM Incongruent left correct Normal 513.694
601 99 LeftLarger RTTaskAExp2 Prime_9A Target_9N HgeIadm hkbfFCD Congruent left correct Normal 626.7326
601 100 LeftLarger RTTaskAExp2 Prime_9A Target_9A CecikGd KLdGmAf Congruent left correct Normal 571.674
601 101 LeftLarger RTTaskAExp2 Prime_4A Target_9N kafFGld clmhbBd Incongruent left correct Normal 563.158
601 102 LeftLarger RTTaskAExp2 Prime_9N Target_1N hlIDfMA iechjBD Incongruent right correct Normal 564.6291
601 103 LeftLarger RTTaskAExp2 Prime_9A Target_4N dlbjkGF efBigaG Incongruent right correct Late 1187.17
601 104 LeftLarger RTTaskAExp2 Prime_9A Target_4A mFAiJMk jhbdcEm Incongruent right correct Normal 932.9825
601 105 LeftLarger RTTaskAExp2 Prime_6N Target_6A bEkBJAH LcBCafl Congruent left correct Normal 496.6678
601 106 LeftLarger RTTaskAExp2 Prime_1A Target_6A MAbLDKG jGChMEd Incongruent left correct Normal 536.1716
601 107 LeftLarger RTTaskAExp2 Prime_6A Target_1N HiDJLIf DagGmBk Incongruent right correct Normal 570.3038
601 108 LeftLarger RTTaskAExp2 Prime_9A Target_1A kmHCBAf DkJaGEK Incongruent right correct Normal 541.4868
601 109 LeftLarger RTTaskAExp2 Prime_6A Target_6N eKmjGaM ejKHEAC Congruent left correct Normal 633.7772
601 110 LeftLarger RTTaskAExp2 Prime_6N Target_1N GLJICjA lFcmBfb Incongruent right correct Normal 585.9461
601 111 LeftLarger RTTaskAExp2 Prime_4N Target_4N HAGFBjc kKmifGb Congruent right correct Normal 680.9757
601 112 LeftLarger RTTaskAExp2 Prime_1N Target_6A iCILKfG eElFjCf Incongruent left correct Normal 620.5956
601 113 LeftLarger RTTaskAExp2 Prime_6A Target_1A EBmkbMI HmdgbGC Incongruent right correct Normal 399.6178
601 114 LeftLarger RTTaskAExp2 Prime_9N Target_9A IjHmcgL IdAbLhf Congruent left correct Normal 571.9296
601 115 LeftLarger RTTaskAExp2 Prime_4A Target_4N KHbIhGf hELHAbC Congruent right correct Late 1016.643
601 116 LeftLarger RTTaskAExp2 Prime_4N Target_1N MiLeDfC mhCeaIG Congruent right correct Normal 594.1418
601 117 LeftLarger RTTaskAExp2 Prime_6N Target_4N ILHFjhf MbIDmBF Incongruent right correct Normal 628.2885
601 118 LeftLarger RTTaskAExp2 Prime_9N Target_4N LmcEAdG JaHdKem Incongruent right correct Normal 606.6255
601 119 LeftLarger RTTaskAExp2 Prime_4A Target_6N HdFLmaK lfJBgck Incongruent left correct Normal 570.6353
601 120 LeftLarger RTTaskAExp2 Prime_4A Target_4N mcaEMID MJBKECi Congruent right correct Normal 468.9576
601 121 LeftLarger RTTaskAExp2 Prime_4A Target_6A BhFegic cAabjJM Incongruent left correct Normal 550.3697
601 122 LeftLarger RTTaskAExp2 Prime_1A Target_4A CEHkGeh jBamibH Congruent right correct Normal 621.6446
601 123 LeftLarger RTTaskAExp2 Prime_4N Target_9A AMFhilL KDalIiF Incongruent left correct Normal 528.8349
601 124 LeftLarger RTTaskAExp2 Prime_6N Target_9A eHgjBMd geGEFHB Congruent left correct Normal 676.4683
601 125 LeftLarger RTTaskAExp2 Prime_6A Target_6A jdehDKL BGmEHFK Congruent left correct Late 1050.92
601 126 LeftLarger RTTaskAExp2 Prime_6N Target_1A lKmEjIe jhFgLAI Incongruent right correct Normal 459.9521
601 127 LeftLarger RTTaskAExp2 Prime_6A Target_6A lKcjahb kDgfjeC Congruent left correct Normal 501.6503
601 128 LeftLarger RTTaskAExp2 Prime_4A Target_9A mLifCKD LBlfgCD Incongruent left correct Normal 567.2328
601 129 LeftLarger RTTaskAExp2 Prime_1A Target_4N EiLlMAB LeGBjkE Congruent right correct Normal 509.7208
601 130 LeftLarger RTTaskAExp2 Prime_9A Target_1N algfCEJ haJiMGg Incongruent right correct Normal 524.1505
601 131 LeftLarger RTTaskAExp2 Prime_1N Target_4A EKlDMIe LiecgEG Congruent right correct Normal 581.0618
601 132 LeftLarger RTTaskAExp2 Prime_1N Target_1N cKdCDEf hIjJlck Congruent right correct Normal 466.9302
601 133 LeftLarger RTTaskAExp2 Prime_9A Target_6N FLGEfIH MhFDmEf Congruent left correct Normal 709.3996
601 134 LeftLarger RTTaskAExp2 Prime_1A Target_1A HemKJbD jCaFkLf Congruent right correct Normal 413.6449
601 135 LeftLarger RTTaskAExp2 Prime_6A Target_4N CgFiEDm fKhHeAj Incongruent right correct Normal 672.0009
601 136 LeftLarger RTTaskAExp2 Prime_6A Target_9A dGIcBAg LfMDkEb Congruent left correct Normal 575.604
601 137 LeftLarger RTTaskAExp2 Prime_9N Target_6N gkcBIAF AjkcFmK Congruent right error Normal 643.1958
601 138 LeftLarger RTTaskAExp2 Prime_4N Target_4A AMCIadi ECALGfI Congruent right correct Normal 508.0989
601 139 LeftLarger RTTaskAExp2 Prime_4A Target_4A BDIcgme AhHmEID Congruent right correct Normal 661.2412
601 140 LeftLarger RTTaskAExp2 Prime_9N Target_1A fDbCJAa GeCAkfM Incongruent right correct Normal 551.6573
601 141 LeftLarger RTTaskAExp2 Prime_9N Target_4A FcMBJLm eAlDGdC Incongruent right correct Normal 552.8977
601 142 LeftLarger RTTaskAExp2 Prime_9N Target_6A fCEjhcB fcBFaJj Congruent left correct Normal 657.6837
601 143 LeftLarger RTTaskAExp2 Prime_4N Target_6A JIjDEdL gEHjmFh Incongruent left correct Normal 669.2331
601 144 LeftLarger RTTaskAExp2 Prime_9A Target_4N lGFjLKC HdbhDkC Incongruent left error Late 1340.006
601 145 LeftLarger RTTaskAExp2 Prime_1A Target_1N kFahKJi elimcBH Congruent right correct Normal 462.7191
601 146 LeftLarger RTTaskAExp2 Prime_1A Target_6N KFalgbI GBILadA Incongruent right error Late 10011.07
601 147 LeftLarger RTTaskAExp2 Prime_6A Target_9N icJBhbk BGdfhDc Congruent left correct Normal 653.4948
601 148 LeftLarger RTTaskAExp2 Prime_4A Target_1N DegEkbB mbCGdDM Congruent right correct Normal 585.0344
601 149 LeftLarger RTTaskAExp2 Prime_4N Target_1A MEgCHBL IEDjAkf Congruent right correct Normal 514.2105
601 150 LeftLarger RTTaskAExp2 Prime_1A Target_6N adfKEgb IkFGAcK Incongruent left correct Normal 664.8617
601 151 LeftLarger RTTaskAExp2 Prime_1A Target_9N fFAClcG dCifJDK Incongruent left correct Normal 688.0349
601 152 LeftLarger RTTaskAExp2 Prime_9N Target_9N bmBjGCE FjaIkBl Congruent left correct Normal 725.5338
601 153 LeftLarger RTTaskAExp2 Prime_4N Target_9N mkLhDIB JHgEjal Incongruent left correct Normal 636.2428
601 154 LeftLarger RTTaskAExp2 Prime_6N Target_9N cmACJdI kBdGChL Congruent left correct Normal 783.1773
601 155 LeftLarger RTTaskAExp2 Prime_9A Target_4N KDieALk fjcLBGk Incongruent right correct Late 1068.704
601 156 LeftLarger RTTaskAExp2 Prime_1A Target_9A mMLhfal DdJjckG Incongruent left correct Normal 601.3836
601 157 LeftLarger RTTaskAExp2 Prime_1N Target_6N fdkGbDF cCbdJIE Incongruent left correct Normal 737.4182
601 158 LeftLarger RTTaskAExp2 Prime_1N Target_9A IEHbfKh KAJBaIh Incongruent left correct Normal 773.1335
601 159 LeftLarger RTTaskAExp2 Prime_6N Target_6N cMbeahH dgeBKDC Congruent left correct Normal 865.2914
601 160 LeftLarger RTTaskAExp2 Prime_9N Target_6N dFiLcIK HJDEGIh Congruent left correct Normal 651.0446
601 161 LeftLarger RTTaskAExp2 Prime_6N Target_4A EdhalKk dCehKDf Incongruent right correct Normal 751.0008
601 162 LeftLarger RTTaskAExp2 Prime_6A Target_4A EJfgeKh bEkFgji Incongruent right correct Late 2856.449
601 163 LeftLarger RTTaskAExp2 Prime_6A Target_4A jhDKmiH KFEIAeg Incongruent right correct Normal 574.5373
601 164 LeftLarger RTTaskAExp2 Prime_9A Target_4N jDAHBlc LfiIGkj Incongruent right correct Normal 444.7088
601 165 LeftSmaller RTTaskBPrac Prime_9A Target_4N abiLMAJ ljALCfE Incongruent left correct Normal 661.957
601 166 LeftSmaller RTTaskBPrac Prime_4A Target_4N EJjDKha KgEBkmf Congruent left correct Normal 689.7572
601 167 LeftSmaller RTTaskBPrac Prime_1N Target_9N KCmaDJd EFbDkLI Incongruent right correct Normal 526.0363
601 168 LeftSmaller RTTaskBPrac Prime_9A Target_9A gALmBhj IEdmbBA Congruent right correct Normal 559.9226
601 169 LeftSmaller RTTaskBPrac Prime_4N Target_6N BclhiId BjLMmAe Incongruent right correct Normal 627.8701
601 170 LeftSmaller RTTaskBPrac Prime_6A Target_4N JGKAmLE jdKcfCi Incongruent left correct Normal 663.806
601 171 LeftSmaller RTTaskBPrac Prime_9N Target_4A gLmIHKD beglBfm Incongruent left correct Normal 790.2267
601 172 LeftSmaller RTTaskBPrac Prime_9A Target_6A KmfJjeD DCjbfaJ Congruent right correct Normal 611.0055
601 173 LeftSmaller RTTaskBPrac Prime_4N Target_4A ajGMAFL lkLCjfi Congruent left correct Normal 643.1863
601 174 LeftSmaller RTTaskBPrac Prime_1N Target_4A gmkhdJa bdKmjkG Congruent left correct Normal 680.4874
601 175 LeftSmaller RTTaskBPrac Prime_1N Target_6N mdjFDIa DamlHjI Incongruent right correct Normal 511.5298
601 176 LeftSmaller RTTaskBPrac Prime_6N Target_6N KfFghiA DBmjIEG Congruent right correct Normal 590.2557
601 177 LeftSmaller RTTaskBPrac Prime_4A Target_9A JBLHMAC djgEiHa Incongruent right correct Normal 648.8638
601 178 LeftSmaller RTTaskBPrac Prime_1N Target_1N FmHAfea ecLIDEj Congruent left correct Normal 496.814
601 179 LeftSmaller RTTaskBPrac Prime_1A Target_6N gkhcdIe mDkeGch Incongruent right correct Normal 599.5606
601 180 LeftSmaller RTTaskBPrac Prime_1A Target_1A aDhgeMC ilCdAJk Congruent left correct Normal 644.6187
601 181 LeftSmaller RTTaskBExp1 Prime_9A Target_4A lHcdjAm gJBMFhl Incongruent left correct Normal 623.469
601 182 LeftSmaller RTTaskBExp1 Prime_1N Target_4A bgaDKlF iJEbdfL Congruent left correct Normal 662.8487
601 183 LeftSmaller RTTaskBExp1 Prime_1A Target_4N IgAdLHK ijEcgFa Congruent left correct Normal 735.8004
601 184 LeftSmaller RTTaskBExp1 Prime_9A Target_6A emjLFcM BhFCcaJ Congruent right correct Normal 492.9776
601 185 LeftSmaller RTTaskBExp1 Prime_6N Target_6A jilcafe eKChBdF Congruent right correct Normal 562.8924
601 186 LeftSmaller RTTaskBExp1 Prime_4N Target_6N AgKGLeM MijbFmE Incongruent right correct Normal 659.3891
601 187 LeftSmaller RTTaskBExp1 Prime_4A Target_6A KjdmblH gmJCfkA Incongruent right correct Normal 580.8667
601 188 LeftSmaller RTTaskBExp1 Prime_6A Target_4N MhKmgcl CfjgamA Incongruent left correct Normal 824.85
601 189 LeftSmaller RTTaskBExp1 Prime_1N Target_1N bldMFaj BlJkdKi Congruent left correct Normal 948.1891
601 190 LeftSmaller RTTaskBExp1 Prime_1A Target_1N DEicCLA BhDfkcC Congruent left correct Normal 703.2235
601 191 LeftSmaller RTTaskBExp1 Prime_6N Target_9A eFhfLlG mbkLiJc Congruent right correct Normal 638.0359
601 192 LeftSmaller RTTaskBExp1 Prime_1A Target_1A JhmcMGg idLDkml Congruent left correct Normal 530.9582
601 193 LeftSmaller RTTaskBExp1 Prime_4A Target_4N cChiFJK DedhliK Congruent left correct Normal 796.96
601 194 LeftSmaller RTTaskBExp1 Prime_6A Target_1N mhdMEHI cGagjhf Incongruent left correct Normal 837.4233
601 195 LeftSmaller RTTaskBExp1 Prime_9A Target_9N BfJFClE ejfdgLb Congruent right correct Normal 692.8544
601 196 LeftSmaller RTTaskBExp1 Prime_6N Target_4N fHiamLd EIDKjBC Incongruent left correct Normal 571.3777
601 197 LeftSmaller RTTaskBExp1 Prime_4N Target_1N BDMbhjd AIlBcEh Congruent left correct Normal 637.7941
601 198 LeftSmaller RTTaskBExp1 Prime_4A Target_1N jCEdkfc hAiCKME Congruent left correct Normal 597.3384
601 199 LeftSmaller RTTaskBExp1 Prime_6A Target_6A hjKEdlL lmcdBAH Congruent right correct Normal 775.4954
601 200 LeftSmaller RTTaskBExp1 Prime_4N Target_9A IJKABEa JlgjCFi Incongruent right correct Normal 656.6788
601 201 LeftSmaller RTTaskBExp1 Prime_6N Target_1N dHFleGA cCjgKmD Incongruent left correct Normal 694.851
601 202 LeftSmaller RTTaskBExp1 Prime_6N Target_1A fCeGDmk KIBdlbg Incongruent left correct Normal 647.532
601 203 LeftSmaller RTTaskBExp1 Prime_1N Target_9A LGheHjJ bLkIdGC Incongruent right correct Normal 676.9515
601 204 LeftSmaller RTTaskBExp1 Prime_4A Target_4A DFKfclJ DKFkbiI Congruent left correct Normal 700.8028
601 205 LeftSmaller RTTaskBExp1 Prime_4N Target_1A KJbmFHA JHAgELh Congruent left correct Normal 564.2918
601 206 LeftSmaller RTTaskBExp1 Prime_1N Target_9N fkjGJDL fGAmDhB Incongruent right correct Normal 775.1236
601 207 LeftSmaller RTTaskBExp1 Prime_9A Target_6N hfjHDmA jbFikld Congruent right correct Late 1225.454
601 208 LeftSmaller RTTaskBExp1 Prime_1A Target_9N IlmdBej icDFMgK Incongruent right correct Normal 571.5214
601 209 LeftSmaller RTTaskBExp1 Prime_1A Target_4A EibDCdF LJhlDGA Congruent left correct Late 1112.224
601 210 LeftSmaller RTTaskBExp1 Prime_9N Target_9N cbkhlDi hjmlcKg Congruent right correct Normal 466.153
601 211 LeftSmaller RTTaskBExp1 Prime_9N Target_6A GAHJgiC AaghliE Congruent right correct Normal 614.8418
601 212 LeftSmaller RTTaskBExp1 Prime_9A Target_4N higaHFD JGEfDbF Incongruent left correct Normal 750.4907
601 213 LeftSmaller RTTaskBExp1 Prime_9A Target_1N AfdeDCb MDkgHhb Incongruent left correct Normal 706.6276
601 214 LeftSmaller RTTaskBExp1 Prime_4N Target_9N LDlGamb LABgbie Incongruent right correct Normal 522.3489
601 215 LeftSmaller RTTaskBExp1 Prime_9N Target_1A glHMjBh jlHMBDF Incongruent left correct Normal 534.901
601 216 LeftSmaller RTTaskBExp1 Prime_6N Target_4A mHJDGjb kBbhAHK Incongruent left correct Normal 623.8077
601 217 LeftSmaller RTTaskBExp1 Prime_4A Target_9A DjAahEm iFaedbM Incongruent right correct Normal 387.4497
601 218 LeftSmaller RTTaskBExp1 Prime_1N Target_4N hBdAKLM gjICAlB Congruent left correct Normal 628.1707
601 219 LeftSmaller RTTaskBExp1 Prime_9A Target_9A IHGjefk lLKmJih Congruent right correct Normal 461.4321
601 220 LeftSmaller RTTaskBExp1 Prime_9N Target_1N aeLKHAF CBaKkhG Incongruent left correct Normal 636.6213
601 221 LeftSmaller RTTaskBExp1 Prime_6A Target_9A aiKDHkl LbMcdAf Congruent right correct Normal 422.9169
601 222 LeftSmaller RTTaskBExp1 Prime_4A Target_9N mkIeDCH MJLCbgH Incongruent right correct Normal 623.8198
601 223 LeftSmaller RTTaskBExp1 Prime_9A Target_1A cmaFeKD aDGcBJC Incongruent left correct Normal 488.4344
601 224 LeftSmaller RTTaskBExp1 Prime_1A Target_9A igFaGCk AGhDdMJ Incongruent right correct Normal 442.2884
601 225 LeftSmaller RTTaskBExp1 Prime_4N Target_4N JLgDfkF JECmiBH Congruent left correct Normal 725.0475
601 226 LeftSmaller RTTaskBExp1 Prime_6A Target_9N kiAlLGJ iJlDBfg Congruent right correct Normal 598.8599
601 227 LeftSmaller RTTaskBExp1 Prime_9N Target_4A DahCJbG HKAkJGL Incongruent left correct Normal 635.6532
601 228 LeftSmaller RTTaskBExp1 Prime_4N Target_4A MlEFdaD dabcmMg Congruent left correct Normal 665.9624
601 229 LeftSmaller RTTaskBExp1 Prime_9N Target_6N BJekimL bGmheML Congruent right correct Normal 399.6758
601 230 LeftSmaller RTTaskBExp1 Prime_6N Target_6N ieLjadg hCdilLb Congruent right correct Normal 845.1484
601 231 LeftSmaller RTTaskBExp1 Prime_9A Target_6N BefIaDh BEdDkgL Congruent right correct Normal 435.5671
601 232 LeftSmaller RTTaskBExp1 Prime_1A Target_6A JMHAClD AkbdcjC Incongruent right correct Normal 634.7354
601 233 LeftSmaller RTTaskBExp1 Prime_1N Target_1A MhHbjDA BdFGKCE Congruent left correct Normal 536.1422
601 234 LeftSmaller RTTaskBExp1 Prime_6A Target_1A hGDcjHa mAFiMLa Incongruent left correct Normal 512.0694
601 235 LeftSmaller RTTaskBExp1 Prime_4N Target_6A GMEIJLF bEKiIjd Incongruent right correct Normal 546.5915
601 236 LeftSmaller RTTaskBExp1 Prime_6A Target_4A FbfmDHM GMfeHiA Incongruent right error Normal 479.6649
601 237 LeftSmaller RTTaskBExp1 Prime_1N Target_6A CiBjLfe gAjeClH Incongruent right correct Normal 728.0473
601 238 LeftSmaller RTTaskBExp1 Prime_1A Target_6N hKIAEjC djAEBhD Incongruent right correct Normal 618.1569
601 239 LeftSmaller RTTaskBExp1 Prime_9N Target_4N Bmkclga kHGDKbg Incongruent left correct Normal 492.3827
601 240 LeftSmaller RTTaskBExp1 Prime_1A Target_4A jJidfCI ejfgdia Congruent left correct Normal 590.7179
601 241 LeftSmaller RTTaskBExp1 Prime_9N Target_9A FEdeKBM MhLgBAJ Congruent right correct Normal 494.4111
601 242 LeftSmaller RTTaskBExp1 Prime_4A Target_1A ahKkIFL mBDhHdg Congruent left correct Normal 486.5582
601 243 LeftSmaller RTTaskBExp1 Prime_1N Target_6N HbgJfGm lBFihCk Incongruent right correct Normal 829.8478
601 244 LeftSmaller RTTaskBExp1 Prime_4A Target_6N gjmfcDM mCeLbgH Incongruent right correct Normal 901.0799
601 245 LeftSmaller RTTaskBExp1 Prime_6N Target_9N GkLblDK MiGCgAj Congruent right correct Normal 603.9374
601 246 LeftSmaller RTTaskBExp1 Prime_6A Target_6N DbBMcAF hEkijfa Congruent right correct Normal 435.0009
601 247 LeftSmaller RTTaskBExp1 Prime_6A Target_4A mHJhifk EJfDhMb Incongruent left correct Normal 599.1541
601 248 LeftSmaller RTTaskBExp2 Prime_9N Target_1A IlcHefk bacmfDI Incongruent left correct Normal 497.8763
601 249 LeftSmaller RTTaskBExp2 Prime_6A Target_4A LDiAFCB GIFjElf Incongruent right error Normal 392.9259
601 250 LeftSmaller RTTaskBExp2 Prime_9N Target_4N EimCAJe EMbdhAc Incongruent left correct Normal 884.7015
601 251 LeftSmaller RTTaskBExp2 Prime_6N Target_6N bJFmfKI CLMAJfl Congruent right correct Normal 643.0377
601 252 LeftSmaller RTTaskBExp2 Prime_4N Target_9A GKcBFgh geaDFmc Incongruent right correct Normal 627.905
601 253 LeftSmaller RTTaskBExp2 Prime_1A Target_9A ImAJCaE KbHDeAM Incongruent right correct Normal 554.8301
601 254 LeftSmaller RTTaskBExp2 Prime_4N Target_4A BFKilGf FIEHAKd Congruent left correct Normal 616.0252
601 255 LeftSmaller RTTaskBExp2 Prime_1A Target_6N DifjKah LeHmbBM Incongruent right correct Normal 867.2008
601 256 LeftSmaller RTTaskBExp2 Prime_6A Target_9N jmlkJKD aLGJghm Congruent right correct Normal 667.6141
601 257 LeftSmaller RTTaskBExp2 Prime_6A Target_1N KLIjhdg blfHMCh Incongruent left correct Normal 631.0461
601 258 LeftSmaller RTTaskBExp2 Prime_6N Target_4N FafCjeH bLIaiJf Incongruent left correct Normal 884.4841
601 259 LeftSmaller RTTaskBExp2 Prime_4A Target_6A CGlkfMa iKGgade Incongruent right correct Normal 536.3661
601 260 LeftSmaller RTTaskBExp2 Prime_4A Target_4A hLljgBf AaHFgDb Congruent left correct Normal 615.8112
601 261 LeftSmaller RTTaskBExp2 Prime_1A Target_9N IcEJmMl cEdMIfb Incongruent right correct Normal 561.1029
601 262 LeftSmaller RTTaskBExp2 Prime_1A Target_6A mEdABKe MJcahHk Incongruent right correct Normal 752.2704
601 263 LeftSmaller RTTaskBExp2 Prime_9N Target_6N cbKFEJM HjCkDGe Congruent right correct Late 1062.183
601 264 LeftSmaller RTTaskBExp2 Prime_9N Target_9A BGKJhCD MjmfcAd Congruent right correct Normal 455.2056
601 265 LeftSmaller RTTaskBExp2 Prime_9A Target_4N DKiHLdh ifkCmeg Incongruent left correct Normal 726.1672
601 266 LeftSmaller RTTaskBExp2 Prime_6N Target_1A imgIkca JDeLfAF Incongruent left correct Late 1109.212
601 267 LeftSmaller RTTaskBExp2 Prime_6N Target_4A CdLeMIl MKFkaed Incongruent left correct Normal 580.8536
601 268 LeftSmaller RTTaskBExp2 Prime_9N Target_6N MkaKmcG hDgmKLk Congruent right correct Normal 398.3261
601 269 LeftSmaller RTTaskBExp2 Prime_6A Target_9A EjlJaHL ehkBLJb Congruent right correct Normal 595.1408
601 270 LeftSmaller RTTaskBExp2 Prime_9N Target_4A LkeiCKj cjgIAKm Incongruent left correct Normal 487.4771
601 271 LeftSmaller RTTaskBExp2 Prime_4A Target_9N BaFHEbi halFbBe Incongruent right correct Normal 611.322
601 272 LeftSmaller RTTaskBExp2 Prime_1A Target_1N eACdFMf iFeLgjf Congruent left correct Normal 504.3665
601 273 LeftSmaller RTTaskBExp2 Prime_9A Target_9A eMghGLH AFGfhgL Congruent right correct Normal 453.9964
601 274 LeftSmaller RTTaskBExp2 Prime_1N Target_4A HJAdMml bmjdiCa Congruent left correct Normal 401.5878
601 275 LeftSmaller RTTaskBExp2 Prime_4A Target_1N EcLhIiM ACcghDd Congruent left correct Normal 678.1974
601 276 LeftSmaller RTTaskBExp2 Prime_4A Target_9A JACBjhD GJcgMCB Incongruent right correct Normal 468.0332
601 277 LeftSmaller RTTaskBExp2 Prime_6N Target_1A iAeHDdb dLhjAIb Incongruent left correct Normal 522.9493
601 278 LeftSmaller RTTaskBExp2 Prime_9A Target_4A iHAdmjl ehAgbGk Incongruent left correct Normal 742.9294
601 279 LeftSmaller RTTaskBExp2 Prime_6N Target_9A LDJalGk iaFjdmE Congruent right correct Normal 376.1175
601 280 LeftSmaller RTTaskBExp2 Prime_9N Target_1N cEDhgFI GbidELK Incongruent left correct Normal 511.9862
601 281 LeftSmaller RTTaskBExp2 Prime_6A Target_6N BkmCjGc kcEmGAH Congruent right correct Normal 551.7486
601 282 LeftSmaller RTTaskBExp2 Prime_1N Target_9N gbjLldI DfEigIH Incongruent left error Normal 394.7844
601 283 LeftSmaller RTTaskBExp2 Prime_4A Target_1A HafdkcC gLcdFMB Congruent left correct Normal 512.3454
601 284 LeftSmaller RTTaskBExp2 Prime_9A Target_6N gFJlILA KGdDgme Congruent right correct Normal 379.1623
601 285 LeftSmaller RTTaskBExp2 Prime_9A Target_9N CjLcmGf achmIGe Congruent right correct Normal 471.1436
601 286 LeftSmaller RTTaskBExp2 Prime_1A Target_4N cKiblhe DIFiEeC Congruent left correct Late 1137.949
601 287 LeftSmaller RTTaskBExp2 Prime_6A Target_1A DhflAMg hEAjHic Incongruent left correct Normal 552.4378
601 288 LeftSmaller RTTaskBExp2 Prime_1N Target_1N MfgGiLB HeCcBGM Congruent left correct Normal 623.6873
601 289 LeftSmaller RTTaskBExp2 Prime_1N Target_1A IacKMLg jELaAmf Congruent left correct Normal 546.6206
601 290 LeftSmaller RTTaskBExp2 Prime_6N Target_6A BhiJeAC KbgjfhM Congruent right correct Normal 546.1074
601 291 LeftSmaller RTTaskBExp2 Prime_1N Target_6A LFEhGkC GhFKmkc Incongruent right correct Normal 476.1925
601 292 LeftSmaller RTTaskBExp2 Prime_9A Target_1N aJcekhf fbMgcKB Incongruent left correct Normal 734.7415
601 293 LeftSmaller RTTaskBExp2 Prime_9A Target_6A iEJChHf HdLbkal Congruent right correct Normal 768.907
601 294 LeftSmaller RTTaskBExp2 Prime_6A Target_6A lkDMhfa IKdJkBL Congruent right correct Normal 483.9469
601 295 LeftSmaller RTTaskBExp2 Prime_6N Target_9N jMFKcLb DFiGdAj Congruent right correct Normal 513.2575
601 296 LeftSmaller RTTaskBExp2 Prime_4A Target_6N jJAEhGi CajmMDd Incongruent right correct Normal 633.5552
601 297 LeftSmaller RTTaskBExp2 Prime_4A Target_4N blfCecj HFfjcEa Congruent left correct Normal 761.7184
601 298 LeftSmaller RTTaskBExp2 Prime_6A Target_4A dKjkeiJ haCGlIm Incongruent left correct Normal 643.121
601 299 LeftSmaller RTTaskBExp2 Prime_4N Target_1N LifBbaF aDFHKmg Congruent left correct Normal 716.2967
601 300 LeftSmaller RTTaskBExp2 Prime_6A Target_4N egmALlK JeGjALM Incongruent left correct Normal 689.9125
601 301 LeftSmaller RTTaskBExp2 Prime_4N Target_6N KleBCJE HmCfAjJ Incongruent right correct Normal 784.5192
601 302 LeftSmaller RTTaskBExp2 Prime_4N Target_1A LelhAic HkCGjEc Congruent left correct Normal 528.153
601 303 LeftSmaller RTTaskBExp2 Prime_1A Target_1A bacHMLj jKLGfei Congruent left correct Normal 606.4151
601 304 LeftSmaller RTTaskBExp2 Prime_1N Target_9N HFMKIea IMEljKA Incongruent right correct Normal 650.009
601 305 LeftSmaller RTTaskBExp2 Prime_4N Target_4N gadbGMh bLHBJIK Congruent left correct Normal 617.9284
601 306 LeftSmaller RTTaskBExp2 Prime_1A Target_4A AkFIgif jiHcalh Congruent left correct Normal 606.8635
601 307 LeftSmaller RTTaskBExp2 Prime_1N Target_4N AjLdJHE GbcLIaJ Congruent left correct Normal 788.396
601 308 LeftSmaller RTTaskBExp2 Prime_9A Target_1A gjCdlED MGjFikg Incongruent left correct Normal 600.8283
601 309 LeftSmaller RTTaskBExp2 Prime_4N Target_6A AajBECI eMfJBaG Incongruent right correct Normal 902.4039
601 310 LeftSmaller RTTaskBExp2 Prime_6N Target_1N bgfmcea jIihLEJ Incongruent left correct Normal 560.6222
601 311 LeftSmaller RTTaskBExp2 Prime_4N Target_9N jeiBcGg kAIDHcE Incongruent right correct Normal 621.4544
601 312 LeftSmaller RTTaskBExp2 Prime_1A Target_4N KeHaLic KdmMhjC Congruent left correct Late 1144.24
601 313 LeftSmaller RTTaskBExp2 Prime_9N Target_9N jeGBcIC bGmCJAL Congruent right correct Normal 536.4484
601 314 LeftSmaller RTTaskBExp2 Prime_1N Target_9A eibCAjl idJgfFD Incongruent right correct Normal 620.1195
601 315 LeftSmaller RTTaskBExp2 Prime_1A Target_4N IdCLikH EhJfGaM Congruent right error Normal 553.2765
601 316 LeftSmaller RTTaskBExp2 Prime_1N Target_6N cLCIGmi eEIJgcB Incongruent right correct Normal 733.5973
601 317 LeftSmaller RTTaskBExp2 Prime_1A Target_4N felCkDg GAEelJc Congruent left correct Normal 840.8786
601 318 LeftSmaller RTTaskBExp2 Prime_9N Target_6A ILEijkK FbjfkJK Congruent right correct Normal 997.6407
602 1 LeftLarger RTTaskAPrac Prime_9A Target_4N EFaiehI BMcAeEj Incongruent right correct Late 1369.499
602 2 LeftLarger RTTaskAPrac Prime_6A Target_4A LMecAkf DEbHKjg Incongruent left error Late 1000.029
602 3 LeftLarger RTTaskAPrac Prime_9N Target_9A fgLCbcD eMkfmja Congruent left correct Late 1151.334
602 4 LeftLarger RTTaskAPrac Prime_6A Target_9N ebakGHB ABdGeEh Congruent left correct Normal 507.5521
602 5 LeftLarger RTTaskAPrac Prime_6A Target_6N mhEijfH iGIleJD Congruent left correct Normal 578.6011
602 6 LeftLarger RTTaskAPrac Prime_6N Target_6N EhAFima LliHEgD Congruent left correct Normal 478.1255
602 7 LeftLarger RTTaskAPrac Prime_1A Target_6N JLjkhCc iKhDEBJ Incongruent left correct Normal 360.0578
602 8 LeftLarger RTTaskAPrac Prime_1N Target_9A cIMBgiD CbaKBiA Incongruent left correct Normal 464.9087
602 9 LeftLarger RTTaskAPrac Prime_9N Target_9A MgCbBmk CHkFBaI Congruent left correct Normal 407.6238
602 10 LeftLarger RTTaskAPrac Prime_4N Target_9A dJBjkHc JmahkbD Incongruent left correct Normal 451.178
602 11 LeftLarger RTTaskAPrac Prime_1A Target_6A LBKljbE hIAgHbj Incongruent left correct Normal 696.3026
602 12 LeftLarger RTTaskAPrac Prime_9A Target_4A AHgJfKa kIDHJeb Incongruent right correct Normal 544.1429
602 13 LeftLarger RTTaskAPrac Prime_9A Target_9N EciJkmj DJEjLdk Congruent left correct Normal 462.7756
602 14 LeftLarger RTTaskAPrac Prime_6A Target_4A IfgcBbM LJfCHmA Incongruent right correct Normal 674.4485
602 15 LeftLarger RTTaskAPrac Prime_6A Target_1A jIbecgF MIcaDhA Incongruent right correct Normal 704.9606
602 16 LeftLarger RTTaskAPrac Prime_1N Target_4A lgcmbak EIadcKj Congruent left error Normal 501.1207
602 17 LeftLarger RTTaskAPrac Prime_1N Target_4A lJIFejb KJfElab Congruent right correct Normal 436.7211
602 18 LeftLarger RTTaskAPrac Prime_9A Target_4N EiKBbAJ CBDjJaf Incongruent right correct Normal 485.5968
602 19 LeftLarger RTTaskAPrac Prime_1N Target_9N KgfjblJ gdCMKEe Incongruent left correct Normal 625.1732
602 20 LeftLarger RTTaskAPrac Prime_1N Target_4N dLIjBKF EJLjbGc Congruent right correct Normal 660.3435
602 21 LeftLarger RTTaskAExp1 Prime_1A Target_9A FAMiLdJ EAdiBJk Incongruent left correct Normal 560.4246
602 22 LeftLarger RTTaskAExp1 Prime_1N Target_1A ECbALBJ FfCmJih Congruent right correct Normal 443.9896
602 23 LeftLarger RTTaskAExp1 Prime_6A Target_4N FIJgBcl mEkfIHC Incongruent right correct Normal 600.7527
602 24 LeftLarger RTTaskAExp1 Prime_1A Target_9N hbHKdMJ dMEfKca Incongruent left correct Normal 609.8875
602 25 LeftLarger RTTaskAExp1 Prime_9N Target_1N CJmKbdh JgBEDjd Incongruent right correct Normal 646.3571
602 26 LeftLarger RTTaskAExp1 Prime_9N Target_1A iCldMJA iFdCagH Incongruent right correct Normal 501.2296
602 27 LeftLarger RTTaskAExp1 Prime_6A Target_6N HMEIKak JaKACbD Congruent left correct Normal 507.9497
602 28 LeftLarger RTTaskAExp1 Prime_1A Target_1A jKiBmce DbmAcdC Congruent right correct Normal 427.2415
602 29 LeftLarger RTTaskAExp1 Prime_9A Target_4N gMAeEiF iEbMhCj Incongruent left error Normal 499.1577
602 30 LeftLarger RTTaskAExp1 Prime_6A Target_4A BHjeIKl GmCilDL Incongruent right correct Normal 477.339
602 31 LeftLarger RTTaskAExp1 Prime_9A Target_4N KLaglJM IAjclJG Incongruent right correct Normal 487.4951
602 32 LeftLarger RTTaskAExp1 Prime_1A Target_1N HJmGCDe HCfeDcK Congruent right correct Normal 591.6687
602 33 LeftLarger RTTaskAExp1 Prime_6N Target_1N mJfBGlc gGAEKaD Incongruent right correct Normal 455.1334
602 34 LeftLarger RTTaskAExp1 Prime_4N Target_6N DIjmkCB IdHlGjh Incongruent left correct Normal 455.176
602 35 LeftLarger RTTaskAExp1 Prime_4N Target_4A eLikbjC gAHIblf Congruent right correct Normal 550.8945
602 36 LeftLarger RTTaskAExp1 Prime_6N Target_9N klGEiLK JdDAcmH Congruent left correct Normal 620.0481
602 37 LeftLarger RTTaskAExp1 Prime_4N Target_9A lFDheCj mKCHfki Incongruent left correct Normal 537.2132
602 38 LeftLarger RTTaskAExp1 Prime_9N Target_6N KgFBLlC ajfiMce Congruent left correct Normal 619.7656
602 39 LeftLarger RTTaskAExp1 Prime_6A Target_9N bfCgBIF DGAieJM Congruent left correct Normal 526.0871
602 40 LeftLarger RTTaskAExp1 Prime_6N Target_9A KbijecB iBaMLje Congruent left correct Normal 427.8818
602 41 LeftLarger RTTaskAExp1 Prime_1A Target_6A KbaHgiA MdCDHFh Incongruent left correct Normal 491.7645
602 42 LeftLarger RTTaskAExp1 Prime_9A Target_9N fkAjDli EDAGHjm Congruent left correct Normal 358.4419
602 43 LeftLarger RTTaskAExp1 Prime_6N Target_1A ICfiBDb bdIEJKa Incongruent right correct Normal 524.2361
602 44 LeftLarger RTTaskAExp1 Prime_4A Target_1N laHIJFc hbBiFac Congruent right correct Normal 484.0142
602 45 LeftLarger RTTaskAExp1 Prime_4N Target_6A deEKkAC bBHdmEi Incongruent left correct Normal 470.5659
602 46 LeftLarger RTTaskAExp1 Prime_1N Target_1N ejCMbhf cmBFfIb Congruent right correct Normal 518.0917
602 47 LeftLarger RTTaskAExp1 Prime_1N Target_9N LFlGemg LDHlhfM Incongruent left correct Normal 563.271
602 48 LeftLarger RTTaskAExp1 Prime_9N Target_4A KdGlMic MCFlmhg Incongruent right correct Normal 479.6768
602 49 LeftLarger RTTaskAExp1 Prime_9N Target_4N amLIjGC JBkMClD Incongruent right correct Normal 561.7324
602 50 LeftLarger RTTaskAExp1 Prime_1N Target_9A KlMdIbC EaKmLgl Incongruent left correct Normal 384.6272
602 51 LeftLarger RTTaskAExp1 Prime_1A Target_4A ehglmFb BaJhDAb Congruent right correct Normal 474.9296
602 52 LeftLarger RTTaskAExp1 Prime_9N Target_6A MlIgEAF iILfmac Congruent left correct Normal 529.4617
602 53 LeftLarger RTTaskAExp1 Prime_6N Target_4A fmeHLDI BcKCMFh Incongruent right correct Normal 532.1258
602 54 LeftLarger RTTaskAExp1 Prime_6N Target_4N kilKgMe iMjeAJG Incongruent right correct Normal 534.0424
602 55 LeftLarger RTTaskAExp1 Prime_6A Target_1N CGKmDbH CaBkbLH Incongruent left error Normal 524.4724
602 56 LeftLarger RTTaskAExp1 Prime_4N Target_9N EAeljLa CbdmKDF Incongruent left correct Normal 611.0196
602 57 LeftLarger RTTaskAExp1 Prime_6N Target_6A KaEgiCM jcEhgiJ Congruent right error Normal 477.804
602 58 LeftLarger RTTaskAExp1 Prime_9A Target_4A bCLiKlk IMialbG Incongruent right correct Normal 493.9879
602 59 LeftLarger RTTaskAExp1 Prime_6A Target_1N bjhMLda LkgGdlF Incongruent right correct Normal 500.6742
602 60 LeftLarger RTTaskAExp1 Prime_4N Target_1A cjhdIML fmCLKhe Congruent right correct Normal 538.3025
602 61 LeftLarger RTTaskAExp1 Prime_4A Target_6N bBjhdCi blfhFHa Incongruent right error Normal 426.3095
602 62 LeftLarger RTTaskAExp1 Prime_9A Target_1A jLeKCig gmijKaJ Incongruent right correct Normal 500.9311
602 63 LeftLarger RTTaskAExp1 Prime_4A Target_4N CeILmDM FlIjfMe Congruent right correct Normal 543.0858
602 64 LeftLarger RTTaskAExp1 Prime_6N Target_6A BDIdFJa DMHjGEA Congruent left correct Normal 561.2544
602 65 LeftLarger RTTaskAExp1 Prime_9A Target_6A hflckbL ljDcfkC Congruent left correct Normal 642.5558
602 66 LeftLarger RTTaskAExp1 Prime_6A Target_1A igMBlEm BDjJcFM Incongruent right correct Normal 495.8526
602 67 LeftLarger RTTaskAExp1 Prime_4A Target_9A LcCMEfb igBhCjH Incongruent left correct Normal 577.1397
602 68 LeftLarger RTTaskAExp1 Prime_4N Target_4N KAeakJl GjEIDfL Congruent right correct Normal 401.3
602 69 LeftLarger RTTaskAExp1 Prime_9N Target_9A HjkCciD HALIkDg Congruent left correct Normal 463.0757
602 70 LeftLarger RTTaskAExp1 Prime_4A Target_1A eGFBHEj eHagEkG Congruent right correct Normal 492.5214
602 71 LeftLarger RTTaskAExp1 Prime_1N Target_4A GkMLmAC mJBdcgC Congruent left error Normal 672.9184
602 72 LeftLarger RTTaskAExp1 Prime_6A Target_6A dHibeED BCeLKEg Congruent left correct Normal 425.7404
602 73 LeftLarger RTTaskAExp1 Prime_1N Target_4N fALdIjM LMlfkbh Congruent right correct Normal 519.8869
602 74 LeftLarger RTTaskAExp1 Prime_9N Target_9N gBIEaLF iABGclL Congruent left correct Normal 527.431
602 75 LeftLarger RTTaskAExp1 Prime_4A Target_9N AmeCDkb LdGiECa Incongruent left correct Normal 661.2231
602 76 LeftLarger RTTaskAExp1 Prime_9A Target_9A mbHEkeA bkAifDa Congruent left correct Normal 434.7694
602 77 LeftLarger RTTaskAExp1 Prime_4A Target_6N DMmiIfJ LCbefDj Incongruent left correct Normal 515.798
602 78 LeftLarger RTTaskAExp1 Prime_6N Target_6N JEAfDhG lHhIfFK Congruent left correct Normal 380.2876
602 79 LeftLarger RTTaskAExp1 Prime_9A Target_6N aFgkCeL aDdmhgJ Congruent left correct Normal 343.2618
602 80 LeftLarger RTTaskAExp1 Prime_6A Target_9A mbKghiA kaEmecf Congruent left correct Normal 292.1717
602 81 LeftLarger RTTaskAExp1 Prime_4N Target_1N JkagCbi igkDaEK Congruent right correct Normal 374.5893
602 82 LeftLarger RTTaskAExp1 Prime_4A Target_4A fHDLCBE BGfkAMl Congruent left error Normal 456.5096
602 83 LeftLarger RTTaskAExp1 Prime_9A Target_1N DmiGaHj EmBMHeJ Incongruent right correct Normal 552.3881
602 84 LeftLarger RTTaskAExp1 Prime_4A Target_4A haAFkgm MclLgfD Congruent right correct Normal 738.2168
602 85 LeftLarger RTTaskAExp1 Prime_1A Target_6N lfjLemK JFiBjah Incongruent left correct Normal 665.2678
602 86 LeftLarger RTTaskAExp1 Prime_1A Target_4N IHFjcBk kdFhGDB Congruent right correct Normal 624.5851
602 87 LeftLarger RTTaskAExp1 Prime_1N Target_6A LBejIig dAEambG Incongruent left correct Normal 541.1103
602 88 LeftLarger RTTaskAExp1 Prime_4A Target_6A dChmijF LlcgjBh Incongruent left correct Normal 763.0113
602 89 LeftLarger RTTaskAExp1 Prime_1N Target_4A ElJGdbh DamAhld Congruent right correct Normal 504.2122
602 90 LeftLarger RTTaskAExp1 Prime_1N Target_6N fCiFHJK DKLBmkh Incongruent left correct Normal 562.5549
602 91 LeftLarger RTTaskAExp2 Prime_9A Target_6A gJjHdbi iDHFBgK Congruent left correct Normal 478.0706
602 92 LeftLarger RTTaskAExp2 Prime_1N Target_4A FBLfmlk AlacDFf Congruent right correct Normal 402.8387
602 93 LeftLarger RTTaskAExp2 Prime_1A Target_6A GchJAjf HkmdFGh Incongruent left correct Normal 767.0388
602 94 LeftLarger RTTaskAExp2 Prime_1N Target_9N LEjIdlJ Meflmgd Incongruent left correct Normal 727.2935
602 95 LeftLarger RTTaskAExp2 Prime_4N Target_9N eKjaFBL bDglkeK Incongruent left correct Normal 489.6114
602 96 LeftLarger RTTaskAExp2 Prime_1N Target_1A HcmkdBb hbIKGem Congruent right correct Normal 496.3806
602 97 LeftLarger RTTaskAExp2 Prime_4A Target_6N HfFmdeB JHEGfeL Incongruent left correct Normal 458.4317
602 98 LeftLarger RTTaskAExp2 Prime_1N Target_6A aGhBmdJ lJmAkij Incongruent left correct Normal 571.5848
602 99 LeftLarger RTTaskAExp2 Prime_4N Target_6A BbCLImh DeclJhG Incongruent left correct Normal 407.1204
602 100 LeftLarger RTTaskAExp2 Prime_1N Target_1N bBakIhA hKBJdFL Congruent right correct Normal 435.4835
602 101 LeftLarger RTTaskAExp2 Prime_4A Target_9N AajkGFC KeGFEkB Incongruent left correct Normal 609.3251
602 102 LeftLarger RTTaskAExp2 Prime_6A Target_4N ihKdeCa JIDgkCc Incongruent right correct Normal 533.9706
602 103 LeftLarger RTTaskAExp2 Prime_6N Target_9A GfAKegd JCEgKfa Congruent left correct Normal 580.377
602 104 LeftLarger RTTaskAExp2 Prime_4N Target_1N JHamDbe jKdkJLI Congruent right correct Normal 506.1411
602 105 LeftLarger RTTaskAExp2 Prime_6A Target_9A CIGMjJh aDdEBMI Congruent left correct Normal 484.3382
602 106 LeftLarger RTTaskAExp2 Prime_6N Target_6N eFEIgah KjglMcJ Congruent left correct Normal 566.6541
602 107 LeftLarger RTTaskAExp2 Prime_6N Target_1A EJLBFig bEmahLC Incongruent right correct Normal 453.1945
602 108 LeftLarger RTTaskAExp2 Prime_9N Target_6N BMHJDCi femhjgF Congruent left correct Normal 450.3769
602 109 LeftLarger RTTaskAExp2 Prime_1A Target_4A aAlBHKh hljbaLM Congruent right correct Normal 628.1145
602 110 LeftLarger RTTaskAExp2 Prime_1N Target_4N HGiACmg hKmAbei Congruent right correct Normal 555.0927
602 111 LeftLarger RTTaskAExp2 Prime_4A Target_6A gHmeLlc bMlBHgI Incongruent left correct Normal 439.7307
602 112 LeftLarger RTTaskAExp2 Prime_9A Target_4N gChijkL ADcMLda Incongruent right correct Normal 541.469
602 113 LeftLarger RTTaskAExp2 Prime_9N Target_6A lAMegBL HlDBiMk Congruent left correct Normal 554.8809
602 114 LeftLarger RTTaskAExp2 Prime_9A Target_4A bDHgJdm cLiJCGK Incongruent right correct Normal 437.4905
602 115 LeftLarger RTTaskAExp2 Prime_4A Target_4N IdKbGjJ liHMbCm Congruent right correct Normal 511.6389
602 116 LeftLarger RTTaskAExp2 Prime_1A Target_1N hcIAHjf lKDGHeh Congruent right correct Normal 628.0737
602 117 LeftLarger RTTaskAExp2 Prime_9A Target_1A fchIkmJ ICJMLKe Incongruent right correct Normal 426.9644
602 118 LeftLarger RTTaskAExp2 Prime_6A Target_4A DGJCdHh mkMEAbK Incongruent left error Normal 508.1544
602 119 LeftLarger RTTaskAExp2 Prime_4A Target_4A jfBiCeG fgebaCJ Congruent right correct Normal 433.088
602 120 LeftLarger RTTaskAExp2 Prime_1A Target_9N AHJfiGd LIljadb Incongruent left correct Normal 792.2117
602 121 LeftLarger RTTaskAExp2 Prime_6A Target_9N heCLKfH gALaBJF Congruent left correct Normal 678.2227
602 122 LeftLarger RTTaskAExp2 Prime_1N Target_6N FhlBGEa BmacfhC Incongruent left correct Normal 480.6965
602 123 LeftLarger RTTaskAExp2 Prime_6N Target_4A Ddaijbf lGeaFEM Incongruent right correct Normal 553.1356
602 124 LeftLarger RTTaskAExp2 Prime_6N Target_9N BmJejfH ECMLhBb Congruent left correct Normal 480.4136
602 125 LeftLarger RTTaskAExp2 Prime_6A Target_6A elFmadI fEBJbaC Congruent left correct Normal 627.1915
602 126 LeftLarger RTTaskAExp2 Prime_4A Target_1N GChmJbf jlJBidM Congruent right correct Normal 527.0933
602 127 LeftLarger RTTaskAExp2 Prime_9A Target_6N CMbBFHK leMJjBK Congruent left correct Normal 569.7712
602 128 LeftLarger RTTaskAExp2 Prime_6A Target_4A bJCgfGi bCmEFDM Incongruent right correct Normal 491.4292
602 129 LeftLarger RTTaskAExp2 Prime_1A Target_4N mBCJAEl MhmJjfB Congruent right correct Normal 487.9864
602 130 LeftLarger RTTaskAExp2 Prime_6N Target_6A mhkAHBG eFfhMkD Congruent left correct Normal 641.6927
602 131 LeftLarger RTTaskAExp2 Prime_9N Target_4A CHcEiDl eMjifEG Incongruent right correct Normal 517.5681
602 132 LeftLarger RTTaskAExp2 Prime_9A Target_9N jmAcMLb AfcmkbL Congruent left correct Normal 613.6285
602 133 LeftLarger RTTaskAExp2 Prime_4N Target_4A HCjMAef cfAHBka Congruent right correct Normal 536.0246
602 134 LeftLarger RTTaskAExp2 Prime_6A Target_1A jLlMmEa aEiJIKF Incongruent right correct Normal 573.0699
602 135 LeftLarger RTTaskAExp2 Prime_4N Target_1A lKHJFAL caBiMFD Congruent right correct Normal 538.4088
602 136 LeftLarger RTTaskAExp2 Prime_4A Target_1A DeFgHli JEDcdKM Congruent right correct Normal 382.027
602 137 LeftLarger RTTaskAExp2 Prime_9N Target_9A KBJGFIe jKDadLm Congruent left correct Normal 498.4389
602 138 LeftLarger RTTaskAExp2 Prime_1A Target_6N KGLhBbA IfLECMc Incongruent left correct Normal 479.6298
602 139 LeftLarger RTTaskAExp2 Prime_9N Target_1A lfehidH JBedFkD Incongruent right correct Normal 487.4975
602 140 LeftLarger RTTaskAExp2 Prime_9N Target_9N BkDAgJe diAkMeg Congruent left correct Normal 650.6381
602 141 LeftLarger RTTaskAExp2 Prime_6A Target_6N CbDKAlf liGEKhL Congruent left correct Normal 483.7073
602 142 LeftLarger RTTaskAExp2 Prime_9A Target_9A mlkHCaj hGacBEb Congruent left correct Normal 373.3971
602 143 LeftLarger RTTaskAExp2 Prime_4A Target_9A aAGBmgL KDIcdbi Incongruent left correct Normal 388.1414
602 144 LeftLarger RTTaskAExp2 Prime_6N Target_1N jKGCilg kmidCJh Incongruent right correct Normal 470.0973
602 145 LeftLarger RTTaskAExp2 Prime_6N Target_4N HCIiEFh CLiclfb Incongruent right correct Normal 639.8917
602 146 LeftLarger RTTaskAExp2 Prime_6A Target_1N EJAlfkj IeAmFKb Incongruent left error Normal 434.168
602 147 LeftLarger RTTaskAExp2 Prime_4N Target_9A egcGICF CIaGgiH Incongruent left correct Normal 660.2488
602 148 LeftLarger RTTaskAExp2 Prime_4N Target_6N EFeiaGI iKgDBlh Incongruent left correct Normal 552.4098
602 149 LeftLarger RTTaskAExp2 Prime_4N Target_4N JBDKIHd aGcLJgk Congruent right correct Normal 676.1763
602 150 LeftLarger RTTaskAExp2 Prime_9A Target_1N FbCGADB DKFJgBI Incongruent right correct Normal 477.4667
602 151 LeftLarger RTTaskAExp2 Prime_6A Target_1N KBFiJIg gbAILEJ Incongruent right correct Normal 456.6707
602 152 LeftLarger RTTaskAExp2 Prime_9N Target_4N HfjgAEm hjbagDC Incongruent right correct Normal 479.8034
602 153 LeftLarger RTTaskAExp2 Prime_1A Target_1A DgdiklM dJgcfDA Congruent right correct Normal 434.0972
602 154 LeftLarger RTTaskAExp2 Prime_1N Target_9A dBchAFK ACJHbKj Incongruent left correct Normal 466.2661
602 155 LeftLarger RTTaskAExp2 Prime_9N Target_1N EcdfMIG bHLjeim Incongruent right correct Normal 671.6814
602 156 LeftLarger RTTaskAExp2 Prime_1A Target_9A IAMaeLE kmHAghL Incongruent left correct Normal 402.9743
602 157 LeftSmaller RTTaskBPrac Prime_9A Target_1N GKaikmc dHiAkmg Incongruent left correct Normal 803.9042
602 158 LeftSmaller RTTaskBPrac Prime_4A Target_1A mFEdDMb DabmlGg Congruent left correct Normal 445.8378
602 159 LeftSmaller RTTaskBPrac Prime_6N Target_6A GLKfJHA lbIfBGe Congruent right correct Normal 362.5082
602 160 LeftSmaller RTTaskBPrac Prime_4N Target_6N mdMBeJj IgJhelA Incongruent right correct Normal 589.6021
602 161 LeftSmaller RTTaskBPrac Prime_1N Target_9N abcIlCL LiDbBCK Incongruent right correct Normal 405.1921
602 162 LeftSmaller RTTaskBPrac Prime_9A Target_9N IlJmbia gIMhKLi Congruent right correct Normal 406.1214
602 163 LeftSmaller RTTaskBPrac Prime_4A Target_4N JFhGiCM gFlBaKf Congruent left correct Normal 730.2718
602 164 LeftSmaller RTTaskBPrac Prime_4A Target_9N hHdbCEe hlbeAHK Incongruent right correct Normal 502.8346
602 165 LeftSmaller RTTaskBPrac Prime_4A Target_6N MhAHcmj KheFbjc Incongruent right correct Normal 574.2008
602 166 LeftSmaller RTTaskBPrac Prime_9N Target_1A jHLBlfC bIakmGj Incongruent left correct Normal 580.7832
602 167 LeftSmaller RTTaskBPrac Prime_1N Target_1A IMLCahk clGJDih Congruent left correct Normal 529.208
602 168 LeftSmaller RTTaskBPrac Prime_4N Target_9A lFHIDBa kjFghaL Incongruent right correct Normal 501.5267
602 169 LeftSmaller RTTaskBPrac Prime_4N Target_6A ibFDaAM HCbmLfc Incongruent right correct Normal 716.5198
602 170 LeftSmaller RTTaskBPrac Prime_4N Target_1N EHbiDIj JlDaGFI Congruent left correct Normal 482.5709
602 171 LeftSmaller RTTaskBPrac Prime_6N Target_4N dbAGDIf DbeihMl Incongruent left correct Normal 639.2229
602 172 LeftSmaller RTTaskBPrac Prime_9A Target_6A GEmlehc ceDAbIj Congruent right correct Normal 421.3912
602 173 LeftSmaller RTTaskBExp1 Prime_6N Target_1A bdLBiHK DgbEeLc Incongruent left correct Normal 421.8737
602 174 LeftSmaller RTTaskBExp1 Prime_4N Target_6A LDCiEbI DiCmdLf Incongruent right correct Normal 445.3412
602 175 LeftSmaller RTTaskBExp1 Prime_1N Target_6N eDmGCKi eaBGDKf Incongruent right correct Normal 479.5609
602 176 LeftSmaller RTTaskBExp1 Prime_1N Target_4A jFfhcak IjHClGM Congruent right error Normal 530.1234
602 177 LeftSmaller RTTaskBExp1 Prime_9N Target_6A kfDmAjd elmMEaB Congruent right correct Normal 530.8066
602 178 LeftSmaller RTTaskBExp1 Prime_9N Target_4A dbFcDBE FbLAeHm Incongruent left correct Normal 471.8406
602 179 LeftSmaller RTTaskBExp1 Prime_9N Target_1A jfhFJHI hjHfedb Incongruent left correct Normal 474.1364
602 180 LeftSmaller RTTaskBExp1 Prime_6A Target_4N CfIBAFM mGHAjCb Incongruent left correct Normal 760.6239
602 181 LeftSmaller RTTaskBExp1 Prime_9A Target_9A EecmMDK HhFlcDm Congruent right correct Normal 467.2315
602 182 LeftSmaller RTTaskBExp1 Prime_9N Target_9N DeCLAhc JaibGlL Congruent right correct Normal 554.0092
602 183 LeftSmaller RTTaskBExp1 Prime_1N Target_9A mJIKCLe JFgKlEB Incongruent right correct Normal 466.8037
602 184 LeftSmaller RTTaskBExp1 Prime_1N Target_4N HilagbM gdGJfDh Congruent left correct Normal 505.9595
602 185 LeftSmaller RTTaskBExp1 Prime_9N Target_1N fEkFlDe IeDMAGL Incongruent left correct Normal 574.506
602 186 LeftSmaller RTTaskBExp1 Prime_4N Target_9A bLmDCic FmibdkG Incongruent right correct Normal 462.5217
602 187 LeftSmaller RTTaskBExp1 Prime_9A Target_4N gLmDIJk dhFflei Incongruent left correct Normal 450.3321
602 188 LeftSmaller RTTaskBExp1 Prime_6A Target_6N EkcHeJa lcaEBgD Congruent right correct Normal 751.5116
602 189 LeftSmaller RTTaskBExp1 Prime_9A Target_1A jJFAMgC HlMhACI Incongruent left correct Normal 478.1178
602 190 LeftSmaller RTTaskBExp1 Prime_1N Target_1N AejGgDf GMkIhFJ Congruent left correct Normal 482.7059
602 191 LeftSmaller RTTaskBExp1 Prime_4A Target_1N bKBLFia FKibADg Congruent left correct Normal 445.5799
602 192 LeftSmaller RTTaskBExp1 Prime_4N Target_4A lgKjeHA efGMgdl Congruent left correct Normal 541.6262
602 193 LeftSmaller RTTaskBExp1 Prime_4N Target_9N Chlcgjf fClcbHI Incongruent right correct Normal 363.7062
602 194 LeftSmaller RTTaskBExp1 Prime_1A Target_1N BmDECMl edhDJkB Congruent left correct Normal 494.503
602 195 LeftSmaller RTTaskBExp1 Prime_6N Target_4A FkLHebg khdIjba Incongruent left correct Normal 596.2489
602 196 LeftSmaller RTTaskBExp1 Prime_1N Target_6A hDEHfeI fJamBIC Incongruent right correct Normal 607.1995
602 197 LeftSmaller RTTaskBExp1 Prime_6N Target_9N BdMgkHJ IfjcLHl Congruent right correct Normal 500.9988
602 198 LeftSmaller RTTaskBExp1 Prime_4A Target_6A cAlEFae ehdfIaB Incongruent right correct Normal 496.5449
602 199 LeftSmaller RTTaskBExp1 Prime_1A Target_6A KbHhEgd LcDBKkJ Incongruent right correct Normal 484.5849
602 200 LeftSmaller RTTaskBExp1 Prime_4A Target_4A DLIiBlC blfaEKM Congruent left correct Normal 450.0981
602 201 LeftSmaller RTTaskBExp1 Prime_4N Target_1N mBEdJgf FjmCcKb Congruent left correct Normal 419.7669
602 202 LeftSmaller RTTaskBExp1 Prime_4N Target_6N JaLlgbh iKEmlDg Incongruent right correct Normal 435.5646
602 203 LeftSmaller RTTaskBExp1 Prime_4N Target_1A JaCHcgf LKfeamd Congruent left correct Normal 539.5898
602 204 LeftSmaller RTTaskBExp1 Prime_1A Target_1A FAfIMDi HcKmejd Congruent left correct Normal 475.2757
602 205 LeftSmaller RTTaskBExp1 Prime_9A Target_6N aCBemhF ElgjKJi Congruent right correct Normal 459.5957
602 206 LeftSmaller RTTaskBExp1 Prime_9A Target_9N ihHCIcf CMfAimK Congruent right correct Normal 455.4791
602 207 LeftSmaller RTTaskBExp1 Prime_4A Target_6N EaAdfeM bFLHDKG Incongruent right correct Normal 561.8879
602 208 LeftSmaller RTTaskBExp1 Prime_6N Target_4N mAdMeiI DmdlCgM Incongruent left correct Normal 487.3925
602 209 LeftSmaller RTTaskBExp1 Prime_1N Target_9N LMfIKhD fMBbiIF Incongruent right correct Normal 474.7158
602 210 LeftSmaller RTTaskBExp1 Prime_9N Target_4N FJaHkgM jKmdDie Incongruent left correct Normal 445.3746
602 211 LeftSmaller RTTaskBExp1 Prime_6A Target_1A CKAclkh fAMldGm Incongruent left correct Normal 467.3087
602 212 LeftSmaller RTTaskBExp1 Prime_6A Target_6A jMlaekJ IJcEBKj Congruent right correct Normal 489.0619
602 213 LeftSmaller RTTaskBExp1 Prime_6N Target_6N DmCgMBb GMdHfLJ Congruent right correct Normal 574.6448
602 214 LeftSmaller RTTaskBExp1 Prime_6N Target_1N JEgBKmC aJcdjkg Incongruent left correct Normal 457.9292
602 215 LeftSmaller RTTaskBExp1 Prime_6A Target_9N DLhlGHI ifDgAaj Congruent right correct Normal 522.7138
602 216 LeftSmaller RTTaskBExp1 Prime_1A Target_9N beIkdmf hImDfLi Incongruent right correct Normal 478.2578
602 217 LeftSmaller RTTaskBExp1 Prime_4A Target_9N IjBDcCH AKlhEje Incongruent right correct Normal 426.4303
602 218 LeftSmaller RTTaskBExp1 Prime_6N Target_9A JjMlCBh bGMkfHa Congruent right correct Normal 515.5935
602 219 LeftSmaller RTTaskBExp1 Prime_1N Target_1A ILfbKEk geEicMF Congruent left correct Normal 339.2638
602 220 LeftSmaller RTTaskBExp1 Prime_1A Target_4A IFJBbCA hKjFdLe Congruent left correct Normal 485.2731
602 221 LeftSmaller RTTaskBExp1 Prime_4A Target_9A emJCdDG MkCheiA Incongruent right correct Normal 510.6532
602 222 LeftSmaller RTTaskBExp1 Prime_6N Target_6A aJgihdC fAJEGcM Congruent right correct Normal 447.2485
602 223 LeftSmaller RTTaskBExp1 Prime_6A Target_1N kKHAEaC AMdKCei Incongruent left correct Normal 476.8264
602 224 LeftSmaller RTTaskBExp1 Prime_4N Target_4N lgaEHIe HfdBJIF Congruent left correct Normal 690.7001
602 225 LeftSmaller RTTaskBExp1 Prime_1A Target_6N mFJBEAa iEKIJgG Incongruent right correct Normal 463.6283
602 226 LeftSmaller RTTaskBExp1 Prime_4A Target_4N BeaKHcD mCAaMdI Congruent left correct Normal 499.7785
602 227 LeftSmaller RTTaskBExp1 Prime_1N Target_4A FHakJDB cGlhiDb Congruent left correct Normal 450.3305
602 228 LeftSmaller RTTaskBExp1 Prime_1A Target_9A eAClKFD hLjdKHI Incongruent right correct Normal 505.3637
602 229 LeftSmaller RTTaskBExp1 Prime_9A Target_1N IalLKEd LaMjbJG Incongruent left correct Normal 491.4037
602 230 LeftSmaller RTTaskBExp1 Prime_4A Target_1A aJkAFjC bDlijdG Congruent left correct Normal 384.3149
602 231 LeftSmaller RTTaskBExp1 Prime_9N Target_9A EKjeLMF magJhcM Congruent right correct Normal 382.4661
602 232 LeftSmaller RTTaskBExp1 Prime_6A Target_4A cBdgJaK hcmFMAe Incongruent left correct Normal 421.148
602 233 LeftSmaller RTTaskBExp1 Prime_6A Target_9A igbAelh fHLaJMB Congruent right correct Normal 420.0633
602 234 LeftSmaller RTTaskBExp1 Prime_9A Target_4A BDJdaEF FkdaeGE Incongruent left correct Normal 505.9668
602 235 LeftSmaller RTTaskBExp1 Prime_1A Target_4N MBAgHdF mhlgJkj Congruent left correct Normal 569.6046
602 236 LeftSmaller RTTaskBExp1 Prime_9A Target_6A AEidJme iMhABCJ Congruent right correct Normal 481.1668
602 237 LeftSmaller RTTaskBExp1 Prime_9N Target_6N flIaMdG BMkmGCb Congruent right correct Normal 546.3045
602 238 LeftSmaller RTTaskBExp2 Prime_4A Target_4A IbhJcHj CMFlmAH Congruent left correct Normal 405.952
602 239 LeftSmaller RTTaskBExp2 Prime_6N Target_9N jeakGML LHCeFdJ Congruent right correct Normal 425.3253
602 240 LeftSmaller RTTaskBExp2 Prime_4N Target_1N DaFcGCK aIkEHDe Congruent left correct Normal 341.436
602 241 LeftSmaller RTTaskBExp2 Prime_4N Target_9N ajgiDEe ECfDIad Incongruent right correct Normal 451.0372
602 242 LeftSmaller RTTaskBExp2 Prime_4A Target_6A hMaiBKk kKlMdaL Incongruent right correct Normal 585.5926
602 243 LeftSmaller RTTaskBExp2 Prime_1N Target_9A AglfhHD mFdEkba Incongruent right correct Normal 443.249
602 244 LeftSmaller RTTaskBExp2 Prime_6N Target_4N fLJmblA aClEeFi Incongruent left correct Normal 396.4089
602 245 LeftSmaller RTTaskBExp2 Prime_4N Target_4A HaAhdCb fMHGIjE Congruent left correct Normal 775.9564
602 246 LeftSmaller RTTaskBExp2 Prime_4N Target_1A eJIHmDi aDgKCfM Congruent left correct Normal 441.2587
602 247 LeftSmaller RTTaskBExp2 Prime_9N Target_6A EKiDdmb CLMEKHf Congruent right correct Normal 332.7602
602 248 LeftSmaller RTTaskBExp2 Prime_6A Target_1N kfleDji agmDbce Incongruent left correct Normal 493.3296
602 249 LeftSmaller RTTaskBExp2 Prime_1A Target_6N JBahDFm fjBeKma Incongruent right correct Normal 491.7346
602 250 LeftSmaller RTTaskBExp2 Prime_1N Target_4A KJkCAmH jlhDdgL Congruent left correct Normal 633.0895
602 251 LeftSmaller RTTaskBExp2 Prime_4A Target_4N FiBecGH cbEGkgd Congruent left correct Normal 414.3662
602 252 LeftSmaller RTTaskBExp2 Prime_6A Target_6N LKhjFmI fmIbKCH Congruent right correct Normal 442.5935
602 253 LeftSmaller RTTaskBExp2 Prime_1N Target_4N fFaLhDj LgfFkaK Congruent left correct Normal 495.0192
602 254 LeftSmaller RTTaskBExp2 Prime_9A Target_9A JDCeGkh jCcdhAe Congruent right correct Normal 466.5527
602 255 LeftSmaller RTTaskBExp2 Prime_9N Target_9N BeaibFJ EbdkGFC Congruent right correct Normal 488.1651
602 256 LeftSmaller RTTaskBExp2 Prime_1N Target_1N FBIlbem HaDKBfj Congruent left correct Normal 501.2619
602 257 LeftSmaller RTTaskBExp2 Prime_6A Target_4A gekbJIM gFjedlK Incongruent left correct Normal 463.8193
602 258 LeftSmaller RTTaskBExp2 Prime_1A Target_4A kldBHMA FLGacBI Congruent left correct Normal 393.095
602 259 LeftSmaller RTTaskBExp2 Prime_6A Target_4N lkmHFBf afhFbgG Incongruent left correct Normal 319.5947
602 260 LeftSmaller RTTaskBExp2 Prime_6N Target_6N gfmlFCK bJjCIKL Congruent right correct Normal 346.8726
602 261 LeftSmaller RTTaskBExp2 Prime_9A Target_4N FhfgBdk ABIMCke Incongruent left correct Normal 337.3364
602 262 LeftSmaller RTTaskBExp2 Prime_9A Target_4A lbkCDcJ dLfCikF Incongruent left correct Normal 301.2448
602 263 LeftSmaller RTTaskBExp2 Prime_6N Target_1N LgDcEaG faJLmbC Incongruent left correct Normal 306.4152
602 264 LeftSmaller RTTaskBExp2 Prime_9N Target_6N mEMdLKi GdheFja Congruent right correct Normal 420.3328
602 265 LeftSmaller RTTaskBExp2 Prime_1A Target_1N mJcjHbM CjJaHMb Congruent right error Normal 310.7111
602 266 LeftSmaller RTTaskBExp2 Prime_9N Target_4N beHChaA JadmKjh Incongruent left correct Normal 465.412
602 267 LeftSmaller RTTaskBExp2 Prime_4N Target_6A FMBaejg aHAIfKE Incongruent right correct Normal 510.1996
602 268 LeftSmaller RTTaskBExp2 Prime_9N Target_4A bAlmKaD LgBklec Incongruent left correct Normal 388.2567
602 269 LeftSmaller RTTaskBExp2 Prime_9N Target_1A MIckLFJ aIbMFkh Incongruent left correct Normal 363.0286
602 270 LeftSmaller RTTaskBExp2 Prime_6N Target_6A JihHdbe mBKAJka Congruent right correct Normal 580.198
602 271 LeftSmaller RTTaskBExp2 Prime_6N Target_4A cJkdIHm gAdGEjf Incongruent left correct Normal 363.4872
602 272 LeftSmaller RTTaskBExp2 Prime_9A Target_6N iMKabGj CkeGfmh Congruent left error Normal 368.6668
602 273 LeftSmaller RTTaskBExp2 Prime_1A Target_6A bcJBfei kCbflci Incongruent right correct Normal 413.0722
602 274 LeftSmaller RTTaskBExp2 Prime_4A Target_6N bFJGihl HECjidJ Incongruent right correct Normal 374.3561
602 275 LeftSmaller RTTaskBExp2 Prime_1A Target_1N lIBHAhL EAmeDkH Congruent left correct Normal 379.0793
602 276 LeftSmaller RTTaskBExp2 Prime_1A Target_9N kHAjMEF MCKdkJF Incongruent right correct Normal 450.6901
602 277 LeftSmaller RTTaskBExp2 Prime_9A Target_6N MKfiJmL dieJBKb Congruent right correct Normal 676.3525
602 278 LeftSmaller RTTaskBExp2 Prime_9A Target_1A jiIKBEb dhcHCAM Incongruent left correct Normal 400.0189
602 279 LeftSmaller RTTaskBExp2 Prime_6A Target_9A mEgfkKJ EbjcHKI Congruent right correct Normal 412.1518
602 280 LeftSmaller RTTaskBExp2 Prime_4N Target_9A hIHjBag ckgLDbG Incongruent left error Normal 345.7444
602 281 LeftSmaller RTTaskBExp2 Prime_6A Target_9N FAJlCdG DBChcgH Congruent right correct Normal 471.6866
602 282 LeftSmaller RTTaskBExp2 Prime_1A Target_4N gKlMaIm BHcdLaK Congruent left correct Normal 582.0903
602 283 LeftSmaller RTTaskBExp2 Prime_9N Target_1N BhmCfje cMAaHdh Incongruent left correct Normal 543.4949
602 284 LeftSmaller RTTaskBExp2 Prime_4N Target_9A deCLFhb ilLmAEf Incongruent right correct Normal 466.3007
602 285 LeftSmaller RTTaskBExp2 Prime_9N Target_9A dEDMKek IAgBdiC Congruent right correct Normal 387.9494
602 286 LeftSmaller RTTaskBExp2 Prime_1N Target_6N jHlmBJA kahbcLJ Incongruent right correct Normal 605.8746
602 287 LeftSmaller RTTaskBExp2 Prime_1N Target_6A FBdegba GidhHek Incongruent right correct Normal 404.1718
602 288 LeftSmaller RTTaskBExp2 Prime_6N Target_9A AGEBcgi HkJcKEd Congruent right correct Normal 387.6696
602 289 LeftSmaller RTTaskBExp2 Prime_1N Target_9N JKElmCG HdDJjcE Incongruent right correct Normal 376.7907
602 290 LeftSmaller RTTaskBExp2 Prime_4A Target_9N igMjaEA ECMkIlf Incongruent right correct Normal 367.4047
602 291 LeftSmaller RTTaskBExp2 Prime_6A Target_1A IiKLbMc aBMhAmc Incongruent left correct Normal 364.5684
602 292 LeftSmaller RTTaskBExp2 Prime_6N Target_1A DLAJgda cKCBlkM Incongruent left correct Normal 333.5902
602 293 LeftSmaller RTTaskBExp2 Prime_1A Target_1A jcKGdHh DkegLAJ Congruent left correct Normal 280.6153
602 294 LeftSmaller RTTaskBExp2 Prime_4A Target_1N eAbJLdh DCdbGBe Congruent left correct Normal 501.1676
602 295 LeftSmaller RTTaskBExp2 Prime_9A Target_1N mCdAhIf CabeEfk Incongruent left correct Normal 400.9343
602 296 LeftSmaller RTTaskBExp2 Prime_4N Target_6N eBCHFIE flHMkEA Incongruent right correct Normal 544.2435
602 297 LeftSmaller RTTaskBExp2 Prime_9A Target_6A DcmjHMB MgiEeHI Congruent right correct Normal 500.9103
602 298 LeftSmaller RTTaskBExp2 Prime_9A Target_9N faejMBE KlgCcED Congruent right correct Normal 504.7218
602 299 LeftSmaller RTTaskBExp2 Prime_4A Target_1A FBdkcfG MeKkmHc Congruent left correct Normal 523.1066
602 300 LeftSmaller RTTaskBExp2 Prime_6A Target_6A FbJfBIk KLielkF Congruent right correct Normal 520.0295
602 301 LeftSmaller RTTaskBExp2 Prime_4N Target_4N KCJEAmd EAFHhcB Congruent left correct Normal 497.919
602 302 LeftSmaller RTTaskBExp2 Prime_1A Target_9A iBIgGKj LMjbIlH Incongruent right correct Normal 414.0333
602 303 LeftSmaller RTTaskBExp2 Prime_1N Target_1A MJADjLE mlIBgLF Congruent left correct Normal 425.0635
602 304 LeftSmaller RTTaskBExp2 Prime_4A Target_9A HCGIcih AFdJEiL Incongruent right correct Normal 337.8191
603 1 LeftSmaller RTTaskAPrac Prime_6N Target_9N BaIcCDH BgCKdFG Congruent left error Early 4.914363
603 2 LeftSmaller RTTaskAPrac Prime_6A Target_4N CFaHmdD eflKdIF Incongruent left correct Normal 584.7791
603 3 LeftSmaller RTTaskAPrac Prime_1N Target_4N FGHkjED JiFMmHl Congruent right error Normal 336.9203
603 4 LeftSmaller RTTaskAPrac Prime_1N Target_9A HKEaJjC gGHlLDm Incongruent right correct Normal 531.234
603 5 LeftSmaller RTTaskAPrac Prime_6N Target_9N HDMalAm AecfiEC Congruent left error Normal 321.404
603 6 LeftSmaller RTTaskAPrac Prime_1A Target_1A BkAdMIe DhgKJaf Congruent left correct Normal 379.8282
603 7 LeftSmaller RTTaskAPrac Prime_4N Target_9N GhMDFBC IlgaAki Incongruent right correct Normal 436.0037
603 8 LeftSmaller RTTaskAPrac Prime_6N Target_9N bhfmJgC KBIlLbC Congruent right correct Normal 407.787
603 9 LeftSmaller RTTaskAPrac Prime_4A Target_6A LHjgAha jDaFmMg Incongruent left error Normal 429.4311
603 10 LeftSmaller RTTaskAPrac Prime_4A Target_9N BGhfMFK AgIlMbF Incongruent right correct Normal 428.0129
603 11 LeftSmaller RTTaskAPrac Prime_4N Target_6A lMALKgi KdBAaLJ Incongruent right correct Normal 618.0883
603 12 LeftSmaller RTTaskAPrac Prime_9A Target_1A FELcDjJ CFgjAdD Incongruent left correct Normal 520.4647
603 13 LeftSmaller RTTaskAPrac Prime_6N Target_6N BKGkDAE ljFCKhi Congruent right correct Normal 531.4629
603 14 LeftSmaller RTTaskAPrac Prime_4A Target_6A dicKgGB DijEHMf Incongruent right correct Normal 407.8525
603 15 LeftSmaller RTTaskAPrac Prime_4N Target_1N GdeAELi BcGlEAe Congruent left correct Normal 481.0366
603 16 LeftSmaller RTTaskAPrac Prime_1N Target_4N flAFGjI EgbBIfc Congruent left correct Normal 687.4945
603 17 LeftSmaller RTTaskAPrac Prime_6A Target_9N lmaDfhH gCelfdL Congruent right correct Normal 520.4212
603 18 LeftSmaller RTTaskAPrac Prime_9N Target_6A KmcDaAf jEcfkBm Congruent right correct Normal 578.2929
603 19 LeftSmaller RTTaskAPrac Prime_9A Target_4A jHbKhJc ACelHgG Incongruent left correct Normal 497.3237
603 20 LeftSmaller RTTaskAPrac Prime_4A Target_1N bBDEhJm gDICjeL Congruent left correct Normal 463.4964
603 21 LeftSmaller RTTaskAExp1 Prime_4A Target_1N AhLbICH aIehCGL Congruent left correct Normal 422.3475
603 22 LeftSmaller RTTaskAExp1 Prime_4A Target_4A AHmjDlh kEBbcAM Congruent left correct Normal 588.7289
603 23 LeftSmaller RTTaskAExp1 Prime_1N Target_9A HfFaglm HKbhJlF Incongruent right correct Normal 432.3196
603 24 LeftSmaller RTTaskAExp1 Prime_4A Target_4N LEmicbe IAhMbei Congruent left correct Normal 484.6862
603 25 LeftSmaller RTTaskAExp1 Prime_1A Target_9N liBDfeb GMheBlk Incongruent right correct Normal 428.6848
603 26 LeftSmaller RTTaskAExp1 Prime_6N Target_9N IemJGEf ImELMfA Congruent right correct Normal 466.4385
603 27 LeftSmaller RTTaskAExp1 Prime_9A Target_6N hmdMcCk jKMALmk Congruent right correct Normal 612.754
603 28 LeftSmaller RTTaskAExp1 Prime_1A Target_4N hJdbDke KJABGih Congruent left correct Normal 501.0362
603 29 LeftSmaller RTTaskAExp1 Prime_6A Target_1A lAbMIgD MGJhcKe Incongruent left correct Normal 450.5501
603 30 LeftSmaller RTTaskAExp1 Prime_1A Target_1N KlFJceA IcJLfib Congruent left correct Normal 426.1723
603 31 LeftSmaller RTTaskAExp1 Prime_6N Target_9A kKdFDEm IcAmail Congruent right correct Normal 441.7852
603 32 LeftSmaller RTTaskAExp1 Prime_6N Target_6A GCjDEeL LciDklC Congruent right correct Normal 499.1736
603 33 LeftSmaller RTTaskAExp1 Prime_6A Target_9A gCAeIhi AgaFDik Congruent right correct Normal 432.1821
603 34 LeftSmaller RTTaskAExp1 Prime_9N Target_6A iEeakGd GafhbeJ Congruent right correct Normal 570.1316
603 35 LeftSmaller RTTaskAExp1 Prime_1N Target_4A daLGgFA EJagFDd Congruent left correct Normal 592.5171
603 36 LeftSmaller RTTaskAExp1 Prime_4A Target_9N JahMgki lDbHGIB Incongruent right correct Normal 420.9103
603 37 LeftSmaller RTTaskAExp1 Prime_1N Target_9N gALHCMj FcjgKiJ Incongruent right correct Normal 396.8609
603 38 LeftSmaller RTTaskAExp1 Prime_6N Target_6N EBJKilc bEMgBcf Congruent left error Normal 495.6671
603 39 LeftSmaller RTTaskAExp1 Prime_4N Target_9N dKBCgHL dFAjBEC Incongruent right correct Normal 423.2579
603 40 LeftSmaller RTTaskAExp1 Prime_9N Target_1A aAhGmlf aDkmFJi Incongruent left correct Normal 511.1583
603 41 LeftSmaller RTTaskAExp1 Prime_9A Target_4N jgJaCMI HkhImDB Incongruent left correct Normal 487.05
603 42 LeftSmaller RTTaskAExp1 Prime_6N Target_4N mMeIHgA FeEaJCL Incongruent left correct Normal 477.9296
603 43 LeftSmaller RTTaskAExp1 Prime_1A Target_4A GkCbMLB bmiJaBg Congruent left correct Normal 457.4169
603 44 LeftSmaller RTTaskAExp1 Prime_9A Target_9A CahMEgF CHfhJjG Congruent right correct Normal 488.8016
603 45 LeftSmaller RTTaskAExp1 Prime_9N Target_4A LAfJmCj CcKGIMj Incongruent left correct Normal 520.6117
603 46 LeftSmaller RTTaskAExp1 Prime_9N Target_1N HLeIimC jlKfCBi Incongruent left correct Normal 551.2548
603 47 LeftSmaller RTTaskAExp1 Prime_1A Target_9A EjDeIam CKcIEDb Incongruent right correct Normal 475.4207
603 48 LeftSmaller RTTaskAExp1 Prime_1A Target_6N agHGbBJ mjMkhCc Incongruent right correct Normal 444.4595
603 49 LeftSmaller RTTaskAExp1 Prime_9A Target_1A mjalMCf KCEMieD Incongruent left correct Normal 556.2633
603 50 LeftSmaller RTTaskAExp1 Prime_4A Target_1A gBGcCfm AeIlmFh Congruent left correct Normal 381.7816
603 51 LeftSmaller RTTaskAExp1 Prime_9A Target_4A CMjDfEh BIcKdEm Incongruent left correct Normal 511.9622
603 52 LeftSmaller RTTaskAExp1 Prime_6N Target_4A FBLhaMf JFKbLGE Incongruent left correct Normal 463.6951
603 53 LeftSmaller RTTaskAExp1 Prime_4A Target_9A AiCfcMD eMkIdFf Incongruent right correct Normal 427.1822
603 54 LeftSmaller RTTaskAExp1 Prime_6A Target_6A jfdGCmB GkALbIm Congruent right correct Normal 444.5978
603 55 LeftSmaller RTTaskAExp1 Prime_1A Target_6A LBgHlae cEfaICe Incongruent right correct Normal 400.741
603 56 LeftSmaller RTTaskAExp1 Prime_1N Target_6N kKdlEMf jemBgDb Incongruent right correct Normal 409.6179
603 57 LeftSmaller RTTaskAExp1 Prime_6A Target_1N bedDMlF acAHFgi Incongruent left correct Normal 436.3
603 58 LeftSmaller RTTaskAExp1 Prime_9A Target_1N aCDkhie dlChegk Incongruent left correct Normal 416.9974
603 59 LeftSmaller RTTaskAExp1 Prime_1A Target_1A bjmhlDF DLMKdEb Congruent left correct Normal 443.39
603 60 LeftSmaller RTTaskAExp1 Prime_9N Target_6N IHMkLhc icamMBl Congruent right correct Normal 491.3143
603 61 LeftSmaller RTTaskAExp1 Prime_9N Target_9N lMkCFjA AecfBia Congruent right correct Normal 626.8425
603 62 LeftSmaller RTTaskAExp1 Prime_6N Target_1N DImjFgL DGfHegd Incongruent left correct Normal 469.5982
603 63 LeftSmaller RTTaskAExp1 Prime_4N Target_1A kaMmjJi iILdaFD Congruent left correct Normal 460.5052
603 64 LeftSmaller RTTaskAExp1 Prime_6A Target_4A KdihbAm AdLHDmf Incongruent left correct Normal 606.0942
603 65 LeftSmaller RTTaskAExp1 Prime_4A Target_6A iLAEeFd ejCmbLc Incongruent right correct Normal 513.8699
603 66 LeftSmaller RTTaskAExp1 Prime_4N Target_1N MfaLHKd aGdAKCD Congruent left correct Normal 477.1302
603 67 LeftSmaller RTTaskAExp1 Prime_6A Target_4N jeJGEIf JAMbhml Incongruent left correct Normal 551.718
603 68 LeftSmaller RTTaskAExp1 Prime_1N Target_6A GhmbHdl ikJbmFG Incongruent right correct Normal 493.8811
603 69 LeftSmaller RTTaskAExp1 Prime_4N Target_6N AlEhGbe amLAMHG Incongruent right correct Normal 432.5508
603 70 LeftSmaller RTTaskAExp1 Prime_9N Target_9A GJdIKgA flFLHAD Congruent right correct Normal 452.7824
603 71 LeftSmaller RTTaskAExp1 Prime_4N Target_4A FalGICj iBkJmKc Congruent left correct Normal 423.2474
603 72 LeftSmaller RTTaskAExp1 Prime_4N Target_6A dcjIlhM iLhcHFk Incongruent right correct Normal 451.8709
603 73 LeftSmaller RTTaskAExp1 Prime_6A Target_9N lABHcmK gmfGMBD Congruent right correct Normal 480.6152
603 74 LeftSmaller RTTaskAExp1 Prime_9N Target_4N EDemibf gimIBEa Incongruent left correct Normal 492.633
603 75 LeftSmaller RTTaskAExp1 Prime_6N Target_6N jfBLMAD ehKBDdm Congruent right correct Normal 469.7421
603 76 LeftSmaller RTTaskAExp1 Prime_4N Target_9A mDFKjdL LGECgji Incongruent right correct Normal 400.9603
603 77 LeftSmaller RTTaskAExp1 Prime_4N Target_4N DAfCmGa EhaCekG Congruent left correct Normal 446.9319
603 78 LeftSmaller RTTaskAExp1 Prime_1N Target_1A BFkhdGf KImkCha Congruent left correct Normal 408.016
603 79 LeftSmaller RTTaskAExp1 Prime_9A Target_6A EIGmcHe gEMiaFc Congruent right correct Normal 365.9676
603 80 LeftSmaller RTTaskAExp1 Prime_6N Target_1A GjAmhdc giaIFLM Incongruent left correct Normal 374.5026
603 81 LeftSmaller RTTaskAExp1 Prime_6A Target_6N CAjamJl HMhBegi Congruent right correct Normal 409.7599
603 82 LeftSmaller RTTaskAExp1 Prime_1N Target_1N bJFjeKh HCMadLF Congruent left correct Normal 406.302
603 83 LeftSmaller RTTaskAExp1 Prime_9A Target_9N BMGgeAH jihCGcm Congruent right correct Normal 405.6048
603 84 LeftSmaller RTTaskAExp1 Prime_1N Target_4N JFADamH FMBkbld Congruent left correct Normal 475.0354
603 85 LeftSmaller RTTaskAExp1 Prime_4A Target_6N hLIgkBD HFAaEBm Incongruent right correct Normal 421.127
603 86 LeftSmaller RTTaskAExp2 Prime_4N Target_4N ECJjbce bCcgKGD Congruent left correct Normal 435.725
603 87 LeftSmaller RTTaskAExp2 Prime_4A Target_6A JhDIiKf fcDmICl Incongruent right correct Normal 433.5771
603 88 LeftSmaller RTTaskAExp2 Prime_9A Target_1A KEiFIlb FhjEfka Incongruent left correct Normal 390.6032
603 89 LeftSmaller RTTaskAExp2 Prime_1A Target_6A GihDfab lgaGbmk Incongruent right correct Normal 385.7419
603 90 LeftSmaller RTTaskAExp2 Prime_1N Target_4A GMlCkBf AKmBbJa Congruent left correct Normal 520.5521
603 91 LeftSmaller RTTaskAExp2 Prime_6N Target_4N FLMclAd AChimdl Incongruent left correct Normal 464.5997
603 92 LeftSmaller RTTaskAExp2 Prime_1A Target_6N ELgfkFA LhJMIKF Incongruent right correct Normal 404.007
603 93 LeftSmaller RTTaskAExp2 Prime_9N Target_6N IfdDLmE AEdiMJc Congruent right correct Normal 367.736
603 94 LeftSmaller RTTaskAExp2 Prime_6N Target_1N LKfiHbg CmhBJad Incongruent left correct Normal 416.7464
603 95 LeftSmaller RTTaskAExp2 Prime_6A Target_1N IadLCel AaDibEf Incongruent left correct Normal 410.3842
603 96 LeftSmaller RTTaskAExp2 Prime_4A Target_1N dfcBjGA jHFCMIc Congruent left correct Normal 481.6549
603 97 LeftSmaller RTTaskAExp2 Prime_9A Target_9N gGcmHeb fkJgEBd Congruent right correct Normal 431.0712
603 98 LeftSmaller RTTaskAExp2 Prime_6A Target_6A deALFlE LdlCEKJ Congruent left error Normal 400.8657
603 99 LeftSmaller RTTaskAExp2 Prime_9N Target_9A MBcDElJ iMeElCh Congruent right correct Normal 480.5758
603 100 LeftSmaller RTTaskAExp2 Prime_6N Target_4A DjHIFae jJEHbCc Incongruent left correct Normal 458.4975
603 101 LeftSmaller RTTaskAExp2 Prime_1N Target_6A HiajEFA hcIbaiK Incongruent right correct Normal 383.2897
603 102 LeftSmaller RTTaskAExp2 Prime_1A Target_1A EFdKHIh GJjmiLb Congruent left correct Normal 370.7819
603 103 LeftSmaller RTTaskAExp2 Prime_6A Target_9A EBMFfLd IDhMBfJ Congruent right correct Normal 329.2304
603 104 LeftSmaller RTTaskAExp2 Prime_1N Target_1N aceIHGM flGgKkB Congruent left correct Normal 477.5724
603 105 LeftSmaller RTTaskAExp2 Prime_9N Target_9N bdDKJmA BkjebfC Congruent right correct Normal 410.0962
603 106 LeftSmaller RTTaskAExp2 Prime_6N Target_9A FIaBjif jHbIMDd Congruent right correct Normal 411.4501
603 107 LeftSmaller RTTaskAExp2 Prime_1A Target_9A dLJAiDE EJmAIaD Incongruent right correct Normal 386.3602
603 108 LeftSmaller RTTaskAExp2 Prime_1A Target_1N GbDBcje EmMheIk Congruent left correct Normal 441.0983
603 109 LeftSmaller RTTaskAExp2 Prime_9N Target_4A hcCdiaD LaghICK Incongruent left correct Normal 554.8108
603 110 LeftSmaller RTTaskAExp2 Prime_6A Target_6N glmcCAi dDcCIlG Congruent right correct Normal 437.8515
603 111 LeftSmaller RTTaskAExp2 Prime_9A Target_9A ihBEAmk jBdkMig Congruent right correct Normal 412.921
603 112 LeftSmaller RTTaskAExp2 Prime_6A Target_1A MjGhfaD jDBEJlc Incongruent left correct Normal 411.4378
603 113 LeftSmaller RTTaskAExp2 Prime_1A Target_4A JCFBKbH iAhHalg Congruent left correct Normal 579.2203
603 114 LeftSmaller RTTaskAExp2 Prime_4N Target_6A eKLCJGd GlfChBD Incongruent right correct Normal 375.7538
603 115 LeftSmaller RTTaskAExp2 Prime_1N Target_6N kfjgebJ BlaDhcd Incongruent right correct Normal 487.4971
603 116 LeftSmaller RTTaskAExp2 Prime_6N Target_9N JAbclBi khbjdHc Congruent right correct Normal 529.6512
603 117 LeftSmaller RTTaskAExp2 Prime_9A Target_6A CDdJlFA ABlCEDF Congruent right correct Normal 478.3692
603 118 LeftSmaller RTTaskAExp2 Prime_4N Target_4A DJdBAmF AkCbcGh Congruent left correct Normal 477.6626
603 119 LeftSmaller RTTaskAExp2 Prime_9N Target_6A BkeEbMK GkchIMm Congruent right correct Normal 463.6271
603 120 LeftSmaller RTTaskAExp2 Prime_9A Target_4N LFjJegC eiMaKLB Incongruent left correct Normal 552.9889
603 121 LeftSmaller RTTaskAExp2 Prime_4N Target_9A dMbLgFl diaDMkm Incongruent right correct Normal 596.1373
603 122 LeftSmaller RTTaskAExp2 Prime_9N Target_4N hmcbLaK AeDjLGJ Incongruent left correct Normal 442.6743
603 123 LeftSmaller RTTaskAExp2 Prime_1A Target_9N maghDjC IAEimaC Incongruent right correct Normal 496.36
603 124 LeftSmaller RTTaskAExp2 Prime_6A Target_4A IbFMckJ kCEIajB Incongruent left correct Normal 447.6553
603 125 LeftSmaller RTTaskAExp2 Prime_4N Target_9N MhGkDEB lDmJAFI Incongruent right correct Normal 490.7135
603 126 LeftSmaller RTTaskAExp2 Prime_9A Target_6N AjKBfaM dglLHcB Congruent right correct Normal 641.8761
603 127 LeftSmaller RTTaskAExp2 Prime_1N Target_9A kfMadLG EcihjDm Incongruent right correct Normal 473.5115
603 128 LeftSmaller RTTaskAExp2 Prime_4N Target_1A cBJgbim Cdabmif Congruent left correct Normal 430.1941
603 129 LeftSmaller RTTaskAExp2 Prime_4A Target_6N FHkAgfm IkHfdBG Incongruent right correct Normal 437.1053
603 130 LeftSmaller RTTaskAExp2 Prime_1N Target_9N iJGaKmb eAaBGbI Incongruent right correct Normal 445.0054
603 131 LeftSmaller RTTaskAExp2 Prime_6A Target_9N bAGIlfh HcfgDIJ Congruent right correct Normal 445.6764
603 132 LeftSmaller RTTaskAExp2 Prime_4N Target_6N iaAlbcm LHfAmaJ Incongruent right correct Normal 479.3389
603 133 LeftSmaller RTTaskAExp2 Prime_9A Target_4A HDMdlkI fidmLgE Incongruent left correct Normal 435.9976
603 134 LeftSmaller RTTaskAExp2 Prime_4A Target_9A ahKjMli kjlceKm Incongruent right correct Normal 427.4535
603 135 LeftSmaller RTTaskAExp2 Prime_6A Target_6A HLCGAlh bkECDil Congruent left error Normal 488.7136
603 136 LeftSmaller RTTaskAExp2 Prime_1N Target_1A ehGHjFd kJKBECI Congruent left correct Normal 479.1633
603 137 LeftSmaller RTTaskAExp2 Prime_4A Target_4A cbeLfdE lHkfdBL Congruent left correct Normal 433.1541
603 138 LeftSmaller RTTaskAExp2 Prime_9N Target_1N HCEeAjl McdeFfB Incongruent left correct Normal 536.4192
603 139 LeftSmaller RTTaskAExp2 Prime_6A Target_6A BmgHciE aIHEdbB Congruent right correct Normal 454.3185
603 140 LeftSmaller RTTaskAExp2 Prime_4A Target_1A bcMkljm KAiGdBa Congruent left correct Normal 473.3233
603 141 LeftSmaller RTTaskAExp2 Prime_4A Target_9N hdjDEmA DBgAlGM Incongruent right correct Normal 482.4641
603 142 LeftSmaller RTTaskAExp2 Prime_1A Target_4N eLkBhai AfecgkJ Congruent left correct Normal 612.2751
603 143 LeftSmaller RTTaskAExp2 Prime_9A Target_1N fidHjbK fBakMGE Incongruent left correct Normal 432.1825
603 144 LeftSmaller RTTaskAExp2 Prime_6N Target_6A kFEKbmd BhgMkmD Congruent right correct Normal 456.6132
603 145 LeftSmaller RTTaskAExp2 Prime_6A Target_4N IaDgiHG BlLMJKh Incongruent left correct Normal 478.5408
603 146 LeftSmaller RTTaskAExp2 Prime_1N Target_4N mIhBHCb lIdChiK Congruent left correct Normal 414.1768
603 147 LeftSmaller RTTaskAExp2 Prime_6N Target_1A KlbceIA MGbkCef Incongruent left correct Normal 463.0822
603 148 LeftSmaller RTTaskAExp2 Prime_4A Target_4N hAbHcBf MhejEgb Congruent left correct Normal 544.752
603 149 LeftSmaller RTTaskAExp2 Prime_4N Target_1N cdFglEH hejgIDf Congruent left correct Normal 484.7751
603 150 LeftSmaller RTTaskAExp2 Prime_6N Target_6N jBHmIgM FIgcfKE Congruent right correct Normal 502.1066
603 151 LeftSmaller RTTaskAExp2 Prime_9N Target_1A bLcjeKG bDKLgEm Incongruent left correct Normal 459.9852
603 152 LeftLarger RTTaskBPrac Prime_1A Target_9A JImhFlE LhmaGKD Incongruent left correct Normal 395.5116
603 153 LeftLarger RTTaskBPrac Prime_1A Target_9N MJKHIFj cmfaCjh Incongruent left correct Normal 455.5735
603 154 LeftLarger RTTaskBPrac Prime_4N Target_1A LaJdmDh MJIheAb Congruent left error Normal 514.0185
603 155 LeftLarger RTTaskBPrac Prime_4N Target_1A eAhFdBE AaDBGld Congruent right correct Normal 540.5199
603 156 LeftLarger RTTaskBPrac Prime_9A Target_9A BlbIaGL alELhmf Congruent left correct Normal 507.5473
603 157 LeftLarger RTTaskBPrac Prime_4N Target_6A iMGjBAa jGKhCHE Incongruent right error Normal 393.7771
603 158 LeftLarger RTTaskBPrac Prime_1N Target_9N HjdFAae gjBliAE Incongruent left correct Normal 728.5399
603 159 LeftLarger RTTaskBPrac Prime_6A Target_9N DJAcEKg kCEDBml Congruent left correct Normal 506.0865
603 160 LeftLarger RTTaskBPrac Prime_9A Target_6A MImcECl hGjeDJI Congruent left correct Normal 502.2151
603 161 LeftLarger RTTaskBPrac Prime_1A Target_6N DBjEcgf GAhMFkD Incongruent left correct Normal 448.0384
603 162 LeftLarger RTTaskBPrac Prime_4N Target_6A cmDjfHI CAlmEBi Incongruent left correct Normal 466.2215
603 163 LeftLarger RTTaskBPrac Prime_4A Target_6A BdDHbig dkbmLhA Incongruent left correct Normal 430.4966
603 164 LeftLarger RTTaskBPrac Prime_6A Target_1A CBJfaMF gdAfeHb Incongruent right correct Normal 538.6627
603 165 LeftLarger RTTaskBPrac Prime_1N Target_4N cfmdIFa BfdgHkm Congruent right correct Normal 474.1452
603 166 LeftLarger RTTaskBPrac Prime_4N Target_6N ILJFcAl MichkHD Incongruent left correct Normal 419.9945
603 167 LeftLarger RTTaskBPrac Prime_1N Target_6A iBfmIJj dKgieMm Incongruent left correct Normal 474.7795
603 168 LeftLarger RTTaskBPrac Prime_9N Target_4N iHjdLKB iMJEDIB Incongruent right correct Normal 515.4399
603 169 LeftLarger RTTaskBPrac Prime_1A Target_1A mlJADjG igFDIBA Congruent right correct Normal 511.2447
603 170 LeftLarger RTTaskBExp1 Prime_9A Target_4N IDdgekJ dBgJMLK Incongruent right correct Normal 323.4233
603 171 LeftLarger RTTaskBExp1 Prime_6N Target_9N HEDleGj mhDAlab Congruent left correct Normal 398.7978
603 172 LeftLarger RTTaskBExp1 Prime_4N Target_9N gAChefK MAjaCil Incongruent right error Normal 398.4871
603 173 LeftLarger RTTaskBExp1 Prime_1N Target_9N KcLCHJa HjaMFAm Incongruent left correct Normal 419.6429
603 174 LeftLarger RTTaskBExp1 Prime_6N Target_4A ALMimke FIkdmKe Incongruent right correct Normal 437.9816
603 175 LeftLarger RTTaskBExp1 Prime_6A Target_6A egDCMdK EkHFGcB Congruent left correct Normal 476.0159
603 176 LeftLarger RTTaskBExp1 Prime_9N Target_6N MLCmBHc JbjBkCF Congruent left correct Normal 416.939
603 177 LeftLarger RTTaskBExp1 Prime_9N Target_6A dbFGCJf HLhdAMg Congruent left correct Normal 449.612
603 178 LeftLarger RTTaskBExp1 Prime_1N Target_1N mdCAaci CDejcgB Congruent right correct Normal 575.3418
603 179 LeftLarger RTTaskBExp1 Prime_9N Target_1N LDheAck hIDBHdc Incongruent right correct Normal 384.536
603 180 LeftLarger RTTaskBExp1 Prime_1A Target_6N HEclgjf iCelaKF Incongruent left correct Normal 627.7172
603 181 LeftLarger RTTaskBExp1 Prime_6A Target_6N hMJHaKG MKBFlJA Congruent left correct Normal 398.2487
603 182 LeftLarger RTTaskBExp1 Prime_1N Target_6N CbdAaBL eDBbFHl Incongruent left correct Normal 453.8466
603 183 LeftLarger RTTaskBExp1 Prime_9A Target_9A EBeGgbf KmidkBA Congruent right error Normal 431.3091
603 184 LeftLarger RTTaskBExp1 Prime_1A Target_6A aDbGgiL keLmfIb Incongruent left correct Normal 558.0709
603 185 LeftLarger RTTaskBExp1 Prime_4N Target_1N mjBgKMa JbmDKLg Congruent right correct Normal 561.1621
603 186 LeftLarger RTTaskBExp1 Prime_6N Target_4N ieMGdBH FBDJGjM Incongruent right correct Normal 491.7495
603 187 LeftLarger RTTaskBExp1 Prime_4A Target_1A eKHJIDk ELgdHkG Congruent right correct Normal 401.3897
603 188 LeftLarger RTTaskBExp1 Prime_9A Target_9A degMFBa dDHgkIF Congruent left correct Normal 515.4837
603 189 LeftLarger RTTaskBExp1 Prime_6N Target_9A FcCfdae bdmkjle Congruent left correct Normal 423.7069
603 190 LeftLarger RTTaskBExp1 Prime_6N Target_1N GLCkBil HCdciLk Incongruent right correct Normal 495.6224
603 191 LeftLarger RTTaskBExp1 Prime_6A Target_4N cmkEHbM fmdLAjg Incongruent right correct Normal 576.0286
603 192 LeftLarger RTTaskBExp1 Prime_4N Target_4N GjLkecE kJCGhAE Congruent right correct Normal 364.4397
603 193 LeftLarger RTTaskBExp1 Prime_4A Target_6N EBcdkHG BjmkHKA Incongruent left correct Normal 474.994
603 194 LeftLarger RTTaskBExp1 Prime_9A Target_6A HDdBJAf KDHMjgd Congruent left correct Normal 441.7339
603 195 LeftLarger RTTaskBExp1 Prime_4N Target_6N FJIclMa JhcDCfm Incongruent left correct Normal 417.4441
603 196 LeftLarger RTTaskBExp1 Prime_4N Target_9A LieaBDh cLeGHmB Incongruent left correct Normal 616.3325
603 197 LeftLarger RTTaskBExp1 Prime_1A Target_1N Ilfadch FCkaibD Congruent right correct Normal 494.2315
603 198 LeftLarger RTTaskBExp1 Prime_6A Target_1A CLDFdIk CkdhmlB Incongruent right correct Normal 511.6991
603 199 LeftLarger RTTaskBExp1 Prime_4N Target_4A iLDhEeA FeBLhGg Congruent right correct Normal 455.6807
603 200 LeftLarger RTTaskBExp1 Prime_6A Target_9N iJaHIgM cheMBbK Congruent left correct Normal 531.2595
603 201 LeftLarger RTTaskBExp1 Prime_9A Target_4A CfMkBDd MkdIfab Incongruent right correct Normal 456.7855
603 202 LeftLarger RTTaskBExp1 Prime_9N Target_1A AlKgGiE fBGJEld Incongruent right correct Normal 478.8554
603 203 LeftLarger RTTaskBExp1 Prime_6A Target_9A ilHKLje cFIBdlM Congruent left correct Normal 460.2497
603 204 LeftLarger RTTaskBExp1 Prime_1N Target_4N EhdCfje LKhBfcJ Congruent right correct Normal 498.3543
603 205 LeftLarger RTTaskBExp1 Prime_4N Target_1A CjkadGB HgEcAbG Congruent right correct Normal 494.4667
603 206 LeftLarger RTTaskBExp1 Prime_6N Target_1A jHAMlFI DIlcMJE Incongruent right correct Normal 464.262
603 207 LeftLarger RTTaskBExp1 Prime_4A Target_1N BMDfIhb GeImhAM Congruent right correct Normal 558.5516
603 208 LeftLarger RTTaskBExp1 Prime_9N Target_4A aMFHLfi ifLdjIe Incongruent right correct Normal 472.7247
603 209 LeftLarger RTTaskBExp1 Prime_9N Target_9A CiLMgch MKdfCjb Congruent left correct Normal 561.0355
603 210 LeftLarger RTTaskBExp1 Prime_1A Target_4A eaghAmk hLMiIlk Congruent right correct Normal 455.1811
603 211 LeftLarger RTTaskBExp1 Prime_9N Target_4N JMKmDIC aIHgLlj Incongruent right correct Normal 434.0842
603 212 LeftLarger RTTaskBExp1 Prime_6A Target_4A FhbBIgf GaHdMEe Incongruent right correct Normal 410.402
603 213 LeftLarger RTTaskBExp1 Prime_9A Target_1A GJDcbek mAGbiFK Incongruent right correct Normal 459.304
603 214 LeftLarger RTTaskBExp1 Prime_6A Target_1N dAKkcmi IGdfKhH Incongruent right correct Normal 509.2989
603 215 LeftLarger RTTaskBExp1 Prime_4A Target_4A IkhgAJB HBeEICK Congruent right correct Normal 381.9435
603 216 LeftLarger RTTaskBExp1 Prime_4A Target_6A aDfJKiG AmHEjac Incongruent left correct Normal 657.0395
603 217 LeftLarger RTTaskBExp1 Prime_1A Target_1A KlDLkEm damGLMl Congruent right correct Normal 453.1997
603 218 LeftLarger RTTaskBExp1 Prime_9A Target_6N aGMChbA bhJdKGe Congruent left correct Normal 427.9088
603 219 LeftLarger RTTaskBExp1 Prime_4A Target_9N lmiAdbC eFClAca Incongruent left correct Normal 573.3045
603 220 LeftLarger RTTaskBExp1 Prime_1A Target_9N fLDgeHJ baCFdMD Incongruent left correct Normal 423.8201
603 221 LeftLarger RTTaskBExp1 Prime_4N Target_9N hBLiCbK kibgefH Incongruent left correct Normal 427.3367
603 222 LeftLarger RTTaskBExp1 Prime_1N Target_9A DAfGLcI kjgCBFD Incongruent left correct Normal 461.1589
603 223 LeftLarger RTTaskBExp1 Prime_1N Target_1A GMJDIkj lbDEGHa Congruent right correct Normal 421.6063
603 224 LeftLarger RTTaskBExp1 Prime_4N Target_6A cBIjEma MCFkgld Incongruent left correct Normal 571.3504
603 225 LeftLarger RTTaskBExp1 Prime_6N Target_6N EklMFIa CekBIdf Congruent left correct Normal 455.2711
603 226 LeftLarger RTTaskBExp1 Prime_1N Target_6A cDieMla cJiHIfD Incongruent left correct Normal 421.2631
603 227 LeftLarger RTTaskBExp1 Prime_1N Target_4A DAaMIki EBfdaMH Congruent right correct Normal 451.1798
603 228 LeftLarger RTTaskBExp1 Prime_1A Target_9A GkFdjfA GmjBAhK Incongruent left correct Normal 429.7837
603 229 LeftLarger RTTaskBExp1 Prime_9A Target_1N mCIHfGF hEKeGbI Incongruent right correct Normal 416.7427
603 230 LeftLarger RTTaskBExp1 Prime_1A Target_4N EBAFmeC KLeIEaA Congruent right correct Normal 371.1013
603 231 LeftLarger RTTaskBExp1 Prime_4A Target_9A IjDKhcB DklfbgF Incongruent left correct Normal 402.6224
603 232 LeftLarger RTTaskBExp1 Prime_6N Target_6A EDGbkMi GdjDefB Congruent left correct Normal 450.3801
603 233 LeftLarger RTTaskBExp1 Prime_9A Target_9N gmhJAdC EmbfJkh Congruent left correct Normal 552.2886
603 234 LeftLarger RTTaskBExp1 Prime_9N Target_9N DECaHfI gLGAlei Congruent left correct Normal 432.4859
603 235 LeftLarger RTTaskBExp1 Prime_4A Target_4N mlckEgM MGkEgHf Congruent right correct Normal 564.6355
603 236 LeftLarger RTTaskBExp2 Prime_1N Target_6N hkDlAHc MKjbGFB Incongruent left correct Normal 571.6989
603 237 LeftLarger RTTaskBExp2 Prime_9A Target_1A gBADfFJ hlgFBHd Incongruent right correct Normal 344.4891
603 238 LeftLarger RTTaskBExp2 Prime_4N Target_9N FIJbjcf FCAKghi Incongruent left correct Normal 455.0096
603 239 LeftLarger RTTaskBExp2 Prime_9N Target_4A jIDKmcl AmglJEb Incongruent right correct Normal 411.8092
603 240 LeftLarger RTTaskBExp2 Prime_9A Target_9A DkjfLMi dkBmIGg Congruent left correct Normal 412.8279
603 241 LeftLarger RTTaskBExp2 Prime_9A Target_9N mBjelfK LAgDfjF Congruent left correct Normal 401.8882
603 242 LeftLarger RTTaskBExp2 Prime_9A Target_6N FKHeAdJ IJiFlLE Congruent left correct Normal 473.2162
603 243 LeftLarger RTTaskBExp2 Prime_6A Target_1A FlcEGhM gbFGEhL Incongruent right correct Normal 403.5919
603 244 LeftLarger RTTaskBExp2 Prime_6N Target_6N cdBabmh HFJkhfI Congruent left correct Normal 448.6583
603 245 LeftLarger RTTaskBExp2 Prime_9N Target_6N ChcjEMD cAiFfeG Congruent left correct Normal 389.0001
603 246 LeftLarger RTTaskBExp2 Prime_6A Target_1N dkAMJIL IemLgFJ Incongruent right correct Normal 364.5003
603 247 LeftLarger RTTaskBExp2 Prime_9A Target_4N FHMdEIg hIdgbDi Incongruent right correct Normal 455.1238
603 248 LeftLarger RTTaskBExp2 Prime_9N Target_9N jiHcDdC KEJaMIH Congruent left correct Normal 344.3028
603 249 LeftLarger RTTaskBExp2 Prime_4A Target_9A MKghdBI hDAGKmL Incongruent right error Normal 370.1818
603 250 LeftLarger RTTaskBExp2 Prime_6N Target_4N eagKGDL mMCKbFh Incongruent right correct Normal 462.2757
603 251 LeftLarger RTTaskBExp2 Prime_1N Target_4N DhKiIMg IcCgJMA Congruent right correct Normal 421.4099
603 252 LeftLarger RTTaskBExp2 Prime_4N Target_1N IBhCjDm GDJKled Congruent right correct Normal 409.826
603 253 LeftLarger RTTaskBExp2 Prime_4A Target_4N hfCMFEm KdAfJia Congruent right correct Normal 355.8911
603 254 LeftLarger RTTaskBExp2 Prime_1A Target_9A DmljeGg IjkabFH Incongruent left correct Normal 408.4467
603 255 LeftLarger RTTaskBExp2 Prime_6A Target_4N kELbFAd IlfehJB Incongruent right correct Normal 428.2178
603 256 LeftLarger RTTaskBExp2 Prime_1A Target_1N hcFkgda ehGlaBE Congruent right correct Normal 333.493
603 257 LeftLarger RTTaskBExp2 Prime_4N Target_9A dKmBMek FkgfdhC Incongruent right error Normal 349.5759
603 258 LeftLarger RTTaskBExp2 Prime_6A Target_9A FlIJeij DEagGmc Congruent left correct Normal 526.465
603 259 LeftLarger RTTaskBExp2 Prime_6A Target_9N fLgCmkK KIghFAG Congruent left correct Normal 542.6159
603 260 LeftLarger RTTaskBExp2 Prime_9N Target_1A MELhDaf IJfCHdL Incongruent right correct Normal 482.6805
603 261 LeftLarger RTTaskBExp2 Prime_6A Target_6A acBkLEe FJHGKMl Congruent left correct Normal 509.6845
603 262 LeftLarger RTTaskBExp2 Prime_1A Target_4A fcbHAKj fBGDAhb Congruent right correct Normal 486.6202
603 263 LeftLarger RTTaskBExp2 Prime_1N Target_6A KBdfmIe dCjacKH Incongruent left correct Normal 385.1671
603 264 LeftLarger RTTaskBExp2 Prime_1N Target_9A GDkcKBh FfhdHlc Incongruent left correct Normal 393.0342
603 265 LeftLarger RTTaskBExp2 Prime_4A Target_1A DMKmLFj MBmCckK Congruent right correct Normal 400.0032
603 266 LeftLarger RTTaskBExp2 Prime_6N Target_9N AkiKHel GKlbLgd Congruent left correct Normal 519.7701
603 267 LeftLarger RTTaskBExp2 Prime_9N Target_4N ibGFmkg fmjiCLd Incongruent right correct Normal 496.5737
603 268 LeftLarger RTTaskBExp2 Prime_4N Target_1A ACKifEh dimJDHI Congruent right correct Normal 514.3235
603 269 LeftLarger RTTaskBExp2 Prime_4N Target_6N LhDfekI edFkJDG Incongruent left correct Normal 484.0237
603 270 LeftLarger RTTaskBExp2 Prime_1N Target_9N cMdmfBG cidjhIG Incongruent left correct Normal 687.2895
603 271 LeftLarger RTTaskBExp2 Prime_1A Target_6A HKfMhGL imbhKIg Incongruent left correct Normal 394.8097
603 272 LeftLarger RTTaskBExp2 Prime_1A Target_9N cDIHBed hBfiIbc Incongruent left correct Normal 518.9839
603 273 LeftLarger RTTaskBExp2 Prime_9A Target_6A aJAFHlB cMkBILG Congruent left correct Normal 378.3243
603 274 LeftLarger RTTaskBExp2 Prime_6N Target_1N CGFgAid IFMAHgm Incongruent right correct Normal 457.974
603 275 LeftLarger RTTaskBExp2 Prime_4N Target_4A eaMEAmC FdMiHmL Congruent right correct Normal 631.7099
603 276 LeftLarger RTTaskBExp2 Prime_4N Target_9A FEmflaL DfHgGdA Incongruent left correct Normal 418.0608
603 277 LeftLarger RTTaskBExp2 Prime_1A Target_4N cFgBDHK aiLCDkJ Congruent left error Normal 515.4171
603 278 LeftLarger RTTaskBExp2 Prime_6N Target_9A KdiIjCb HfmdjlE Congruent left correct Normal 440.5143
603 279 LeftLarger RTTaskBExp2 Prime_9N Target_6A kIcHMLF icbGEjB Congruent left correct Normal 522.9213
603 280 LeftLarger RTTaskBExp2 Prime_4A Target_6N AhelKLd baBdDAg Incongruent left correct Normal 489.4263
603 281 LeftLarger RTTaskBExp2 Prime_6N Target_6A LmkajEA DBHKFdA Congruent left correct Normal 427.144
603 282 LeftLarger RTTaskBExp2 Prime_4A Target_6A BlhHjkM EjHlDha Incongruent left correct Normal 374.8381
603 283 LeftLarger RTTaskBExp2 Prime_1N Target_1N IChFmGc icGkbaL Congruent right correct Normal 746.623
603 284 LeftLarger RTTaskBExp2 Prime_9A Target_4A BGJhAek IEglMaJ Incongruent right correct Normal 376.888
603 285 LeftLarger RTTaskBExp2 Prime_6A Target_4A mMHGKAL EmfgeGI Incongruent right correct Normal 423.9498
603 286 LeftLarger RTTaskBExp2 Prime_4N Target_6A dakMfbm GMiCmLk Incongruent left correct Normal 475.7013
603 287 LeftLarger RTTaskBExp2 Prime_1N Target_1A gDEkBJa LfdMhiF Congruent right correct Normal 512.3864
603 288 LeftLarger RTTaskBExp2 Prime_6N Target_4A ifgAbJL jcKJChD Incongruent right correct Normal 570.7425
603 289 LeftLarger RTTaskBExp2 Prime_4A Target_1N mFIfHed fClKhjb Congruent right correct Normal 486.1193
603 290 LeftLarger RTTaskBExp2 Prime_9A Target_1N GiBDKJh kJfeDBI Incongruent right correct Normal 578.8704
603 291 LeftLarger RTTaskBExp2 Prime_4A Target_9A BEMbDcL KcMhAdJ Incongruent left correct Normal 437.2663
603 292 LeftLarger RTTaskBExp2 Prime_6A Target_6N HBJCdgG FBlkcEb Congruent left correct Normal 476.5489
603 293 LeftLarger RTTaskBExp2 Prime_4A Target_4A HgdEmJe KcMEAlC Congruent right correct Normal 448.9871
603 294 LeftLarger RTTaskBExp2 Prime_1N Target_4A BkhEAGM MifBdHm Congruent right correct Normal 383.4068
603 295 LeftLarger RTTaskBExp2 Prime_4N Target_4N KMEelkD hdHCgmc Congruent right correct Normal 386.5899
603 296 LeftLarger RTTaskBExp2 Prime_1A Target_4N mMkBChg cfhMCmg Congruent right correct Normal 382.2059
603 297 LeftLarger RTTaskBExp2 Prime_6N Target_1A kbiBHKD GaLFECk Incongruent right correct Normal 626.5264
603 298 LeftLarger RTTaskBExp2 Prime_4A Target_9N AHghEIJ ahkbKAl Incongruent left correct Normal 451.088
603 299 LeftLarger RTTaskBExp2 Prime_1A Target_6N gkMLDBC DeKjELM Incongruent left correct Normal 511.863
603 300 LeftLarger RTTaskBExp2 Prime_9N Target_1N hHlLKDA cfiKBJI Incongruent right correct Normal 516.2694
603 301 LeftLarger RTTaskBExp2 Prime_9N Target_9A IfcmjCB BMdIDLC Congruent left correct Normal 483.088
603 302 LeftLarger RTTaskBExp2 Prime_1A Target_1A LlIhJGC DaJekAl Congruent right correct Normal 520.3162
604 1 LeftLarger RTTaskAPrac Prime_6A Target_6A hAFKEHM EKMAdDm Congruent left correct Normal 862.5725
604 2 LeftLarger RTTaskAPrac Prime_1A Target_6A dEJchFA KIFciDk Incongruent left correct Normal 635.5222
604 3 LeftLarger RTTaskAPrac Prime_6N Target_9A bBfKEcD EdkiFKl Congruent right error Normal 552.9124
604 4 LeftLarger RTTaskAPrac Prime_6A Target_4N iMCeIfB GhefDIJ Incongruent right correct Normal 656.49
604 5 LeftLarger RTTaskAPrac Prime_6N Target_4N AMbKDCE BEAHGKk Incongruent right correct Normal 613.0414
604 6 LeftLarger RTTaskAPrac Prime_1N Target_1N jFDEhak aCAdKgm Congruent right correct Normal 752.3312
604 7 LeftLarger RTTaskAPrac Prime_4A Target_9A dHAmeEc dhJaIDe Incongruent left correct Normal 701.8363
604 8 LeftLarger RTTaskAPrac Prime_6N Target_9A jdCeBAM cJaMIhF Congruent left correct Normal 444.0521
604 9 LeftLarger RTTaskAPrac Prime_1A Target_4N DMmJFHb hmlgaiB Congruent right correct Normal 576.7097
604 10 LeftLarger RTTaskAPrac Prime_9A Target_1A LMfHeEk EGAMhIc Incongruent right correct Normal 518.8865
604 11 LeftLarger RTTaskAPrac Prime_4A Target_9N CAEJHFc MhgkeKb Incongruent left correct Normal 552.5224
604 12 LeftLarger RTTaskAPrac Prime_1A Target_9N FEAieaD mBEIieH Incongruent left correct Normal 471.3517
604 13 LeftLarger RTTaskAPrac Prime_4N Target_9N hJDEekB jFadeKg Incongruent left correct Normal 422.3741
604 14 LeftLarger RTTaskAPrac Prime_1N Target_9A jhFmKML BmeAdgK Incongruent left correct Normal 443.858
604 15 LeftLarger RTTaskAPrac Prime_6N Target_6N JGhCmFM lAHCDEe Congruent left correct Normal 440.8313
