sub trial_no group_type block_type prime target mask1 mask2 congruency key_press key_error time_error RT
111 1 LeftLarger PercCAPrac Prime_1N Target_6A kMjeJHC iBfJGKj Incongruent right error Normal 347.9049
111 2 LeftLarger PercCAPrac Prime_1A Target_4A lkDaAbG LgJajFh Congruent right correct Normal 358.5471
111 3 LeftLarger PercCAPrac Prime_4N Target_4A mKiAgec LImKfiA Congruent left error Normal 396.2241
111 4 LeftLarger PercCAPrac Prime_6N Target_1A LhCKDfc JliLfEI Incongruent left correct Normal 186.5303
111 5 LeftLarger PercCAPrac Prime_6N Target_9N HgfClEK BHbhlak Congruent left error Normal 409.2326
111 6 LeftLarger PercCAPrac Prime_9N Target_6A JmcMgLE FdigaCf Congruent right correct Normal 196.3451
111 7 LeftLarger PercCAPrac Prime_9A Target_9N khBHljG AhbkEfa Congruent left error Normal 193.5187
111 8 LeftLarger PercCAPrac Prime_1N Target_6N EBcmhDe LbHAfgj Incongruent right error Normal 272.4814
111 9 LeftLarger PercCAPrac Prime_9A Target_4N gkalmGE aMEBHDf Incongruent left correct Normal 227.9556
111 10 LeftLarger PercCAPrac Prime_1A Target_9N MIEKBfh IHdGFEM Incongruent right error Normal 202.5976
111 11 LeftLarger PercCAPrac Prime_1A Target_9A BefLFCa dJceGBF Incongruent left correct Normal 366.0118
111 12 LeftLarger PercCAPrac Prime_6N Target_6A fBEAhCc CGAfDak Congruent right correct Normal 419.3045
111 13 LeftLarger PercCAPrac Prime_4N Target_1N bCEHBcF alFeMmB Congruent left error Normal 223.4846
111 14 LeftLarger PercCAPrac Prime_4A Target_4A eEdFmci bfMlCDk Congruent left error Normal 368.0085
111 15 LeftLarger PercCAPrac Prime_6N Target_4N gcGHikJ HIBfEDh Incongruent right error Normal 272.3736
111 16 LeftLarger PercCAPrac Prime_9A Target_4A ekHBMjL aDBeFCk Incongruent left correct Normal 212.9593
111 17 LeftLarger PercCAExp1 Prime_1N Target_9N icmhDMF mJMieDG Incongruent right error Normal 483.7418
111 18 LeftLarger PercCAExp1 Prime_4A Target_9N EhidFjC GglbLKA Incongruent left correct Normal 164.3804
111 19 LeftLarger PercCAExp1 Prime_9A Target_6A EaLkhKA MhBcglG Congruent right correct Normal 194.3944
111 20 LeftLarger PercCAExp1 Prime_4N Target_4A bCBkgim IBlbmdK Congruent right correct Normal 326.6721
111 21 LeftLarger PercCAExp1 Prime_4A Target_9A FBlgJiH dELacgI Incongruent right error Normal 175.3779
111 22 LeftLarger PercCAExp1 Prime_1A Target_6N CGjMAbc cfBMbiF Incongruent left correct Early 44.09155
111 23 LeftLarger PercCAExp1 Prime_9N Target_9N bkjaLed DbecImF Congruent right correct Early 75.52371
111 24 LeftLarger PercCAExp1 Prime_9N Target_6A GgFjdeE hlEGDae Congruent left error Normal 103.3655
111 25 LeftLarger PercCAExp1 Prime_1N Target_1N feiBcbM KFdlJmD Congruent right correct Early 52.54258
111 26 LeftLarger PercCAExp1 Prime_1A Target_4N JKiHDac jeKhidF Congruent left error Early 55.92589
111 27 LeftLarger PercCAExp1 Prime_9N Target_9A LGKaDhe LcGICMh Congruent left error Normal 174.5586
111 28 LeftLarger PercCAExp1 Prime_6A Target_6A fAkIlBG EchljkK Congruent right correct Normal 352.6287
111 29 LeftLarger PercCAExp1 Prime_1N Target_1A hilmFMd BeAlmgc Congruent left error Normal 239.3004
111 30 LeftLarger PercCAExp1 Prime_6A Target_1A hicDFGL LaCIGcB Incongruent right error Normal 188.4343
111 31 LeftLarger PercCAExp1 Prime_9A Target_1A fAbLCad DMdacbF Incongruent left correct Early 74.97772
111 32 LeftLarger PercCAExp1 Prime_6N Target_1N Ljfelmk BIMflJd Incongruent right error Normal 104.0153
111 33 LeftLarger PercCAExp1 Prime_1N Target_9A bjHMfFl emJKIiL Incongruent left correct Early 80.05954
111 34 LeftLarger PercCAExp1 Prime_6A Target_4A mIdEADc mCaDgKk Incongruent right error Normal 103.4592
111 35 LeftLarger PercCAExp1 Prime_4N Target_4N gjEKFeL dGlhHBF Congruent right correct Normal 126.8161
111 36 LeftLarger PercCAExp1 Prime_4A Target_1N KbMceLI FKCMalI Congruent left error Normal 236.5277
111 37 LeftLarger PercCAExp1 Prime_9A Target_4A eGcaCAK edDKLag Incongruent right error Normal 202.4455
111 38 LeftLarger PercCAExp1 Prime_6N Target_6N kjfaFHi IjEHaKJ Congruent left error Normal 147.3453
111 39 LeftLarger PercCAExp1 Prime_1A Target_1N HJbliEk DedaLBK Congruent right correct Early 41.67253
111 40 LeftLarger PercCAExp1 Prime_9N Target_1A leKMhDL KfjkBDL Incongruent left correct Early 2.862687
111 41 LeftLarger PercCAExp1 Prime_9A Target_4N JEflkie FheJfED Incongruent right error Early 2.922365
111 42 LeftLarger PercCAExp1 Prime_9A Target_9N FECHgGd bFLdJIG Congruent left error Normal 180.3738
111 43 LeftLarger PercCAExp1 Prime_4N Target_1N ihFCIdc IMdCAJg Congruent right correct Early 40.18618
111 44 LeftLarger PercCAExp1 Prime_9A Target_6N bmkIECi kbEiIDa Congruent left error Early 24.36283
111 45 LeftLarger PercCAExp1 Prime_9N Target_4N iLbAfkg feLcBaG Incongruent left correct Normal 140.732
111 46 LeftLarger PercCAExp1 Prime_1N Target_4N DgbaIeG FbJHMBK Congruent right correct Normal 115.1364
111 47 LeftLarger PercCAExp1 Prime_6N Target_9A eMFIADJ gFHMjAb Congruent right correct Early 95.91389
111 48 LeftLarger PercCAExp1 Prime_6N Target_6A mAGJKck BKJIgaf Congruent right correct Normal 144.6164
111 49 LeftLarger PercCAExp1 Prime_4A Target_6N HdEbFkA BHFAjCG Incongruent left correct Normal 168.0003
111 50 LeftLarger PercCAExp1 Prime_9A Target_9A laekFdG gEeClDk Congruent right correct Normal 161.1113
111 51 LeftLarger PercCAExp1 Prime_9N Target_1N KfDmkFI FldmibM Incongruent right error Normal 182.4337
111 52 LeftLarger PercCAExp1 Prime_1A Target_9N EHikaBg LIjBmcF Incongruent right error Normal 326.964
111 53 LeftLarger PercCAExp1 Prime_6A Target_9A hJKmjEA dmEDkHC Congruent left error Normal 135.759
111 54 LeftLarger PercCAExp1 Prime_9A Target_1N cBLFJEH daGMJkH Incongruent right error Early 93.05133
111 55 LeftLarger PercCAExp1 Prime_1N Target_6A kahiClI DBcGCHd Incongruent right error Normal 141.4461
111 56 LeftLarger PercCAExp1 Prime_1N Target_4A febEAil DdifjMb Congruent left error Normal 118.3777
111 57 LeftLarger PercCAExp1 Prime_4A Target_4N mHEekDf dbgHjfl Congruent left error Normal 202.4011
111 58 LeftLarger PercCAExp1 Prime_1A Target_9A MklagdG mgCcDKa Incongruent right error Early 55.30121
111 59 LeftLarger PercCAExp1 Prime_9N Target_6N jhiCGkA ClEBAfd Congruent left error Early 38.27188
111 60 LeftLarger PercCAExp1 Prime_1A Target_1A AFdiImJ ehfCLkl Congruent right correct Early 31.90388
111 61 LeftLarger PercCAExp1 Prime_6A Target_1N gAfLiHI AbdmaMj Incongruent left correct Early 73.27879
111 62 LeftLarger PercCAExp1 Prime_4N Target_9N bFGjCiH MBkIiKg Incongruent right error Early 72.78219
111 63 LeftLarger PercCAExp1 Prime_6N Target_1A IbKkLCJ iHcKLCM Incongruent right error Early 97.84638
111 64 LeftLarger PercCAExp1 Prime_6A Target_6N hjmkFEc CkGAlbJ Congruent left error Normal 314.5182
111 65 LeftLarger PercCAExp1 Prime_4A Target_6A KDBjcFI CGIHiML Incongruent right error Normal 109.5764
111 66 LeftLarger PercCAExp1 Prime_4N Target_9A bHCfAFe dhlbIKM Incongruent right error Normal 238.4512
111 67 LeftLarger PercCAExp1 Prime_1N Target_6N mcGLjFk CiFEdIm Incongruent right error Normal 322.6196
111 68 LeftLarger PercCAExp1 Prime_4N Target_6A CmkGjce mbhFCcM Incongruent left correct Normal 320.7311
111 69 LeftLarger PercCAExp1 Prime_1A Target_6A IgkcDaj GCibcMh Incongruent left correct Normal 342.5824
111 70 LeftLarger PercCAExp1 Prime_6N Target_4N lLKIjcf AJmdCae Incongruent left correct Normal 309.8074
111 71 LeftLarger PercCAExp1 Prime_1A Target_4A fLijaeG LJgDmiM Congruent right correct Normal 461.2859
111 72 LeftLarger PercCAExp1 Prime_4N Target_1A DkCEBlH dbjDegA Congruent right correct Normal 254.8092
111 73 LeftLarger PercCAExp1 Prime_6N Target_4A LhlBiaF bcjMAFB Incongruent left correct Normal 282.719
111 74 LeftLarger PercCAExp1 Prime_4A Target_1A HLMlkfh DHhJKbM Congruent right correct Normal 212.5966
111 75 LeftLarger PercCAExp1 Prime_6A Target_9N efjCdLG BEjGDAl Congruent right correct Normal 316.6145
111 76 LeftLarger PercCAExp1 Prime_4N Target_6N aKldCfh CgMdcGm Incongruent right error Normal 397.9145
111 77 LeftLarger PercCAExp1 Prime_6A Target_4N bgcJEAm jKCdaJk Incongruent left correct Normal 267.0751
111 78 LeftLarger PercCAExp1 Prime_4A Target_4A gKACkHj DJBcHfK Congruent right correct Normal 186.9203
111 79 LeftLarger PercCAExp1 Prime_9N Target_4A FgJbild JmFeKMD Incongruent left correct Normal 131.4418
111 80 LeftLarger PercCAExp1 Prime_6N Target_9N eilbHJd ajDClmh Congruent left error Normal 413.975
111 81 LeftSmaller PercCBPrac Prime_9N Target_1A DEgLMKb MjhlbCH Incongruent right correct Normal 369.6144
111 82 LeftSmaller PercCBPrac Prime_4A Target_1A HIBMglL CkGaHIj Congruent right error Normal 290.6301
111 83 LeftSmaller PercCBPrac Prime_9N Target_6N GKBImad MHFgJjL Congruent left correct Normal 291.4132
111 84 LeftSmaller PercCBPrac Prime_1N Target_4A dlkjDma maBlejH Congruent left correct Normal 376.9475
111 85 LeftSmaller PercCBPrac Prime_9N Target_9N CDGKgAL mjAFlbD Congruent left correct Normal 252.9924
111 86 LeftSmaller PercCBPrac Prime_1A Target_6A ADgFCaG JAGlcEk Incongruent right correct Normal 325.1609
111 87 LeftSmaller PercCBPrac Prime_1N Target_4N LcJdljm aibeJgl Congruent left correct Normal 320.9373
111 88 LeftSmaller PercCBPrac Prime_4N Target_9A BlcjfaI AKCbjEc Incongruent right correct Normal 234.4849
111 89 LeftSmaller PercCBPrac Prime_9A Target_1N dKlIhBF FahgLek Incongruent left error Normal 349.7503
111 90 LeftSmaller PercCBPrac Prime_6N Target_1A GEjFIfb KCBEgIm Incongruent left error Normal 239.7517
111 91 LeftSmaller PercCBPrac Prime_1A Target_1A JMhbcDi ikmJFBL Congruent right error Early 66.15114
111 92 LeftSmaller PercCBPrac Prime_4A Target_9A eICfKFg dECfIeA Incongruent left error Early 93.87514
111 93 LeftSmaller PercCBPrac Prime_4N Target_9N figmbIa LMbCdck Incongruent right correct Early 89.57564
111 94 LeftSmaller PercCBPrac Prime_6A Target_4N HAiekgd cFgkIAi Incongruent left error Normal 153.3005
111 95 LeftSmaller PercCBPrac Prime_1A Target_9A ifMABmh mailMgE Incongruent left error Normal 223.3601
111 96 LeftSmaller PercCBPrac Prime_9A Target_4A icHCJgK jgcdDbI Incongruent right correct Early 95.36383
111 97 LeftSmaller PercCBExp1 Prime_4N Target_9N IMGEfem AcECDmg Incongruent right correct Normal 362.552
111 98 LeftSmaller PercCBExp1 Prime_9A Target_4A JIclhdj BEIlmFf Incongruent left error Normal 170.868
111 99 LeftSmaller PercCBExp1 Prime_6N Target_9N mlAfcGI GgCifma Congruent left correct Normal 228.6051
111 100 LeftSmaller PercCBExp1 Prime_1A Target_1A fmbjICl EmJbHeM Congruent right error Early 67.78121
111 101 LeftSmaller PercCBExp1 Prime_6A Target_9A adleIMJ FhLIBjm Congruent left correct Early 57.93257
111 102 LeftSmaller PercCBExp1 Prime_1A Target_6N JDHkgmb jKdcBIA Incongruent right correct Normal 192.2205
111 103 LeftSmaller PercCBExp1 Prime_1A Target_4A fFMGEbe aHjLDlf Congruent left correct Normal 155.5213
111 104 LeftSmaller PercCBExp1 Prime_1A Target_9A defiAab GcEIHAi Incongruent right correct Normal 137.0491
111 105 LeftSmaller PercCBExp1 Prime_6N Target_4A DdLFhCc EDAMgch Incongruent right correct Normal 177.055
111 106 LeftSmaller PercCBExp1 Prime_1A Target_1N JBbagiM EeDbaGf Congruent left correct Normal 192.2177
111 107 LeftSmaller PercCBExp1 Prime_6N Target_6A hAcjCHa dmBHJGF Congruent right error Normal 211.0146
111 108 LeftSmaller PercCBExp1 Prime_6N Target_4N fJegkbF cMfAgaD Incongruent left error Normal 138.4112
111 109 LeftSmaller PercCBExp1 Prime_9N Target_6N amLeHlh bemkDMF Congruent right error Normal 184.215
111 110 LeftSmaller PercCBExp1 Prime_1N Target_9N KLMHFki gjiACLM Incongruent left error Normal 214.6309
111 111 LeftSmaller PercCBExp1 Prime_4N Target_6A MiLkeJB eIBmKEh Incongruent right correct Normal 178.9941
111 112 LeftSmaller PercCBExp1 Prime_4A Target_6N CFlEjbf jeJIBcA Incongruent left error Normal 100.1807
111 113 LeftSmaller PercCBExp1 Prime_9N Target_1A HBcGfDg acAkdFm Incongruent right correct Normal 185.9779
111 114 LeftSmaller PercCBExp1 Prime_6A Target_1N JDfjdHA GafAHEi Incongruent left error Early 98.3575
111 115 LeftSmaller PercCBExp1 Prime_1A Target_4N cHCLfgb HLIfgBM Congruent right error Early 81.92763
111 116 LeftSmaller PercCBExp1 Prime_4A Target_6A jlhIJKM IkCMDej Incongruent left error Early 57.55275
111 117 LeftSmaller PercCBExp1 Prime_4N Target_9A fJkmljI gIlmLHb Incongruent left error Normal 121.6252
111 118 LeftSmaller PercCBExp1 Prime_1N Target_1N aGbBLkJ jJlGHfM Congruent right error Early 84.14904
111 119 LeftSmaller PercCBExp1 Prime_4A Target_9N mAgiCbM JELDcaB Incongruent left error Early 95.46158
111 120 LeftSmaller PercCBExp1 Prime_6N Target_1N gALfdJM IkLgiMK Incongruent left error Normal 165.8436
111 121 LeftSmaller PercCBExp1 Prime_6A Target_1A KFAJhfM GmfJEAM Incongruent right correct Early 93.88027
111 122 LeftSmaller PercCBExp1 Prime_6A Target_6A MLGhEBd IFCbdmc Congruent right error Normal 362.6691
111 123 LeftSmaller PercCBExp1 Prime_1N Target_1A cIAeLMa FHbEkID Congruent left correct Normal 219.6953
111 124 LeftSmaller PercCBExp1 Prime_1N Target_4A BIMlDKg JmfHFBa Congruent left correct Normal 224.6228
111 125 LeftSmaller PercCBExp1 Prime_6A Target_4N cimlLIB LFCakHD Incongruent left error Normal 257.0939
111 126 LeftSmaller PercCBExp1 Prime_9A Target_4N LfMgBHK dejhiaF Incongruent right correct Early 72.81856
111 127 LeftSmaller PercCBExp1 Prime_9A Target_6N IMAcihD ClmBgjb Congruent left correct Normal 177.1874
111 128 LeftSmaller PercCBExp1 Prime_9N Target_9N GbecJDm bCaIBjk Congruent right error Early 76.14285
111 129 LeftSmaller PercCBExp1 Prime_4N Target_4N DBfJKal jfidFCa Congruent right error Early 80.29288
111 130 LeftSmaller PercCBExp1 Prime_9N Target_1N bKElhDF eBjHifF Incongruent left error Early 79.80848
111 131 LeftSmaller PercCBExp1 Prime_1N Target_4N dFblAmG chgkjAf Congruent left correct Early 98.49331
111 132 LeftSmaller PercCBExp1 Prime_4A Target_9A ljmeiLf jMgGHkl Incongruent right correct Early 79.11021
111 133 LeftSmaller PercCBExp1 Prime_6A Target_4A HLBhlcj iIADJCj Incongruent left error Early 6.881632
111 134 LeftSmaller PercCBExp1 Prime_4A Target_4A MJcmGAB BmcAbig Congruent right error Early 99.83358
111 135 LeftSmaller PercCBExp1 Prime_6A Target_6N BLgadlH AcKbMaL Congruent left correct Early 85.00301
111 136 LeftSmaller PercCBExp1 Prime_1N Target_6A kaegcBj ldbLDFe Incongruent right correct Early 99.7906
111 137 LeftSmaller PercCBExp1 Prime_9A Target_9A CHMeBaA ADCjamG Congruent left correct Early 60.3533
111 138 LeftSmaller PercCBExp1 Prime_9N Target_6A bgmHfci JcbdigL Congruent right error Early 2.666377
111 139 LeftSmaller PercCBExp1 Prime_4N Target_1N EkJjhBe DiajEdh Congruent left correct Early 27.00128
111 140 LeftSmaller PercCBExp1 Prime_4A Target_4N CLBkMdE IhiLFHd Congruent right error Normal 157.6676
111 141 LeftSmaller PercCBExp1 Prime_9N Target_9A JcHaeCm eaBHIJk Congruent left correct Normal 177.8181
111 142 LeftSmaller PercCBExp1 Prime_1N Target_6N GBfAkKd lagCGAE Incongruent right correct Early 83.12271
111 143 LeftSmaller PercCBExp1 Prime_4N Target_4A ljaDmBk KCMbGDB Congruent left correct Normal 120.2753
111 144 LeftSmaller PercCBExp1 Prime_6N Target_6N mebGEid dMjcJel Congruent right error Normal 118.1957
111 145 LeftSmaller PercCBExp1 Prime_1A Target_6A LBmIbDc FGcbLJl Incongruent left error Normal 175.2314
111 146 LeftSmaller PercCBExp1 Prime_9A Target_9N cMjgHaL laMHBbd Congruent right error Normal 202.3878
111 147 LeftSmaller PercCBExp1 Prime_4N Target_6N maBidMI abfgdHB Incongruent right correct Normal 233.0847
111 148 LeftSmaller PercCBExp1 Prime_1N Target_9A BjAcJFh EBMIHgh Incongruent left error Normal 141.0898
111 149 LeftSmaller PercCBExp1 Prime_4A Target_1A cABgaLF LgKemdc Congruent right error Early 59.26644
111 150 LeftSmaller PercCBExp1 Prime_9A Target_1N lHJDafi FlMEGBg Incongruent left error Early 75.29958
111 151 LeftSmaller PercCBExp1 Prime_4A Target_1N jdEmkIL iDLcFja Congruent right error Early 73.97362
111 152 LeftSmaller PercCBExp1 Prime_4N Target_1A FHCeLMj cGIFeBh Congruent left correct Early 85.84416
111 153 LeftSmaller PercCBExp1 Prime_6N Target_1A LEMFlac BIKeiMj Incongruent left error Normal 172.1186
111 154 LeftSmaller PercCBExp1 Prime_9A Target_1A GlmJBih MCibGJE Incongruent right correct Early 85.80028
111 155 LeftSmaller PercCBExp1 Prime_6N Target_9A JbEgBmi AiILBDG Congruent left correct Normal 103.0954
111 156 LeftSmaller PercCBExp1 Prime_9N Target_4A EcbMmjg JKGECbm Incongruent right correct Early 49.26769
111 157 LeftSmaller PercCBExp1 Prime_9A Target_6A MlhGfdL jAFEmgl Congruent left correct Early 34.53312
111 158 LeftSmaller PercCBExp1 Prime_1A Target_9N CLdciIk EJLFDgc Incongruent right correct Early 15.09699
111 159 LeftSmaller PercCBExp1 Prime_9N Target_4N jiCAkcE gGjFkeE Incongruent left error Early 3.207691
111 160 LeftSmaller PercCBExp1 Prime_6A Target_9N aiCdbhI AMgIKHm Congruent right error Early 29.01823
112 1 LeftSmaller PercCAPrac Prime_1A Target_4N defkcDb HDdlMJj Congruent right error Normal 1145.85
112 2 LeftSmaller PercCAPrac Prime_6N Target_6A AgBedJF JHdfFeL Congruent right error Normal 1147.266
112 3 LeftSmaller PercCAPrac Prime_6A Target_9A GgDjHLC ChfeimH Congruent left correct Normal 709.8279
112 4 LeftSmaller PercCAPrac Prime_9A Target_6N hAljFCf dCfmIHA Congruent right error Normal 856.6343
112 5 LeftSmaller PercCAPrac Prime_1A Target_1N mGkcEDI dLFcehM Congruent right error Normal 1295.268
112 6 LeftSmaller PercCAPrac Prime_6A Target_1A bBajdgi dBbFMgK Incongruent left error Normal 748.9927
112 7 LeftSmaller PercCAPrac Prime_9N Target_4A klegFjM BmDhkIL Incongruent right correct Normal 907.8354
112 8 LeftSmaller PercCAPrac Prime_4A Target_4N LfgemGj gMBJGlk Congruent left correct Normal 1469.136
112 9 LeftSmaller PercCAPrac Prime_6A Target_6A AmEFeGK ebjgAFI Congruent left correct Normal 1043.254
112 10 LeftSmaller PercCAPrac Prime_4N Target_1A AKkEBec hcLHFIm Congruent left correct Normal 1265.652
112 11 LeftSmaller PercCAPrac Prime_9A Target_1A MGCfmcL FEmgldM Incongruent right correct Normal 786.6762
112 12 LeftSmaller PercCAPrac Prime_1N Target_4N lDMHgfC HLBkKbh Congruent left correct Normal 1065.416
112 13 LeftSmaller PercCAPrac Prime_6N Target_9A FJKmiDM MfciIAg Congruent right error Normal 844.8322
112 14 LeftSmaller PercCAPrac Prime_9A Target_9N FKLfHmM Jlbfcgh Congruent left correct Normal 941.7631
112 15 LeftSmaller PercCAPrac Prime_9A Target_6A mDILdKF MaBbDAK Congruent left correct Normal 1091.021
112 16 LeftSmaller PercCAPrac Prime_1N Target_9N FgdbBLj hEligbf Incongruent right correct Normal 902.8481
112 17 LeftSmaller PercCAExp1 Prime_6A Target_1N caLlhKH jDakEAC Incongruent right correct Normal 1151.109
112 18 LeftSmaller PercCAExp1 Prime_1A Target_1N CBIdfJk DMfHlCm Congruent left correct Normal 1064.465
112 19 LeftSmaller PercCAExp1 Prime_9A Target_1N LMmegIh becLCEd Incongruent left error Normal 1034.643
112 20 LeftSmaller PercCAExp1 Prime_9A Target_6A FAblBem dFcbmej Congruent left correct Normal 1116.303
112 21 LeftSmaller PercCAExp1 Prime_4N Target_9A GlfcLeD AlbKHfi Incongruent left error Normal 846.4796
112 22 LeftSmaller PercCAExp1 Prime_9A Target_6N HlcMFkm AjHKFJi Congruent right error Normal 2432.88
112 23 LeftSmaller PercCAExp1 Prime_9N Target_9A mgBIbAK cmFJkah Congruent right error Normal 1783.098
112 24 LeftSmaller PercCAExp1 Prime_4A Target_9A eCjldMb McJGAFm Incongruent left error Normal 1023.042
112 25 LeftSmaller PercCAExp1 Prime_1N Target_6N CHbLgij eclfIAC Incongruent left error Normal 1691.827
112 26 LeftSmaller PercCAExp1 Prime_4A Target_1A kIimGed mJegdDk Congruent right error Normal 1454.633
112 27 LeftSmaller PercCAExp1 Prime_6A Target_6N geHBlmE elkBHgh Congruent right error Normal 1298.215
112 28 LeftSmaller PercCAExp1 Prime_1A Target_6N dhgfcFK iDFhLmf Incongruent left error Normal 968.8766
112 29 LeftSmaller PercCAExp1 Prime_6N Target_4A HAjEbgf Bgdhlje Incongruent right correct Normal 1522.551
112 30 LeftSmaller PercCAExp1 Prime_9A Target_1A DbEfLcJ jFDcEdC Incongruent left error Normal 1337.906
112 31 LeftSmaller PercCAExp1 Prime_9N Target_6N jmAJIHl haMDBbd Congruent left correct Normal 1172.416
112 32 LeftSmaller PercCAExp1 Prime_6N Target_4N KjGgFel FBKMEGj Incongruent right correct Normal 1247.612
112 33 LeftSmaller PercCAExp1 Prime_6A Target_9N EABFfIa BDCkKbE Congruent right error Normal 996.1873
112 34 LeftSmaller PercCAExp1 Prime_4N Target_4N DlhCMma iLDAlJB Congruent left correct Normal 1259.21
112 35 LeftSmaller PercCAExp1 Prime_1N Target_4N IGJeKFg bGHLJCk Congruent right error Normal 1334.51
112 36 LeftSmaller PercCAExp1 Prime_4A Target_1N JbKDgfC cmLbfGd Congruent right error Normal 1334.31
112 37 LeftSmaller PercCAExp1 Prime_9N Target_1A HihgfLd JDLmFIl Incongruent right correct Normal 1341.68
112 38 LeftSmaller PercCAExp1 Prime_1A Target_1A keKhEcd DClmbke Congruent left correct Normal 927.0806
112 39 LeftSmaller PercCAExp1 Prime_6N Target_9N iDLABlM FMiLhac Congruent right error Normal 1506.354
112 40 LeftSmaller PercCAExp1 Prime_6N Target_1A GMgLKAF HBEFhie Incongruent left error Normal 1227.787
112 41 LeftSmaller PercCAExp1 Prime_9A Target_9N FblfckL LIlbikf Congruent left correct Normal 2440.084
112 42 LeftSmaller PercCAExp1 Prime_4N Target_4A DGgJFEa JLFbMem Congruent left correct Normal 1503.301
112 43 LeftSmaller PercCAExp1 Prime_6N Target_9A fAiJFmB DfiegLl Congruent right error Normal 1312.063
112 44 LeftSmaller PercCAExp1 Prime_1A Target_9A hklFLcG IiCbKla Incongruent right correct Normal 1174.795
112 45 LeftSmaller PercCAExp1 Prime_1A Target_4N bJGMECB CaKDMHe Congruent left correct Normal 1626.436
112 46 LeftSmaller PercCAExp1 Prime_1A Target_9N ImAlLiH djCiBJc Incongruent left error Normal 1456.532
112 47 LeftSmaller PercCAExp1 Prime_1A Target_4A cCHAgKF HGjDBFE Congruent right error Normal 949.6044
112 48 LeftSmaller PercCAExp1 Prime_4A Target_4A iHbGhjg ebEiHhf Congruent left correct Normal 879.2011
112 49 LeftSmaller PercCAExp1 Prime_6A Target_6A JKLHgfk McLHgFB Congruent left correct Normal 1470.675
112 50 LeftSmaller PercCAExp1 Prime_4A Target_9N lhJeCgK JEkadhl Incongruent left error Normal 1121.123
112 51 LeftSmaller PercCAExp1 Prime_1N Target_6A EBLgJkF jFfBdID Incongruent right correct Normal 1364.29
112 52 LeftSmaller PercCAExp1 Prime_1N Target_9A cbHKdEh jKDFfHI Incongruent right correct Normal 1156.199
112 53 LeftSmaller PercCAExp1 Prime_4A Target_4N FbjdLlJ EjhBMIa Congruent right error Normal 1371.2
112 54 LeftSmaller PercCAExp1 Prime_6N Target_1N ClBAajg KdLhDeM Incongruent left error Normal 1281.323
112 55 LeftSmaller PercCAExp1 Prime_4A Target_6N eALDFbk cJibMkB Incongruent right correct Normal 1407.003
112 56 LeftSmaller PercCAExp1 Prime_9N Target_9N lgedAhL afIEbck Congruent right error Normal 1798.15
112 57 LeftSmaller PercCAExp1 Prime_1N Target_4A EAIMHfF AmkgKCb Congruent left correct Normal 1374.893
112 58 LeftSmaller PercCAExp1 Prime_9A Target_4A eaHCdEI eDEBjmd Incongruent left error Normal 1319.419
112 59 LeftSmaller PercCAExp1 Prime_1A Target_6A FmHAMcC BAfEjIK Incongruent right correct Normal 962.2949
112 60 LeftSmaller PercCAExp1 Prime_9N Target_4N IhcJlfi hFkjLAE Incongruent left error Normal 1182.191
112 61 LeftSmaller PercCAExp1 Prime_9N Target_6A DMJaGgH lcKjAJm Congruent right error Normal 964.0865
112 62 LeftSmaller PercCAExp1 Prime_6A Target_4N bmfEhGJ IbgDamf Incongruent left error Normal 1593.788
112 63 LeftSmaller PercCAExp1 Prime_4N Target_9N LJkeEbf EbBkmci Incongruent right correct Normal 1620.326
112 64 LeftSmaller PercCAExp1 Prime_6N Target_6A FIDElLK AJeKiaG Congruent right error Normal 1732.996
112 65 LeftSmaller PercCAExp1 Prime_1N Target_1N EDfmjcM JAHGkfM Congruent left correct Normal 1326.588
112 66 LeftSmaller PercCAExp1 Prime_9A Target_4N FfIgDAB cgFdDlI Incongruent left error Normal 1695.353
112 67 LeftSmaller PercCAExp1 Prime_6A Target_9A hEdBkFH ICDAlJE Congruent left correct Normal 1027.078
112 68 LeftSmaller PercCAExp1 Prime_1N Target_9N JMaLgik IFAmacM Incongruent right correct Normal 1106.501
112 69 LeftSmaller PercCAExp1 Prime_4A Target_6A dAfMeCH lGbCdmI Incongruent left error Normal 1397.189
112 70 LeftSmaller PercCAExp1 Prime_1N Target_1A HdfhACL gEdkLlc Congruent right error Normal 1094.626
112 71 LeftSmaller PercCAExp1 Prime_6A Target_4A dkbjHLE kGgHmJe Incongruent left error Normal 1706.149
112 72 LeftSmaller PercCAExp1 Prime_9A Target_9A LAdgaIM fdJABCb Congruent right error Normal 734.1242
112 73 LeftSmaller PercCAExp1 Prime_6A Target_1A CIekhlM jBLKbFk Incongruent left error Normal 983.5244
112 74 LeftSmaller PercCAExp1 Prime_9N Target_4A FDkICmj cfblKCm Incongruent left error Normal 1211.158
112 75 LeftSmaller PercCAExp1 Prime_4N Target_1N lgAGKjk BgDaKEA Congruent right error Normal 1599.99
112 76 LeftSmaller PercCAExp1 Prime_4N Target_6A egIiGMJ iFlJBcH Incongruent right correct Normal 1240.823
112 77 LeftSmaller PercCAExp1 Prime_4N Target_1A geGLMdJ EjbMgFd Congruent left correct Normal 1455.746
112 78 LeftSmaller PercCAExp1 Prime_4N Target_6N ieJcaAI jfadEcB Incongruent right correct Normal 1584.666
112 79 LeftSmaller PercCAExp1 Prime_9N Target_1N FBMmcCg dfcCDMH Incongruent right correct Normal 1727.323
112 80 LeftSmaller PercCAExp1 Prime_6N Target_6N KAGfFHg BcIhFfb Congruent right error Normal 2012.161
112 81 LeftLarger PercCBPrac Prime_1N Target_4A jiHCKlk hgbALmJ Congruent right correct Normal 1191.254
112 82 LeftLarger PercCBPrac Prime_1A Target_9A akmIJCe aBcAjlL Incongruent right error Normal 971.3035
112 83 LeftLarger PercCBPrac Prime_9N Target_6A gAhKGJl HjbfIBc Congruent left error Normal 649.8829
112 84 LeftLarger PercCBPrac Prime_1N Target_1N HGBbEal DAcegla Congruent right correct Normal 1500.892
112 85 LeftLarger PercCBPrac Prime_6N Target_1N MdgmiJK hkGjmFe Incongruent left correct Normal 1026.471
112 86 LeftLarger PercCBPrac Prime_6A Target_9N ljAEDHJ IhfjgcB Congruent left error Normal 1569.535
112 87 LeftLarger PercCBPrac Prime_1N Target_6N LjkbcJI bAkDFcG Incongruent right error Normal 730.5851
112 88 LeftLarger PercCBPrac Prime_4A Target_1A aCgmjJH jLJIcde Congruent right correct Normal 1240.558
112 89 LeftLarger PercCBPrac Prime_4N Target_9N LdkJlCa AKglbjJ Incongruent left correct Normal 1376.308
112 90 LeftLarger PercCBPrac Prime_9N Target_9N gbCEiFa DBHIKml Congruent left error Normal 879.9545
112 91 LeftLarger PercCBPrac Prime_6A Target_1N gGCFIej fclmKHM Incongruent left correct Normal 2148.385
112 92 LeftLarger PercCBPrac Prime_4A Target_4A dAHMkaK elHcjEg Congruent right correct Normal 1651.31
112 93 LeftLarger PercCBPrac Prime_9A Target_1N fAEdegb MlgCIED Incongruent right error Normal 1340.595
112 94 LeftLarger PercCBPrac Prime_6N Target_4A ALFgicG mjMGBeg Incongruent left correct Normal 1459.196
112 95 LeftLarger PercCBPrac Prime_1A Target_9N CAeIfLh MiCdKae Incongruent left correct Normal 1290.028
112 96 LeftLarger PercCBPrac Prime_1N Target_6A blFGMDK ajEFGDM Incongruent left correct Normal 1771.82
112 97 LeftLarger PercCBExp1 Prime_6N Target_4A LakEbIi EBmkJKG Incongruent right error Normal 1161.043
112 98 LeftLarger PercCBExp1 Prime_9A Target_6N BAmKIgl KfGaClj Congruent left error Normal 1057.028
112 99 LeftLarger PercCBExp1 Prime_1N Target_1N aBLgGjh CgGDaFk Congruent left error Normal 1619.583
112 100 LeftLarger PercCBExp1 Prime_6A Target_9N LMcDabC fABEFcd Congruent left error Normal 1090.002
112 101 LeftLarger PercCBExp1 Prime_4N Target_4N KcmbHed aEcKiFh Congruent right correct Normal 974.2955
112 102 LeftLarger PercCBExp1 Prime_6N Target_6A EIKhDiF lJMmDKB Congruent left error Normal 1439.571
112 103 LeftLarger PercCBExp1 Prime_6A Target_9A kiHeCJf laehjgi Congruent right correct Normal 2059.548
112 104 LeftLarger PercCBExp1 Prime_1N Target_9A ECJijmk FcBEDGC Incongruent left correct Normal 1450.089
112 105 LeftLarger PercCBExp1 Prime_1N Target_4N BCGFMhi BmjHFCb Congruent left error Normal 2332.648
112 106 LeftLarger PercCBExp1 Prime_4N Target_9A FLAkEDC IhEBiFM Incongruent right error Normal 1182.111
112 107 LeftLarger PercCBExp1 Prime_1A Target_1N ciheGAf BaiFLJd Congruent left error Normal 2257.164
112 108 LeftLarger PercCBExp1 Prime_6A Target_6N JjaLKbH kAfHeJK Congruent left error Normal 1576.382
112 109 LeftLarger PercCBExp1 Prime_1N Target_6A CgIMeDk dIMbfAE Incongruent left correct Normal 1692.364
112 110 LeftLarger PercCBExp1 Prime_9A Target_4A AicCeKl JMdDGBf Incongruent right error Normal 1292.36
112 111 LeftLarger PercCBExp1 Prime_6N Target_9N AJgHcfl bFBCegj Congruent right correct Normal 2198.336
112 112 LeftLarger PercCBExp1 Prime_4N Target_1A aGALcil JagfiMm Congruent left error Normal 1387.077
112 113 LeftLarger PercCBExp1 Prime_4N Target_6N jlLCkAI lAbfMaG Incongruent left correct Normal 1395.501
112 114 LeftLarger PercCBExp1 Prime_1N Target_4A IGAKhfl giJEcad Congruent right correct Normal 928.558
112 115 LeftLarger PercCBExp1 Prime_6A Target_4N jGJDLCE hDlgjfM Incongruent left correct Normal 1413.727
112 116 LeftLarger PercCBExp1 Prime_1A Target_9N kKDECcL BMfbKCH Incongruent right error Normal 960.3643
112 117 LeftLarger PercCBExp1 Prime_9N Target_4N GdEeIAh HAFDLjI Incongruent right error Normal 1103.889
112 118 LeftLarger PercCBExp1 Prime_4A Target_9A lfGDeBj KMGFBel Incongruent left correct Normal 1017.961
112 119 LeftLarger PercCBExp1 Prime_6A Target_4A bEFafKJ MfHBDiC Incongruent right error Normal 942.2316
112 120 LeftLarger PercCBExp1 Prime_9N Target_9A CAbkKFf IkMFKae Congruent right correct Normal 1221.295
112 121 LeftLarger PercCBExp1 Prime_1N Target_6N DHglEfK AeCMijI Incongruent left correct Normal 1337.344
112 122 LeftLarger PercCBExp1 Prime_1N Target_1A mglECaA eFMghdm Congruent right correct Normal 1299.016
112 123 LeftLarger PercCBExp1 Prime_9N Target_4A cIaJeKh ImciGCb Incongruent left correct Normal 892.5644
112 124 LeftLarger PercCBExp1 Prime_1A Target_1A Bmbakjg EACfHFM Congruent left error Normal 716.2652
112 125 LeftLarger PercCBExp1 Prime_9A Target_6A JCgDaeI MlCagID Congruent right correct Normal 786.3065
112 126 LeftLarger PercCBExp1 Prime_4N Target_4A FfhGMIJ MAdCImh Congruent right correct Normal 1034.187
112 127 LeftLarger PercCBExp1 Prime_6N Target_1A FEjaLim gjlAfMe Incongruent right error Normal 1059.151
112 128 LeftLarger PercCBExp1 Prime_4A Target_4A bcEJCdj FCegcJD Congruent left error Normal 1012.562
112 129 LeftLarger PercCBExp1 Prime_1A Target_9A KkmDidH JjGilDH Incongruent right error Normal 891.8323
112 130 LeftLarger PercCBExp1 Prime_6N Target_9A kBlfCca GlAIhkD Congruent right correct Normal 858.851
112 131 LeftLarger PercCBExp1 Prime_6A Target_6A jFablDc MdhGiBL Congruent left error Normal 560.8447
112 132 LeftLarger PercCBExp1 Prime_4A Target_9N CcbMigI IihKcbf Incongruent left correct Normal 1194.142
112 133 LeftLarger PercCBExp1 Prime_4A Target_6A GjmCKHL aMeiBIj Incongruent right error Normal 1139.068
112 134 LeftLarger PercCBExp1 Prime_9N Target_6N lFGcfDM BGdMcIE Congruent left error Normal 1417.35
112 135 LeftLarger PercCBExp1 Prime_4N Target_1N HlcMeDE dAfEjHa Congruent right correct Normal 1050.437
112 136 LeftLarger PercCBExp1 Prime_6N Target_6N IflbFMj DKagHEj Congruent right correct Normal 1572.586
112 137 LeftLarger PercCBExp1 Prime_4A Target_6N jaMelLI DJABIFf Incongruent left correct Normal 749.5333
112 138 LeftLarger PercCBExp1 Prime_6A Target_1A dImkFDE MdJigcI Incongruent left correct Normal 825.0846
112 139 LeftLarger PercCBExp1 Prime_1A Target_6A hfBFGcM aDIcjdC Incongruent right error Normal 712.0223
112 140 LeftLarger PercCBExp1 Prime_1A Target_4A IckJMeF KleaMHC Congruent left error Normal 854.6851
112 141 LeftLarger PercCBExp1 Prime_4A Target_1N icgdeBm CeKaFmJ Congruent right correct Normal 1284.32
112 142 LeftLarger PercCBExp1 Prime_1A Target_6N lgLMGdi dlKfmIC Incongruent left correct Normal 656.9047
112 143 LeftLarger PercCBExp1 Prime_6N Target_1N bcfLiDJ BejcJCG Incongruent right error Normal 1624.712
112 144 LeftLarger PercCBExp1 Prime_9A Target_4N GBlcACK clmKhDL Incongruent right error Normal 1142.829
112 145 LeftLarger PercCBExp1 Prime_6N Target_4N CHEkMbe FKBekfa Incongruent left correct Normal 1348.125
112 146 LeftLarger PercCBExp1 Prime_4A Target_1A eCdHLhl kldMEJB Congruent right correct Normal 1664.331
112 147 LeftLarger PercCBExp1 Prime_9N Target_1N KMmJiFk JAKDgmL Incongruent right error Normal 1410.301
112 148 LeftLarger PercCBExp1 Prime_9N Target_9N JFkliAM kBMEGJc Congruent right correct Normal 1105.723
112 149 LeftLarger PercCBExp1 Prime_1A Target_4N cgCMiad imIahFd Congruent left error Normal 1631.781
112 150 LeftLarger PercCBExp1 Prime_9A Target_9N FjfkGHC leGfghJ Congruent right correct Normal 1469.568
112 151 LeftLarger PercCBExp1 Prime_4A Target_4N gjcAhFB eJjcbMG Congruent left error Normal 1050.024
112 152 LeftLarger PercCBExp1 Prime_4N Target_6A bJEadcm iCGIMBh Incongruent left correct Normal 2866.901
112 153 LeftLarger PercCBExp1 Prime_1N Target_9N KHlDGem ikKemDF Incongruent right error Normal 1409.409
112 154 LeftLarger PercCBExp1 Prime_9N Target_1A GEDhfkH hBdcDjH Incongruent left correct Normal 1473.453
112 155 LeftLarger PercCBExp1 Prime_4N Target_9N emgJiGd afDGclC Incongruent right error Normal 1351.041
112 156 LeftLarger PercCBExp1 Prime_9A Target_1A cbLDGli LKMCdGE Incongruent right error Normal 928.4598
112 157 LeftLarger PercCBExp1 Prime_9N Target_6A bmiKAec KBHgElc Congruent left error Normal 628.6368
112 158 LeftLarger PercCBExp1 Prime_6A Target_1N hEIkclH dFgHejA Incongruent right error Normal 664.6663
112 159 LeftLarger PercCBExp1 Prime_9A Target_1N MHmjhfc HiDJjKh Incongruent right error Normal 607.5964
112 160 LeftLarger PercCBExp1 Prime_9A Target_9A fJaMlCA FCHDEfk Congruent right correct Normal 822.4855
113 1 LeftSmaller PercCAPrac Prime_4N Target_4A IDkFCJg LFEgeDA Congruent left correct Early 89.64349
113 2 LeftSmaller PercCAPrac Prime_6N Target_9N ehjGcDF GDhMKfd Congruent right error Early 13.12673
113 3 LeftSmaller PercCAPrac Prime_1N Target_1A HkjhagA ehKbkHc Congruent left correct Early 2.944385
113 4 LeftSmaller PercCAPrac Prime_9N Target_6N AdlKFbe KHdljbh Congruent right error Normal 147.1478
113 5 LeftSmaller PercCAPrac Prime_4A Target_6A KFgCdmf JhdLclG Incongruent left error Normal 205.9595
113 6 LeftSmaller PercCAPrac Prime_1A Target_6A eDkBJIi EmLbkac Incongruent left error Normal 249.1009
113 7 LeftSmaller PercCAPrac Prime_9N Target_6A LBkjAEF hdCklKj Congruent right error Normal 168.7435
113 8 LeftSmaller PercCAPrac Prime_4N Target_1A dbMHJfc CdfImkF Congruent left correct Normal 212.2998
113 9 LeftSmaller PercCAPrac Prime_4N Target_4N MEiCjIm BDEahgm Congruent right error Normal 194.5753
113 10 LeftSmaller PercCAPrac Prime_1A Target_4N eamlJIF BgMiGFA Congruent left correct Early 5.023369
113 11 LeftSmaller PercCAPrac Prime_9N Target_9N dJLEGlc ebmEBFH Congruent right error Normal 117.9082
113 12 LeftSmaller PercCAPrac Prime_6N Target_1N efmjGBc dimebhj Incongruent right correct Early 2.665499
113 13 LeftSmaller PercCAPrac Prime_9N Target_4A gFEKkDc GFaKJlC Incongruent right correct Early 33.67063
113 14 LeftSmaller PercCAPrac Prime_1N Target_4N mDelBhF AILDCgb Congruent left correct Normal 2048.127
113 15 LeftSmaller PercCAPrac Prime_4N Target_1N mKhcGgl GAFBKfg Congruent left correct Normal 108.4679
113 16 LeftSmaller PercCAPrac Prime_1N Target_4A jHGhAkJ DaBfMAk Congruent right error Normal 156.1218
113 17 LeftSmaller PercCAExp1 Prime_1A Target_1N hcHJgkF BcAhFEG Congruent right error Normal 188.679
113 18 LeftSmaller PercCAExp1 Prime_4A Target_1A CIfMlbj ajCchik Congruent left correct Normal 334.9918
113 19 LeftSmaller PercCAExp1 Prime_6A Target_4A ljAkHKh LhaFbGk Incongruent right correct Normal 258.3987
113 20 LeftSmaller PercCAExp1 Prime_9N Target_4A CEJbhaM jMbKhlA Incongruent left error Normal 555.5491
113 21 LeftSmaller PercCAExp1 Prime_4N Target_9N bgaLHCB MhcAHbJ Incongruent right correct Normal 381.9417
113 22 LeftSmaller PercCAExp1 Prime_6N Target_4N HECFkim gdLfFmM Incongruent left error Early 82.37014
113 23 LeftSmaller PercCAExp1 Prime_1A Target_4N BMECiaL HfmFjgb Congruent right error Early 22.70297
113 24 LeftSmaller PercCAExp1 Prime_9A Target_1N CGjkFml fcLAJCF Incongruent right correct Normal 138.5624
113 25 LeftSmaller PercCAExp1 Prime_9N Target_1N IdCcjgH ficGlDM Incongruent left error Early 8.956136
113 26 LeftSmaller PercCAExp1 Prime_9N Target_9A BCmdkAi JgebGfE Congruent right error Early 2.986289
113 27 LeftSmaller PercCAExp1 Prime_6A Target_9A fgFjKeG IidJhgM Congruent left correct Early 2.914234
113 28 LeftSmaller PercCAExp1 Prime_9A Target_4A LgMilIE eEkLDda Incongruent right correct Normal 994.1667
113 29 LeftSmaller PercCAExp1 Prime_6N Target_1N MLHbElD eiaDlMF Incongruent left error Normal 112.3335
113 30 LeftSmaller PercCAExp1 Prime_9A Target_9N AHgjILD hgGbLdm Congruent left correct Early 82.92533
113 31 LeftSmaller PercCAExp1 Prime_6A Target_9N kgHcdiK KBhCcbg Congruent right error Early 41.73657
113 32 LeftSmaller PercCAExp1 Prime_4N Target_4N kjaJMcK HilDMKG Congruent right error Early 38.04054
113 33 LeftSmaller PercCAExp1 Prime_4N Target_9A bDjImad kgjEfbA Incongruent left error Normal 102.5351
113 34 LeftSmaller PercCAExp1 Prime_4A Target_1N dklJDfm AfHaKge Congruent left correct Early 22.91407
113 35 LeftSmaller PercCAExp1 Prime_1A Target_1A FLIBMfj IBJeCbM Congruent right error Early 2.664638
113 36 LeftSmaller PercCAExp1 Prime_9N Target_6N BflEAgm AkcEHBF Congruent right error Early 38.79121
113 37 LeftSmaller PercCAExp1 Prime_1A Target_9A dFfgbCl AfhIFEK Incongruent left error Early 24.13715
113 38 LeftSmaller PercCAExp1 Prime_4N Target_1N CaBhdjc cCiMgeL Congruent left correct Early 85.15809
113 39 LeftSmaller PercCAExp1 Prime_9A Target_9A FIafDiH laIHjGg Congruent right error Early 76.36589
113 40 LeftSmaller PercCAExp1 Prime_4N Target_4A CKEMdjB CEdGchk Congruent right error Early 48.06122
113 41 LeftSmaller PercCAExp1 Prime_1A Target_9N ELFcMCh kGAgdDE Incongruent left error Early 36.95435
113 42 LeftSmaller PercCAExp1 Prime_4A Target_6N eLfEGdc DfKmHjM Incongruent left error Early 2.534388
113 43 LeftSmaller PercCAExp1 Prime_4N Target_1A igelbBj HhMajBg Congruent right error Early 12.94836
113 44 LeftSmaller PercCAExp1 Prime_1A Target_4A JLBAmIC fjgHdCG Congruent right error Early 35.69935
113 45 LeftSmaller PercCAExp1 Prime_4A Target_4N AcIdmeH GkcmKlC Congruent left correct Early 86.1902
113 46 LeftSmaller PercCAExp1 Prime_1N Target_9N HhfdFil HclEDeM Incongruent right correct Early 14.28419
113 47 LeftSmaller PercCAExp1 Prime_1A Target_6N mJHakcB akbDclK Incongruent right correct Early 18.75118
113 48 LeftSmaller PercCAExp1 Prime_9A Target_6A mdbJjAM CdAhbkK Congruent right error Early 24.60295
113 49 LeftSmaller PercCAExp1 Prime_9N Target_1A BelhLjG BCDgHab Incongruent left error Early 14.37911
113 50 LeftSmaller PercCAExp1 Prime_6A Target_4N eJFEIGb AgIhHJf Incongruent right correct Early 36.04069
113 51 LeftSmaller PercCAExp1 Prime_9N Target_6A aHkIidc JCHLklF Congruent right error Early 41.45234
113 52 LeftSmaller PercCAExp1 Prime_6N Target_4A chiIbHF lfecKEi Incongruent right correct Early 2.913368
113 53 LeftSmaller PercCAExp1 Prime_6A Target_1A MEAjFJb diFIgmL Incongruent left error Early 14.54058
113 54 LeftSmaller PercCAExp1 Prime_4A Target_9N mHLJEfh iIJdClg Incongruent right correct Early 40.01389
113 55 LeftSmaller PercCAExp1 Prime_6N Target_9N GIEAHDB iDAIchF Congruent left correct Normal 123.5587
113 56 LeftSmaller PercCAExp1 Prime_9A Target_1A DbeALIi IMFgiJG Incongruent right correct Normal 142.714
113 57 LeftSmaller PercCAExp1 Prime_1N Target_4A edgiKBM HlKImjB Congruent left correct Normal 147.4731
113 58 LeftSmaller PercCAExp1 Prime_1N Target_9A fBhFImK hDHjmif Incongruent right correct Normal 116.367
113 59 LeftSmaller PercCAExp1 Prime_6N Target_6A gCKkGmf LajhIFe Congruent left correct Early 2.573532
113 60 LeftSmaller PercCAExp1 Prime_1N Target_1N KaFClEL AdlCibf Congruent left correct Early 89.22259
113 61 LeftSmaller PercCAExp1 Prime_4A Target_4A gLIHDGJ IHkBDjm Congruent left correct Early 3.099643
113 62 LeftSmaller PercCAExp1 Prime_9N Target_9N JdDgCIf biclfjm Congruent left correct Early 2.886657
113 63 LeftSmaller PercCAExp1 Prime_9A Target_6N gHLBjJK lChafei Congruent right error Early 2.903955
113 64 LeftSmaller PercCAExp1 Prime_4N Target_6A fljDhBg fhEMHlI Incongruent right correct Early 2.698647
113 65 LeftSmaller PercCAExp1 Prime_6A Target_6A lCcegGk IjLbDkA Congruent left correct Early 2.962764
113 66 LeftSmaller PercCAExp1 Prime_6N Target_1A hHMAEki iCIBLMf Incongruent right correct Early 2.758101
113 67 LeftSmaller PercCAExp1 Prime_1A Target_6A DEgJaAl cigMhLF Incongruent left error Early 2.666995
113 68 LeftSmaller PercCAExp1 Prime_1N Target_4N hKBCbmg KiLABah Congruent right error Normal 171.6371
113 69 LeftSmaller PercCAExp1 Prime_4N Target_6N hFDgMIK HLMieEd Incongruent left error Early 2.868469
113 70 LeftSmaller PercCAExp1 Prime_6A Target_1N IjecGbA EebFgic Incongruent right correct Early 2.881498
113 71 LeftSmaller PercCAExp1 Prime_9N Target_4N KblJFHC JiKfHID Incongruent left error Early 2.806858
113 72 LeftSmaller PercCAExp1 Prime_4A Target_6A BiDkFla bkdgfIK Incongruent left error Early 2.702066
113 73 LeftSmaller PercCAExp1 Prime_6N Target_6N KFbjCgE djKEHLi Congruent right error Early 2.616092
113 74 LeftSmaller PercCAExp1 Prime_9A Target_4N FadefLh EbKHBiG Incongruent left error Early 34.45852
113 75 LeftSmaller PercCAExp1 Prime_1N Target_6A KaeGJif LDefbGk Incongruent left error Early 65.90957
113 76 LeftSmaller PercCAExp1 Prime_1N Target_6N GkbBcKH eDJBKcC Incongruent right correct Early 40.37383
113 77 LeftSmaller PercCAExp1 Prime_6N Target_9A JAkHIie lEjhdIH Congruent left correct Early 35.13497
113 78 LeftSmaller PercCAExp1 Prime_6A Target_6N FaLCbGi mCDKhlG Congruent right error Early 2.803866
113 79 LeftSmaller PercCAExp1 Prime_1N Target_1A FlJhIiK mlDHjdI Congruent left correct Early 57.4283
113 80 LeftSmaller PercCAExp1 Prime_4A Target_9A MjHBbdD KEaifCF Incongruent right correct Early 2.853913
113 81 LeftLarger PercCBPrac Prime_9A Target_9N GjIgeBK KEdblGJ Congruent right correct Early 40.80903
113 82 LeftLarger PercCBPrac Prime_6A Target_4N kfbLmdj LhFkHgl Incongruent left correct Early 26.83014
113 83 LeftLarger PercCBPrac Prime_6N Target_4A LmIlMEb eAcLkhC Incongruent right error Early 2.798303
113 84 LeftLarger PercCBPrac Prime_9N Target_1N hlgIFKJ khMGgBH Incongruent left correct Early 2.942453
113 85 LeftLarger PercCBPrac Prime_1N Target_4N AhIgEmb amcGIlC Congruent right correct Early 2.857763
113 86 LeftLarger PercCBPrac Prime_4N Target_9N cGefgJM jHFEBdf Incongruent left correct Early 3.02351
113 87 LeftLarger PercCBPrac Prime_6A Target_1A BLdkiEA KmbdaHk Incongruent right error Early 3.187128
113 88 LeftLarger PercCBPrac Prime_4A Target_9A dLgKCbI iMIcFbe Incongruent left correct Normal 339.5069
113 89 LeftLarger PercCBPrac Prime_1N Target_9A MegJfAb cEkGMah Incongruent right error Normal 302.921
113 90 LeftLarger PercCBPrac Prime_6A Target_9A eAMkfFB FeIHbcE Congruent left error Normal 297.0814
113 91 LeftLarger PercCBPrac Prime_4A Target_6N IAHjiCh dgKDAlM Incongruent right error Early 67.5869
113 92 LeftLarger PercCBPrac Prime_6N Target_1A eCHKmJf HKbkdga Incongruent left correct Early 2.878286
113 93 LeftLarger PercCBPrac Prime_9N Target_9A bkALGfE emdLHFM Congruent right correct Early 3.03869
113 94 LeftLarger PercCBPrac Prime_6N Target_9A cDeadIb BCfdblh Congruent left error Early 2.809424
113 95 LeftLarger PercCBPrac Prime_1A Target_4N IADJehH fHMIFLa Congruent right correct Early 2.849413
113 96 LeftLarger PercCBPrac Prime_1N Target_6N DkgLhCf BdFLlCm Incongruent left correct Early 2.737345
113 97 LeftLarger PercCBExp1 Prime_4A Target_1A hDMgfBF KDhfmJj Congruent left error Normal 168.4088
113 98 LeftLarger PercCBExp1 Prime_1A Target_9A fMHLBhb IkJHbCg Incongruent right error Early 3.033345
113 99 LeftLarger PercCBExp1 Prime_4A Target_9A JghcIlF ckIEMbD Incongruent left correct Early 2.927911
113 100 LeftLarger PercCBExp1 Prime_6A Target_6A CjbldLG chjaeLF Congruent left error Early 2.733288
113 101 LeftLarger PercCBExp1 Prime_4N Target_1N LkADIlM dGmigkK Congruent right correct Early 2.862463
113 102 LeftLarger PercCBExp1 Prime_9N Target_1N IKHfhCk icefDkH Incongruent left correct Normal 142.9492
113 103 LeftLarger PercCBExp1 Prime_9A Target_9N KklbiFf JBLFCgh Congruent left error Normal 205.696
113 104 LeftLarger PercCBExp1 Prime_4N Target_9A ljgbELF gkbFGdf Incongruent left correct Normal 279.0068
113 105 LeftLarger PercCBExp1 Prime_6A Target_1A jKbGCIH CfkhKHF Incongruent right error Normal 120.5599
113 106 LeftLarger PercCBExp1 Prime_6A Target_6N LEAKhim JILcCDi Congruent right correct Normal 234.2142
113 107 LeftLarger PercCBExp1 Prime_6N Target_6A alEbgdf cbJFAiI Congruent right correct Normal 224.8922
113 108 LeftLarger PercCBExp1 Prime_1A Target_1N eJMbclD jFIkDEd Congruent left error Normal 236.549
113 109 LeftLarger PercCBExp1 Prime_1A Target_6A LgbkAlC BhaEAdc Incongruent right error Early 28.8593
113 110 LeftLarger PercCBExp1 Prime_6N Target_9N FIMJKeB EJaHgfK Congruent right correct Early 2.960418
113 111 LeftLarger PercCBExp1 Prime_6A Target_9N CblJeDA jCAbaei Congruent left error Early 6.952645
113 112 LeftLarger PercCBExp1 Prime_4N Target_6N CdbGghB LCbelFh Incongruent right error Early 97.90575
113 113 LeftLarger PercCBExp1 Prime_6N Target_1N CaLIKhj FBhigcL Incongruent right error Early 28.97201
113 114 LeftLarger PercCBExp1 Prime_9N Target_9N AJhcLbB MjdAaFE Congruent left error Early 67.37625
113 115 LeftLarger PercCBExp1 Prime_9N Target_4A DiKbeCE BCGEIFh Incongruent right error Early 2.864604
113 116 LeftLarger PercCBExp1 Prime_1N Target_4A JjaMEci JhkDGiL Congruent right correct Early 2.913155
113 117 LeftLarger PercCBExp1 Prime_4A Target_6N fiEHLMe madMLKf Incongruent left correct Early 2.672338
113 118 LeftLarger PercCBExp1 Prime_9N Target_6A gIFmEfJ fLGEdhD Congruent right correct Normal 103.0118
113 119 LeftLarger PercCBExp1 Prime_6N Target_1A ilBAdGK jgJFEDI Incongruent right error Normal 123.1838
113 120 LeftLarger PercCBExp1 Prime_9A Target_6A GFfDbdj bLMdHag Congruent left error Early 39.56349
113 121 LeftLarger PercCBExp1 Prime_1N Target_6N gEahKHI CEkBAil Incongruent right error Early 56.09357
113 122 LeftLarger PercCBExp1 Prime_6N Target_6N CILEmDH blCAKfd Congruent right correct Early 3.12531
113 123 LeftLarger PercCBExp1 Prime_9N Target_4N mBaehFi mjAlLcH Incongruent left correct Normal 288.3625
113 124 LeftLarger PercCBExp1 Prime_1A Target_6N EcCkIKB CfKIDlb Incongruent right error Normal 109.1114
113 125 LeftLarger PercCBExp1 Prime_4A Target_6A ijgDAKE iHBdIAa Incongruent left correct Normal 137.5006
113 126 LeftLarger PercCBExp1 Prime_1N Target_1N MFkCEjG LcmHFgd Congruent right correct Early 30.21137
113 127 LeftLarger PercCBExp1 Prime_1N Target_1A HACLgkI hHkIgbM Congruent right correct Early 3.067999
113 128 LeftLarger PercCBExp1 Prime_1A Target_1A lgeAKML hgeFjLI Congruent left error Early 2.815412
113 129 LeftLarger PercCBExp1 Prime_9A Target_4A eAlbJLc BclADCM Incongruent right error Early 2.735432
113 130 LeftLarger PercCBExp1 Prime_6N Target_9A mLCgbeF EkDBbJC Congruent right correct Early 14.83785
113 131 LeftLarger PercCBExp1 Prime_6N Target_4N fHiIeGd MADdfij Incongruent right error Early 58.55901
113 132 LeftLarger PercCBExp1 Prime_9N Target_1A AcdKljg DMlFBhJ Incongruent left correct Early 22.77184
113 133 LeftLarger PercCBExp1 Prime_9N Target_6N fLDBiCM IlDmbfa Congruent right correct Early 2.737358
113 134 LeftLarger PercCBExp1 Prime_4A Target_4A LJdBeDl hKlfkBF Congruent right correct Early 80.4599
113 135 LeftLarger PercCBExp1 Prime_4N Target_4A EJidfcG CIkFJEm Congruent left error Early 46.87618
113 136 LeftLarger PercCBExp1 Prime_1N Target_9N DkHCcBI ahiDeJK Incongruent right error Early 2.974748
113 137 LeftLarger PercCBExp1 Prime_1N Target_4N aECfBLh DfGIkiH Congruent left error Early 58.63558
113 138 LeftLarger PercCBExp1 Prime_4A Target_1N FKBemfi feGkIDb Congruent right correct Early 66.10011
113 139 LeftLarger PercCBExp1 Prime_6A Target_1N hJljKBi kDBbgIl Incongruent right error Early 36.75928
113 140 LeftLarger PercCBExp1 Prime_9A Target_6N lkdaLgB AaHmceL Congruent left error Early 3.145859
113 141 LeftLarger PercCBExp1 Prime_4N Target_9N eAmlgBM hKgkdAf Incongruent right error Early 3.073344
113 142 LeftLarger PercCBExp1 Prime_9A Target_1A abAgjBL jGckIaL Incongruent left correct Early 2.789754
113 143 LeftLarger PercCBExp1 Prime_1N Target_9A HLchKel lfMCdbh Incongruent right error Early 2.853058
113 144 LeftLarger PercCBExp1 Prime_6A Target_9A MiIHLCd FkiKMAc Congruent left error Early 2.870805
113 145 LeftLarger PercCBExp1 Prime_9A Target_9A mjIFeCd bKECjhJ Congruent right correct Early 2.931983
113 146 LeftLarger PercCBExp1 Prime_4A Target_9N eLGafic DHIMkdC Incongruent left correct Early 2.968763
113 147 LeftLarger PercCBExp1 Prime_6A Target_4N LicCaAj KHiakMc Incongruent right error Early 2.982886
113 148 LeftLarger PercCBExp1 Prime_9N Target_9A FbmiElG fMKgamc Congruent right correct Early 3.082101
113 149 LeftLarger PercCBExp1 Prime_6A Target_4A aCMidfe DhcKfIj Incongruent left correct Early 3.071843
113 150 LeftLarger PercCBExp1 Prime_1A Target_4N hALiFMl GmHBecf Congruent right correct Early 31.41157
113 151 LeftLarger PercCBExp1 Prime_1A Target_9N BEcIJfF fdKaiFL Incongruent left correct Early 2.748901
113 152 LeftLarger PercCBExp1 Prime_4N Target_1A BLJaCEd aBeKcDd Congruent left error Early 9.166572
113 153 LeftLarger PercCBExp1 Prime_6N Target_4A dFKbALj KLHiEmk Incongruent left correct Early 22.72671
113 154 LeftLarger PercCBExp1 Prime_1N Target_6A gJiAHIC JLCkKeA Incongruent right error Early 3.253212
113 155 LeftLarger PercCBExp1 Prime_4N Target_6A dLhKAcb EAlgMJi Incongruent right error Normal 173.0371
113 156 LeftLarger PercCBExp1 Prime_9A Target_4N LHeaCDj hbcKmDH Incongruent right error Normal 101.9467
113 157 LeftLarger PercCBExp1 Prime_1A Target_4A cmfldkH cJdEljf Congruent left error Early 2.814339
113 158 LeftLarger PercCBExp1 Prime_4N Target_4N eDFhfja gLDmelH Congruent right correct Normal 219.2808
113 159 LeftLarger PercCBExp1 Prime_9A Target_1N FbMHkAG jlAcKIa Incongruent left correct Normal 163.3098
113 160 LeftLarger PercCBExp1 Prime_4A Target_4N bdkjIcC jHMAkDJ Congruent right correct Early 8.787392
114 1 LeftLarger PercCAPrac Prime_4N Target_1A IACeJla IdaEhkf Congruent right correct Normal 834.7539
114 2 LeftLarger PercCAPrac Prime_9A Target_4A MFegLBD aiKLmfD Incongruent left correct Normal 823.9353
114 3 LeftLarger PercCAPrac Prime_9A Target_6A dGDIAle ADCLMia Congruent right correct Normal 571.2294
114 4 LeftLarger PercCAPrac Prime_4N Target_4N gGBKEmD kKhegCa Congruent left error Normal 461.0673
114 5 LeftLarger PercCAPrac Prime_9A Target_6N IFdAlHg KJDhABa Congruent right correct Normal 560.8507
114 6 LeftLarger PercCAPrac Prime_6N Target_6N KagLjDk CHdlLIK Congruent right correct Normal 885.157
114 7 LeftLarger PercCAPrac Prime_9N Target_1A IMidgKA keFCMKf Incongruent left correct Normal 485.2375
114 8 LeftLarger PercCAPrac Prime_6A Target_6A EIgaFJe kaFciKM Congruent right correct Normal 504.7619
114 9 LeftLarger PercCAPrac Prime_6N Target_4N Mjefcab ImkdDGA Incongruent left correct Normal 652.1861
114 10 LeftLarger PercCAPrac Prime_9N Target_9A EJabkjC CcIHAia Congruent right correct Normal 865.2161
114 11 LeftLarger PercCAPrac Prime_6A Target_9A EFHdjaA gmBKLMf Congruent left error Normal 696.6624
114 12 LeftLarger PercCAPrac Prime_1N Target_1N AJdaDGH jIBkADF Congruent right correct Normal 1050.165
114 13 LeftLarger PercCAPrac Prime_4A Target_6N BlbdgGk hHefgLl Incongruent left correct Normal 674.4594
114 14 LeftLarger PercCAPrac Prime_4N Target_6A BjGkiLK mIckFbJ Incongruent right error Normal 936.1403
114 15 LeftLarger PercCAPrac Prime_1A Target_4A fiLDBlh aFLjgfm Congruent left error Normal 895.3961
114 16 LeftLarger PercCAPrac Prime_6N Target_9N khcJLmC adBjDCh Congruent right correct Normal 1116.858
114 17 LeftLarger PercCAExp1 Prime_6N Target_4N jEimMLa amlgifK Incongruent right error Normal 897.7227
114 18 LeftLarger PercCAExp1 Prime_9A Target_6A DjdHCAi mdLabMF Congruent left error Normal 852.9973
114 19 LeftLarger PercCAExp1 Prime_4A Target_6N dHFDIKA FCmiABa Incongruent left correct Normal 1016.921
114 20 LeftLarger PercCAExp1 Prime_9A Target_1N BekmjHh KMDmEfI Incongruent right error Normal 559.7024
114 21 LeftLarger PercCAExp1 Prime_4N Target_1A mLeKAda cLAClaJ Congruent left error Normal 678.6409
114 22 LeftLarger PercCAExp1 Prime_6A Target_6A AEkljGa HhfemJl Congruent right correct Normal 655.3325
114 23 LeftLarger PercCAExp1 Prime_9A Target_9N iLJcfeb idBGhek Congruent right correct Normal 779.1773
114 24 LeftLarger PercCAExp1 Prime_1A Target_4A LhEdAGg HMclfGe Congruent left error Normal 759.5183
114 25 LeftLarger PercCAExp1 Prime_1A Target_4N CIKJeLF KlHbdeg Congruent left error Normal 945.2066
114 26 LeftLarger PercCAExp1 Prime_9N Target_6N igKfFDL keMLAmI Congruent right correct Normal 596.888
114 27 LeftLarger PercCAExp1 Prime_1N Target_4A geiAIml DbiHGBh Congruent left error Normal 1229.175
114 28 LeftLarger PercCAExp1 Prime_4A Target_4A HfbclkG kJiGlbA Congruent right correct Normal 919.7067
114 29 LeftLarger PercCAExp1 Prime_1N Target_9A kdbJmKC CKelhdj Incongruent right error Normal 947.7644
114 30 LeftLarger PercCAExp1 Prime_9N Target_4N cGlmEBi mjEDBfA Incongruent left correct Normal 1581.195
114 31 LeftLarger PercCAExp1 Prime_4A Target_4N hHmlMAF dbfclBJ Congruent right correct Normal 528.8826
114 32 LeftLarger PercCAExp1 Prime_4N Target_4N ImjJGDi kdFlABI Congruent right correct Normal 898.5179
114 33 LeftLarger PercCAExp1 Prime_4A Target_9N KCcLfhi dLCBilK Incongruent left correct Normal 1403.941
114 34 LeftLarger PercCAExp1 Prime_4N Target_9N lKGFAcg FMGHfcg Incongruent left correct Normal 1135.765
114 35 LeftLarger PercCAExp1 Prime_6A Target_9N KdaJBkf cFKbjHB Congruent right correct Normal 1213.051
114 36 LeftLarger PercCAExp1 Prime_1A Target_6N FIBMEdJ gjCJkEB Incongruent left correct Normal 2212.237
114 37 LeftLarger PercCAExp1 Prime_1A Target_6A FCbhigk hjIMbHC Incongruent right error Normal 864.4237
114 38 LeftLarger PercCAExp1 Prime_6N Target_9N bmAMdfE gLGljBD Congruent left error Normal 1665.989
114 39 LeftLarger PercCAExp1 Prime_6A Target_1N BJbHalk iefIGAE Incongruent right error Normal 1313.415
114 40 LeftLarger PercCAExp1 Prime_9N Target_1N fKGBJIm hFHlILJ Incongruent left correct Normal 834.6155
114 41 LeftLarger PercCAExp1 Prime_6N Target_4A bKEelkG miaALlM Incongruent left correct Normal 1372.764
114 42 LeftLarger PercCAExp1 Prime_6N Target_9A HLgemKh HKgABbh Congruent right correct Normal 1056.092
114 43 LeftLarger PercCAExp1 Prime_6A Target_1A hblIkij ELicFDm Incongruent right error Normal 1146.547
114 44 LeftLarger PercCAExp1 Prime_4N Target_9A EDjCJAc caifBhI Incongruent right error Normal 1330.783
114 45 LeftLarger PercCAExp1 Prime_6A Target_4A iKlaLMb hGCiFIm Incongruent right error Normal 994.9463
114 46 LeftLarger PercCAExp1 Prime_9A Target_6N dDBbija aBLDbCG Congruent left error Normal 1257.166
114 47 LeftLarger PercCAExp1 Prime_1A Target_1A dDclKMF IDbmLBg Congruent left error Normal 1324.098
114 48 LeftLarger PercCAExp1 Prime_6A Target_4N hAcgbKf AjFKeJD Incongruent right error Normal 1884.008
114 49 LeftLarger PercCAExp1 Prime_6N Target_6A fDleFJG MlieIdA Congruent right correct Normal 1197.931
114 50 LeftLarger PercCAExp1 Prime_1N Target_1A GijIfMh FMGHemK Congruent left error Normal 1124.523
114 51 LeftLarger PercCAExp1 Prime_1N Target_9N hleLMAI hFAJiMG Incongruent right error Normal 1141.293
114 52 LeftLarger PercCAExp1 Prime_9N Target_9N DHeLhIM FCMJkdL Congruent right correct Normal 663.3713
114 53 LeftLarger PercCAExp1 Prime_9N Target_6A elHkdac EclKAfk Congruent left error Normal 776.3662
114 54 LeftLarger PercCAExp1 Prime_1N Target_6N hiEemfl efaHBAL Incongruent right error Normal 1058.45
114 55 LeftLarger PercCAExp1 Prime_6N Target_6N HlBagCE dgCEJKL Congruent left error Normal 710.7604
114 56 LeftLarger PercCAExp1 Prime_9N Target_9A BAeCIEj cfJdCeH Congruent right correct Normal 674.7969
114 57 LeftLarger PercCAExp1 Prime_4A Target_1N badAhcH mdJHLBK Congruent left error Normal 1154.298
114 58 LeftLarger PercCAExp1 Prime_1A Target_9N AkgihCe eaFcgLM Incongruent right error Normal 1266.004
114 59 LeftLarger PercCAExp1 Prime_9A Target_4A gDdmEBF JbFlIjB Incongruent right error Normal 1165.926
114 60 LeftLarger PercCAExp1 Prime_6A Target_9A mJLihbH lkLGfah Congruent right correct Normal 1379.363
114 61 LeftLarger PercCAExp1 Prime_1N Target_1N JFBKfcE ghMcIHE Congruent left error Normal 851.9284
114 62 LeftLarger PercCAExp1 Prime_9N Target_4A LbmBcad LcAliGH Incongruent right error Normal 935.4541
114 63 LeftLarger PercCAExp1 Prime_1N Target_4N efEBDCm jafFMhL Congruent right correct Normal 1272.167
114 64 LeftLarger PercCAExp1 Prime_9A Target_4N kJEaLhA madMchf Incongruent left correct Normal 1061.58
114 65 LeftLarger PercCAExp1 Prime_6N Target_1N bLchIFG kjFbDgl Incongruent right error Normal 1184.017
114 66 LeftLarger PercCAExp1 Prime_1A Target_1N MaCGEDj kcDfIhF Congruent left error Normal 1643.796
114 67 LeftLarger PercCAExp1 Prime_6N Target_1A LfmJBdb mKkIHFd Incongruent left correct Normal 1434.352
114 68 LeftLarger PercCAExp1 Prime_4A Target_1A IeCdLkA LfhkMbm Congruent left error Normal 2168.296
114 69 LeftLarger PercCAExp1 Prime_1A Target_9A LeaclEC CkIagcA Incongruent right error Normal 1229.603
114 70 LeftLarger PercCAExp1 Prime_4N Target_4A IhlKiGa cGEfgJj Congruent left error Normal 1477.924
114 71 LeftLarger PercCAExp1 Prime_9N Target_1A MaLlAeD ibkKdIh Incongruent left correct Normal 1404.487
114 72 LeftLarger PercCAExp1 Prime_4N Target_1N ckgFaIe gkeKCGF Congruent right correct Normal 1315.68
114 73 LeftLarger PercCAExp1 Prime_4A Target_6A cMaKbeE cMaCAeb Incongruent left correct Normal 696.3711
114 74 LeftLarger PercCAExp1 Prime_1N Target_6A LFfIhgM LAbcejH Incongruent right error Normal 721.2397
114 75 LeftLarger PercCAExp1 Prime_4N Target_6A FhaMlgL gDjleHB Incongruent right error Normal 935.5597
114 76 LeftLarger PercCAExp1 Prime_9A Target_9A miDekhJ JDdeFlg Congruent left error Normal 1111.182
114 77 LeftLarger PercCAExp1 Prime_4A Target_9A aEHcefb gJiImfe Incongruent left correct Normal 1273.664
114 78 LeftLarger PercCAExp1 Prime_6A Target_6N bKiGdlA JIDBEiH Congruent right correct Normal 1156.717
114 79 LeftLarger PercCAExp1 Prime_4N Target_6N DFaHJBi DlamjBe Incongruent left correct Normal 1561.656
114 80 LeftLarger PercCAExp1 Prime_9A Target_1A JhAGdBL DAECIck Incongruent right error Normal 997.6502
114 81 LeftSmaller PercCBPrac Prime_1A Target_6N keDHEbj jEAgilG Incongruent left error Normal 509.6038
114 82 LeftSmaller PercCBPrac Prime_9A Target_6A IAiFEge KfLglFd Congruent right error Normal 715.6154
114 83 LeftSmaller PercCBPrac Prime_4A Target_6A GiejHml CKDegEI Incongruent left error Normal 721.457
114 84 LeftSmaller PercCBPrac Prime_9N Target_6A fjmAheF eHMEiKj Congruent left correct Normal 1065.908
114 85 LeftSmaller PercCBPrac Prime_9A Target_9N akIBDJM IeBKfGH Congruent right error Normal 1025.797
114 86 LeftSmaller PercCBPrac Prime_1N Target_6N fCdBLba iGfCJMA Incongruent right correct Normal 1461.305
114 87 LeftSmaller PercCBPrac Prime_9N Target_4A cfKkCGa bHCDfGm Incongruent left error Normal 1113.435
114 88 LeftSmaller PercCBPrac Prime_9A Target_1A hEgFIkm hGdEkHa Incongruent right correct Normal 1195.467
114 89 LeftSmaller PercCBPrac Prime_6A Target_9A jfMlkAD BkjIHef Congruent left correct Normal 1160.862
114 90 LeftSmaller PercCBPrac Prime_6N Target_1N MfhlIeF bCjghMm Incongruent right correct Normal 1460.36
114 91 LeftSmaller PercCBPrac Prime_6A Target_4N kdfIeAl ifbdkJc Incongruent right correct Normal 1296.116
114 92 LeftSmaller PercCBPrac Prime_6A Target_1N GDgLamJ khmFiKH Incongruent right correct Normal 1922.908
114 93 LeftSmaller PercCBPrac Prime_1N Target_4N cFMeBbj dHikLDb Congruent left correct Normal 1000.616
114 94 LeftSmaller PercCBPrac Prime_1N Target_9N BhgGbAc GICFDLe Incongruent right correct Normal 1133.131
114 95 LeftSmaller PercCBPrac Prime_1N Target_1N JaHkfhd fMDeFBm Congruent left correct Normal 1303.832
114 96 LeftSmaller PercCBPrac Prime_6N Target_9N FELIJkM DILKmJe Congruent right error Normal 1249.403
114 97 LeftSmaller PercCBExp1 Prime_9A Target_9A dkabBIF BdijMEg Congruent left correct Normal 1213.451
114 98 LeftSmaller PercCBExp1 Prime_6A Target_1N CJalbMd hAIJGEe Incongruent left error Normal 1501.722
114 99 LeftSmaller PercCBExp1 Prime_9N Target_4N FcfDGgl dGkAmhJ Incongruent right correct Normal 1067.215
114 100 LeftSmaller PercCBExp1 Prime_4N Target_1N CbDAfal lGJLHCb Congruent left correct Normal 1454.768
114 101 LeftSmaller PercCBExp1 Prime_6N Target_9A gIhkAmF AeEFMLH Congruent right error Normal 989.7682
114 102 LeftSmaller PercCBExp1 Prime_1N Target_1N mIaihEb icbMCkg Congruent left correct Normal 928.4707
114 103 LeftSmaller PercCBExp1 Prime_9A Target_6N KCDmhGj KHAkchm Congruent right error Normal 1205.875
114 104 LeftSmaller PercCBExp1 Prime_4A Target_1N cGDfdhE BIbFadg Congruent right error Normal 1069.082
114 105 LeftSmaller PercCBExp1 Prime_1A Target_6A eaJBEHl DaLcJeE Incongruent left error Normal 2035.337
114 106 LeftSmaller PercCBExp1 Prime_4N Target_1A fbEDIBm kblGHAD Congruent left correct Normal 942.5833
114 107 LeftSmaller PercCBExp1 Prime_9A Target_9N ahekjJH ihKmDAE Congruent left correct Normal 1161.26
114 108 LeftSmaller PercCBExp1 Prime_9N Target_4A LJeFkEg aGmEeih Incongruent right correct Normal 1590.315
114 109 LeftSmaller PercCBExp1 Prime_4A Target_4A AijblCE LmJaFDg Congruent right error Normal 1327.644
114 110 LeftSmaller PercCBExp1 Prime_6A Target_6A eElJFfL JKgdBIl Congruent left correct Normal 646.5779
114 111 LeftSmaller PercCBExp1 Prime_4A Target_9N hklfBCF CIikfDJ Incongruent right correct Normal 709.6162
114 112 LeftSmaller PercCBExp1 Prime_1A Target_6N blCekFa EMFGhJc Incongruent left error Normal 831.5715
114 113 LeftSmaller PercCBExp1 Prime_9N Target_6N kJDHLAK kaDeFLB Congruent right error Normal 973.4712
114 114 LeftSmaller PercCBExp1 Prime_1N Target_9N CgBFEiH bKmMFlf Incongruent right correct Normal 1470.612
114 115 LeftSmaller PercCBExp1 Prime_6N Target_9N kJgEdmj iBkhbAK Congruent left correct Normal 873.049
114 116 LeftSmaller PercCBExp1 Prime_9A Target_6A biLmdDB aHAJDeC Congruent left correct Normal 1060.089
114 117 LeftSmaller PercCBExp1 Prime_6A Target_9N MBcihKm DbiAFmg Congruent right error Normal 581.2858
114 118 LeftSmaller PercCBExp1 Prime_4N Target_4A deGfACI DhCdIfE Congruent left correct Normal 815.2044
114 119 LeftSmaller PercCBExp1 Prime_4N Target_9A EalFGAM IebfjaA Incongruent left error Normal 781.7426
114 120 LeftSmaller PercCBExp1 Prime_9A Target_1A jfDcHkE BLJbekf Incongruent right correct Normal 844.658
114 121 LeftSmaller PercCBExp1 Prime_6N Target_4N jbhdmGc hdfLlIm Incongruent left error Normal 1368.429
114 122 LeftSmaller PercCBExp1 Prime_4A Target_1A BDIMflm JIEflkg Congruent left correct Normal 662.6448
114 123 LeftSmaller PercCBExp1 Prime_6N Target_6A EKlIhid egIMjGC Congruent left correct Normal 1162.062
114 124 LeftSmaller PercCBExp1 Prime_1N Target_1A GJAiDgc MCHifLD Congruent right error Normal 1373.052
114 125 LeftSmaller PercCBExp1 Prime_6N Target_4A MiIAjHa jLDfJGc Incongruent right correct Normal 1417.164
114 126 LeftSmaller PercCBExp1 Prime_1A Target_4N DLmIEjC CbBdLeF Congruent left correct Normal 1800.2
114 127 LeftSmaller PercCBExp1 Prime_6A Target_1A HBhamKl IdacjGC Incongruent left error Normal 1501.04
114 128 LeftSmaller PercCBExp1 Prime_9A Target_4A LMkgdiA BfdaiAL Incongruent right correct Normal 650.8616
114 129 LeftSmaller PercCBExp1 Prime_6N Target_1A iCdkEcH MgdmfAb Incongruent left error Normal 871.3688
114 130 LeftSmaller PercCBExp1 Prime_1A Target_9A fJjIlgG fHlIbem Incongruent right correct Normal 1141.807
114 131 LeftSmaller PercCBExp1 Prime_9N Target_9N GFmkHgE jfEJAFH Congruent left correct Normal 891.3662
114 132 LeftSmaller PercCBExp1 Prime_6A Target_6N HlkChgm DFmHKJA Congruent right error Normal 901.2763
114 133 LeftSmaller PercCBExp1 Prime_6N Target_6N hBDekdK LkmHiAl Congruent left correct Normal 1707.323
114 134 LeftSmaller PercCBExp1 Prime_4N Target_9N DimkIcb hCeGaKi Incongruent left error Normal 1726.765
114 135 LeftSmaller PercCBExp1 Prime_1A Target_1N eEKLaCA aEdbmcI Congruent right error Normal 1273.933
114 136 LeftSmaller PercCBExp1 Prime_4A Target_6N dLCaHBe lGHFJIK Incongruent left error Normal 1573.619
114 137 LeftSmaller PercCBExp1 Prime_9N Target_6A HDcKfJC ajDhbgm Congruent left correct Normal 2347.425
114 138 LeftSmaller PercCBExp1 Prime_9N Target_1N MbBFchd DMhKIFe Incongruent left error Normal 1578.126
114 139 LeftSmaller PercCBExp1 Prime_1N Target_9A hGKaklE jHkfbla Incongruent right correct Normal 1345.647
114 140 LeftSmaller PercCBExp1 Prime_9A Target_1N DFIMcBE IEhMLBj Incongruent left error Normal 904.2431
114 141 LeftSmaller PercCBExp1 Prime_1N Target_4N fFLHkGj FeKIakb Congruent right error Normal 2023.444
114 142 LeftSmaller PercCBExp1 Prime_1A Target_4A eACDgak LdeJFgb Congruent right error Normal 1882.106
114 143 LeftSmaller PercCBExp1 Prime_1N Target_4A JCKIfBm gEhCiAD Congruent left correct Normal 1031.817
114 144 LeftSmaller PercCBExp1 Prime_6A Target_4A alfmHGJ cGdJhmA Incongruent right correct Normal 1439.242
114 145 LeftSmaller PercCBExp1 Prime_4A Target_4N dBJiFgK bBieLfa Congruent right error Normal 1132.794
114 146 LeftSmaller PercCBExp1 Prime_4N Target_6A JlGjFEM mAdjgIa Incongruent right correct Normal 1598.974
114 147 LeftSmaller PercCBExp1 Prime_4N Target_6N madiKFh GFCMHba Incongruent left error Normal 1162.284
114 148 LeftSmaller PercCBExp1 Prime_4N Target_4N mJeFaCE aDMKEJB Congruent right error Normal 1599.57
114 149 LeftSmaller PercCBExp1 Prime_6A Target_9A fBJmHea IjmFdKM Congruent left correct Normal 875.1005
114 150 LeftSmaller PercCBExp1 Prime_4A Target_6A bcAFCJG mcChIeD Incongruent left error Normal 1064.574
114 151 LeftSmaller PercCBExp1 Prime_9A Target_4N iLKmacj CIdFMBL Incongruent right correct Normal 1296.309
114 152 LeftSmaller PercCBExp1 Prime_6A Target_4N eIhgBCL KdjbaJH Incongruent right correct Normal 1765.702
114 153 LeftSmaller PercCBExp1 Prime_1N Target_6N CKmBFLc jkeHGIb Incongruent left error Normal 887.6098
114 154 LeftSmaller PercCBExp1 Prime_4A Target_9A gkafCdH kDgHIfB Incongruent left error Normal 1119.614
114 155 LeftSmaller PercCBExp1 Prime_1A Target_9N EgAfkjb iIKfJGA Incongruent right correct Normal 1168.461
114 156 LeftSmaller PercCBExp1 Prime_1A Target_1A miHKgaj aHFMEfC Congruent right error Normal 1208.245
114 157 LeftSmaller PercCBExp1 Prime_1N Target_6A FchkLjK MCFDBKe Incongruent left error Normal 1410.197
114 158 LeftSmaller PercCBExp1 Prime_9N Target_9A MiLFHDb eLbKEFd Congruent right error Normal 1197.393
114 159 LeftSmaller PercCBExp1 Prime_9N Target_1A cIKMLja DekbFMA Incongruent left error Normal 1579.563
114 160 LeftSmaller PercCBExp1 Prime_6N Target_1N HfEeDib CfJBGAF Incongruent left error Normal 1114.725
115 1 LeftLarger PercCAPrac Prime_1A Target_9A DhGICbj cjmlEhB Incongruent right error Normal 1788.235
115 2 LeftLarger PercCAPrac Prime_1N Target_1N KDlaJmc hMCBijG Congruent left error Normal 1737.01
115 3 LeftLarger PercCAPrac Prime_6N Target_9N EdHKDIl AMBkCJe Congruent right correct Normal 810.8535
115 4 LeftLarger PercCAPrac Prime_1A Target_1A FGABMID iKhdMLC Congruent left error Normal 716.0201
115 5 LeftLarger PercCAPrac Prime_4A Target_9A meIGcEJ amHifEh Incongruent right error Normal 815.2068
115 6 LeftLarger PercCAPrac Prime_6A Target_1A JmMLdgK EbImiag Incongruent left correct Normal 1260.112
115 7 LeftLarger PercCAPrac Prime_1N Target_6N LlBgdbM FhILgkd Incongruent right error Normal 952.9135
115 8 LeftLarger PercCAPrac Prime_9A Target_4A KkaGjhI ChcGdEJ Incongruent right error Normal 1053.968
115 9 LeftLarger PercCAPrac Prime_1N Target_9N CDKkJcA fdKAHaJ Incongruent right error Normal 877.79
115 10 LeftLarger PercCAPrac Prime_6N Target_9A kLcebml gfmcjkh Congruent left error Normal 1097.637
115 11 LeftLarger PercCAPrac Prime_4A Target_6N KleAbEd AJfgEKC Incongruent left correct Normal 1940.964
115 12 LeftLarger PercCAPrac Prime_9N Target_1N DEHJGgI EGlgkMC Incongruent right error Normal 2071.036
115 13 LeftLarger PercCAPrac Prime_6A Target_4A hAcJLaI cdmhGKD Incongruent right error Normal 1410.11
115 14 LeftLarger PercCAPrac Prime_6N Target_6N dbhgCBJ fFHcIKG Congruent left error Normal 1161.204
115 15 LeftLarger PercCAPrac Prime_4A Target_1N kglLGFc klBbifD Congruent left error Normal 1079.539
115 16 LeftLarger PercCAPrac Prime_9N Target_4A lfBLgHG kChDidL Incongruent right error Normal 1068.145
115 17 LeftLarger PercCAExp1 Prime_1A Target_6N gFHklBD LIiaegF Incongruent right error Normal 1255.287
115 18 LeftLarger PercCAExp1 Prime_6N Target_4A blMKDdf hABjEaf Incongruent left correct Normal 1150.238
115 19 LeftLarger PercCAExp1 Prime_1A Target_9A eLHCmjc mDLeIlA Incongruent right error Normal 1754.38
115 20 LeftLarger PercCAExp1 Prime_9N Target_4A KDjdAHf ImaiAfh Incongruent right error Normal 1417.395
115 21 LeftLarger PercCAExp1 Prime_4A Target_6N JBjHfeK cGeiBaC Incongruent right error Normal 1239.006
115 22 LeftLarger PercCAExp1 Prime_1N Target_9A IfhCJbH jkdFDeg Incongruent left correct Normal 1091.195
115 23 LeftLarger PercCAExp1 Prime_4A Target_9N eBiLcgC gHjKmiB Incongruent left correct Normal 1618.505
115 24 LeftLarger PercCAExp1 Prime_6N Target_1N gJIkEbm CkIDleg Incongruent right error Normal 1110.688
115 25 LeftLarger PercCAExp1 Prime_9A Target_6N MmHJLjd efkLacC Congruent right correct Normal 1066.465
115 26 LeftLarger PercCAExp1 Prime_9N Target_9A BdbejHI jegmADG Congruent left error Normal 961.1596
115 27 LeftLarger PercCAExp1 Prime_4A Target_9A DkKmJCl FAmHBhJ Incongruent right error Normal 1035.914
115 28 LeftLarger PercCAExp1 Prime_6A Target_4N gilFmGE mfMGbJL Incongruent right error Normal 1327.763
115 29 LeftLarger PercCAExp1 Prime_1A Target_9N CeILigj aecHCfJ Incongruent right error Normal 1370.386
115 30 LeftLarger PercCAExp1 Prime_1N Target_4A LHDGael lcfAaMh Congruent right correct Normal 1214.879
115 31 LeftLarger PercCAExp1 Prime_9A Target_4N jDgfJCi GfAigIJ Incongruent right error Normal 1935.63
115 32 LeftLarger PercCAExp1 Prime_9A Target_4A CgmiKle ilGEgBb Incongruent right error Normal 989.8726
115 33 LeftLarger PercCAExp1 Prime_4N Target_1N akhijbM iLHFBMc Congruent left error Normal 1722.899
115 34 LeftLarger PercCAExp1 Prime_9A Target_1N lcJiALB LiHcCgh Incongruent right error Normal 1141.237
115 35 LeftLarger PercCAExp1 Prime_9N Target_6N FdkfDAg lIebDkM Congruent left error Normal 1852.594
115 36 LeftLarger PercCAExp1 Prime_4A Target_4N JdjHBDK gfcBhkl Congruent right correct Normal 1403.219
115 37 LeftLarger PercCAExp1 Prime_1A Target_1N ehldcim gbDlhFG Congruent right correct Normal 1765.518
115 38 LeftLarger PercCAExp1 Prime_4A Target_4A MfigabH EFMLhDC Congruent left error Normal 2101.219
115 39 LeftLarger PercCAExp1 Prime_4N Target_9A fGbjEaI mahkjlc Incongruent left correct Normal 1216.859
115 40 LeftLarger PercCAExp1 Prime_9N Target_6A BhgGIMl cHKCGkg Congruent right correct Normal 2351.33
115 41 LeftLarger PercCAExp1 Prime_1N Target_4N bHLGamA GidJagH Congruent right correct Normal 1318.289
115 42 LeftLarger PercCAExp1 Prime_6A Target_9N gGDdmej cCFedAJ Congruent right correct Normal 687.956
115 43 LeftLarger PercCAExp1 Prime_9N Target_1N LBEmcIf jHIFEiD Incongruent left correct Normal 718.2644
115 44 LeftLarger PercCAExp1 Prime_6N Target_4N DEAacGC kGdbcLJ Incongruent right error Normal 695.5448
115 45 LeftLarger PercCAExp1 Prime_1N Target_1A GHFBgjL LAkgadM Congruent left error Normal 972.2165
115 46 LeftLarger PercCAExp1 Prime_4N Target_4A ICaHMjl dicbAjM Congruent right correct Normal 1016.512
115 47 LeftLarger PercCAExp1 Prime_6A Target_6N amCIHdg miAfjJF Congruent right correct Normal 1030.069
115 48 LeftLarger PercCAExp1 Prime_4N Target_9N cCGhglE AehjglM Incongruent left correct Normal 1605.535
115 49 LeftLarger PercCAExp1 Prime_4A Target_6A dBHEAMk kLCFGHf Incongruent right error Normal 2717.164
115 50 LeftLarger PercCAExp1 Prime_4A Target_1N bJfAEHF CFeiKmI Congruent right correct Normal 804.7567
115 51 LeftLarger PercCAExp1 Prime_4A Target_1A IlDhije DFhKIbd Congruent left error Normal 2104.042
115 52 LeftLarger PercCAExp1 Prime_6A Target_4A lcIKiah lJjHDeh Incongruent left correct Normal 1334.38
115 53 LeftLarger PercCAExp1 Prime_9A Target_1A KkiCJfE jgdGbeJ Incongruent right error Normal 813.9105
115 54 LeftLarger PercCAExp1 Prime_9A Target_9N CiMhbEc hdKHcGD Congruent left error Normal 858.4841
115 55 LeftLarger PercCAExp1 Prime_9N Target_4N jHAGCkb GefCKiF Incongruent right error Normal 1109.721
115 56 LeftLarger PercCAExp1 Prime_6N Target_9A HDBkemc BHIgdML Congruent right correct Normal 1002.398
115 57 LeftLarger PercCAExp1 Prime_1A Target_4A gmKkCih KLIcljF Congruent right correct Normal 1318.992
115 58 LeftLarger PercCAExp1 Prime_9A Target_6A BmMJGiE eDBkbiI Congruent left error Normal 1161.645
115 59 LeftLarger PercCAExp1 Prime_4N Target_4N gDaeKbH GghcKDb Congruent right correct Normal 815.6161
115 60 LeftLarger PercCAExp1 Prime_1N Target_1N kedCLiD emCEjgB Congruent right correct Normal 1171.897
115 61 LeftLarger PercCAExp1 Prime_6N Target_1A jegJlIm jHIdFAJ Incongruent right error Normal 911.4857
115 62 LeftLarger PercCAExp1 Prime_6A Target_1N Blfbiha fGbHBcI Incongruent left correct Normal 734.9926
115 63 LeftLarger PercCAExp1 Prime_4N Target_1A ahcGkEI ICAkBFg Congruent right correct Normal 1557.537
115 64 LeftLarger PercCAExp1 Prime_1A Target_6A edjhCJi BGJjDfH Incongruent left correct Normal 874.2589
115 65 LeftLarger PercCAExp1 Prime_9N Target_1A FkDAGah dbEFkhG Incongruent right error Normal 953.8087
115 66 LeftLarger PercCAExp1 Prime_1N Target_6A lhIbGBf HFLEDGe Incongruent right error Normal 1734.523
115 67 LeftLarger PercCAExp1 Prime_9A Target_9A DjEIAaF hgJEHKe Congruent left error Normal 1024.393
115 68 LeftLarger PercCAExp1 Prime_6A Target_6A EGdcaeB mckhCDM Congruent right correct Normal 933.7064
115 69 LeftLarger PercCAExp1 Prime_1N Target_9N bDAiagf IEFKJad Incongruent right error Normal 830.9876
115 70 LeftLarger PercCAExp1 Prime_6N Target_6N IjbDFfB CGlaFDm Congruent right correct Normal 824.794
115 71 LeftLarger PercCAExp1 Prime_1N Target_6N AkjcahI gkChBAK Incongruent right error Normal 760.3394
115 72 LeftLarger PercCAExp1 Prime_4N Target_6A bMCjdim hgGkMLi Incongruent right error Normal 1283.253
115 73 LeftLarger PercCAExp1 Prime_6N Target_6A HdbiKFf FkdjIeL Congruent left error Normal 1851.676
115 74 LeftLarger PercCAExp1 Prime_6A Target_9A giaFJIl HBmMCLe Congruent left error Normal 671.2224
115 75 LeftLarger PercCAExp1 Prime_6A Target_1A JAfkIbe DIfbBME Incongruent left correct Normal 508.9102
115 76 LeftLarger PercCAExp1 Prime_1A Target_4N FlKaiCm CEdgKFB Congruent right correct Normal 556.8269
115 77 LeftLarger PercCAExp1 Prime_1A Target_1A GMBDide AkbHIdl Congruent left error Normal 636.362
115 78 LeftLarger PercCAExp1 Prime_9N Target_9N EgHCBFi mhfEMbc Congruent right correct Normal 722.6677
115 79 LeftLarger PercCAExp1 Prime_4N Target_6N mgMLDcG fAhjBkc Incongruent right error Normal 729.3955
115 80 LeftLarger PercCAExp1 Prime_6N Target_9N LligBHE LBDkKdA Congruent right correct Normal 793.6307
115 81 LeftSmaller PercCBPrac Prime_4N Target_4N GMbFdaj hBmEFHM Congruent left correct Normal 1004.085
115 82 LeftSmaller PercCBPrac Prime_4N Target_1N mcAIaLG gmdcblG Congruent left correct Normal 776.5844
115 83 LeftSmaller PercCBPrac Prime_6N Target_6A dfGBaeA ikAJGFm Congruent right error Normal 1088.407
115 84 LeftSmaller PercCBPrac Prime_1A Target_6A iIDdBEM iLKcIJA Incongruent left error Normal 1449.21
115 85 LeftSmaller PercCBPrac Prime_1N Target_9A kDeGblh HmDEjeC Incongruent left error Normal 1062.89
115 86 LeftSmaller PercCBPrac Prime_9N Target_9N iAMmFGD fjhDGKH Congruent left correct Normal 615.3086
115 87 LeftSmaller PercCBPrac Prime_6A Target_9N GlmciDE kImibKM Congruent left correct Normal 863.4676
115 88 LeftSmaller PercCBPrac Prime_9A Target_9A iJmlEgb eHJFgcl Congruent right error Normal 948.4091
115 89 LeftSmaller PercCBPrac Prime_6A Target_4A iLIfhkl kjImiEM Incongruent left error Normal 728.3489
115 90 LeftSmaller PercCBPrac Prime_4N Target_4A lAdGDCc GMbDlfC Congruent left correct Normal 1224.231
115 91 LeftSmaller PercCBPrac Prime_4A Target_9A FBcHLjJ AhLlmMC Incongruent left error Normal 1548.918
115 92 LeftSmaller PercCBPrac Prime_9A Target_1A kebLMJD kcFLhCB Incongruent right correct Normal 999.2335
115 93 LeftSmaller PercCBPrac Prime_6A Target_1A DEHkjbB fIeJiGj Incongruent left error Normal 2051.147
115 94 LeftSmaller PercCBPrac Prime_6N Target_1N FcLjJGe AlGgCEh Incongruent right correct Normal 3473.164
115 95 LeftSmaller PercCBPrac Prime_9N Target_4A CHagbel gDGJHmi Incongruent right correct Normal 3297.069
115 96 LeftSmaller PercCBPrac Prime_6N Target_9N kjImEla clFLEAJ Congruent left correct Normal 1865.804
115 97 LeftSmaller PercCBExp1 Prime_4A Target_9A hcHiEbg kFJfIDm Incongruent left error Normal 1559.02
115 98 LeftSmaller PercCBExp1 Prime_1A Target_4N hCkgJID hHMDigK Congruent left correct Normal 1520.575
115 99 LeftSmaller PercCBExp1 Prime_6N Target_6N diEBfeI mGCclhF Congruent right error Normal 1336.399
115 100 LeftSmaller PercCBExp1 Prime_4N Target_4A FhJkdaI BljIaGK Congruent right error Normal 1268.32
115 101 LeftSmaller PercCBExp1 Prime_9N Target_9A dFLfHkb lceEHfd Congruent right error Normal 1815.253
115 102 LeftSmaller PercCBExp1 Prime_4A Target_4N hmecbJg GMICkic Congruent left correct Normal 533.6891
115 103 LeftSmaller PercCBExp1 Prime_1N Target_1N ghBKdIC fEgAKkF Congruent left correct Normal 776.8456
115 104 LeftSmaller PercCBExp1 Prime_1N Target_9N bgKCjac dlAaJhE Incongruent left error Normal 635.8885
115 105 LeftSmaller PercCBExp1 Prime_4N Target_4N hBjgAcJ hgDKLGm Congruent left correct Normal 1089.312
115 106 LeftSmaller PercCBExp1 Prime_4A Target_4A jDamhFe ACFleKJ Congruent right error Normal 1125.132
115 107 LeftSmaller PercCBExp1 Prime_4N Target_6N BbcmaFK BDGElLK Incongruent right correct Normal 1192.292
115 108 LeftSmaller PercCBExp1 Prime_4A Target_6A GJfiCdK hjaJdGM Incongruent left error Normal 1369.837
115 109 LeftSmaller PercCBExp1 Prime_6A Target_9N jlLDMBH JfmcaEd Congruent left correct Normal 2017.2
115 110 LeftSmaller PercCBExp1 Prime_9N Target_4A eEJGmda JELgDaM Incongruent right correct Normal 1146.231
115 111 LeftSmaller PercCBExp1 Prime_9A Target_1N FhmECKk LGBfHba Incongruent left error Normal 1057.148
115 112 LeftSmaller PercCBExp1 Prime_1N Target_4A gfkAHli CcdiBHf Congruent left correct Normal 1478.198
115 113 LeftSmaller PercCBExp1 Prime_6A Target_9A CAhdjJg JHcALea Congruent right error Normal 753.7667
115 114 LeftSmaller PercCBExp1 Prime_4N Target_6A BmkAiba DilLeFb Incongruent right correct Normal 1224.042
115 115 LeftSmaller PercCBExp1 Prime_6N Target_9N hKLiHjE iHFgILm Congruent left correct Normal 2655.452
115 116 LeftSmaller PercCBExp1 Prime_6A Target_6A JljbBFh EBjdeLb Congruent left correct Normal 1594.918
115 117 LeftSmaller PercCBExp1 Prime_1A Target_6N KJeCHdj EGkLmjc Incongruent right correct Normal 1441.747
115 118 LeftSmaller PercCBExp1 Prime_6N Target_1A mGAHCJe dJegfiF Incongruent right correct Normal 1120.518
115 119 LeftSmaller PercCBExp1 Prime_9N Target_9N HgjeMiI FJIcaGe Congruent right error Normal 1111.119
115 120 LeftSmaller PercCBExp1 Prime_4N Target_1N LGMeEdF iIhdMkB Congruent left correct Normal 1006.195
115 121 LeftSmaller PercCBExp1 Prime_1N Target_6A iIjlDeb kfBbKAd Incongruent left error Normal 1379.239
115 122 LeftSmaller PercCBExp1 Prime_1N Target_1A CDEeHaj EbcGMJd Congruent right error Normal 1186.372
115 123 LeftSmaller PercCBExp1 Prime_1A Target_4A dhIMjDG FAhKGCi Congruent left correct Normal 1176.566
115 124 LeftSmaller PercCBExp1 Prime_9A Target_9N dHKceEF CckehiK Congruent left correct Normal 1234.237
115 125 LeftSmaller PercCBExp1 Prime_9N Target_1A IdfAELb EljfLMK Incongruent left error Normal 2862.301
115 126 LeftSmaller PercCBExp1 Prime_1A Target_6A MkLIeai cBICmJg Incongruent right correct Normal 609.8839
115 127 LeftSmaller PercCBExp1 Prime_1A Target_9N ilMFBJE gMDGJik Incongruent right correct Normal 1207.044
115 128 LeftSmaller PercCBExp1 Prime_4A Target_9N LcjABDH dBLckCD Incongruent left error Normal 576.4579
115 129 LeftSmaller PercCBExp1 Prime_6A Target_1N fFgADMd DigHElh Incongruent left error Normal 426.993
115 130 LeftSmaller PercCBExp1 Prime_1A Target_1A mBcjkFh JgkICEK Congruent left correct Normal 646.1169
115 131 LeftSmaller PercCBExp1 Prime_9A Target_4N efHhbGd CEMFDLj Incongruent left error Normal 839.2451
115 132 LeftSmaller PercCBExp1 Prime_9N Target_6N iIHAbca iacdEJF Congruent right error Normal 759.2761
115 133 LeftSmaller PercCBExp1 Prime_4A Target_1A BCFElJA ejkMDIA Congruent left correct Normal 850.9199
115 134 LeftSmaller PercCBExp1 Prime_6A Target_4A bdFLiIA mDIJiAe Incongruent left error Normal 962.2387
115 135 LeftSmaller PercCBExp1 Prime_4N Target_9A KGibgMF AfhDlBC Incongruent right correct Normal 1170.262
115 136 LeftSmaller PercCBExp1 Prime_9A Target_6A gbaChcK KglAFGJ Congruent left correct Normal 832.6938
115 137 LeftSmaller PercCBExp1 Prime_6A Target_6N fgIDiGE fijkecM Congruent right error Normal 2067.131
115 138 LeftSmaller PercCBExp1 Prime_1A Target_9A aCfGimg hHgkima Incongruent left error Normal 1457.331
115 139 LeftSmaller PercCBExp1 Prime_9N Target_4N CMGheJk EbKHjie Incongruent right correct Normal 1082.198
115 140 LeftSmaller PercCBExp1 Prime_1N Target_4N dgbCmHi MKIFdhk Congruent left correct Normal 1119.065
115 141 LeftSmaller PercCBExp1 Prime_9N Target_6A iBfgILm cKLdCja Congruent left correct Normal 654.855
115 142 LeftSmaller PercCBExp1 Prime_1N Target_6N jLfECBH magjlfF Incongruent left error Normal 861.5584
115 143 LeftSmaller PercCBExp1 Prime_6N Target_1N MCBiFId fCJiDcj Incongruent right correct Normal 1292.181
115 144 LeftSmaller PercCBExp1 Prime_9A Target_9A aiFfKHB FIdlEgk Congruent left correct Normal 992.3964
115 145 LeftSmaller PercCBExp1 Prime_9A Target_6N fmAHacl hjcfbBk Congruent right error Normal 1042.924
115 146 LeftSmaller PercCBExp1 Prime_9N Target_1N DmLAiJE iFILfBa Incongruent right correct Normal 3189.35
115 147 LeftSmaller PercCBExp1 Prime_4A Target_6N IbfahLB HjIFmCe Incongruent right correct Normal 1618.317
115 148 LeftSmaller PercCBExp1 Prime_4N Target_9N iFKMHfG JBDGhic Incongruent right correct Normal 996.1637
115 149 LeftSmaller PercCBExp1 Prime_1N Target_9A cBElkKd LDBFAfH Incongruent left error Normal 1716.037
115 150 LeftSmaller PercCBExp1 Prime_6N Target_6A aEBKcCd mdlHagE Congruent left correct Normal 925.6753
115 151 LeftSmaller PercCBExp1 Prime_6A Target_4N IFCKEjD ciKEHdD Incongruent right correct Normal 2010.502
115 152 LeftSmaller PercCBExp1 Prime_6A Target_1A DFclECf aEMfIDe Incongruent right correct Normal 2056.836
115 153 LeftSmaller PercCBExp1 Prime_9A Target_1A FHmJCgj aFdLcgD Incongruent right correct Normal 990.6622
115 154 LeftSmaller PercCBExp1 Prime_4A Target_1N IEMLajg GbjJeaC Congruent left correct Normal 668.8466
115 155 LeftSmaller PercCBExp1 Prime_1A Target_1N bHDBIkd EfLkAMd Congruent left correct Normal 1706.273
115 156 LeftSmaller PercCBExp1 Prime_9A Target_4A khEIjBD GgICMDB Incongruent right correct Normal 1989.23
115 157 LeftSmaller PercCBExp1 Prime_6N Target_9A ECHJMgf HIfBMEL Congruent right error Normal 806.0268
115 158 LeftSmaller PercCBExp1 Prime_4N Target_1A aEkiAfD CJfAjEL Congruent left correct Normal 1998.515
115 159 LeftSmaller PercCBExp1 Prime_6N Target_4A bJdIgHC HGJjBlC Incongruent left error Normal 2076.123
115 160 LeftSmaller PercCBExp1 Prime_6N Target_4N EjafKdh cBmDfhj Incongruent left error Normal 941.5735
116 1 LeftLarger PercCAPrac Prime_4N Target_1N dJLBGiC kmfiECG Congruent right correct Normal 857.1023
116 2 LeftLarger PercCAPrac Prime_1A Target_9N KfLjABG fBbgdjC Incongruent right error Normal 413.3988
116 3 LeftLarger PercCAPrac Prime_6N Target_4N hDeFalj lhLgKMA Incongruent left correct Normal 461.1665
116 4 LeftLarger PercCAPrac Prime_4A Target_9A bgcmBeh eHkBFIb Incongruent left correct Normal 1078.845
116 5 LeftLarger PercCAPrac Prime_1A Target_1N aMEjceL GIfKaih Congruent left error Normal 819.0456
116 6 LeftLarger PercCAPrac Prime_9N Target_6A AMGbHld ILljABh Congruent right correct Normal 498.9533
116 7 LeftLarger PercCAPrac Prime_1A Target_4A jIcMfFb MeBHDFC Congruent left error Normal 595.2463
116 8 LeftLarger PercCAPrac Prime_9A Target_1A akALEjM JgCjhKf Incongruent right error Normal 801.2616
116 9 LeftLarger PercCAPrac Prime_9N Target_6N bkDHEFd edLCBFE Congruent right correct Normal 979.6838
116 10 LeftLarger PercCAPrac Prime_6A Target_4A dAeGFLC ABEmGJe Incongruent left correct Normal 1110.126
116 11 LeftLarger PercCAPrac Prime_4A Target_6N LKbjCkc acHkKbL Incongruent right error Normal 929.0597
116 12 LeftLarger PercCAPrac Prime_6N Target_9A GkmlFaI lBbEicJ Congruent left error Normal 1333.217
116 13 LeftLarger PercCAPrac Prime_4N Target_4N BCdAmhj lIFMjHe Congruent right correct Normal 1096.535
116 14 LeftLarger PercCAPrac Prime_9N Target_9A faiAJMh KCagDjF Congruent left error Normal 1006.327
116 15 LeftLarger PercCAPrac Prime_1A Target_9A ImiaLHf gbGAjmM Incongruent left correct Normal 1496.742
116 16 LeftLarger PercCAPrac Prime_1A Target_6N jiMEdCD aGAfiLC Incongruent left correct Normal 1434.136
116 17 LeftLarger PercCAExp1 Prime_4A Target_9N EBgJAGe fJhIgme Incongruent left correct Normal 1166.181
116 18 LeftLarger PercCAExp1 Prime_9N Target_6N BbchKGL MiDFhlJ Congruent left error Normal 1089.883
116 19 LeftLarger PercCAExp1 Prime_6A Target_4N beJgBcE jCJHAdh Incongruent right error Normal 1057.633
116 20 LeftLarger PercCAExp1 Prime_1N Target_9N LbJdMEl eClfADH Incongruent right error Normal 1162.242
116 21 LeftLarger PercCAExp1 Prime_6A Target_6N HcKFMBm ADKfJFC Congruent right correct Normal 706.2196
116 22 LeftLarger PercCAExp1 Prime_6N Target_1A bFkIdjA LemhFdf Incongruent right error Normal 1870.715
116 23 LeftLarger PercCAExp1 Prime_9A Target_1N flCIbhH JKiAGIf Incongruent right error Normal 1613.42
116 24 LeftLarger PercCAExp1 Prime_6N Target_1N IGKHDea bLcigHa Incongruent left correct Normal 1153.584
116 25 LeftLarger PercCAExp1 Prime_1A Target_9A FcDMClB LkcbEah Incongruent left correct Normal 950.9794
116 26 LeftLarger PercCAExp1 Prime_4A Target_4A JkjFdDc FGkHCIb Congruent left error Normal 999.8417
116 27 LeftLarger PercCAExp1 Prime_6N Target_9N mGhAMEd DBJfGbm Congruent left error Normal 874.1359
116 28 LeftLarger PercCAExp1 Prime_1N Target_1N FbfJLma LGgCAEI Congruent left error Normal 859.4334
116 29 LeftLarger PercCAExp1 Prime_6N Target_6N mLgkaFI bHGLhaB Congruent right correct Normal 876.8205
116 30 LeftLarger PercCAExp1 Prime_9N Target_4A BjCkEdI HKhafCE Incongruent left correct Normal 729.5479
116 31 LeftLarger PercCAExp1 Prime_4N Target_9N gLlkmGc bkmEhcI Incongruent left correct Normal 750.9254
116 32 LeftLarger PercCAExp1 Prime_4A Target_6N aMHJmlF kjHLACi Incongruent left correct Normal 481.236
116 33 LeftLarger PercCAExp1 Prime_6A Target_6A MkEalce EcJAihk Congruent left error Normal 1070.134
116 34 LeftLarger PercCAExp1 Prime_4N Target_4N FBLhbAe IMaDLAi Congruent left error Normal 840.9266
116 35 LeftLarger PercCAExp1 Prime_9A Target_9A HCdLifM EGfdeKj Congruent left error Normal 905.1164
116 36 LeftLarger PercCAExp1 Prime_1N Target_6A McbDklB klFbdCJ Incongruent left correct Normal 917.2402
116 37 LeftLarger PercCAExp1 Prime_9N Target_6A EJfjiel aHmlcCG Congruent right correct Normal 1105.843
116 38 LeftLarger PercCAExp1 Prime_1A Target_6N HfECKAm iEBjfMm Incongruent right error Normal 915.5261
116 39 LeftLarger PercCAExp1 Prime_1A Target_9N EcaBkHG jligkhb Incongruent right error Normal 747.3361
116 40 LeftLarger PercCAExp1 Prime_1A Target_1A mEDMJgk dAKhlDm Congruent left error Normal 1162.912
116 41 LeftLarger PercCAExp1 Prime_6N Target_9A hDakGmL LAdbDFB Congruent right correct Normal 1016.207
116 42 LeftLarger PercCAExp1 Prime_4A Target_1N JjBiADK MiAKbdL Congruent left error Normal 689.6853
116 43 LeftLarger PercCAExp1 Prime_9N Target_1N IJmfAhk JaCmleh Incongruent left correct Normal 1026.498
116 44 LeftLarger PercCAExp1 Prime_6A Target_1N DMBGcIF AIFabdG Incongruent left correct Normal 1541.54
116 45 LeftLarger PercCAExp1 Prime_6A Target_9N BlMCjHi cIKBkEb Congruent left error Normal 1426.482
116 46 LeftLarger PercCAExp1 Prime_9A Target_4A IJBLhkA LMFJhAg Incongruent left correct Normal 1526.042
116 47 LeftLarger PercCAExp1 Prime_1N Target_9A mcGFEbe EKAJFej Incongruent left correct Normal 1594.434
116 48 LeftLarger PercCAExp1 Prime_4A Target_9A AbGMkhc kfcgbDa Incongruent left correct Normal 681.3007
116 49 LeftLarger PercCAExp1 Prime_9A Target_6A CfFcEHB IhfaFMH Congruent right correct Normal 1603.192
116 50 LeftLarger PercCAExp1 Prime_9A Target_6N beEDMLJ cdaHFKI Congruent right correct Normal 963.1028
116 51 LeftLarger PercCAExp1 Prime_1A Target_1N HJdeBjC BAiDIJH Congruent right correct Normal 1285.072
116 52 LeftLarger PercCAExp1 Prime_4N Target_1A jIABcbL gFjmiCc Congruent left error Normal 769.1365
116 53 LeftLarger PercCAExp1 Prime_9N Target_1A FdHJAEb LEAJmlB Incongruent left correct Normal 699.3163
116 54 LeftLarger PercCAExp1 Prime_9N Target_9A hGFgmEL fhcGiBD Congruent left error Normal 1510.462
116 55 LeftLarger PercCAExp1 Prime_4A Target_4N CAkiLgf HehGDIb Congruent left error Normal 2067.026
116 56 LeftLarger PercCAExp1 Prime_1N Target_6N MGblgDd lKeidMG Incongruent left correct Normal 862.5238
116 57 LeftLarger PercCAExp1 Prime_4N Target_6N eMJmBdL FLEhIgk Incongruent left correct Normal 1329.322
116 58 LeftLarger PercCAExp1 Prime_4A Target_6A ibfjJMA gACDcLI Incongruent left correct Normal 1189.004
116 59 LeftLarger PercCAExp1 Prime_4N Target_9A bifLAhd EaJKieD Incongruent left correct Normal 913.5387
116 60 LeftLarger PercCAExp1 Prime_9A Target_9N MIiEbAF mCGgJbI Congruent right correct Normal 832.7478
116 61 LeftLarger PercCAExp1 Prime_9N Target_4N fbgBDhL MjIaBfe Incongruent left correct Normal 839.1538
116 62 LeftLarger PercCAExp1 Prime_1A Target_6A MlgBbiJ DifBCkM Incongruent left correct Normal 840.0698
116 63 LeftLarger PercCAExp1 Prime_4N Target_1N LgbakEF hAlFGfB Congruent right correct Normal 1107.88
116 64 LeftLarger PercCAExp1 Prime_1N Target_1A KdbIJaD ekjJDhC Congruent right correct Normal 1247.165
116 65 LeftLarger PercCAExp1 Prime_6A Target_1A FGBhDIc DcJldeF Incongruent left correct Normal 969.4278
116 66 LeftLarger PercCAExp1 Prime_6A Target_9A cDikGgf ldCGeEm Congruent right correct Normal 1671.543
116 67 LeftLarger PercCAExp1 Prime_6N Target_4N LHJdCKA FmLDKCM Incongruent right error Normal 1383.022
116 68 LeftLarger PercCAExp1 Prime_6A Target_4A giHaejL DfGgdIa Incongruent left correct Normal 1473.777
116 69 LeftLarger PercCAExp1 Prime_6N Target_4A hiFBJem BHEFAMm Incongruent left correct Normal 1204.233
116 70 LeftLarger PercCAExp1 Prime_6N Target_6A bIJDjdf CGMBkiE Congruent left error Normal 1648.653
116 71 LeftLarger PercCAExp1 Prime_1A Target_4A JHghbFG FLfechb Congruent left error Normal 1607.362
116 72 LeftLarger PercCAExp1 Prime_1N Target_4A migEAbC DHBjJdk Congruent left error Normal 1018.951
116 73 LeftLarger PercCAExp1 Prime_4N Target_6A EjBlcLa faKeCBj Incongruent left correct Normal 1437.853
116 74 LeftLarger PercCAExp1 Prime_1N Target_4N AgfaCDj BcGMfAJ Congruent right correct Normal 1763.673
116 75 LeftLarger PercCAExp1 Prime_9A Target_4N IciHDmh gciFEBm Incongruent left correct Normal 1198.687
116 76 LeftLarger PercCAExp1 Prime_9A Target_1A HfIDdFM aCgGDei Incongruent left correct Normal 780.5526
116 77 LeftLarger PercCAExp1 Prime_9N Target_9N JkgEMcC fgMjEDk Congruent left error Normal 1052.23
116 78 LeftLarger PercCAExp1 Prime_4N Target_4A lbheAEg DghldKF Congruent left error Normal 1081.777
116 79 LeftLarger PercCAExp1 Prime_1A Target_4N bgCcLDm JjAHkFg Congruent left error Normal 897.1873
116 80 LeftLarger PercCAExp1 Prime_4A Target_1A fdlacGB fLcjlke Congruent right correct Normal 760.2397
116 81 LeftSmaller PercCBPrac Prime_6N Target_4N FkcKdma DcKBdjf Incongruent right correct Normal 1450.721
116 82 LeftSmaller PercCBPrac Prime_1N Target_4A kAhKgDJ agKmihj Congruent right error Normal 586.3386
116 83 LeftSmaller PercCBPrac Prime_6N Target_1N aCljKEG iKGFELj Incongruent right correct Normal 434.8866
116 84 LeftSmaller PercCBPrac Prime_4N Target_1A CcKBmAM HeakLGd Congruent right error Normal 931.6087
116 85 LeftSmaller PercCBPrac Prime_6N Target_9N EmlADhL lFHabCL Congruent left correct Normal 1167.461
116 86 LeftSmaller PercCBPrac Prime_4A Target_4A ICemLHh kgIjcMB Congruent right error Normal 688.1071
116 87 LeftSmaller PercCBPrac Prime_9A Target_6N iClkHfM aBHGjmF Congruent left correct Normal 1004.44
116 88 LeftSmaller PercCBPrac Prime_9A Target_4N mKiCFjJ ldcAgIJ Incongruent left error Normal 1271.428
116 89 LeftSmaller PercCBPrac Prime_9A Target_4A dBMajKm MCJhdAI Incongruent right correct Normal 810.0624
116 90 LeftSmaller PercCBPrac Prime_1A Target_1N lbBdgkM lehjAGC Congruent right error Normal 2307.283
116 91 LeftSmaller PercCBPrac Prime_9N Target_6N JCIDjKF AEGchjL Congruent right error Normal 692.3079
116 92 LeftSmaller PercCBPrac Prime_9A Target_9N EGbBCil cbJeKMf Congruent right error Normal 887.9727
116 93 LeftSmaller PercCBPrac Prime_4A Target_6N DAiImcJ MLedIlA Incongruent right correct Normal 896.4488
116 94 LeftSmaller PercCBPrac Prime_4A Target_1A EhgBLbl DJHLBIf Congruent right error Normal 686.0061
116 95 LeftSmaller PercCBPrac Prime_6A Target_6N mIKLJag ilfCFcK Congruent right error Normal 1099.924
116 96 LeftSmaller PercCBPrac Prime_4N Target_6N cAmBMaG ehDLJmf Incongruent left error Normal 872.5136
116 97 LeftSmaller PercCBExp1 Prime_4N Target_1A CfdeLIm EmDCjiJ Congruent right error Normal 1179.968
116 98 LeftSmaller PercCBExp1 Prime_9A Target_6A dLgkMDj BEgejAI Congruent right error Normal 619.1447
116 99 LeftSmaller PercCBExp1 Prime_9A Target_4N lEbjiMf eHCEiML Incongruent right correct Normal 766.2615
116 100 LeftSmaller PercCBExp1 Prime_1A Target_9A dfbHLkm KiFblAC Incongruent left error Normal 1025.68
116 101 LeftSmaller PercCBExp1 Prime_6A Target_4N bABDkef dkHLmEc Incongruent right correct Normal 702.8782
116 102 LeftSmaller PercCBExp1 Prime_9N Target_6N KfFicLm GcKAagj Congruent right error Normal 365.9099
116 103 LeftSmaller PercCBExp1 Prime_6A Target_6N DlJLCIc KbFABeG Congruent right error Normal 338.0026
116 104 LeftSmaller PercCBExp1 Prime_4N Target_1N BEdaeKb GKalLdJ Congruent right error Normal 351.2479
116 105 LeftSmaller PercCBExp1 Prime_9N Target_9N MgmBkcl kEMDaGj Congruent left correct Normal 744.1949
116 106 LeftSmaller PercCBExp1 Prime_1N Target_9N dIDLfib iBlKEcF Incongruent left error Normal 529.9983
116 107 LeftSmaller PercCBExp1 Prime_1A Target_9N JCGkFcj LikEFCl Incongruent right correct Normal 1066.018
116 108 LeftSmaller PercCBExp1 Prime_4N Target_6A geLHCMd AjHJKFe Incongruent left error Normal 998.8187
116 109 LeftSmaller PercCBExp1 Prime_9A Target_1A bgkhecI GDmAIbM Incongruent right correct Normal 1086.124
116 110 LeftSmaller PercCBExp1 Prime_4A Target_9A iBjmDMf aIhjcKm Incongruent right correct Normal 888.1363
116 111 LeftSmaller PercCBExp1 Prime_6N Target_4A IkGcKal IfFbKGj Incongruent right correct Normal 774.9685
116 112 LeftSmaller PercCBExp1 Prime_9A Target_4A kafbeCj fDlLFJd Incongruent left error Normal 625.3588
116 113 LeftSmaller PercCBExp1 Prime_1A Target_6N dkImFeL BEFiLdG Incongruent right correct Normal 1622.141
116 114 LeftSmaller PercCBExp1 Prime_6N Target_6N jilbmLK cGaLmHj Congruent right error Normal 734.1297
116 115 LeftSmaller PercCBExp1 Prime_1A Target_1N FkhMbIJ jbGKcFd Congruent right error Normal 750.6698
116 116 LeftSmaller PercCBExp1 Prime_1N Target_9A hFGAfKJ CbJhFBd Incongruent left error Normal 1249.209
116 117 LeftSmaller PercCBExp1 Prime_4A Target_4N LlDmAgC AhgBLCl Congruent left correct Normal 1099.133
116 118 LeftSmaller PercCBExp1 Prime_4A Target_6A FBmCcAl ijhCfFg Incongruent right correct Normal 1166.819
116 119 LeftSmaller PercCBExp1 Prime_9N Target_1N ACkfEaB AHCLlek Incongruent right correct Normal 1142.245
116 120 LeftSmaller PercCBExp1 Prime_9A Target_1N AMbemDl FBbMhjk Incongruent right correct Normal 921.6839
116 121 LeftSmaller PercCBExp1 Prime_1A Target_1A mbIGDlg KDmIjHb Congruent right error Normal 775.9688
116 122 LeftSmaller PercCBExp1 Prime_6A Target_9A MajCFib mgkfGHb Congruent right error Normal 1202.969
116 123 LeftSmaller PercCBExp1 Prime_1N Target_4A JlFGjam Acimfbj Congruent right error Normal 1126.946
116 124 LeftSmaller PercCBExp1 Prime_1A Target_4A gLMhCcE IKMCcmF Congruent right error Normal 1493.573
116 125 LeftSmaller PercCBExp1 Prime_4N Target_9N BegDmId jaDgAde Incongruent left error Normal 967.9185
116 126 LeftSmaller PercCBExp1 Prime_6N Target_4N MhgKiLA kBAmGeL Incongruent right correct Normal 1246.718
116 127 LeftSmaller PercCBExp1 Prime_6N Target_6A ILfHjmg dImDeLj Congruent right error Normal 1183.781
116 128 LeftSmaller PercCBExp1 Prime_6A Target_1A KlBEAHe IAHFdhm Incongruent left error Normal 795.5805
116 129 LeftSmaller PercCBExp1 Prime_6N Target_1N ILjBJMg GDBehba Incongruent left error Normal 886.1431
116 130 LeftSmaller PercCBExp1 Prime_6A Target_9N cMLbAjJ JeIBCFm Congruent right error Normal 780.3804
116 131 LeftSmaller PercCBExp1 Prime_1A Target_4N AhIfJEm akdlgiM Congruent left correct Normal 1045.011
116 132 LeftSmaller PercCBExp1 Prime_4A Target_4A dlkhgEb iJLFkKM Congruent right error Normal 909.8909
116 133 LeftSmaller PercCBExp1 Prime_1N Target_6A fmlhjbi FijIcMb Incongruent right correct Normal 1047.906
116 134 LeftSmaller PercCBExp1 Prime_9N Target_6A kGFHjdc lDmJhLF Congruent right error Normal 903.1315
116 135 LeftSmaller PercCBExp1 Prime_4A Target_9N ClcjHFa macbABC Incongruent left error Normal 891.5367
116 136 LeftSmaller PercCBExp1 Prime_9A Target_6N BcJMEia IMbmLhJ Congruent right error Normal 723.223
116 137 LeftSmaller PercCBExp1 Prime_9N Target_9A KLjFMli AEGbJkl Congruent left correct Normal 1256.216
116 138 LeftSmaller PercCBExp1 Prime_9A Target_9N cBdCFhJ gBkljcK Congruent left correct Normal 1075.554
116 139 LeftSmaller PercCBExp1 Prime_4A Target_6N KfgbdFH dLDlghB Incongruent right correct Normal 909.3199
116 140 LeftSmaller PercCBExp1 Prime_6N Target_9N BemdFlA lDaJMgm Congruent left correct Normal 1121.392
116 141 LeftSmaller PercCBExp1 Prime_6A Target_1N AhMigla EGBgcFJ Incongruent right correct Normal 801.3583
116 142 LeftSmaller PercCBExp1 Prime_1N Target_6N dMcljHg KhaiFmb Incongruent right correct Normal 1013.375
116 143 LeftSmaller PercCBExp1 Prime_4N Target_4N AdFlMIC IcDkBGh Congruent left correct Normal 1644.385
116 144 LeftSmaller PercCBExp1 Prime_1A Target_6A ACkjBec fDjhbck Incongruent right correct Normal 1128.179
116 145 LeftSmaller PercCBExp1 Prime_4N Target_9A LieBmGJ iDMIBEg Incongruent right correct Normal 1052.052
116 146 LeftSmaller PercCBExp1 Prime_6N Target_1A ELelAIm Ggblfei Incongruent right correct Normal 727.7276
116 147 LeftSmaller PercCBExp1 Prime_4N Target_4A AFhlLHb DaFfLdc Congruent left correct Normal 599.2653
116 148 LeftSmaller PercCBExp1 Prime_9N Target_4N leHaFLj kJadgmf Incongruent right correct Normal 765.0539
116 149 LeftSmaller PercCBExp1 Prime_4A Target_1N LiCBdgM gedLGkD Congruent right error Normal 1003.854
116 150 LeftSmaller PercCBExp1 Prime_1N Target_4N BfGJMlk LEjfDkc Congruent right error Normal 787.6125
116 151 LeftSmaller PercCBExp1 Prime_6N Target_9A gafEeCc fkGLDcA Congruent left correct Normal 920.535
116 152 LeftSmaller PercCBExp1 Prime_6A Target_4A gFcAidB BChIflF Incongruent right correct Normal 1482.989
116 153 LeftSmaller PercCBExp1 Prime_9N Target_4A JFmbkBG fkBceAD Incongruent right correct Normal 1765.045
116 154 LeftSmaller PercCBExp1 Prime_6A Target_6A jfbGmKc FAKDEha Congruent left correct Normal 758.9539
116 155 LeftSmaller PercCBExp1 Prime_1N Target_1A cdHelgI kJIHgcE Congruent left correct Normal 1062.176
116 156 LeftSmaller PercCBExp1 Prime_9A Target_9A FKklefb IKGbBmA Congruent right error Normal 993.1724
116 157 LeftSmaller PercCBExp1 Prime_4A Target_1A CDHaebg fmHdabB Congruent right error Normal 801.6455
116 158 LeftSmaller PercCBExp1 Prime_4N Target_6N JGflAbj AHJFfce Incongruent right correct Normal 935.1751
116 159 LeftSmaller PercCBExp1 Prime_1N Target_1N FDAjEHf gBFeAil Congruent right error Normal 827.3493
