sub trial_no group_type block_type prime target mask1 mask2 congruency key_press key_error time_error RT
602 1 LeftLarger PercCAPrac Prime_6N Target_9N AlfgcKG dEhjKFL Congruent right correct Normal 1322.92
602 2 LeftLarger PercCAPrac Prime_9A Target_6A BfHcAbj mBKlEDa Congruent left error Normal 291.9877
602 3 LeftLarger PercCAPrac Prime_6A Target_1N BMmChbE mgCAkEM Incongruent right error Normal 114.8481
602 4 LeftLarger PercCAPrac Prime_9N Target_9N cAhDaJM LhafHmA Congruent right correct Early 23.05
602 5 LeftLarger PercCAPrac Prime_1A Target_4N liCIfbg ALmFJCi Congruent left error Early 2.920089
602 6 LeftLarger PercCAPrac Prime_4N Target_9N AaJfedh flAMhBa Incongruent right error Normal 118.5361
602 7 LeftLarger PercCAPrac Prime_4N Target_1A LdbCHgB kJhHBKa Congruent right correct Normal 193.8818
602 8 LeftLarger PercCAPrac Prime_9A Target_4N BaEHjJD kDGJgjf Incongruent left correct Normal 228.077
602 9 LeftLarger PercCAPrac Prime_9N Target_4A cdhbaDI egKmDBH Incongruent right error Normal 737.3695
602 10 LeftLarger PercCAPrac Prime_9A Target_1A GIEFKec gafMbFC Incongruent left correct Normal 1211.104
602 11 LeftLarger PercCAPrac Prime_6A Target_4N eGfMhjc eFCkEdL Incongruent left correct Normal 961.4494
602 12 LeftLarger PercCAPrac Prime_1N Target_9N hFAdCeg lGDbcgH Incongruent left correct Normal 1185.439
602 13 LeftLarger PercCAPrac Prime_1A Target_1A CALghKm abiImMk Congruent right correct Normal 754.778
602 14 LeftLarger PercCAPrac Prime_9A Target_6N JeHlAcB DgbBCcm Congruent right correct Normal 672.6032
602 15 LeftLarger PercCAPrac Prime_6A Target_6A ijgFmKB CiABfGj Congruent right correct Normal 724.4134
602 16 LeftLarger PercCAPrac Prime_6N Target_4N lbJmcid HJmdeAl Incongruent left correct Normal 850.1241
602 17 LeftLarger PercCAExp1 Prime_9A Target_6A ilLBdDj mFcDlfJ Congruent right correct Normal 808.7522
602 18 LeftLarger PercCAExp1 Prime_4A Target_6N kcECLAG JBbIhgd Incongruent left correct Normal 502.4643
602 19 LeftLarger PercCAExp1 Prime_1A Target_1A dlEakfB JaiblDA Congruent right correct Normal 692.0469
602 20 LeftLarger PercCAExp1 Prime_6N Target_6A bBCJcgf eEKhJCa Congruent right correct Normal 727.2992
602 21 LeftLarger PercCAExp1 Prime_1N Target_1N MGKDmgd kbiBfeh Congruent left error Normal 988.8354
602 22 LeftLarger PercCAExp1 Prime_4A Target_6A HjJAfaC KeEjikB Incongruent right error Early 40.81635
602 23 LeftLarger PercCAExp1 Prime_1A Target_9N HKfcDGM blgHdaK Incongruent left correct Normal 302.034
602 24 LeftLarger PercCAExp1 Prime_4N Target_4N fALGCBF mkHjKdJ Congruent right correct Early 2.788817
602 25 LeftLarger PercCAExp1 Prime_6A Target_9N MbAjaLE iJmMfgD Congruent right correct Early 3.021321
602 26 LeftLarger PercCAExp1 Prime_9A Target_9A iHdKamc JDGachB Congruent left error Early 2.972461
602 27 LeftLarger PercCAExp1 Prime_9A Target_4A jBmagEc ajkgCfJ Incongruent right error Early 2.879454
602 28 LeftLarger PercCAExp1 Prime_6N Target_4N EJGcHba KbBHMaf Incongruent left correct Early 2.931399
602 29 LeftLarger PercCAExp1 Prime_1A Target_6N HMJlcbC IjFldLf Incongruent right error Early 2.84267
602 30 LeftLarger PercCAExp1 Prime_1N Target_9A IlMGmfF lhkKMJH Incongruent left correct Normal 2912.381
602 31 LeftLarger PercCAExp1 Prime_6A Target_1N kEfaHBC facligE Incongruent right error Normal 283.8667
602 32 LeftLarger PercCAExp1 Prime_4N Target_4A dHhMgKF LjbCBeA Congruent right correct Early 2.869806
602 33 LeftLarger PercCAExp1 Prime_4N Target_6A KLHchJj fFcEGiB Incongruent left correct Normal 2033.291
602 34 LeftLarger PercCAExp1 Prime_9A Target_1A HDdBAle CMLEDKG Incongruent right error Normal 119.6327
602 35 LeftLarger PercCAExp1 Prime_4A Target_1A JDjGBIC kJfLIHF Congruent left error Normal 286.2998
602 36 LeftLarger PercCAExp1 Prime_4A Target_1N chdJfje BMIFCGm Congruent right correct Normal 108.2144
602 37 LeftLarger PercCAExp1 Prime_1N Target_9N EACjDFi hGCdDHf Incongruent left correct Normal 216.4894
602 38 LeftLarger PercCAExp1 Prime_1A Target_9A MjGdlDb ieIhJBH Incongruent left correct Normal 926.8836
602 39 LeftLarger PercCAExp1 Prime_4A Target_9A iMmjkdD gdFMHfi Incongruent right error Normal 171.5574
602 40 LeftLarger PercCAExp1 Prime_6N Target_4A HhKjimM IjCMiAJ Incongruent right error Early 36.68825
602 41 LeftLarger PercCAExp1 Prime_9A Target_4N IALeCBc lKgLCdM Incongruent left correct Normal 1955.112
602 42 LeftLarger PercCAExp1 Prime_9A Target_6N eCDFLfE bIBeMJl Congruent right correct Normal 115.3401
602 43 LeftLarger PercCAExp1 Prime_1N Target_6N GFgBHMJ afhGjlE Incongruent right error Early 2.94442
602 44 LeftLarger PercCAExp1 Prime_4N Target_1N begJAHi KACGIfL Congruent left error Early 14.82288
602 45 LeftLarger PercCAExp1 Prime_9N Target_6A MbBLFmH hAHeaJF Congruent right correct Early 2.890337
602 46 LeftLarger PercCAExp1 Prime_9N Target_4A MIkCeEf efcBIkG Incongruent right error Early 2.926315
602 47 LeftLarger PercCAExp1 Prime_9N Target_9N bjDJIFf BjFiCGk Congruent left error Early 2.984487
602 48 LeftLarger PercCAExp1 Prime_4N Target_9N dKGjmFg dgeKkiL Incongruent right error Normal 1701.117
602 49 LeftLarger PercCAExp1 Prime_9N Target_9A bFhHaGA JkBGAHK Congruent left error Early 83.98281
602 50 LeftLarger PercCAExp1 Prime_6N Target_9N jgmIcAM LeHbgij Congruent right correct Normal 298.2769
602 51 LeftLarger PercCAExp1 Prime_4A Target_4N bELIgDj DaMjgmJ Congruent left error Early 10.89044
602 52 LeftLarger PercCAExp1 Prime_1A Target_6A jMBmHiK jcbiCAF Incongruent right error Early 2.940809
602 53 LeftLarger PercCAExp1 Prime_6A Target_4N ACDEKBd EflKLDb Incongruent left correct Early 2.931925
602 54 LeftLarger PercCAExp1 Prime_6A Target_6A IHiLKEh GBdLJgE Congruent right correct Normal 204.1519
602 55 LeftLarger PercCAExp1 Prime_6N Target_1N MiKglAF HAhEdLB Incongruent left correct Normal 150.6938
602 56 LeftLarger PercCAExp1 Prime_1N Target_6A kJiadcg laJjhBe Incongruent right error Early 3.073882
602 57 LeftLarger PercCAExp1 Prime_6N Target_6N AgmJkMe EGmlCbJ Congruent left error Early 10.85109
602 58 LeftLarger PercCAExp1 Prime_1A Target_4A kElHBbh GmeIKDf Congruent left error Normal 2105.38
602 59 LeftLarger PercCAExp1 Prime_6A Target_4A aKdcgGm mIailKb Incongruent right error Normal 113.3713
602 60 LeftLarger PercCAExp1 Prime_1A Target_1N dFDjiJl MIbAmCj Congruent left error Normal 239.6044
602 61 LeftLarger PercCAExp1 Prime_9A Target_1N DHmadkg ceIiMAd Incongruent right error Early 41.71572
602 62 LeftLarger PercCAExp1 Prime_1N Target_1A AHIaehJ BHaLidE Congruent right correct Normal 180.8393
602 63 LeftLarger PercCAExp1 Prime_4N Target_1A mhBDeIb lHhAcam Congruent right correct Normal 158.2609
602 64 LeftLarger PercCAExp1 Prime_6A Target_6N AgCJMel kHDBLbf Congruent right correct Normal 501.5259
602 65 LeftLarger PercCAExp1 Prime_6N Target_9A iMLlfKe fmGagkc Congruent left error Normal 822.5676
602 66 LeftLarger PercCAExp1 Prime_4N Target_9A bmcCfdD gHBeGbf Incongruent right error Normal 650.7409
602 67 LeftLarger PercCAExp1 Prime_6N Target_1A LDCaMJi IFlMaJm Incongruent right error Normal 1010.123
602 68 LeftLarger PercCAExp1 Prime_1N Target_4A FbClIgc hKjmMGH Congruent left error Normal 607.0919
602 69 LeftLarger PercCAExp1 Prime_9A Target_9N afmeCjl cHDldiC Congruent right correct Normal 1032.002
602 70 LeftLarger PercCAExp1 Prime_9N Target_6N dBAkaGI GjBDHFa Congruent right correct Normal 917.8987
602 71 LeftLarger PercCAExp1 Prime_9N Target_1A mIDBdcl ijHKacI Incongruent left correct Normal 1927.93
602 72 LeftLarger PercCAExp1 Prime_6A Target_9A HhIEKai LfgdHGK Congruent right correct Normal 366.0633
602 73 LeftLarger PercCAExp1 Prime_9N Target_4N LDbaHeK bDAMFkf Incongruent left correct Normal 1073.415
602 74 LeftLarger PercCAExp1 Prime_1A Target_4N BJEgILD DgIKGkF Congruent right correct Normal 2028.246
602 75 LeftLarger PercCAExp1 Prime_6A Target_1A JjMaFEk CkLMIBi Incongruent left correct Normal 699.8211
602 76 LeftLarger PercCAExp1 Prime_4A Target_4A JeDmbMg kMFEJcf Congruent left error Normal 868.8645
602 77 LeftLarger PercCAExp1 Prime_4A Target_9N jBDJIfg iedHlEh Incongruent right error Normal 1811.388
602 78 LeftLarger PercCAExp1 Prime_4N Target_6N DHjeaMB FjGgJIL Incongruent left correct Normal 1018.664
602 79 LeftLarger PercCAExp1 Prime_9N Target_1N ablJLId FGJCIKB Incongruent left correct Normal 1142.141
602 80 LeftLarger PercCAExp1 Prime_1N Target_4N kbcfJMK LFDCAMB Congruent left error Normal 975.4545
602 81 LeftSmaller PercCBPrac Prime_4A Target_6N KaGCdFj dckeELA Incongruent right correct Normal 1139.316
602 82 LeftSmaller PercCBPrac Prime_4N Target_4N kcMFfAe bclChkI Congruent right error Normal 618.8283
602 83 LeftSmaller PercCBPrac Prime_1N Target_1A CeLcjfM mBbCDeg Congruent right error Normal 1514.511
602 84 LeftSmaller PercCBPrac Prime_4A Target_1A kKjgbCA HmdbCBa Congruent left correct Normal 886.6324
602 85 LeftSmaller PercCBPrac Prime_9N Target_4A FbIfiLE ceKClMf Incongruent right correct Normal 756.6206
602 86 LeftSmaller PercCBPrac Prime_4A Target_4N EFGbdHi HikgaLC Congruent right error Normal 3143.893
602 87 LeftSmaller PercCBPrac Prime_6A Target_9A LEjlMcC emAFgkl Congruent left correct Normal 837.12
602 88 LeftSmaller PercCBPrac Prime_4A Target_6A JbldKGc CKhBkFf Incongruent right correct Normal 515.9405
602 89 LeftSmaller PercCBPrac Prime_1N Target_9A kfAidIc AkHDcaI Incongruent left error Normal 641.8317
602 90 LeftSmaller PercCBPrac Prime_4A Target_4A aFIJcHb BeDlHfh Congruent right error Normal 576.4867
602 91 LeftSmaller PercCBPrac Prime_4A Target_9A midGkeh lGMFIJD Incongruent right correct Normal 720.3069
602 92 LeftSmaller PercCBPrac Prime_4N Target_9A JHmKljL HgmEACh Incongruent left error Early 45.74313
602 93 LeftSmaller PercCBPrac Prime_9A Target_6A gChEMHB fmKhbGg Congruent right error Early 81.37927
602 94 LeftSmaller PercCBPrac Prime_1A Target_6A ldjfFbk mifHCMa Incongruent left error Early 3.051253
602 95 LeftSmaller PercCBPrac Prime_6N Target_4N cgdBGLe CcJaEAG Incongruent right correct Early 2.906113
602 96 LeftSmaller PercCBPrac Prime_1A Target_4A BeMkElC HMFahiA Congruent left correct Normal 2107.835
602 97 LeftSmaller PercCBExp1 Prime_6A Target_9N dHiEkga AJDgmcG Congruent left correct Early 7.328354
602 98 LeftSmaller PercCBExp1 Prime_9A Target_6A KdMfHkF BaGDcAf Congruent right error Normal 2310.732
602 99 LeftSmaller PercCBExp1 Prime_1N Target_9A feGCMik dGgaFkA Incongruent left error Early 2.915334
602 100 LeftSmaller PercCBExp1 Prime_9A Target_1A CEGFcLi MJLBFCI Incongruent right correct Normal 621.9934
602 101 LeftSmaller PercCBExp1 Prime_6N Target_9A Jkcbald FHflbAc Congruent left correct Normal 674.7733
602 102 LeftSmaller PercCBExp1 Prime_6N Target_4A McjkDFi jaLcfeG Incongruent right correct Normal 422.7752
602 103 LeftSmaller PercCBExp1 Prime_9A Target_4N GlgjLFe HhGBJkD Incongruent left error Early 2.917712
602 104 LeftSmaller PercCBExp1 Prime_1N Target_4A FbdGlkc lDJjbLE Congruent left correct Early 2.851175
602 105 LeftSmaller PercCBExp1 Prime_1N Target_9N HckGMEf IHGijLF Incongruent right correct Early 2.879693
602 106 LeftSmaller PercCBExp1 Prime_1A Target_4A kEDjJFC fGaJiIM Congruent right error Early 2.917095
602 107 LeftSmaller PercCBExp1 Prime_6A Target_1A KJMmbik MAbeDkH Incongruent left error Early 2.861251
602 108 LeftSmaller PercCBExp1 Prime_1N Target_6A dJFIkgE ELAIBGe Incongruent right correct Normal 1892.024
602 109 LeftSmaller PercCBExp1 Prime_1A Target_6A fDKibHG CfFhJlI Incongruent right correct Early 2.973505
602 110 LeftSmaller PercCBExp1 Prime_1N Target_1N bEcghHC bdIAglM Congruent left correct Early 2.978877
602 111 LeftSmaller PercCBExp1 Prime_4A Target_4A cLlmjJg FIKJfbl Congruent left correct Early 2.879454
602 112 LeftSmaller PercCBExp1 Prime_1A Target_9N LlfmEbH mBMckAG Incongruent right correct Early 2.925221
602 113 LeftSmaller PercCBExp1 Prime_4A Target_9A AEKlmhL bkhjeLI Incongruent left error Early 90.76578
602 114 LeftSmaller PercCBExp1 Prime_9A Target_9N fkLECmJ GkjAmMI Congruent right error Early 2.736165
602 115 LeftSmaller PercCBExp1 Prime_6N Target_1N ILEhFKd bfmCkiK Incongruent left error Early 3.039655
602 116 LeftSmaller PercCBExp1 Prime_9N Target_4N kBbMaEf HEJcbef Incongruent left error Early 7.31785
602 117 LeftSmaller PercCBExp1 Prime_9A Target_1N aIdGAEh CJBbFdM Incongruent right correct Early 2.73721
602 118 LeftSmaller PercCBExp1 Prime_6A Target_1N eEiADGa HmeAcKg Incongruent right correct Early 60.47323
602 119 LeftSmaller PercCBExp1 Prime_6N Target_1A LflBbmj kBFJEIj Incongruent left error Early 2.169194
602 120 LeftSmaller PercCBExp1 Prime_6N Target_4N gGhlcEB kIJHCBF Incongruent left error Early 2.246177
602 121 LeftSmaller PercCBExp1 Prime_4A Target_6A JFHAamE AhDGfJF Incongruent left error Normal 2304.752
602 122 LeftSmaller PercCBExp1 Prime_6A Target_6A CAbieMc AmkFibl Congruent left correct Early 68.06715
602 123 LeftSmaller PercCBExp1 Prime_4N Target_1N CjbDKGc McFLbCB Congruent right error Early 2.963808
602 124 LeftSmaller PercCBExp1 Prime_9N Target_6N flGHiIc lmcEHhD Congruent right error Early 3.007247
602 125 LeftSmaller PercCBExp1 Prime_6N Target_6A imdDBLE jikHfLK Congruent left correct Normal 1865.923
602 126 LeftSmaller PercCBExp1 Prime_9N Target_9A meHCagB LgdJMHC Congruent left correct Normal 1492.858
602 127 LeftSmaller PercCBExp1 Prime_9A Target_4A bHgfkFD malKhAC Incongruent left error Early 79.52772
602 128 LeftSmaller PercCBExp1 Prime_4A Target_1N DIgEblh HAKDGFB Congruent right error Early 2.943186
602 129 LeftSmaller PercCBExp1 Prime_9N Target_1N clGbeIB LlIAkad Incongruent right correct Normal 1630.126
602 130 LeftSmaller PercCBExp1 Prime_4N Target_9N MdiHaGJ iIBDGKe Incongruent left error Early 2.905785
602 131 LeftSmaller PercCBExp1 Prime_9N Target_1A LHkafbJ FMDCcfg Incongruent right correct Early 2.958445
602 132 LeftSmaller PercCBExp1 Prime_1A Target_4N kcfJACm hGHjeAD Congruent left correct Early 3.13485
602 133 LeftSmaller PercCBExp1 Prime_1N Target_4N KhAkBal ElMJLdF Congruent right error Normal 2755.132
602 134 LeftSmaller PercCBExp1 Prime_1N Target_6N fJaeliA MGACKec Incongruent right correct Normal 481.3309
602 135 LeftSmaller PercCBExp1 Prime_4N Target_6A KcigCBh fbMjagd Incongruent right correct Normal 144.6695
602 136 LeftSmaller PercCBExp1 Prime_4A Target_1A KhJIADa JekgFjd Congruent right error Early 2.915145
602 137 LeftSmaller PercCBExp1 Prime_4A Target_6N mIEFalB MCmJjlK Incongruent left error Early 16.93468
602 138 LeftSmaller PercCBExp1 Prime_4N Target_4N kDIAfiM dHeiEcF Congruent right error Early 2.972083
602 139 LeftSmaller PercCBExp1 Prime_6N Target_9N BfFachI CKFLBmH Congruent left correct Early 3.045841
602 140 LeftSmaller PercCBExp1 Prime_9N Target_6A dAeHjMC AFeIJBE Congruent right error Normal 1745.457
602 141 LeftSmaller PercCBExp1 Prime_1A Target_1A IAKGFmb GgafiIB Congruent right error Normal 2371.569
602 142 LeftSmaller PercCBExp1 Prime_4N Target_9A aeGDjAf JaefGMl Incongruent right correct Early 3.087898
602 143 LeftSmaller PercCBExp1 Prime_9A Target_9A JBALiha BIbaeDG Congruent right error Early 2.886397
602 144 LeftSmaller PercCBExp1 Prime_4N Target_6N EkMmlGF CmlegEM Incongruent right correct Early 45.71242
602 145 LeftSmaller PercCBExp1 Prime_4N Target_1A kIKdehf EMJghHC Congruent left correct Normal 2360.82
602 146 LeftSmaller PercCBExp1 Prime_1A Target_9A mBhFfaJ dDJCImg Incongruent left error Early 2.896276
602 147 LeftSmaller PercCBExp1 Prime_9N Target_4A DfkACdi mFCfGdI Incongruent right correct Normal 257.2059
602 148 LeftSmaller PercCBExp1 Prime_1A Target_6N HGFdKMB lgIBdaf Incongruent right correct Early 66.67024
602 149 LeftSmaller PercCBExp1 Prime_1A Target_1N DjfkFhd EcCGgLm Congruent right error Early 3.047642
602 150 LeftSmaller PercCBExp1 Prime_6A Target_6N JmaIcif KckaAgB Congruent left correct Early 2.892665
602 151 LeftSmaller PercCBExp1 Prime_6A Target_4N hbGLAIl DlbidGf Incongruent right correct Normal 2361.318
602 152 LeftSmaller PercCBExp1 Prime_6A Target_4A HaeLDlm caDgdAF Incongruent right correct Early 2.882646
602 153 LeftSmaller PercCBExp1 Prime_4A Target_4N CFcBgId FgKbCdc Congruent right error Early 2.927459
602 154 LeftSmaller PercCBExp1 Prime_4N Target_4A ceAGaBj GABJeFK Congruent right error Normal 2175.708
602 155 LeftSmaller PercCBExp1 Prime_1N Target_1A GhjBCag cLidHjh Congruent right error Early 2.884538
602 156 LeftSmaller PercCBExp1 Prime_4A Target_9N DJBKHAF kCFeaMg Incongruent right correct Early 2.910917
602 157 LeftSmaller PercCBExp1 Prime_9N Target_9N MgLAKJf Lbjlgdm Congruent left correct Early 45.20385
602 158 LeftSmaller PercCBExp1 Prime_6N Target_6N jCIHgAe HhBgbJF Congruent right error Early 45.93342
602 159 LeftSmaller PercCBExp1 Prime_6A Target_9A DhHBkKe MFcdChb Congruent right error Early 3.050546
602 160 LeftSmaller PercCBExp1 Prime_9A Target_6N ECfaKkj gHIMcJl Congruent left correct Early 2.954735
603 1 LeftSmaller PercCAPrac Prime_1N Target_6A GilCjke GHdBlEk Incongruent left error Normal 947.1085
603 2 LeftSmaller PercCAPrac Prime_9A Target_6A LMlBGJF GJEbilj Congruent left correct Normal 1044.769
603 3 LeftSmaller PercCAPrac Prime_1A Target_4A cJajKgG fDmEgac Congruent right error Normal 1722.554
603 4 LeftSmaller PercCAPrac Prime_1N Target_4N JfGILhH IBlCagi Congruent left correct Normal 735.7345
603 5 LeftSmaller PercCAPrac Prime_9N Target_6A HfAlCFM dAKBeic Congruent right error Normal 672.771
603 6 LeftSmaller PercCAPrac Prime_1A Target_6N hAFGJmi HeMfJiA Incongruent right correct Normal 757.5017
603 7 LeftSmaller PercCAPrac Prime_6A Target_4A mGaHegC DAKfFeI Incongruent right correct Normal 1814.33
603 8 LeftSmaller PercCAPrac Prime_4N Target_4N gbFiCBj AmGbHBk Congruent left correct Normal 1773.514
603 9 LeftSmaller PercCAPrac Prime_4N Target_6A IabdEcM LjGbDmJ Incongruent right correct Normal 1444.255
603 10 LeftSmaller PercCAPrac Prime_1N Target_1N bLaAhKI fIjmecM Congruent right error Normal 1457.338
603 11 LeftSmaller PercCAPrac Prime_4N Target_4A CdKmEcf FMClLhJ Congruent left correct Normal 1194.347
603 12 LeftSmaller PercCAPrac Prime_9A Target_9A fKeMGgE FeEGLBh Congruent right error Normal 1699.534
603 13 LeftSmaller PercCAPrac Prime_6N Target_1N JgLcMAj fGBgHkI Incongruent left error Normal 1083.76
603 14 LeftSmaller PercCAPrac Prime_4N Target_9N KGFBhDM aEAikej Incongruent right correct Normal 2257.316
603 15 LeftSmaller PercCAPrac Prime_1N Target_9N jgkBlEK jCLKaFf Incongruent right correct Normal 1347.062
603 16 LeftSmaller PercCAPrac Prime_4A Target_6N Ekibalf dCGebfK Incongruent right correct Normal 1455.046
603 17 LeftSmaller PercCAExp1 Prime_4A Target_9A EDKaHij JidEALa Incongruent right correct Normal 1877.307
603 18 LeftSmaller PercCAExp1 Prime_6N Target_6N DGEIkli AekKJdC Congruent left correct Normal 1066.198
603 19 LeftSmaller PercCAExp1 Prime_1N Target_4N iGeIafg cgahCfL Congruent left correct Normal 932.2689
603 20 LeftSmaller PercCAExp1 Prime_4A Target_1N aBkmdcf ibCJGcf Congruent right error Normal 864.3531
603 21 LeftSmaller PercCAExp1 Prime_6A Target_6N dGIKLkE mlLEeBJ Congruent right error Normal 1457.184
603 22 LeftSmaller PercCAExp1 Prime_6A Target_4N cHBhmgI djfMkig Incongruent left error Normal 930.3599
603 23 LeftSmaller PercCAExp1 Prime_1A Target_6N ehdMbcf dlGjkFe Incongruent right correct Normal 1012.082
603 24 LeftSmaller PercCAExp1 Prime_9A Target_9A CBeEMfL JLlMjhk Congruent left correct Normal 922.8318
603 25 LeftSmaller PercCAExp1 Prime_6N Target_4N CFhamJM lBKkdbm Incongruent right correct Normal 1042.958
603 26 LeftSmaller PercCAExp1 Prime_9N Target_9N cEbMiIf LkldHhc Congruent right error Normal 2609.827
603 27 LeftSmaller PercCAExp1 Prime_1A Target_1A hADdLBj EmlBfie Congruent right error Normal 980.645
603 28 LeftSmaller PercCAExp1 Prime_4N Target_1N glBfdIK FMgejkf Congruent left correct Normal 648.4913
603 29 LeftSmaller PercCAExp1 Prime_1A Target_1N jBFMKEC JaiAedM Congruent right error Normal 1362.638
603 30 LeftSmaller PercCAExp1 Prime_4N Target_6N BbmlecI DJaKMHg Incongruent right correct Normal 1115.323
603 31 LeftSmaller PercCAExp1 Prime_9A Target_4N LIedJhf fGgHmIb Incongruent right correct Normal 1105.749
603 32 LeftSmaller PercCAExp1 Prime_6A Target_9N dhlCJac bJMFAmc Congruent left correct Normal 1077.304
603 33 LeftSmaller PercCAExp1 Prime_9N Target_4A eKdbCcB hcEabiJ Incongruent right correct Normal 1648.825
603 34 LeftSmaller PercCAExp1 Prime_9N Target_1N KifGBFd DgdIaBm Incongruent left error Normal 1102.54
603 35 LeftSmaller PercCAExp1 Prime_4A Target_4A FmBLHkC fFaMBAG Congruent left correct Normal 1035.945
603 36 LeftSmaller PercCAExp1 Prime_6N Target_4A ImaGcAF GadDCgJ Incongruent right correct Normal 953.7739
603 37 LeftSmaller PercCAExp1 Prime_1N Target_1N mBDeicL ihmfAKa Congruent left correct Normal 1424.813
603 38 LeftSmaller PercCAExp1 Prime_6A Target_1N jdmHFJE DGBLeKa Incongruent left error Normal 1132.08
603 39 LeftSmaller PercCAExp1 Prime_4N Target_1A gBaILMC kHdBcEC Congruent right error Normal 796.5366
603 40 LeftSmaller PercCAExp1 Prime_4A Target_6N EiaJGjM LEHCiGm Incongruent right correct Normal 1526.201
603 41 LeftSmaller PercCAExp1 Prime_4N Target_6A fEHiAJc iDJhbmc Incongruent right correct Normal 1225.14
603 42 LeftSmaller PercCAExp1 Prime_9N Target_1A FCIkmMj ikMfbHK Incongruent right correct Normal 1320.02
603 43 LeftSmaller PercCAExp1 Prime_4N Target_4A mcEDjMa CGIekHc Congruent right error Normal 1239.587
603 44 LeftSmaller PercCAExp1 Prime_1N Target_1A EimALMK dGALhCH Congruent right error Normal 1649.521
603 45 LeftSmaller PercCAExp1 Prime_9A Target_1A BagmjJG FhIGDKl Incongruent right correct Normal 1275.976
603 46 LeftSmaller PercCAExp1 Prime_1A Target_6A jAFiGDb kJFIHgc Incongruent right correct Normal 1901.778
603 47 LeftSmaller PercCAExp1 Prime_4N Target_9N BKjbHkJ CmjaBfG Incongruent left error Normal 1305.481
603 48 LeftSmaller PercCAExp1 Prime_6N Target_1N DMbjlcE BFCkJLh Incongruent right correct Normal 934.6892
603 49 LeftSmaller PercCAExp1 Prime_6A Target_6A lfgJGkb eCmHaJc Congruent left correct Normal 1338.328
603 50 LeftSmaller PercCAExp1 Prime_9A Target_1N bdmlcgD cMBGgJj Incongruent right correct Normal 1939.377
603 51 LeftSmaller PercCAExp1 Prime_4A Target_6A MiCgaJk DAFaeMi Incongruent left error Normal 2232.042
603 52 LeftSmaller PercCAExp1 Prime_4N Target_4N gALKGFe DBegFHf Congruent left correct Normal 1967.757
603 53 LeftSmaller PercCAExp1 Prime_9A Target_6N kKMDaIA CBIlLmc Congruent left correct Normal 1802.597
603 54 LeftSmaller PercCAExp1 Prime_6A Target_9A DLgmajh KHgMiBE Congruent left correct Normal 2749.226
603 55 LeftSmaller PercCAExp1 Prime_1N Target_4A JhEbikK BMLlHFk Congruent left correct Normal 818.9843
603 56 LeftSmaller PercCAExp1 Prime_4N Target_9A fBDHJlA JGDEmMa Incongruent right correct Normal 1071.799
603 57 LeftSmaller PercCAExp1 Prime_9A Target_4A KBaIhHd AlcgBdE Incongruent right correct Normal 983.9477
603 58 LeftSmaller PercCAExp1 Prime_1A Target_4A lIaLECf bjfhadH Congruent right error Normal 1062.401
603 59 LeftSmaller PercCAExp1 Prime_1A Target_9N lDfJCck BHhfIJj Incongruent left error Normal 1080.7
603 60 LeftSmaller PercCAExp1 Prime_6A Target_1A EbclkKe GefaihF Incongruent left error Normal 1195.845
603 61 LeftSmaller PercCAExp1 Prime_9N Target_9A GAHEhLf FEcagLf Congruent right error Normal 865.7762
603 62 LeftSmaller PercCAExp1 Prime_9N Target_6N GeAKkCj eclBCKG Congruent left correct Normal 2012.758
603 63 LeftSmaller PercCAExp1 Prime_1N Target_6N BcEiHMF ieEbFcC Incongruent left error Normal 1886.279
603 64 LeftSmaller PercCAExp1 Prime_1N Target_9A DhFAaKJ kgAHjMe Incongruent left error Normal 1919.278
603 65 LeftSmaller PercCAExp1 Prime_6N Target_9N IMcEgAJ eMjmKLJ Congruent right error Normal 981.7836
603 66 LeftSmaller PercCAExp1 Prime_6A Target_4A GFLEkaH HiCIedJ Incongruent right correct Normal 901.3443
603 67 LeftSmaller PercCAExp1 Prime_1N Target_6A JblAdBK hCFBaGK Incongruent left error Normal 892.3806
603 68 LeftSmaller PercCAExp1 Prime_9A Target_9N EdLgblh FLdKGli Congruent left correct Normal 1334.439
603 69 LeftSmaller PercCAExp1 Prime_6N Target_9A GjDmEKe jbGlHcJ Congruent left correct Normal 1041.335
603 70 LeftSmaller PercCAExp1 Prime_6N Target_1A JGbIHhm djKAmFl Incongruent right correct Normal 997.4264
603 71 LeftSmaller PercCAExp1 Prime_6N Target_6A gMBemDA BKgCejf Congruent left correct Normal 1682.488
603 72 LeftSmaller PercCAExp1 Prime_4A Target_9N BijekMJ bFBMIJe Incongruent right correct Normal 1328.981
603 73 LeftSmaller PercCAExp1 Prime_4A Target_1A DBlaHic bcJMHIK Congruent right error Normal 886.405
603 74 LeftSmaller PercCAExp1 Prime_9N Target_6A mgCkAHe JDMKgLk Congruent left correct Normal 1008.882
603 75 LeftSmaller PercCAExp1 Prime_1A Target_4N leLEGga BLEKbAD Congruent right error Normal 1175.297
603 76 LeftSmaller PercCAExp1 Prime_1A Target_9A bLmIgHF ikIHJLc Incongruent right correct Normal 2324.57
603 77 LeftSmaller PercCAExp1 Prime_9N Target_4N cJDaFmb ecbiFLk Incongruent right correct Normal 875.8766
603 78 LeftSmaller PercCAExp1 Prime_1N Target_9N DJHLkMa jDdCJca Incongruent left error Normal 1294.369
603 79 LeftSmaller PercCAExp1 Prime_9A Target_6A jEIKmMA hDMciFd Congruent left correct Normal 808.3743
603 80 LeftSmaller PercCAExp1 Prime_4A Target_4N mKeCdjf cmHKaGF Congruent left correct Normal 1310.178
603 81 LeftLarger PercCBPrac Prime_1N Target_9N DCJBjgf cIHLihl Incongruent left correct Normal 1021.368
603 82 LeftLarger PercCBPrac Prime_6A Target_6N ijkDbHI fjbHmek Congruent left error Normal 959.6843
603 83 LeftLarger PercCBPrac Prime_1A Target_1N badIfmC mkMDBCi Congruent left error Normal 1260.19
603 84 LeftLarger PercCBPrac Prime_4A Target_1A lfGhIcA KfbBdLm Congruent right correct Normal 959.3637
603 85 LeftLarger PercCBPrac Prime_6A Target_9A IacdkeF mfJLECM Congruent right correct Normal 915.2937
603 86 LeftLarger PercCBPrac Prime_9A Target_6A lfiKMag mfJIdkD Congruent right correct Normal 1250.505
603 87 LeftLarger PercCBPrac Prime_4A Target_6A BFKChJi iKjbmdI Incongruent right error Normal 895.916
603 88 LeftLarger PercCBPrac Prime_1A Target_1A dDkCLbK bIfdkEB Congruent left error Normal 1803.667
603 89 LeftLarger PercCBPrac Prime_6A Target_9N HmcKejB DjkmbBF Congruent right correct Normal 1298.384
603 90 LeftLarger PercCBPrac Prime_1N Target_1A FHAIEhc GHdDaFe Congruent left error Normal 1553.455
603 91 LeftLarger PercCBPrac Prime_9A Target_9N mhCAjBc eElJgdj Congruent right correct Normal 1079.744
603 92 LeftLarger PercCBPrac Prime_1A Target_6N CdEJIfg fIbmDlj Incongruent left correct Normal 1800.153
603 93 LeftLarger PercCBPrac Prime_9A Target_9A LMIFdeA bhiMcdA Congruent right correct Normal 990.9353
603 94 LeftLarger PercCBPrac Prime_9A Target_4A MLJFhIc jHidGDk Incongruent right error Normal 1281.01
603 95 LeftLarger PercCBPrac Prime_6N Target_1N kmbKdcI hHmakIf Incongruent left correct Normal 1735.587
603 96 LeftLarger PercCBPrac Prime_4N Target_1A lIHajCB cfKhmbG Congruent left error Normal 1184.772
603 97 LeftLarger PercCBExp1 Prime_6N Target_6A dHlLMEe bLdHiMG Congruent right correct Normal 550.2963
603 98 LeftLarger PercCBExp1 Prime_1N Target_1N FjGBHKd cIGdKHm Congruent right correct Normal 905.9149
603 99 LeftLarger PercCBExp1 Prime_1A Target_6N clHjKCk jacMkAg Incongruent right error Normal 807.3807
603 100 LeftLarger PercCBExp1 Prime_4N Target_9A HAlaEdF LJEBfmg Incongruent right error Normal 1795.392
603 101 LeftLarger PercCBExp1 Prime_9A Target_9A EmIHDFJ MLBaKhg Congruent left error Normal 794.4469
603 102 LeftLarger PercCBExp1 Prime_4N Target_4N kghalmK JKImCfd Congruent left error Normal 1224.164
603 103 LeftLarger PercCBExp1 Prime_4A Target_6N ljiHbMF AkgCjlM Incongruent right error Normal 1732.608
603 104 LeftLarger PercCBExp1 Prime_6A Target_6A GlbkcaL KjeagHD Congruent left error Normal 1585.509
603 105 LeftLarger PercCBExp1 Prime_9A Target_6N BhMkieE cJbCDIH Congruent right correct Normal 976.2193
603 106 LeftLarger PercCBExp1 Prime_6N Target_9N IdGBmHA iacbeGJ Congruent right correct Normal 1488.521
603 107 LeftLarger PercCBExp1 Prime_9A Target_1N HEdghCA klFCAcB Incongruent left correct Normal 1156.434
603 108 LeftLarger PercCBExp1 Prime_4N Target_4A JkKcmBI ECBbiGd Congruent left error Normal 1606.118
603 109 LeftLarger PercCBExp1 Prime_4N Target_1A iHhDgje fIgGkEm Congruent right correct Normal 1188.268
603 110 LeftLarger PercCBExp1 Prime_6A Target_6N akIijhm EJBehDC Congruent right correct Normal 2013.957
603 111 LeftLarger PercCBExp1 Prime_6N Target_4A dkCDaKc LFDKgAG Incongruent left correct Normal 905.4061
603 112 LeftLarger PercCBExp1 Prime_9A Target_1A ckdijHC ceFBhfg Incongruent left correct Normal 2014.339
603 113 LeftLarger PercCBExp1 Prime_9A Target_4A BfCbFmE lEBFhjA Incongruent left correct Normal 1415.013
603 114 LeftLarger PercCBExp1 Prime_6A Target_1N LmiDeGK BcebEgf Incongruent right error Normal 1757.736
603 115 LeftLarger PercCBExp1 Prime_4A Target_6A LcFagMd aiJdhjC Incongruent right error Normal 1124.252
603 116 LeftLarger PercCBExp1 Prime_6A Target_9N MIdHFEa leGLDKj Congruent right correct Normal 1076.458
603 117 LeftLarger PercCBExp1 Prime_6A Target_4A IDgHbMl GhjIbeA Incongruent left correct Normal 1102.732
603 118 LeftLarger PercCBExp1 Prime_4A Target_9A fFBhLKc gDlCKBd Incongruent right error Normal 1418.415
603 119 LeftLarger PercCBExp1 Prime_4N Target_6N GmfbgIJ HjkCEKI Incongruent left correct Normal 1180.237
603 120 LeftLarger PercCBExp1 Prime_1N Target_4A IEDHjlk aACcdLE Congruent right correct Normal 1802.975
603 121 LeftLarger PercCBExp1 Prime_9N Target_9A ekIhMja HIklhLg Congruent right correct Normal 949.3511
603 122 LeftLarger PercCBExp1 Prime_6N Target_1A LCfbecB ILDkCbj Incongruent left correct Normal 793.3209
603 123 LeftLarger PercCBExp1 Prime_9N Target_4A lbCemJc mbdBkha Incongruent right error Normal 1141.567
603 124 LeftLarger PercCBExp1 Prime_1A Target_9A KJcGMBb EgJAbae Incongruent right error Normal 724.9201
603 125 LeftLarger PercCBExp1 Prime_1N Target_9A DIAliBm IJAiDEa Incongruent left correct Normal 1554.535
603 126 LeftLarger PercCBExp1 Prime_4N Target_6A hBDiHLa KBHbeGm Incongruent right error Normal 1063.436
603 127 LeftLarger PercCBExp1 Prime_6N Target_6N BjLkdmC JAgIbDk Congruent right correct Normal 955.9091
603 128 LeftLarger PercCBExp1 Prime_1A Target_1N cdGCIbf djJEDKg Congruent left error Normal 1375.068
603 129 LeftLarger PercCBExp1 Prime_9N Target_4N kGhdeDL lMbkLCK Incongruent left correct Normal 1227.259
603 130 LeftLarger PercCBExp1 Prime_4A Target_9N CFmfHKh fFMmJLb Incongruent right error Normal 997.1939
603 131 LeftLarger PercCBExp1 Prime_9N Target_6A LElDfKc AeKjCig Congruent right correct Normal 891.3303
603 132 LeftLarger PercCBExp1 Prime_4A Target_1N AHgFeEk cCadKAD Congruent left error Normal 996.2272
603 133 LeftLarger PercCBExp1 Prime_6A Target_1A LAkbEHg gHMFBAm Incongruent right error Normal 1693.332
603 134 LeftLarger PercCBExp1 Prime_4N Target_1N MGkEmJh hkBDjLF Congruent right correct Normal 949.3584
603 135 LeftLarger PercCBExp1 Prime_6N Target_1N dDkhigf MBAiCgd Incongruent left correct Normal 1198.69
603 136 LeftLarger PercCBExp1 Prime_6N Target_4N bLDFMAJ cBkhMAd Incongruent left correct Normal 1049.272
603 137 LeftLarger PercCBExp1 Prime_1N Target_6A jkBIKcd jEKLFIm Incongruent right error Normal 940.5771
603 138 LeftLarger PercCBExp1 Prime_1N Target_6N IkfFiAc MCBLeFk Incongruent right error Normal 1383.336
603 139 LeftLarger PercCBExp1 Prime_4N Target_9N cLaFgbI CJgkBcd Incongruent right error Normal 1171.872
603 140 LeftLarger PercCBExp1 Prime_4A Target_4N CAamGij JeFEjcG Congruent left error Normal 1280.701
603 141 LeftLarger PercCBExp1 Prime_9N Target_1A HGFmBDI fJLEHgG Incongruent right error Normal 1171.053
603 142 LeftLarger PercCBExp1 Prime_9A Target_4N EDkhAFH aFEDjgd Incongruent left correct Normal 1337.541
603 143 LeftLarger PercCBExp1 Prime_4A Target_4A kKilMHm GEHaLCm Congruent right correct Normal 1132.503
603 144 LeftLarger PercCBExp1 Prime_1N Target_4N HFmLEhG cfKgdMD Congruent right correct Normal 927.24
603 145 LeftLarger PercCBExp1 Prime_9N Target_9N kImgJhj kEDdgHB Congruent left error Normal 1331.813
603 146 LeftLarger PercCBExp1 Prime_1A Target_9N CIADmKj fijFmcb Incongruent right error Normal 1081.265
603 147 LeftLarger PercCBExp1 Prime_6A Target_4N DLgaBEc lmfDjie Incongruent left correct Normal 2331.661
603 148 LeftLarger PercCBExp1 Prime_1A Target_4N JlLDKkm kjdmbeH Congruent left error Normal 1612.894
603 149 LeftLarger PercCBExp1 Prime_1A Target_6A ifehIbE IckghHE Incongruent left correct Normal 1407.078
603 150 LeftLarger PercCBExp1 Prime_4A Target_1A eDdiaEb mlHGaDe Congruent left error Normal 1744.238
603 151 LeftLarger PercCBExp1 Prime_1N Target_1A hdFgMHD egcfDAI Congruent left error Normal 1204.186
603 152 LeftLarger PercCBExp1 Prime_1N Target_9N IheAFfB CMmjFhg Incongruent right error Normal 861.2296
603 153 LeftLarger PercCBExp1 Prime_9A Target_9N ajfkgde DbLfFBc Congruent right correct Normal 1258.033
603 154 LeftLarger PercCBExp1 Prime_1A Target_4A JkjdGmf laAMBKj Congruent right correct Normal 936.4914
603 155 LeftLarger PercCBExp1 Prime_1A Target_1A KmcedfC CaBdkEe Congruent left error Normal 1690.727
603 156 LeftLarger PercCBExp1 Prime_9A Target_6A EiclmHL CgdLHec Congruent left error Normal 2589.57
603 157 LeftLarger PercCBExp1 Prime_6A Target_9A HDCEbMk hbCdafe Congruent right correct Normal 921.3018
603 158 LeftLarger PercCBExp1 Prime_6N Target_9A mFLEfHb jcLieIm Congruent right correct Normal 603.0926
603 159 LeftLarger PercCBExp1 Prime_9N Target_1N MkGfgbE AliMEHD Incongruent left correct Normal 952.2497
603 160 LeftLarger PercCBExp1 Prime_9N Target_6N jKHCbLm bdBaHLj Congruent right correct Normal 992.438
604 1 LeftLarger PercCAPrac Prime_4N Target_6N DiMFElA KAlaFmi Incongruent left correct Normal 1979.546
604 2 LeftLarger PercCAPrac Prime_9A Target_9A dLbflGM LiKHbCg Congruent right correct Normal 1020.691
604 3 LeftLarger PercCAPrac Prime_1A Target_9A ECiebFI GdMmbij Incongruent left correct Normal 2146.303
604 4 LeftLarger PercCAPrac Prime_4A Target_6A hLMfEBi bgBKHMj Incongruent right error Normal 992.7515
604 5 LeftLarger PercCAPrac Prime_9A Target_6A kiBHdGc bEjBMGC Congruent right correct Normal 1203.778
604 6 LeftLarger PercCAPrac Prime_4N Target_6A AfblHLi bBkLKdI Incongruent right error Normal 880.2183
604 7 LeftLarger PercCAPrac Prime_6N Target_9A fiGdAje dBkCMEI Congruent right correct Normal 1154.867
604 8 LeftLarger PercCAPrac Prime_4A Target_4A JEejAfk hDIaFfK Congruent left error Normal 1304.304
604 9 LeftLarger PercCAPrac Prime_4N Target_4A flLDgMI hCalefi Congruent right correct Normal 939.7218
604 10 LeftLarger PercCAPrac Prime_4A Target_4N FhEdlaC CJlabec Congruent left error Normal 1423.042
604 11 LeftLarger PercCAPrac Prime_9A Target_6N EDAkCcj CMcjiHA Congruent left error Normal 1095.557
604 12 LeftLarger PercCAPrac Prime_6A Target_6A AiMHJec glMJjec Congruent left error Normal 1010.288
604 13 LeftLarger PercCAPrac Prime_6N Target_9N ldJmHcf DMGIjFe Congruent right correct Normal 577.3466
604 14 LeftLarger PercCAPrac Prime_6A Target_9N MfhJlmj GiAjmhf Congruent right correct Normal 1301.987
604 15 LeftLarger PercCAPrac Prime_9N Target_9N fAFlEcb CeLhgIf Congruent right correct Normal 1638.043
604 16 LeftLarger PercCAPrac Prime_9A Target_4A fgaAhlJ DgcfkJF Incongruent left correct Normal 1112.649
604 17 LeftLarger PercCAExp1 Prime_6A Target_4A edlikJf fciegMH Incongruent left correct Normal 1536.467
604 18 LeftLarger PercCAExp1 Prime_4A Target_1N BALgjki AgbIjeE Congruent left error Normal 997.054
604 19 LeftLarger PercCAExp1 Prime_6A Target_6N GdmbDfF JFclbdH Congruent left error Normal 1065.099
604 20 LeftLarger PercCAExp1 Prime_6N Target_9N aIGJkFM aBlhFML Congruent right correct Normal 608.8695
604 21 LeftLarger PercCAExp1 Prime_1A Target_6N CAmEKHd JHiIfkd Incongruent left correct Normal 904.4385
604 22 LeftLarger PercCAExp1 Prime_6N Target_9A ImejlkA BkmCbHd Congruent right correct Normal 615.6122
604 23 LeftLarger PercCAExp1 Prime_6N Target_1N dcKGlfC DHiMkIJ Incongruent right error Normal 986.1439
604 24 LeftLarger PercCAExp1 Prime_4A Target_4N beimkCF aMgALCc Congruent left error Normal 1113.011
604 25 LeftLarger PercCAExp1 Prime_4A Target_4A Jkfjgbh kcmIJEe Congruent left error Normal 1554.992
604 26 LeftLarger PercCAExp1 Prime_6N Target_4A lmkhfGF DeGMKkA Incongruent left correct Normal 1836.126
604 27 LeftLarger PercCAExp1 Prime_4A Target_6N LDfehkA DJbaGId Incongruent left correct Normal 1269.739
604 28 LeftLarger PercCAExp1 Prime_1N Target_1N EMCIKcj DaJcgMl Congruent right correct Normal 1000.661
604 29 LeftLarger PercCAExp1 Prime_4A Target_9N DKiHdef MIjAEFH Incongruent left correct Normal 1145.226
604 30 LeftLarger PercCAExp1 Prime_1N Target_1A FgcILJj MhlHgAF Congruent right correct Normal 1296.281
604 31 LeftLarger PercCAExp1 Prime_1A Target_9N cIfEGKj CMAJfaI Incongruent right error Normal 824.2651
604 32 LeftLarger PercCAExp1 Prime_9N Target_9A jEMKmeb MjDlBch Congruent right correct Normal 2052.482
604 33 LeftLarger PercCAExp1 Prime_6N Target_6N afLEDkC gLlGAdj Congruent left error Normal 1226.341
604 34 LeftLarger PercCAExp1 Prime_1N Target_9N JCmjMkG HbLlAch Incongruent left correct Normal 1989.572
604 35 LeftLarger PercCAExp1 Prime_6A Target_9A GbCialh efFKGgd Congruent right correct Normal 1411.948
604 36 LeftLarger PercCAExp1 Prime_9N Target_4A GEHACdB biLdAml Incongruent left correct Normal 1879.713
604 37 LeftLarger PercCAExp1 Prime_4N Target_6A hEJigID dLlkKAE Incongruent right error Normal 1471.69
604 38 LeftLarger PercCAExp1 Prime_9A Target_1A iagkDfG EHjhkBe Incongruent left correct Normal 759.9312
604 39 LeftLarger PercCAExp1 Prime_4N Target_1N DkdfeJE dGaflAJ Congruent right correct Normal 1849.241
604 40 LeftLarger PercCAExp1 Prime_4N Target_9N HkGDFbc BcjgKef Incongruent left correct Normal 2201.367
604 41 LeftLarger PercCAExp1 Prime_6A Target_1A iJMFjDG glACDIH Incongruent left correct Normal 1731.439
604 42 LeftLarger PercCAExp1 Prime_6A Target_1N LIcJeKl jdGHFDa Incongruent right error Normal 1335.644
604 43 LeftLarger PercCAExp1 Prime_9A Target_6A dFkiAbm gfBkjDh Congruent left error Normal 1137.934
604 44 LeftLarger PercCAExp1 Prime_9N Target_1A jDmchMa iBCebEH Incongruent left correct Normal 1071.233
604 45 LeftLarger PercCAExp1 Prime_1A Target_4A gfhJBAK ckElmbK Congruent right correct Normal 1355.039
604 46 LeftLarger PercCAExp1 Prime_6A Target_4N HAeFcLB hFbdeDg Incongruent left correct Normal 1253.727
604 47 LeftLarger PercCAExp1 Prime_4A Target_1A aBLEfeA cIegmEM Congruent right correct Normal 984.4058
604 48 LeftLarger PercCAExp1 Prime_1A Target_9A JlidCEg MifGEFk Incongruent right error Normal 1310.532
604 49 LeftLarger PercCAExp1 Prime_9N Target_4N AFmMcEi HCflJGh Incongruent left correct Normal 924.5763
604 50 LeftLarger PercCAExp1 Prime_1N Target_6A CHedhjD mfDABGd Incongruent left correct Normal 1845.292
604 51 LeftLarger PercCAExp1 Prime_4A Target_9A lKAhcJa JLAikeK Incongruent right error Normal 1172.738
604 52 LeftLarger PercCAExp1 Prime_9N Target_9N AljfLHI dkgFaKf Congruent left error Normal 1242.916
604 53 LeftLarger PercCAExp1 Prime_9N Target_1N gdcmDGI FhACmfd Incongruent left correct Normal 1173.23
604 54 LeftLarger PercCAExp1 Prime_4N Target_9A DIEKbeF HFGJBma Incongruent right error Normal 1325.386
604 55 LeftLarger PercCAExp1 Prime_1N Target_4A hekCGgF MCIlEjb Congruent left error Normal 1109.498
604 56 LeftLarger PercCAExp1 Prime_1N Target_6N DlKeajg hkjmeEa Incongruent right error Normal 1288.019
604 57 LeftLarger PercCAExp1 Prime_4N Target_1A ACmJMbK BCJlhki Congruent right correct Normal 1316.328
604 58 LeftLarger PercCAExp1 Prime_6N Target_4N IMJGLEK cikmlag Incongruent left correct Normal 843.2613
604 59 LeftLarger PercCAExp1 Prime_6N Target_6A KiIhAcH ehGKLMd Congruent right correct Normal 3039.62
604 60 LeftLarger PercCAExp1 Prime_1N Target_9A cDdaGIe HBeEFAJ Incongruent right error Normal 1072.875
604 61 LeftLarger PercCAExp1 Prime_6N Target_1A AglMkFE iAGEhJf Incongruent left correct Normal 918.4315
604 62 LeftLarger PercCAExp1 Prime_9A Target_6N kDeKGdC aJejbCl Congruent left error Normal 1928.339
604 63 LeftLarger PercCAExp1 Prime_9A Target_4N cimjfgK BEJaGCA Incongruent left correct Normal 1704.981
604 64 LeftLarger PercCAExp1 Prime_9A Target_1N gcJjDLh FbkfHAL Incongruent right error Normal 1387.849
604 65 LeftLarger PercCAExp1 Prime_1A Target_4N kmJBlgd IMialHF Congruent left error Normal 1062.902
604 66 LeftLarger PercCAExp1 Prime_6A Target_6A kihLIFE gAjlGKe Congruent right correct Normal 1270.327
604 67 LeftLarger PercCAExp1 Prime_9A Target_9N gdLAHha EFCdmaM Congruent right correct Normal 735.2907
604 68 LeftLarger PercCAExp1 Prime_9N Target_6A EgmajBc mLAbhld Congruent right correct Normal 664.3261
604 69 LeftLarger PercCAExp1 Prime_4A Target_6A AabMIkl ekAclCE Incongruent left correct Normal 736.4999
604 70 LeftLarger PercCAExp1 Prime_9A Target_9A kfEGeJF aCHbmEc Congruent right correct Normal 879.5046
604 71 LeftLarger PercCAExp1 Prime_9N Target_6N iKALgDI LIcfjEk Congruent right correct Normal 904.0715
604 72 LeftLarger PercCAExp1 Prime_4N Target_4N jGgCLHc faLBKAG Congruent left error Normal 982.1356
604 73 LeftLarger PercCAExp1 Prime_1A Target_1N CKgjADI MKidAgc Congruent right correct Normal 1518.559
604 74 LeftLarger PercCAExp1 Prime_1A Target_6A BgAMkbJ LkHFBAI Incongruent left correct Normal 1561.307
604 75 LeftLarger PercCAExp1 Prime_6A Target_9N AilKGIB ImKMlic Congruent right correct Normal 792.9197
604 76 LeftLarger PercCAExp1 Prime_1A Target_1A dImfMDG aABFbhd Congruent right correct Normal 1820.318
604 77 LeftLarger PercCAExp1 Prime_4N Target_4A fLEKBdG dhMiIke Congruent left error Normal 1147.162
604 78 LeftLarger PercCAExp1 Prime_9A Target_4A GDlgEia ihEHLdb Incongruent left correct Normal 1503.828
604 79 LeftLarger PercCAExp1 Prime_1N Target_4N FDcjmLh LhGfKcD Congruent right correct Normal 1156.655
604 80 LeftLarger PercCAExp1 Prime_4N Target_6N gMjDdHK CmgFMjh Incongruent left correct Normal 963.07
604 81 LeftSmaller PercCBPrac Prime_4A Target_4A DmJCaIE BkjHbGd Congruent right error Normal 1285.782
604 82 LeftSmaller PercCBPrac Prime_9N Target_6N AfGDckj bDJGhkf Congruent left correct Normal 772.937
604 83 LeftSmaller PercCBPrac Prime_4A Target_9N DfceEMa BbFhfeC Incongruent left error Normal 967.7091
604 84 LeftSmaller PercCBPrac Prime_1A Target_4A lhgHIfE hkgbDJF Congruent right error Normal 874.9938
604 85 LeftSmaller PercCBPrac Prime_1A Target_9A ClmHMaA hEjCbae Incongruent right correct Normal 1144.744
604 86 LeftSmaller PercCBPrac Prime_4A Target_1N EmIagBJ AcIBmgG Congruent right error Normal 1479.936
604 87 LeftSmaller PercCBPrac Prime_1N Target_9N jGdDcgb BecgjAl Incongruent left error Normal 932.6506
604 88 LeftSmaller PercCBPrac Prime_9A Target_9N AKIhfgc MaLgIim Congruent right error Normal 794.4679
604 89 LeftSmaller PercCBPrac Prime_9A Target_6A DBFCGig EebjIcJ Congruent left correct Normal 1364.565
604 90 LeftSmaller PercCBPrac Prime_1N Target_1N dDjGgCF lcbMhJd Congruent right error Normal 992.7134
604 91 LeftSmaller PercCBPrac Prime_9N Target_4N lhECicb gBcDkhK Incongruent right correct Normal 1318.894
604 92 LeftSmaller PercCBPrac Prime_1N Target_6A BaDGdkI CldkiLg Incongruent right correct Normal 1311.788
604 93 LeftSmaller PercCBPrac Prime_1A Target_1A MLgCKbB kcGKLeg Congruent left correct Normal 1229.076
604 94 LeftSmaller PercCBPrac Prime_9A Target_4A lbjGJBd DHhCEij Incongruent right correct Normal 995.885
604 95 LeftSmaller PercCBPrac Prime_1N Target_6N GFJmfbe dGaJgAl Incongruent right correct Normal 1057.741
604 96 LeftSmaller PercCBPrac Prime_6N Target_6A AKGeBac lMEJbAF Congruent left correct Normal 1062.957
604 97 LeftSmaller PercCBExp1 Prime_1N Target_6N fglDdKj HgdBbkM Incongruent right correct Normal 972.2553
604 98 LeftSmaller PercCBExp1 Prime_9N Target_1A MDafJmA HgamCMh Incongruent right correct Normal 1165.146
604 99 LeftSmaller PercCBExp1 Prime_9A Target_1A cfHjFLD blEJaeL Incongruent right correct Normal 1132.864
604 100 LeftSmaller PercCBExp1 Prime_9N Target_6N eCJbmkH CKhgMGb Congruent left correct Normal 677.528
604 101 LeftSmaller PercCBExp1 Prime_6N Target_1N DLEgJHa bGiMIlf Incongruent right correct Normal 702.9339
604 102 LeftSmaller PercCBExp1 Prime_6N Target_9N biACMkD hGikBJD Congruent left correct Normal 955.6944
604 103 LeftSmaller PercCBExp1 Prime_6N Target_4N iaEImeB KBDJFMh Incongruent right correct Normal 1389.41
604 104 LeftSmaller PercCBExp1 Prime_4N Target_9N HabDdfC FcIHiMd Incongruent right correct Normal 922.335
604 105 LeftSmaller PercCBExp1 Prime_1N Target_9A BjkhHfg EBDdGaj Incongruent left error Normal 785.1277
604 106 LeftSmaller PercCBExp1 Prime_6N Target_6N mLADjfl FLIaBlb Congruent left correct Normal 580.5484
604 107 LeftSmaller PercCBExp1 Prime_6A Target_9A IElCjJD eciGBHE Congruent left correct Normal 550.6767
604 108 LeftSmaller PercCBExp1 Prime_4N Target_1A cDbHlAE GmKEfkH Congruent left correct Normal 1401.25
604 109 LeftSmaller PercCBExp1 Prime_1A Target_9N chDaBGd KkhHLdM Incongruent right correct Normal 716.2102
604 110 LeftSmaller PercCBExp1 Prime_9N Target_6A jFhfJHc BjgAeLf Congruent right error Normal 1321.878
604 111 LeftSmaller PercCBExp1 Prime_4N Target_9A JjdeFMk fFmCKHA Incongruent right correct Normal 799.619
604 112 LeftSmaller PercCBExp1 Prime_6N Target_4A dIDglkC fCdHIKL Incongruent right correct Normal 1131.21
604 113 LeftSmaller PercCBExp1 Prime_1A Target_6A DJgjhkA gKIMfLH Incongruent left error Normal 981.5188
604 114 LeftSmaller PercCBExp1 Prime_1N Target_6A CiebFjm bJDhacA Incongruent right correct Normal 973.8261
604 115 LeftSmaller PercCBExp1 Prime_6N Target_9A mEkGfLh FIhfBKj Congruent right error Normal 1528.736
604 116 LeftSmaller PercCBExp1 Prime_6N Target_1A IlCjGHB ficbdmD Incongruent right correct Normal 1827.645
604 117 LeftSmaller PercCBExp1 Prime_4N Target_4N DGFLiJa IiLhjGB Congruent left correct Normal 1567.341
604 118 LeftSmaller PercCBExp1 Prime_1N Target_4N KeaFikC ACHcEFg Congruent left correct Normal 806.9181
604 119 LeftSmaller PercCBExp1 Prime_1N Target_4A LijbkAh JaDMimf Congruent left correct Normal 1017.868
604 120 LeftSmaller PercCBExp1 Prime_4A Target_9A dCgjJaD bhcGFLg Incongruent left error Normal 893.9228
604 121 LeftSmaller PercCBExp1 Prime_1N Target_1A KJcHMFj JmIAkMG Congruent right error Normal 980.6281
604 122 LeftSmaller PercCBExp1 Prime_9N Target_4N LkJEdhD dkgLGMK Incongruent right correct Normal 1510.358
604 123 LeftSmaller PercCBExp1 Prime_9N Target_9A hIkBdlc LJHFbEM Congruent left correct Normal 848.6943
604 124 LeftSmaller PercCBExp1 Prime_9A Target_4A jdhDEgJ ibCMhJf Incongruent right correct Normal 1274.477
604 125 LeftSmaller PercCBExp1 Prime_9A Target_9N lGIJjHB fhjGDeg Congruent left correct Normal 1156.28
604 126 LeftSmaller PercCBExp1 Prime_9N Target_4A HbIjmfJ kdlACDL Incongruent right correct Normal 1005.335
604 127 LeftSmaller PercCBExp1 Prime_9A Target_6A fdCjGgm cIjFdKl Congruent left correct Normal 1276.132
604 128 LeftSmaller PercCBExp1 Prime_4A Target_6N DAKijeL mBkHLMC Incongruent right correct Normal 1268.182
604 129 LeftSmaller PercCBExp1 Prime_1N Target_1N cFjAaKk MKbIBEH Congruent left correct Normal 1101.275
604 130 LeftSmaller PercCBExp1 Prime_1A Target_4A cMFGIiL GichEIM Congruent left correct Normal 2258.604
604 131 LeftSmaller PercCBExp1 Prime_4A Target_9N lEcmAIf gEkIHmb Incongruent right correct Normal 1346.613
604 132 LeftSmaller PercCBExp1 Prime_6A Target_9N BJdeMbI eBFAfJa Congruent right error Normal 1522.288
604 133 LeftSmaller PercCBExp1 Prime_1A Target_9A AkEIKhd iEfJhck Incongruent right correct Normal 1065.459
604 134 LeftSmaller PercCBExp1 Prime_1A Target_1N gcJDAah AaKmjdk Congruent left correct Normal 865.5289
604 135 LeftSmaller PercCBExp1 Prime_4N Target_6N ChGLgFf kjiHgdl Incongruent right correct Normal 727.0804
604 136 LeftSmaller PercCBExp1 Prime_1A Target_6N iKABFka IBgAlMJ Incongruent right correct Normal 1215.251
604 137 LeftSmaller PercCBExp1 Prime_1A Target_1A kjiAbca kcjFCLB Congruent left correct Normal 594.3091
604 138 LeftSmaller PercCBExp1 Prime_4A Target_6A lfCbaIA gHijMDF Incongruent right correct Normal 795.9748
604 139 LeftSmaller PercCBExp1 Prime_4N Target_1N kgLJBDF GMelDCi Congruent left correct Normal 1231.485
604 140 LeftSmaller PercCBExp1 Prime_4N Target_4A FAcgmfi GMKiCFA Congruent left correct Normal 1453.766
604 141 LeftSmaller PercCBExp1 Prime_1A Target_4N HLMidDk DAkGfLB Congruent right error Normal 1210.632
604 142 LeftSmaller PercCBExp1 Prime_6A Target_1N FlKkfAa kejEcDH Incongruent right correct Normal 1339.417
604 143 LeftSmaller PercCBExp1 Prime_4A Target_4N gjhBaGL mdhFeLa Congruent left correct Normal 656.1305
604 144 LeftSmaller PercCBExp1 Prime_6N Target_6A LEGmMhb bdAemGc Congruent right error Normal 1624.279
604 145 LeftSmaller PercCBExp1 Prime_9A Target_1N meKihDA aMidAgJ Incongruent right correct Normal 1113.606
604 146 LeftSmaller PercCBExp1 Prime_6A Target_6A lCIabje LFAimhK Congruent left correct Normal 1435.891
604 147 LeftSmaller PercCBExp1 Prime_4A Target_1N ALdfhgm chjiaLb Congruent right error Normal 830.9582
604 148 LeftSmaller PercCBExp1 Prime_6A Target_1A eAGkjmF iebDhkA Incongruent right correct Normal 1204.735
604 149 LeftSmaller PercCBExp1 Prime_9N Target_1N kLBfFJE MhCmjdf Incongruent right correct Normal 1177.872
604 150 LeftSmaller PercCBExp1 Prime_4A Target_4A FbLAIfJ GdKDlBg Congruent left correct Normal 606.1226
604 151 LeftSmaller PercCBExp1 Prime_6A Target_4N dFHlbkC DBlcMAL Incongruent right correct Normal 1057.397
604 152 LeftSmaller PercCBExp1 Prime_9N Target_9N CiBMDGc EjmLhAH Congruent left correct Normal 562.5897
604 153 LeftSmaller PercCBExp1 Prime_6A Target_6N MDakJhB dlmJLgk Congruent left correct Normal 644.8893
604 154 LeftSmaller PercCBExp1 Prime_6A Target_4A GbBLAaD cHfdDbM Incongruent left error Normal 957.7682
604 155 LeftSmaller PercCBExp1 Prime_4A Target_1A GIeELFH kbIjCEL Congruent right error Normal 1436.907
604 156 LeftSmaller PercCBExp1 Prime_9A Target_4N fAidkhc LaEMgFj Incongruent left error Normal 1021.897
604 157 LeftSmaller PercCBExp1 Prime_9A Target_6N GKhdifB HmGDiMJ Congruent right error Normal 879.078
604 158 LeftSmaller PercCBExp1 Prime_1N Target_9N JehHkIm lMJejdm Incongruent left error Normal 1722.108
604 159 LeftSmaller PercCBExp1 Prime_4N Target_6A GFIhDLj GfbgKIh Incongruent right correct Normal 1403.039
604 160 LeftSmaller PercCBExp1 Prime_9A Target_9A kadDEGJ giDmAEa Congruent right error Normal 1256.053
605 1 LeftSmaller PercCAPrac Prime_9N Target_9A lKmeCiM bIFfhAL Congruent right error Normal 1783.261
605 2 LeftSmaller PercCAPrac Prime_6A Target_4N GCJmbKi MJKIGid Incongruent right correct Normal 1241.315
605 3 LeftSmaller PercCAPrac Prime_4A Target_9N JbKgMLE hKDdLce Incongruent right correct Normal 3121.72
605 4 LeftSmaller PercCAPrac Prime_6A Target_4A blmaIHh dBImlDj Incongruent left error Normal 1093.657
605 5 LeftSmaller PercCAPrac Prime_1A Target_1A DEhbAFf iLjlbGB Congruent right error Normal 754.8675
605 6 LeftSmaller PercCAPrac Prime_1N Target_1A mliBDeM GbHeKgf Congruent left correct Normal 683.5528
605 7 LeftSmaller PercCAPrac Prime_1N Target_9A ledDHGi IKJhfml Incongruent left error Normal 1324.85
605 8 LeftSmaller PercCAPrac Prime_4A Target_4A mejEgFL gJMCaAD Congruent left correct Normal 966.658
605 9 LeftSmaller PercCAPrac Prime_1A Target_4N fGeDIFL iIJcAGF Congruent left correct Normal 710.9575
605 10 LeftSmaller PercCAPrac Prime_1N Target_9N lHcDdbK DFLGMeJ Incongruent left error Normal 904.489
605 11 LeftSmaller PercCAPrac Prime_4A Target_6A ICmbHBk BKdbfgH Incongruent right correct Normal 1096.427
605 12 LeftSmaller PercCAPrac Prime_1N Target_4N hlcdJkG GJmkKhd Congruent left correct Normal 1522.586
605 13 LeftSmaller PercCAPrac Prime_4N Target_1A GjDEAgL HMifCdB Congruent left correct Normal 4293.542
605 14 LeftSmaller PercCAPrac Prime_6N Target_1A cKLmfDB jGeDIAJ Incongruent right correct Normal 855.2754
605 15 LeftSmaller PercCAPrac Prime_6A Target_1A HhemkbD GeICcAj Incongruent right correct Normal 1128.265
605 16 LeftSmaller PercCAPrac Prime_4N Target_6N FgHIJCe hGbicDg Incongruent left error Normal 1063.475
605 17 LeftSmaller PercCAExp1 Prime_6N Target_6N hfBDjdc EBDeFlJ Congruent right error Normal 1354.367
605 18 LeftSmaller PercCAExp1 Prime_1A Target_4N jeEmhDJ KdEGJHL Congruent right error Normal 1968.526
605 19 LeftSmaller PercCAExp1 Prime_4N Target_1A EBFMfJK kblMBFh Congruent left correct Normal 686.8803
605 20 LeftSmaller PercCAExp1 Prime_9A Target_1N BJfclFb jMdIaGE Incongruent right correct Normal 792.6167
605 21 LeftSmaller PercCAExp1 Prime_4N Target_4N LFgkiJc imMLaEK Congruent left correct Normal 1461.291
605 22 LeftSmaller PercCAExp1 Prime_6A Target_4A Ibacjgi cfjLIla Incongruent right correct Normal 640.9951
605 23 LeftSmaller PercCAExp1 Prime_4A Target_4A ADJLHgb KAgdimF Congruent right error Normal 877.4943
605 24 LeftSmaller PercCAExp1 Prime_4N Target_4A HBKGcih AmeLBfl Congruent left correct Normal 647.7355
605 25 LeftSmaller PercCAExp1 Prime_1A Target_9N cgfaEJC dGiAaLe Incongruent right correct Normal 458.0309
605 26 LeftSmaller PercCAExp1 Prime_6A Target_1N kFcibAM mjKGieC Incongruent right correct Normal 1492.817
605 27 LeftSmaller PercCAExp1 Prime_9N Target_1N IbAcGHa flEgADk Incongruent right correct Normal 1115.377
605 28 LeftSmaller PercCAExp1 Prime_4N Target_9A AEjlHiK jKDHmcC Incongruent left error Normal 569.1545
605 29 LeftSmaller PercCAExp1 Prime_4A Target_6A delhaHE hfGJCcK Incongruent right correct Normal 1223.848
605 30 LeftSmaller PercCAExp1 Prime_1A Target_1A gIiFfmH GkCdIKe Congruent right error Normal 846.16
605 31 LeftSmaller PercCAExp1 Prime_1N Target_4N LjgiJaA EKJlCfL Congruent left correct Normal 624.4417
605 32 LeftSmaller PercCAExp1 Prime_6A Target_6N elajhJH gDkaAHl Congruent right error Normal 1212.959
605 33 LeftSmaller PercCAExp1 Prime_1A Target_4A IDEbKfF fgAicEM Congruent left correct Normal 962.1033
605 34 LeftSmaller PercCAExp1 Prime_9A Target_4A kBMJCmK AaMClIL Incongruent right correct Normal 2055.327
605 35 LeftSmaller PercCAExp1 Prime_4A Target_1A KAJmkcE bhLcKCM Congruent right error Normal 1579.155
605 36 LeftSmaller PercCAExp1 Prime_6A Target_9N AEagBfk AgIlLiJ Congruent right error Normal 745.219
605 37 LeftSmaller PercCAExp1 Prime_1A Target_6A dfJcHlD IJjeLkH Incongruent left error Normal 1196.047
605 38 LeftSmaller PercCAExp1 Prime_9N Target_6N KJAagcG MjbgEke Congruent left correct Normal 2102.814
605 39 LeftSmaller PercCAExp1 Prime_1N Target_9N KCdekiH falkhFb Incongruent left error Normal 1623.249
605 40 LeftSmaller PercCAExp1 Prime_4A Target_9A eBHcaFl ALjKhDb Incongruent right correct Normal 1113.027
605 41 LeftSmaller PercCAExp1 Prime_6N Target_9N kmILiKg HegBfmI Congruent left correct Normal 3079.325
605 42 LeftSmaller PercCAExp1 Prime_1N Target_1A kCfgeGJ AmbDJcE Congruent right error Normal 1698.658
605 43 LeftSmaller PercCAExp1 Prime_9A Target_9A eJmgMDl DCGhkfF Congruent right error Normal 4615.473
605 44 LeftSmaller PercCAExp1 Prime_4A Target_1N cAdmikD deMBgLc Congruent left correct Normal 1006.513
605 45 LeftSmaller PercCAExp1 Prime_9A Target_9N keEJCHK IkGmjiJ Congruent right error Normal 1228.191
605 46 LeftSmaller PercCAExp1 Prime_6N Target_4N lHFCmBc fGMLEHD Incongruent right correct Normal 1162.982
605 47 LeftSmaller PercCAExp1 Prime_6A Target_6A jKkDBId LIKfFkc Congruent right error Normal 2253.989
605 48 LeftSmaller PercCAExp1 Prime_1N Target_6N fGmLFjB JgaMiGA Incongruent right correct Normal 1834.752
605 49 LeftSmaller PercCAExp1 Prime_9N Target_1A AbEjIcl DFhfeLI Incongruent right correct Normal 2098.393
605 50 LeftSmaller PercCAExp1 Prime_9A Target_6N eGBmFMa ieMHlIF Congruent right error Normal 1402.501
605 51 LeftSmaller PercCAExp1 Prime_9N Target_4N gjMAcam IeBDhLm Incongruent right correct Normal 1290.573
605 52 LeftSmaller PercCAExp1 Prime_1A Target_6N fKlajBm MdlBCGI Incongruent left error Normal 717.316
605 53 LeftSmaller PercCAExp1 Prime_6N Target_6A cfiFBEK diHGmDJ Congruent right error Normal 4233.864
605 54 LeftSmaller PercCAExp1 Prime_9N Target_9N gIBhblH KJgHBMG Congruent right error Normal 1003.526
605 55 LeftSmaller PercCAExp1 Prime_6N Target_1A MLJGkAb aAhEGLB Incongruent right correct Normal 931.8161
605 56 LeftSmaller PercCAExp1 Prime_9N Target_6A JkGgiMe HKmBbMg Congruent left correct Normal 1843.606
605 57 LeftSmaller PercCAExp1 Prime_4A Target_9N cjDfIgi ClgBjGi Incongruent left error Normal 2864.411
605 58 LeftSmaller PercCAExp1 Prime_6A Target_1A JbjhEmM CLeKEcJ Incongruent right correct Normal 1383.993
605 59 LeftSmaller PercCAExp1 Prime_1A Target_9A JcGfCmL dFBLihj Incongruent right correct Normal 2270.695
605 60 LeftSmaller PercCAExp1 Prime_9A Target_6A hgcAMaG KDjfCIE Congruent left correct Normal 1950.137
605 61 LeftSmaller PercCAExp1 Prime_1N Target_1N LekEmaf gKLkjbF Congruent right error Normal 1907.08
605 62 LeftSmaller PercCAExp1 Prime_6N Target_1N kHFcIgm jfiaeJD Incongruent left error Normal 2079.546
605 63 LeftSmaller PercCAExp1 Prime_1N Target_6A MEjFgIh akMAEgi Incongruent left error Normal 2488.212
605 64 LeftSmaller PercCAExp1 Prime_6A Target_9A KClMkai GcHbliL Congruent left correct Normal 994.0584
605 65 LeftSmaller PercCAExp1 Prime_6N Target_4A JKljeIg bHfkFIh Incongruent right correct Normal 1119.51
605 66 LeftSmaller PercCAExp1 Prime_4N Target_6A FjifcGC AiKMEeH Incongruent right correct Normal 1875.967
605 67 LeftSmaller PercCAExp1 Prime_4A Target_6N LmKdkFM biKAkhC Incongruent left error Normal 1259.41
605 68 LeftSmaller PercCAExp1 Prime_4N Target_6N IKiGfek IBhbDKl Incongruent right correct Normal 1186.155
605 69 LeftSmaller PercCAExp1 Prime_4A Target_4N Jghmcel cjIMdCa Congruent right error Normal 1531.96
605 70 LeftSmaller PercCAExp1 Prime_1N Target_4A JCcaHAb iMfbJaB Congruent right error Normal 1899.54
605 71 LeftSmaller PercCAExp1 Prime_9A Target_1A fDIEjMB KkJHIjb Incongruent right correct Normal 1572.398
605 72 LeftSmaller PercCAExp1 Prime_6N Target_9A aejbLcF ebcDjlL Congruent left correct Normal 2769.693
605 73 LeftSmaller PercCAExp1 Prime_1A Target_1N fbeAEaG fKBImac Congruent left correct Normal 822.4809
605 74 LeftSmaller PercCAExp1 Prime_9N Target_9A gfDAEic mHFJCIL Congruent right error Normal 1519.416
605 75 LeftSmaller PercCAExp1 Prime_9A Target_4N FJMHCLm kcJgfHh Incongruent right correct Normal 2749.669
605 76 LeftSmaller PercCAExp1 Prime_4N Target_9N hlBHaME MiDGJaB Incongruent left error Normal 682.7968
605 77 LeftSmaller PercCAExp1 Prime_1N Target_9A aCILGfM fiBcbJE Incongruent right correct Normal 1084.905
605 78 LeftSmaller PercCAExp1 Prime_4N Target_1N mgKMkjG LjfiFHI Congruent left correct Normal 1254.523
605 79 LeftSmaller PercCAExp1 Prime_6A Target_4N LdheHkb CBDFGmK Incongruent right correct Normal 916.1909
605 80 LeftSmaller PercCAExp1 Prime_9N Target_4A iAKeHdM FemahgE Incongruent right correct Normal 2021.358
605 81 LeftLarger PercCBPrac Prime_6A Target_6A bhagMAC AekcjFm Congruent right correct Normal 1066.573
605 82 LeftLarger PercCBPrac Prime_1N Target_6A KCIaigA BekDEGh Incongruent right error Normal 1008.027
605 83 LeftLarger PercCBPrac Prime_6N Target_1N lCiHcFG mfElHhI Incongruent right error Normal 1059.734
605 84 LeftLarger PercCBPrac Prime_4A Target_1N HIdmAbk LjDKIAc Congruent right correct Normal 1074.072
605 85 LeftLarger PercCBPrac Prime_9N Target_4A adkfbHh LJlFMIH Incongruent left correct Normal 1709.367
605 86 LeftLarger PercCBPrac Prime_6A Target_9A ikfglLa iBeahdM Congruent left error Normal 1129.557
605 87 LeftLarger PercCBPrac Prime_4A Target_1A KhIgcfj eLFiClI Congruent right correct Normal 3415.259
605 88 LeftLarger PercCBPrac Prime_9N Target_1A FcIEBMh dMmFJLI Incongruent left correct Normal 1034.625
605 89 LeftLarger PercCBPrac Prime_9N Target_1N flgeCdB MEJjAcG Incongruent right error Late 6172.54
605 90 LeftLarger PercCBPrac Prime_1A Target_9A akBImcL CBhejHl Incongruent left correct Normal 1628.332
605 91 LeftLarger PercCBPrac Prime_1A Target_4A EIbgcHC CHiADJL Congruent right correct Normal 1087.87
605 92 LeftLarger PercCBPrac Prime_6A Target_1A kfgBmIM JMjbkhd Incongruent left correct Normal 2972.376
605 93 LeftLarger PercCBPrac Prime_1A Target_1N Ldelima hIkKgbd Congruent right correct Normal 1530.265
605 94 LeftLarger PercCBPrac Prime_9A Target_1A LCHBEel GiBhDck Incongruent left correct Normal 1028.894
605 95 LeftLarger PercCBPrac Prime_4N Target_6N LhIgjGH hjHMIEb Incongruent left correct Normal 2185.741
605 96 LeftLarger PercCBPrac Prime_9A Target_4N gAiFdDm BMKiehL Incongruent left correct Normal 2322.544
605 97 LeftLarger PercCBExp1 Prime_9A Target_1N jibkdCf GJCfMig Incongruent left correct Normal 3111.332
605 98 LeftLarger PercCBExp1 Prime_4N Target_6N HkbGmgf hEJbAda Incongruent left correct Normal 1457.818
605 99 LeftLarger PercCBExp1 Prime_1A Target_9N KGlkHIF jHLDhfm Incongruent left correct Normal 1334.535
605 100 LeftLarger PercCBExp1 Prime_6N Target_4N DBKHGic IkgFGMb Incongruent right error Normal 1508.816
605 101 LeftLarger PercCBExp1 Prime_9N Target_6A AMLfDGj BmhcgCG Congruent left error Normal 1588.322
605 102 LeftLarger PercCBExp1 Prime_9A Target_4N EgfCKMl gbKecdD Incongruent right error Normal 820.0652
605 103 LeftLarger PercCBExp1 Prime_4A Target_6N jiFaeJf KAEMmgj Incongruent left correct Normal 764.2453
605 104 LeftLarger PercCBExp1 Prime_1N Target_4A cJjgCGL BdLGMJC Congruent right correct Normal 1562.304
605 105 LeftLarger PercCBExp1 Prime_9A Target_9A jhAlCkJ aJBjmiM Congruent left error Normal 4686.265
605 106 LeftLarger PercCBExp1 Prime_1N Target_9A MDgGHcL aAIFGiK Incongruent left correct Normal 1463.61
605 107 LeftLarger PercCBExp1 Prime_9N Target_9A hFjGDim DfchEKe Congruent right correct Normal 1832.519
605 108 LeftLarger PercCBExp1 Prime_1A Target_1A FIJmCHi EAgmFkf Congruent right correct Normal 1356.958
605 109 LeftLarger PercCBExp1 Prime_6A Target_1N fiCmebE EbGAhkB Incongruent right error Normal 2838.882
605 110 LeftLarger PercCBExp1 Prime_9A Target_1A GAjLBlF iAGFDIe Incongruent left correct Normal 995.9881
605 111 LeftLarger PercCBExp1 Prime_9N Target_1A fedbgBm ELGAeKb Incongruent left correct Normal 2543.649
605 112 LeftLarger PercCBExp1 Prime_4A Target_1A cDfAFga bIkhmaH Congruent right correct Normal 1530.089
605 113 LeftLarger PercCBExp1 Prime_4N Target_1A ijIBmMJ eAjhMgl Congruent left error Normal 726.0504
605 114 LeftLarger PercCBExp1 Prime_4A Target_4N DiGcmAd HcFiIbB Congruent right correct Normal 2562.902
605 115 LeftLarger PercCBExp1 Prime_9A Target_9N hgGmIME adDICbj Congruent left error Normal 3952.635
605 116 LeftLarger PercCBExp1 Prime_4A Target_4A dcDfgmB KBcGbJF Congruent left error Normal 1124.895
605 117 LeftLarger PercCBExp1 Prime_9A Target_6A medicbG JkigKCD Congruent left error Normal 2272.749
605 118 LeftLarger PercCBExp1 Prime_1N Target_1A CkhdlHJ klmJBGC Congruent right correct Normal 2322.515
605 119 LeftLarger PercCBExp1 Prime_1A Target_4A GcblKgD mhFDAkM Congruent right correct Normal 688.0964
605 120 LeftLarger PercCBExp1 Prime_1N Target_4N gELAdMI fahDCGF Congruent right correct Normal 927.0183
605 121 LeftLarger PercCBExp1 Prime_9N Target_4N BiAjHGb gdakbfJ Incongruent left correct Normal 468.6694
605 122 LeftLarger PercCBExp1 Prime_1A Target_6N BhafmMF JABLEdH Incongruent left correct Normal 1359.23
605 123 LeftLarger PercCBExp1 Prime_6A Target_6N AacgiKj IkMHdBD Congruent left error Normal 2849.017
605 124 LeftLarger PercCBExp1 Prime_4N Target_4A HdIlcgh fBGaEdI Congruent right correct Normal 1181.436
605 125 LeftLarger PercCBExp1 Prime_4N Target_1N beGLElH HlecfAI Congruent left error Normal 1989.896
605 126 LeftLarger PercCBExp1 Prime_4N Target_9A kcmjiDM elCjmGJ Incongruent left correct Normal 1251.229
605 127 LeftLarger PercCBExp1 Prime_1A Target_9A ljMJCdg DMKbJmE Incongruent right error Normal 659.5603
605 128 LeftLarger PercCBExp1 Prime_4A Target_9N cjLdlEI GlmEbah Incongruent left correct Normal 433.7197
605 129 LeftLarger PercCBExp1 Prime_6A Target_4N gJCIBHc aEDJkmG Incongruent right error Normal 2941.562
605 130 LeftLarger PercCBExp1 Prime_6N Target_9N FLHjgha MBbheJd Congruent right correct Normal 1362.656
605 131 LeftLarger PercCBExp1 Prime_4A Target_1N KCBfDIM LibAJmd Congruent right correct Normal 1364.649
605 132 LeftLarger PercCBExp1 Prime_6N Target_1N hLFakli hjHdimc Incongruent left correct Normal 920.0794
605 133 LeftLarger PercCBExp1 Prime_1N Target_6N AlkKafE chBIHKJ Incongruent left correct Normal 1398.006
605 134 LeftLarger PercCBExp1 Prime_9A Target_6N AFJmGLj fhiKjCE Congruent right correct Normal 1099.88
605 135 LeftLarger PercCBExp1 Prime_6N Target_1A KdDiceE mCfaliH Incongruent right error Normal 986.3537
605 136 LeftLarger PercCBExp1 Prime_6A Target_9A CjgADGH cJKbFdH Congruent right correct Normal 592.8835
605 137 LeftLarger PercCBExp1 Prime_4N Target_9N kILbEjc BhAcmKj Incongruent left correct Normal 1143.694
605 138 LeftLarger PercCBExp1 Prime_6A Target_9N HlBEiAC JibChlM Congruent right correct Normal 1402.884
605 139 LeftLarger PercCBExp1 Prime_9A Target_4A iLlBEHd eFagdcB Incongruent left correct Normal 878.0157
605 140 LeftLarger PercCBExp1 Prime_6N Target_9A ahFBdlc akmFALc Congruent right correct Normal 1350.22
605 141 LeftLarger PercCBExp1 Prime_1A Target_6A gFmlBCc HfBLaCc Incongruent left correct Normal 1667.182
605 142 LeftLarger PercCBExp1 Prime_6A Target_6A LDBAFJa LFKABbj Congruent left error Normal 957.7516
605 143 LeftLarger PercCBExp1 Prime_9N Target_4A iIHcGAd giHFcmJ Incongruent right error Normal 1412.025
605 144 LeftLarger PercCBExp1 Prime_4A Target_9A GKkIhEb lKhGmMd Incongruent left correct Normal 720.1649
605 145 LeftLarger PercCBExp1 Prime_6A Target_4A gGjAmbf BkAjCfl Incongruent right error Normal 800.8999
605 146 LeftLarger PercCBExp1 Prime_9N Target_6N jeFdIkG IhmGDjL Congruent left error Normal 435.9459
605 147 LeftLarger PercCBExp1 Prime_6N Target_6A IMLJfjl eDFlMcB Congruent right correct Normal 1157.692
605 148 LeftLarger PercCBExp1 Prime_1A Target_4N GgjdKED KBdlgCa Congruent left error Normal 825.5419
605 149 LeftLarger PercCBExp1 Prime_4N Target_6A EljdiFh jIihelE Incongruent left correct Normal 812.315
605 150 LeftLarger PercCBExp1 Prime_4N Target_4N KFaBCcA EihdLJK Congruent left error Normal 1489.674
605 151 LeftLarger PercCBExp1 Prime_1A Target_1N MChjegH dcgmhHL Congruent right correct Normal 744.8047
605 152 LeftLarger PercCBExp1 Prime_1N Target_9N AIfidcB MhLCEgF Incongruent right error Normal 1481.689
605 153 LeftLarger PercCBExp1 Prime_6N Target_4A DchimMe gBjCEkH Incongruent left correct Normal 1172.551
605 154 LeftLarger PercCBExp1 Prime_1N Target_6A aLedMFj bFagLJe Incongruent left correct Normal 776.6878
605 155 LeftLarger PercCBExp1 Prime_1N Target_1N hlMfCAk IDgcCEF Congruent right correct Normal 743.002
605 156 LeftLarger PercCBExp1 Prime_9N Target_1N EMLacBb kGgDLmI Incongruent right error Normal 641.9414
605 157 LeftLarger PercCBExp1 Prime_6N Target_6N MBhKIHF eimdBgK Congruent left error Normal 949.5714
605 158 LeftLarger PercCBExp1 Prime_6A Target_1A BJgFcHD hjJfeCG Incongruent left correct Normal 1068.873
605 159 LeftLarger PercCBExp1 Prime_9N Target_9N KgEkDMi fJiIehk Congruent left error Normal 1050.211
605 160 LeftLarger PercCBExp1 Prime_4A Target_6A hjCmHce iFLDGkf Incongruent left correct Normal 743.8823
606 1 LeftLarger PercCAPrac Prime_6N Target_9N hdMmkaC ifLbhBa Congruent right correct Normal 582.123
606 2 LeftLarger PercCAPrac Prime_4N Target_1A MAleCci HkdIjMJ Congruent left error Normal 520.5904
606 3 LeftLarger PercCAPrac Prime_4A Target_9A lcGjJkg MGEdjmC Incongruent left correct Normal 726.2123
606 4 LeftLarger PercCAPrac Prime_9N Target_9N hMliKJa kdiEKeF Congruent right correct Normal 736.0681
606 5 LeftLarger PercCAPrac Prime_9A Target_1N KjMHifc BkAeCKl Incongruent left correct Normal 897.1457
606 6 LeftLarger PercCAPrac Prime_9N Target_6A LGAHhli afEjBCd Congruent left error Normal 887.9649
606 7 LeftLarger PercCAPrac Prime_4N Target_4N mEhCLfG DjgFJHc Congruent right correct Normal 1025.779
606 8 LeftLarger PercCAPrac Prime_6N Target_6N hLaiMCg chmfjMk Congruent left error Normal 906.0529
606 9 LeftLarger PercCAPrac Prime_4A Target_6N bakHGDm EhDbkcg Incongruent left correct Normal 1037.608
606 10 LeftLarger PercCAPrac Prime_9N Target_1A dlGgkjJ lDIHKAg Incongruent left correct Normal 904.7958
606 11 LeftLarger PercCAPrac Prime_6A Target_6A JfhiDHC iGbeAHc Congruent right correct Normal 826.4373
606 12 LeftLarger PercCAPrac Prime_1N Target_1N KFBdLeG IEGgdBb Congruent left error Normal 909.0059
606 13 LeftLarger PercCAPrac Prime_6N Target_1A BiedbHE IbdmJeB Incongruent left correct Normal 707.9331
606 14 LeftLarger PercCAPrac Prime_9A Target_6N dJKLCim EMkKHJe Congruent right correct Normal 751.2317
606 15 LeftLarger PercCAPrac Prime_9N Target_4A hmIMGjk biMalkh Incongruent left correct Normal 498.3996
606 16 LeftLarger PercCAPrac Prime_4A Target_4N dEJGFhc BDKbAfi Congruent left error Normal 677.9332
606 17 LeftLarger PercCAExp1 Prime_6A Target_1A FfAaIhi BiJFbCj Incongruent left correct Normal 496.9648
606 18 LeftLarger PercCAExp1 Prime_4A Target_1N bDiMAmc lgkEMBi Congruent left error Normal 486.1327
606 19 LeftLarger PercCAExp1 Prime_4N Target_1N fmMIeAE GceADmk Congruent right correct Normal 868.9193
606 20 LeftLarger PercCAExp1 Prime_6A Target_4N AHmCFja LIfGBcj Incongruent left correct Normal 868.7098
606 21 LeftLarger PercCAExp1 Prime_4N Target_9N CJmjKhl mHcIbMC Incongruent left correct Normal 785.2502
606 22 LeftLarger PercCAExp1 Prime_1N Target_6N fmGLcJb dKiHBbJ Incongruent left correct Normal 672.2793
606 23 LeftLarger PercCAExp1 Prime_4N Target_6N DFElcMA HMAmbkG Incongruent left correct Normal 1063.347
606 24 LeftLarger PercCAExp1 Prime_6N Target_1N lLCIhja eFicdLa Incongruent left correct Normal 706.3105
606 25 LeftLarger PercCAExp1 Prime_4A Target_9A FBMDmlH migkdfB Incongruent right error Normal 688.8457
606 26 LeftLarger PercCAExp1 Prime_6A Target_6N CAeLbDM iFgdCHG Congruent right correct Normal 684.377
606 27 LeftLarger PercCAExp1 Prime_1N Target_1A gFMKabd EdjAKFH Congruent left error Normal 451.4202
606 28 LeftLarger PercCAExp1 Prime_9N Target_4A MGjCFKD hJfadGk Incongruent left correct Normal 543.0423
606 29 LeftLarger PercCAExp1 Prime_1A Target_4N GlKMJED bjIKmfJ Congruent left error Normal 586.0002
606 30 LeftLarger PercCAExp1 Prime_9A Target_9N FihdKEC leLAgIm Congruent right correct Normal 418.42
606 31 LeftLarger PercCAExp1 Prime_9A Target_6N AfIcEeh aABMKDb Congruent right correct Normal 704.5562
606 32 LeftLarger PercCAExp1 Prime_1N Target_1N gLjDmGa hfiGgFa Congruent left error Normal 418.6439
606 33 LeftLarger PercCAExp1 Prime_9A Target_4N mLgdMbi hacBfHK Incongruent left correct Normal 732.9383
606 34 LeftLarger PercCAExp1 Prime_6A Target_9N IKkGfJj ImKDbJG Congruent right correct Normal 496.6731
606 35 LeftLarger PercCAExp1 Prime_9N Target_6N gkcElfa cadmMLB Congruent left error Normal 947.3773
606 36 LeftLarger PercCAExp1 Prime_9N Target_1N hbeJFma ChIfcGE Incongruent left correct Normal 2446.111
606 37 LeftLarger PercCAExp1 Prime_9A Target_1N AhLKkFl FahkAli Incongruent left correct Normal 746.5042
606 38 LeftLarger PercCAExp1 Prime_4N Target_9A elEAaKg IdbheDa Incongruent left correct Normal 1290.16
606 39 LeftLarger PercCAExp1 Prime_9A Target_4A GeldkCM fHILlmh Incongruent left correct Normal 665.2278
606 40 LeftLarger PercCAExp1 Prime_9A Target_1A FhJkBfC eDILEAK Incongruent left correct Normal 496.0573
606 41 LeftLarger PercCAExp1 Prime_4N Target_1A AdFmcLJ BbfgHLk Congruent right correct Normal 1576.152
606 42 LeftLarger PercCAExp1 Prime_6N Target_1A AclIgbh bLmCdhl Incongruent left correct Normal 2381.859
606 43 LeftLarger PercCAExp1 Prime_4A Target_6A hKjbMfB LlJBMaA Incongruent left correct Normal 1923.186
606 44 LeftLarger PercCAExp1 Prime_6N Target_9N EbDjaAf AHfMmJc Congruent right correct Normal 987.4057
606 45 LeftLarger PercCAExp1 Prime_1A Target_6A bfIGmMC hEiacCe Incongruent left correct Normal 1169.168
606 46 LeftLarger PercCAExp1 Prime_1A Target_1A kCLjBdb cmgAClk Congruent left error Normal 1467.859
606 47 LeftLarger PercCAExp1 Prime_6N Target_6A KgcDAlH gcAKmIM Congruent right correct Normal 1430.165
606 48 LeftLarger PercCAExp1 Prime_6N Target_4A LDagCde FJGaCbI Incongruent left correct Normal 499.5555
606 49 LeftLarger PercCAExp1 Prime_1N Target_4A Jdimhfl iMKdhjG Congruent left error Normal 1213.42
606 50 LeftLarger PercCAExp1 Prime_4A Target_6N CLjkbfD DcaKbJM Incongruent left correct Normal 1157.7
606 51 LeftLarger PercCAExp1 Prime_4N Target_6A DAfBikF fmkbMBD Incongruent left correct Normal 761.4912
606 52 LeftLarger PercCAExp1 Prime_6A Target_4A fBKIgbE HLCABid Incongruent left correct Normal 700.6589
606 53 LeftLarger PercCAExp1 Prime_4A Target_4A KLDiHlM MKIGFdB Congruent left error Normal 790.8227
606 54 LeftLarger PercCAExp1 Prime_4A Target_1A fHjIEdh GKMkhAH Congruent right correct Normal 752.1382
606 55 LeftLarger PercCAExp1 Prime_6A Target_9A JalbAiG JkacDfl Congruent right correct Normal 1585.279
606 56 LeftLarger PercCAExp1 Prime_1N Target_9A EHbecfB gjEACed Incongruent left correct Normal 650.4042
606 57 LeftLarger PercCAExp1 Prime_1A Target_4A Hmlgeib MlAJeGk Congruent right correct Normal 3589.817
606 58 LeftLarger PercCAExp1 Prime_6A Target_6A KeFMAid JaKLhDG Congruent left error Normal 781.1212
606 59 LeftLarger PercCAExp1 Prime_4N Target_4N gmDFJBG DMhLaBH Congruent left error Normal 1061.436
606 60 LeftLarger PercCAExp1 Prime_6N Target_6N iHFCMgl igjdEbf Congruent right correct Normal 831.3216
606 61 LeftLarger PercCAExp1 Prime_1A Target_6N AgCkmMD kGcKCeH Incongruent left correct Normal 1300.042
606 62 LeftLarger PercCAExp1 Prime_6N Target_9A adliGFK gAGlkaj Congruent left error Normal 1252.595
606 63 LeftLarger PercCAExp1 Prime_4A Target_4N cekgfKG fmaEMdI Congruent left error Normal 918.9121
606 64 LeftLarger PercCAExp1 Prime_1N Target_4N kKAJiCa GiaFIDj Congruent right correct Normal 908.945
606 65 LeftLarger PercCAExp1 Prime_6A Target_1N mDeMdhB fihkECd Incongruent left correct Normal 1085.877
606 66 LeftLarger PercCAExp1 Prime_1A Target_9N AgceEfG CBIHdch Incongruent left correct Normal 2311.275
606 67 LeftLarger PercCAExp1 Prime_9N Target_9A bHDEIkd kidIjaJ Congruent right correct Normal 1227.746
606 68 LeftLarger PercCAExp1 Prime_9N Target_4N GdCDiIm DdAELbl Incongruent left correct Normal 852.378
606 69 LeftLarger PercCAExp1 Prime_4N Target_4A AafkBCi CKImGie Congruent right correct Normal 789.5504
606 70 LeftLarger PercCAExp1 Prime_1A Target_9A FKMeilc CEMaLBc Incongruent left correct Normal 685.7583
606 71 LeftLarger PercCAExp1 Prime_9A Target_6A GmclHCK BeigDdL Congruent right correct Normal 606.7884
606 72 LeftLarger PercCAExp1 Prime_6N Target_4N JcbmKiA kDaAjEG Incongruent left correct Normal 626.3828
606 73 LeftLarger PercCAExp1 Prime_4A Target_9N HjEBimb ILBkdAK Incongruent left correct Normal 689.5957
606 74 LeftLarger PercCAExp1 Prime_1N Target_9N BfjDAeM CcFKkgE Incongruent right error Normal 1498.21
606 75 LeftLarger PercCAExp1 Prime_9A Target_9A gikmBFD kJMliDL Congruent right correct Normal 804.3182
606 76 LeftLarger PercCAExp1 Prime_9N Target_1A hMaDGLe CcILMEm Incongruent left correct Normal 514.8427
606 77 LeftLarger PercCAExp1 Prime_1N Target_6A GLJclHi mABKlbJ Incongruent right error Normal 936.7209
606 78 LeftLarger PercCAExp1 Prime_9N Target_6A CLkEJBm DHaiJFm Congruent right correct Normal 655.7596
606 79 LeftLarger PercCAExp1 Prime_1A Target_1N DGLajAg mkBJMKI Congruent right correct Normal 600.5693
606 80 LeftLarger PercCAExp1 Prime_9N Target_9N MJfHaAD fIEjgcD Congruent right correct Normal 904.1099
606 81 LeftSmaller PercCBPrac Prime_9N Target_1N jELDFdm aDfBGMh Incongruent right correct Normal 1424.695
606 82 LeftSmaller PercCBPrac Prime_6A Target_4N EJLBaKe HLFDgiG Incongruent left error Normal 513.6486
606 83 LeftSmaller PercCBPrac Prime_4N Target_9N iJFImAD dmHEAFf Incongruent right correct Normal 622.4513
606 84 LeftSmaller PercCBPrac Prime_1A Target_4A LfdHkhe EgDKCkJ Congruent left correct Normal 681.6188
606 85 LeftSmaller PercCBPrac Prime_1N Target_9A DMmEjAl eAHCjaJ Incongruent left error Normal 1190.914
606 86 LeftSmaller PercCBPrac Prime_9A Target_9N iblKJfj kCMGdeF Congruent left correct Normal 698.5759
606 87 LeftSmaller PercCBPrac Prime_9A Target_4N cBaJHhD GjdifKe Incongruent right correct Normal 517.3882
606 88 LeftSmaller PercCBPrac Prime_6N Target_9N ahIGBfF EidLlgB Congruent right error Normal 972.5612
606 89 LeftSmaller PercCBPrac Prime_1A Target_9A MmlDdac hKkJmgF Incongruent right correct Normal 662.3222
606 90 LeftSmaller PercCBPrac Prime_6N Target_6N dAImLKh dbajgEA Congruent left correct Normal 620.0147
606 91 LeftSmaller PercCBPrac Prime_6A Target_9A fiImADj abCmAfG Congruent left correct Normal 426.2126
606 92 LeftSmaller PercCBPrac Prime_4N Target_1A kMfleBC lmgMKGC Congruent left correct Normal 1486.815
606 93 LeftSmaller PercCBPrac Prime_4N Target_1N JehHbcG AMchjEb Congruent right error Normal 716.5456
606 94 LeftSmaller PercCBPrac Prime_6N Target_1N fKCgjGL KIFcGbJ Incongruent right correct Normal 801.9586
606 95 LeftSmaller PercCBPrac Prime_1A Target_6A BFkELbG KIgMhGd Incongruent right correct Normal 634.8868
606 96 LeftSmaller PercCBPrac Prime_6A Target_9N fbdDKEJ CKkFJMe Congruent left correct Normal 718.5322
606 97 LeftSmaller PercCBExp1 Prime_1A Target_1A IBacAEj BheDlHc Congruent right error Normal 1732.142
606 98 LeftSmaller PercCBExp1 Prime_6N Target_4A cDjhGFl CdkEHFG Incongruent right correct Normal 700.6232
606 99 LeftSmaller PercCBExp1 Prime_6A Target_4N dBAGIje aKiEAHk Incongruent right correct Normal 942.2022
606 100 LeftSmaller PercCBExp1 Prime_4A Target_4A KhMLmJA dHkeLAc Congruent left correct Normal 705.2628
606 101 LeftSmaller PercCBExp1 Prime_6A Target_1N JBgAIFb ileGgkL Incongruent right correct Normal 1285.975
606 102 LeftSmaller PercCBExp1 Prime_1A Target_4A BgFblIm cAEGDIf Congruent right error Normal 777.7218
606 103 LeftSmaller PercCBExp1 Prime_9A Target_1A ADKkefI dgchGDk Incongruent right correct Normal 605.2512
606 104 LeftSmaller PercCBExp1 Prime_9N Target_4A FLDIfJK jcdIKgl Incongruent right correct Normal 592.4326
606 105 LeftSmaller PercCBExp1 Prime_9A Target_4N BFjJLdI kBAJglF Incongruent right correct Normal 642.7622
606 106 LeftSmaller PercCBExp1 Prime_9A Target_9N AKDdliG cFCJlHL Congruent left correct Normal 551.1324
606 107 LeftSmaller PercCBExp1 Prime_4A Target_1A DFIdEme gfHmLcC Congruent left correct Normal 1381.287
606 108 LeftSmaller PercCBExp1 Prime_1N Target_1N bMgfLih adIeckg Congruent left correct Normal 1037.583
606 109 LeftSmaller PercCBExp1 Prime_6N Target_4N eMEADFa KFmlgLC Incongruent left error Normal 1557.16
606 110 LeftSmaller PercCBExp1 Prime_4N Target_6A akCIKhD AcbjDgB Incongruent right correct Normal 1208.946
606 111 LeftSmaller PercCBExp1 Prime_4A Target_6N mHGeFjM FIAjDkl Incongruent left error Normal 1216.055
606 112 LeftSmaller PercCBExp1 Prime_4A Target_4N fDJIabk GAmdebi Congruent right error Normal 2632.806
606 113 LeftSmaller PercCBExp1 Prime_9A Target_1N eLlAcma KAImMFL Incongruent right correct Normal 1206.629
606 114 LeftSmaller PercCBExp1 Prime_9N Target_4N cgHilfb edkLfcG Incongruent right correct Normal 786.3501
606 115 LeftSmaller PercCBExp1 Prime_9N Target_1A eFBKHfJ BeLHlhI Incongruent right correct Normal 1230.873
606 116 LeftSmaller PercCBExp1 Prime_4A Target_6A HFjdgla JlFgLkK Incongruent left error Normal 1694.033
606 117 LeftSmaller PercCBExp1 Prime_9A Target_9A DdlEbMI LJAkhFd Congruent left correct Normal 454.876
606 118 LeftSmaller PercCBExp1 Prime_1N Target_4A ceHKADB EimKIGD Congruent right error Normal 771.7691
606 119 LeftSmaller PercCBExp1 Prime_4A Target_1N HaFlBkC JfMECIk Congruent left correct Normal 1157.602
606 120 LeftSmaller PercCBExp1 Prime_1A Target_9A IbAJaLe HhCFlfM Incongruent right correct Normal 2492.983
606 121 LeftSmaller PercCBExp1 Prime_1N Target_4N IfGghAj dLjEHmB Congruent left correct Normal 1030.408
606 122 LeftSmaller PercCBExp1 Prime_6A Target_1A kJbcBle bDKlEkc Incongruent right correct Normal 952.2701
606 123 LeftSmaller PercCBExp1 Prime_6A Target_9A cClHeEk HKFiMGm Congruent left correct Normal 751.471
606 124 LeftSmaller PercCBExp1 Prime_9A Target_6N fmMHieJ egfiJhH Congruent left correct Normal 1048.852
606 125 LeftSmaller PercCBExp1 Prime_1A Target_4N aIeLFhi lgBeihf Congruent right error Normal 3330.63
606 126 LeftSmaller PercCBExp1 Prime_9N Target_1N kIDmehd bkmGLFf Incongruent right correct Normal 708.7171
606 127 LeftSmaller PercCBExp1 Prime_6A Target_6A iameLCK hAdJcjD Congruent left correct Normal 627.9961
606 128 LeftSmaller PercCBExp1 Prime_9A Target_4A dcBjmEM CBGigcm Incongruent right correct Normal 711.3346
606 129 LeftSmaller PercCBExp1 Prime_6N Target_1A aBMebiD gGbkKAC Incongruent right correct Normal 696.3782
606 130 LeftSmaller PercCBExp1 Prime_1N Target_1A gejacId HBIbldK Congruent right error Normal 496.0721
606 131 LeftSmaller PercCBExp1 Prime_1N Target_9N kBHAcbi EhmBdCb Incongruent right correct Normal 2779.772
606 132 LeftSmaller PercCBExp1 Prime_9N Target_9N ibGdMkL fhEmcdI Congruent left correct Normal 780.0151
606 133 LeftSmaller PercCBExp1 Prime_6A Target_6N AdhHEia jDaigBl Congruent left correct Normal 819.6578
606 134 LeftSmaller PercCBExp1 Prime_4N Target_4N DkeMHBJ FdIEBeK Congruent right error Normal 917.5383
606 135 LeftSmaller PercCBExp1 Prime_6N Target_1N MHEIjlm ehbHjFK Incongruent right correct Normal 642.5474
606 136 LeftSmaller PercCBExp1 Prime_6N Target_6A edFHaKl LigblBM Congruent left correct Normal 566.2549
606 137 LeftSmaller PercCBExp1 Prime_1A Target_6N kiFdlbf DjfBkce Incongruent right correct Normal 706.3024
606 138 LeftSmaller PercCBExp1 Prime_9N Target_6N jJAgamb JBMKAec Congruent left correct Normal 489.6996
606 139 LeftSmaller PercCBExp1 Prime_1N Target_6N GCiFkmd fGHDJgm Incongruent right correct Normal 1519.522
606 140 LeftSmaller PercCBExp1 Prime_1A Target_6A AEdDKgm iJjmkFH Incongruent left error Normal 839.6604
606 141 LeftSmaller PercCBExp1 Prime_9N Target_6A cmkaFAD iJhKGlH Congruent left correct Normal 424.6897
606 142 LeftSmaller PercCBExp1 Prime_4A Target_9N bhfkJLa GlacAIL Incongruent right correct Normal 616.2836
606 143 LeftSmaller PercCBExp1 Prime_6N Target_9N ALHkiCB iflLAFa Congruent left correct Normal 2484.409
606 144 LeftSmaller PercCBExp1 Prime_9A Target_6A ifFckmg AMcdHED Congruent left correct Normal 567.2808
606 145 LeftSmaller PercCBExp1 Prime_1A Target_9N CfcgmFL BeMJbCI Incongruent left error Normal 1277.171
606 146 LeftSmaller PercCBExp1 Prime_4N Target_6N EmJFgjb DCHGgEa Incongruent right correct Normal 965.3438
606 147 LeftSmaller PercCBExp1 Prime_4N Target_4A KmDLIaM BIECjGc Congruent right error Normal 1272.42
606 148 LeftSmaller PercCBExp1 Prime_1A Target_1N EhJgAMB KAkBigI Congruent right error Normal 899.6911
606 149 LeftSmaller PercCBExp1 Prime_4N Target_1A jdKaMLC JClKFGE Congruent left correct Normal 1135.178
606 150 LeftSmaller PercCBExp1 Prime_4N Target_9A emMECHD FbBdCHi Incongruent left error Normal 551.5597
606 151 LeftSmaller PercCBExp1 Prime_6N Target_6N FGKmDdi fKkaeLh Congruent left correct Normal 550.5049
606 152 LeftSmaller PercCBExp1 Prime_6N Target_9A gkadGEb fDAEdIg Congruent left correct Normal 454.1128
606 153 LeftSmaller PercCBExp1 Prime_4N Target_1N lEAjLJi fFkDLgK Congruent left correct Normal 998.1414
606 154 LeftSmaller PercCBExp1 Prime_9N Target_9A MJlGhmj jIKGdcJ Congruent left correct Normal 467.5064
606 155 LeftSmaller PercCBExp1 Prime_6A Target_4A jIgECGa FILbfma Incongruent right correct Normal 620.0303
606 156 LeftSmaller PercCBExp1 Prime_6A Target_9N JMlIFjg iBkfclM Congruent left correct Normal 668.2189
606 157 LeftSmaller PercCBExp1 Prime_4N Target_9N kdCjAKF HJbjaMK Incongruent left error Normal 580.2708
606 158 LeftSmaller PercCBExp1 Prime_4A Target_9A JhgfHlB haEgfDb Incongruent right correct Normal 731.0347
606 159 LeftSmaller PercCBExp1 Prime_1N Target_6A ahgmMEi bGjdgJk Incongruent right correct Normal 1219.345
606 160 LeftSmaller PercCBExp1 Prime_1N Target_9A EebAGhg gBIaiKl Incongruent right correct Normal 968.0255
607 1 LeftSmaller PercCAPrac Prime_9A Target_4A dGgbJlI mGDLjbh Incongruent left error Normal 3433.224
607 2 LeftSmaller PercCAPrac Prime_6A Target_4N fJhMEGA eCHDmlc Incongruent right correct Normal 4114.943
607 3 LeftSmaller PercCAPrac Prime_6N Target_4N IhMjgHF Clagbmk Incongruent right correct Normal 2118.507
607 4 LeftSmaller PercCAPrac Prime_9A Target_1N FMJmClL fKHFcLk Incongruent right correct Normal 2718.878
607 5 LeftSmaller PercCAPrac Prime_4N Target_1N gcbAeJj CAIlHJe Congruent right error Normal 3621.313
607 6 LeftSmaller PercCAPrac Prime_9N Target_6A AgMaKGH JEcBfkm Congruent left correct Normal 1512.077
607 7 LeftSmaller PercCAPrac Prime_4A Target_1A cgAKfHB fkBDhGF Congruent right error Normal 4448.829
607 8 LeftSmaller PercCAPrac Prime_4A Target_4A HJahMjE jkdBaLH Congruent left correct Normal 3391.212
607 9 LeftSmaller PercCAPrac Prime_1N Target_6A GALkjdl FkmdDlM Incongruent left error Normal 2026.56
607 10 LeftSmaller PercCAPrac Prime_1N Target_4N gCGIMEF kDdjCbJ Congruent left correct Normal 2128.416
607 11 LeftSmaller PercCAPrac Prime_1A Target_9N bDHChkl LFkMdIh Incongruent left error Normal 4553.449
607 12 LeftSmaller PercCAPrac Prime_9N Target_4N djglGmF fmDMjKh Incongruent left error Normal 2304.623
607 13 LeftSmaller PercCAPrac Prime_9N Target_9A JchMajG JkmbABl Congruent right error Normal 2288
607 14 LeftSmaller PercCAPrac Prime_6N Target_6N MAkKlIG jlhmIMk Congruent left correct Normal 1391.187
607 15 LeftSmaller PercCAPrac Prime_4A Target_4N aCgMbid GKadHBm Congruent left correct Normal 4142.993
607 16 LeftSmaller PercCAPrac Prime_4N Target_4N flgDLMj HBMGAkK Congruent left correct Normal 4759.209
607 17 LeftSmaller PercCAExp1 Prime_6A Target_4A mLaEBGb Klcfaje Incongruent right correct Normal 2831.253
607 18 LeftSmaller PercCAExp1 Prime_1N Target_9N EeICjhl JehLgCk Incongruent left error Normal 2144.137
607 19 LeftSmaller PercCAExp1 Prime_9A Target_1N ceflKGD CDijfkd Incongruent right correct Normal 1671.716
607 20 LeftSmaller PercCAExp1 Prime_4N Target_6A adiBFHb GameEld Incongruent left error Normal 1771.274
607 21 LeftSmaller PercCAExp1 Prime_9N Target_1N CgMbcDf edkFCMl Incongruent right correct Normal 2073.193
607 22 LeftSmaller PercCAExp1 Prime_4N Target_4A bdJmjki DmFkiah Congruent left correct Normal 1996.268
607 23 LeftSmaller PercCAExp1 Prime_1A Target_9A MEfBhCe EJdlGhA Incongruent right correct Normal 3178.825
607 24 LeftSmaller PercCAExp1 Prime_4N Target_9N AeJihBI MdIhefC Incongruent left error Normal 3691.022
607 25 LeftSmaller PercCAExp1 Prime_4A Target_1A BjEgLGl HeFBLDg Congruent left correct Normal 4143.843
607 26 LeftSmaller PercCAExp1 Prime_4A Target_4A dlHJCaG aDmeKhC Congruent right error Normal 3968.26
607 27 LeftSmaller PercCAExp1 Prime_4N Target_1N KmJCkcb EmekLHI Congruent right error Normal 2043.855
607 28 LeftSmaller PercCAExp1 Prime_1N Target_1A fgjmkKA dFGAgjf Congruent right error Normal 2672.551
607 29 LeftSmaller PercCAExp1 Prime_6A Target_1N HmdEFAD jGgBehc Incongruent right correct Normal 2586.282
607 30 LeftSmaller PercCAExp1 Prime_1A Target_6A EeFjHBf GDCAJle Incongruent left error Normal 1338.213
607 31 LeftSmaller PercCAExp1 Prime_1A Target_4N CbDBEkc EIAfFgJ Congruent right error Late 5650.593
607 32 LeftSmaller PercCAExp1 Prime_1A Target_1A GdjfkAC FgjaJCK Congruent left correct Normal 2908.477
607 33 LeftSmaller PercCAExp1 Prime_1N Target_4A kKlCmAE AjIDbaM Congruent left correct Normal 2442.844
607 34 LeftSmaller PercCAExp1 Prime_1N Target_1N KBleMah fLIaDid Congruent right error Normal 3732.29
607 35 LeftSmaller PercCAExp1 Prime_9A Target_9A eiHlkFD idlMKGJ Congruent left correct Normal 2146.628
607 36 LeftSmaller PercCAExp1 Prime_1N Target_4N aIEHlbG ejFlhgE Congruent left correct Normal 4550.462
607 37 LeftSmaller PercCAExp1 Prime_4A Target_4N ahlDkGE cdLhAgi Congruent left correct Normal 4533.685
607 38 LeftSmaller PercCAExp1 Prime_6N Target_4N DkEAJah dmJabKE Incongruent right correct Normal 3023.924
607 39 LeftSmaller PercCAExp1 Prime_9A Target_6A LGBCchb iFIKMbA Congruent left correct Normal 4115.033
607 40 LeftSmaller PercCAExp1 Prime_6N Target_9N ahHBfJd fFglcHK Congruent left correct Normal 1138.631
607 41 LeftSmaller PercCAExp1 Prime_6A Target_9N aDhIMkC CdalBiA Congruent left correct Normal 1676.206
607 42 LeftSmaller PercCAExp1 Prime_4N Target_6N fgKGLBb dJCfFbg Incongruent left error Normal 1552.576
607 43 LeftSmaller PercCAExp1 Prime_9A Target_9N aEfFMbj lbIJCia Congruent left correct Normal 1521.398
607 44 LeftSmaller PercCAExp1 Prime_1N Target_6A dbhJgLe CeAEagL Incongruent left error Late 5092.222
607 45 LeftSmaller PercCAExp1 Prime_6N Target_6A kIKhBLi cKdHlbf Congruent right error Normal 1069.766
607 46 LeftSmaller PercCAExp1 Prime_9A Target_4N gMaFLIB GdCBHIj Incongruent right correct Normal 1617.95
607 47 LeftSmaller PercCAExp1 Prime_4A Target_1N aFDJjfE aEJbgHj Congruent left correct Normal 2794.108
607 48 LeftSmaller PercCAExp1 Prime_6A Target_9A alkFJdC JelaciE Congruent left correct Normal 3454.441
607 49 LeftSmaller PercCAExp1 Prime_4A Target_6N JILceKd cjdbaHh Incongruent right correct Normal 2555.794
607 50 LeftSmaller PercCAExp1 Prime_6A Target_1A MmCLAfB FdLclIf Incongruent right correct Late 5209.326
607 51 LeftSmaller PercCAExp1 Prime_9N Target_6A FMKhebi MDlAaCI Congruent left correct Normal 1370.761
607 52 LeftSmaller PercCAExp1 Prime_6A Target_4N baGMiBD jeBfGLc Incongruent left error Normal 2542.913
607 53 LeftSmaller PercCAExp1 Prime_9N Target_9N bEdlFIk adhmebB Congruent left correct Normal 4675.484
607 54 LeftSmaller PercCAExp1 Prime_9N Target_4N eKhckja kDCIALe Incongruent left error Normal 3778.204
607 55 LeftSmaller PercCAExp1 Prime_6A Target_6A gkKeifb emdfjlC Congruent left correct Normal 2823.965
607 56 LeftSmaller PercCAExp1 Prime_4N Target_9A CDaElfh MabhDem Incongruent left error Normal 1255.98
607 57 LeftSmaller PercCAExp1 Prime_4N Target_4N BbKmaLl hcLadGg Congruent left correct Normal 4453.082
607 58 LeftSmaller PercCAExp1 Prime_9A Target_6N DbcFMBI gKMhHCD Congruent left correct Normal 3579.338
607 59 LeftSmaller PercCAExp1 Prime_1A Target_9N AGlaDkE FAKibgE Incongruent right correct Normal 2187.825
607 60 LeftSmaller PercCAExp1 Prime_4N Target_1A dGMIhFA LhKfJAH Congruent right error Normal 2204.137
607 61 LeftSmaller PercCAExp1 Prime_6N Target_1A cDiLFdJ hciEHLj Incongruent right correct Normal 1100.851
607 62 LeftSmaller PercCAExp1 Prime_9N Target_6N jDHKliM KagMEjJ Congruent left correct Normal 1061.874
607 63 LeftSmaller PercCAExp1 Prime_6N Target_9A HceIiDm gDeaHlb Congruent left correct Normal 903.3249
607 64 LeftSmaller PercCAExp1 Prime_1N Target_9A gLEdlAC GDEmhFJ Incongruent left error Normal 1042.758
607 65 LeftSmaller PercCAExp1 Prime_6A Target_6N cGFmhfg HKGBEFb Congruent left correct Normal 1216.05
607 66 LeftSmaller PercCAExp1 Prime_1A Target_1N kJdfcLG cmEDKGg Congruent right error Normal 2630.097
607 67 LeftSmaller PercCAExp1 Prime_6N Target_6N GElAjDe ebdJBKk Congruent left correct Normal 1635.808
607 68 LeftSmaller PercCAExp1 Prime_4A Target_9A GkglJKb IGBEklb Incongruent left error Normal 1474.743
607 69 LeftSmaller PercCAExp1 Prime_9N Target_1A AhDBEfJ cjMefKh Incongruent right correct Normal 1761.053
607 70 LeftSmaller PercCAExp1 Prime_1N Target_6N HBmElgc EKCAeci Incongruent left error Normal 2517.627
607 71 LeftSmaller PercCAExp1 Prime_9N Target_9A cHGmJhL HGiFKmI Congruent left correct Normal 3884.032
607 72 LeftSmaller PercCAExp1 Prime_4A Target_9N lAKbeHc bkGFMaC Incongruent left error Normal 2942.021
607 73 LeftSmaller PercCAExp1 Prime_1A Target_6N MEAdbig JKCdDia Incongruent left error Normal 2049.941
607 74 LeftSmaller PercCAExp1 Prime_9A Target_1A EdCjeLB KhAlcJk Incongruent right correct Normal 3143.538
607 75 LeftSmaller PercCAExp1 Prime_6N Target_4A HBGcCkj cmaEijH Incongruent left error Normal 2407.39
607 76 LeftSmaller PercCAExp1 Prime_1A Target_4A iLbFEkG Lmlfdka Congruent left correct Normal 3744.897
607 77 LeftSmaller PercCAExp1 Prime_6N Target_1N iafBeDL BdLafiG Incongruent right correct Normal 1588.973
607 78 LeftSmaller PercCAExp1 Prime_4A Target_6A bKADEJF KLmfDGC Incongruent left error Normal 3638.99
607 79 LeftSmaller PercCAExp1 Prime_9N Target_4A dAfGkce KGhDCfk Incongruent right correct Normal 2176.093
607 80 LeftSmaller PercCAExp1 Prime_9A Target_4A DBiMJKl LbejcBH Incongruent left error Late 5156.9
607 81 LeftLarger PercCBPrac Prime_6N Target_1N GFcklMm JifCejh Incongruent left correct Normal 3340.335
607 82 LeftLarger PercCBPrac Prime_9N Target_9A GfEIDKJ HlLImke Congruent right correct Normal 1711.964
607 83 LeftLarger PercCBPrac Prime_9N Target_9N ambeICc iEBDgcH Congruent right correct Normal 1989.484
607 84 LeftLarger PercCBPrac Prime_9N Target_6N EglFbMG ebIcEjK Congruent right correct Normal 2137.793
607 85 LeftLarger PercCBPrac Prime_6A Target_1A LJFigfH egCGLHm Incongruent left correct Normal 2193.014
607 86 LeftLarger PercCBPrac Prime_1A Target_1A gjFeJEh eHBIEAK Congruent right correct Normal 4318.951
607 87 LeftLarger PercCBPrac Prime_6A Target_6N aCBFdEm KIfHJhB Congruent right correct Normal 2062.33
607 88 LeftLarger PercCBPrac Prime_6A Target_4N CkKdfMl aFLEAIl Incongruent left correct Normal 2105.821
607 89 LeftLarger PercCBPrac Prime_1N Target_9N EjCaiJb cHImAal Incongruent right error Late 5456.68
607 90 LeftLarger PercCBPrac Prime_1A Target_4N IaBjJHi JbLfDKe Congruent right correct Normal 2269.711
607 91 LeftLarger PercCBPrac Prime_6A Target_9A hjkiFMb hGeMafB Congruent right correct Normal 2637.799
607 92 LeftLarger PercCBPrac Prime_1N Target_4A cKHhLDl DhadibF Congruent right correct Normal 1780.146
607 93 LeftLarger PercCBPrac Prime_9N Target_4N LGAflKk fmLjIFa Incongruent left correct Normal 3424.032
607 94 LeftLarger PercCBPrac Prime_9A Target_6N iHJGIcm ILKkCAJ Congruent right correct Normal 3141.642
607 95 LeftLarger PercCBPrac Prime_6N Target_9A jHmIdAa eFmjIaG Congruent right correct Normal 1965.137
607 96 LeftLarger PercCBPrac Prime_4N Target_1A AkaMFHm KcgIDBd Congruent left error Normal 2131.887
607 97 LeftLarger PercCBExp1 Prime_1N Target_9N DjkIEhf CkdDjKa Incongruent right error Normal 3570.803
607 98 LeftLarger PercCBExp1 Prime_4N Target_4N EbgkFAB cKkiGah Congruent left error Normal 2088.53
607 99 LeftLarger PercCBExp1 Prime_4A Target_9N ILdFgEM CJlIHKa Incongruent right error Normal 1481.679
607 100 LeftLarger PercCBExp1 Prime_9N Target_4A ieKBjHm elaABDJ Incongruent left correct Normal 1482.858
607 101 LeftLarger PercCBExp1 Prime_4N Target_9N ciDABGg FcGmCiM Incongruent right error Normal 1657.477
607 102 LeftLarger PercCBExp1 Prime_9N Target_9A aFGCgKB ElFhdHJ Congruent right correct Normal 2232.779
607 103 LeftLarger PercCBExp1 Prime_9A Target_9A FGeAjdK MbelBFm Congruent left error Normal 980.0038
607 104 LeftLarger PercCBExp1 Prime_1A Target_9A JbDMdBl BJghciG Incongruent left correct Normal 1567.653
607 105 LeftLarger PercCBExp1 Prime_9A Target_6A CJcdAME BFJLMia Congruent right correct Normal 2131.331
607 106 LeftLarger PercCBExp1 Prime_9N Target_6N jfEBAec MlmCFcE Congruent right correct Normal 3207.495
607 107 LeftLarger PercCBExp1 Prime_6A Target_4A MkBfgGL HBbDMfC Incongruent left correct Normal 1745.389
607 108 LeftLarger PercCBExp1 Prime_6A Target_6N mMFelfa MlEKcGm Congruent right correct Normal 1788.037
607 109 LeftLarger PercCBExp1 Prime_1N Target_1N jaIKFDB FCgbBhd Congruent left error Normal 1692.631
607 110 LeftLarger PercCBExp1 Prime_1A Target_9N hKdbECH Hbmiakf Incongruent left correct Normal 2255.076
607 111 LeftLarger PercCBExp1 Prime_6A Target_1N aAGIjkc EFbBmDh Incongruent left correct Normal 2456.851
607 112 LeftLarger PercCBExp1 Prime_9N Target_9N IMAmCbL BFJHAkl Congruent right correct Normal 3855.357
607 113 LeftLarger PercCBExp1 Prime_1N Target_1A mAkieCB EBIDdLm Congruent left error Normal 1855.725
607 114 LeftLarger PercCBExp1 Prime_1N Target_6N EjgmHKb IAFJGHB Incongruent right error Normal 2641.241
607 115 LeftLarger PercCBExp1 Prime_4A Target_1N caAgIfC eaiCdBF Congruent left error Normal 1879.574
607 116 LeftLarger PercCBExp1 Prime_4N Target_9A HMCLbKB mBHgIFD Incongruent right error Normal 2137.52
607 117 LeftLarger PercCBExp1 Prime_6A Target_1A meiGFDg ALkDBJC Incongruent right error Normal 3693.571
607 118 LeftLarger PercCBExp1 Prime_6A Target_4N cKebhdE ALDgkjM Incongruent left correct Normal 1725.953
607 119 LeftLarger PercCBExp1 Prime_1N Target_4N daIHlmb dDBjGJg Congruent left error Normal 3259.536
607 120 LeftLarger PercCBExp1 Prime_4N Target_1A JaEkfCb KaJGgeA Congruent left error Normal 2118.486
607 121 LeftLarger PercCBExp1 Prime_6N Target_9N BJfbgFc HJMcBIi Congruent right correct Normal 2113.271
607 122 LeftLarger PercCBExp1 Prime_1A Target_1N MDACcLK AdhlbLG Congruent left error Normal 4889.677
607 123 LeftLarger PercCBExp1 Prime_9N Target_6A EhiHFaB jAmLBiG Congruent right correct Normal 2673.052
607 124 LeftLarger PercCBExp1 Prime_6A Target_6A jbEmkKJ DdCkbaG Congruent right correct Normal 2823.565
607 125 LeftLarger PercCBExp1 Prime_1A Target_6N IEAhaef JjHAIEM Incongruent left correct Normal 2348.877
607 126 LeftLarger PercCBExp1 Prime_9N Target_4N GLlahkj EflJibg Incongruent left correct Normal 2614.595
607 127 LeftLarger PercCBExp1 Prime_1A Target_6A GiHDjmB FMieGLa Incongruent right error Normal 2862.36
607 128 LeftLarger PercCBExp1 Prime_9A Target_1N BhKkime aHiICbj Incongruent left correct Normal 2880.383
607 129 LeftLarger PercCBExp1 Prime_4A Target_4N bmKIaFk MEFIJHh Congruent right correct Normal 4221.832
607 130 LeftLarger PercCBExp1 Prime_1N Target_9A AEaIhli FDmAEeG Incongruent left correct Normal 1920.352
607 131 LeftLarger PercCBExp1 Prime_9N Target_1A MimGhdb djHheFL Incongruent left correct Normal 2027.504
607 132 LeftLarger PercCBExp1 Prime_4A Target_1A AKfgIbJ mjCDEMK Congruent right correct Normal 3412.577
607 133 LeftLarger PercCBExp1 Prime_6N Target_4A fEdbAml GLAheJg Incongruent right error Normal 1288.935
607 134 LeftLarger PercCBExp1 Prime_1N Target_6A jkgabBM jalALIF Incongruent right error Normal 2437.123
607 135 LeftLarger PercCBExp1 Prime_4A Target_4A midFbcM cAGjMHm Congruent right correct Normal 2103.01
607 136 LeftLarger PercCBExp1 Prime_6A Target_9A eiHBaEj GKBjLCJ Congruent left error Normal 1204.77
607 137 LeftLarger PercCBExp1 Prime_1N Target_4A mFlbGhd ifGdEBe Congruent left error Normal 1719.8
607 138 LeftLarger PercCBExp1 Prime_9A Target_4N jdmAKaF dCbeHAI Incongruent left correct Normal 2081.992
607 139 LeftLarger PercCBExp1 Prime_1A Target_4A gbLEjKC ldbAkfK Congruent right correct Normal 2641.812
607 140 LeftLarger PercCBExp1 Prime_1A Target_1A kDbdjfG dJjcfKi Congruent right correct Normal 2573.426
607 141 LeftLarger PercCBExp1 Prime_6N Target_1A Igimlah dFiJDcI Incongruent left correct Normal 2138.229
607 142 LeftLarger PercCBExp1 Prime_6A Target_9N CADKJeG fFjheDA Congruent right correct Normal 3775.244
607 143 LeftLarger PercCBExp1 Prime_9A Target_4A afgAkBE EjClKgI Incongruent right error Normal 4639.112
607 144 LeftLarger PercCBExp1 Prime_4N Target_6N lfJLIHK IFaKlMk Incongruent right error Normal 1452.631
607 145 LeftLarger PercCBExp1 Prime_9A Target_6N aigBefI GdIBfFj Congruent right correct Normal 1313.698
607 146 LeftLarger PercCBExp1 Prime_9A Target_1A hdbGAaH mKdiFck Incongruent left correct Normal 1470.182
607 147 LeftLarger PercCBExp1 Prime_4A Target_6N dLJagjA EmLkbiD Incongruent right error Normal 2102.046
607 148 LeftLarger PercCBExp1 Prime_4N Target_4A bDfAkdl dGDAcJK Congruent right correct Normal 2637.096
607 149 LeftLarger PercCBExp1 Prime_4A Target_6A aehkDKJ LEMKdfb Incongruent right error Normal 1694.966
607 150 LeftLarger PercCBExp1 Prime_4N Target_6A DLBGeim mbCDHhI Incongruent left correct Normal 1866.44
607 151 LeftLarger PercCBExp1 Prime_6N Target_1N IHcfiLM gkhGBAb Incongruent left correct Normal 2235.332
607 152 LeftLarger PercCBExp1 Prime_9A Target_9N kaDbjlf hCGMFHI Congruent right correct Normal 1562.732
607 153 LeftLarger PercCBExp1 Prime_6N Target_9A FfIJkEb AjMaiBd Congruent right correct Normal 1847.44
607 154 LeftLarger PercCBExp1 Prime_4N Target_1N BMIkaEf AhlikcF Congruent right correct Normal 3843.639
607 155 LeftLarger PercCBExp1 Prime_6N Target_6N AbEmdKe KCidbIf Congruent right correct Normal 1674.532
607 156 LeftLarger PercCBExp1 Prime_1A Target_4N CdkgHmE hebECli Congruent left error Normal 1806.936
607 157 LeftLarger PercCBExp1 Prime_9N Target_1N jJmMfBK CDIakLB Incongruent left correct Normal 1780.009
