sub trial_no group_type block_type prime target mask1 mask2 congruency key_press key_error time_error RT
1 1 LeftSmaller RTTaskAPrac Prime_1N Target_4A FJGfCIA DimJeHF Congruent left correct Normal 728.8113
1 2 LeftSmaller RTTaskAPrac Prime_6N Target_4A eIfAmlb DHgbEGd Incongruent left correct Normal 468.7449
1 3 LeftSmaller RTTaskAPrac Prime_9N Target_9N DgHLJbc gMFjfkm Congruent right correct Normal 529.728
1 4 LeftSmaller RTTaskAPrac Prime_6N Target_1N LaGceAj hdiMklf Incongruent left correct Normal 497.4295
1 5 LeftSmaller RTTaskAPrac Prime_4A Target_6A BEaKblh egmEKCF Incongruent right correct Normal 587.8714
1 6 LeftSmaller RTTaskAPrac Prime_1N Target_6N BIHJMkE EfKeALG Incongruent right correct Normal 521.7247
1 7 LeftSmaller RTTaskAPrac Prime_1A Target_4A FeCbgEi dHgBiAK Congruent left correct Normal 526.2071
1 8 LeftSmaller RTTaskAPrac Prime_1N Target_1N gdcIaGj DLljaiJ Congruent left correct Normal 528.2769
1 9 LeftSmaller RTTaskAPrac Prime_6A Target_1A KIjhbEC lDjAgfG Incongruent left correct Normal 470.542
1 10 LeftSmaller RTTaskAPrac Prime_1A Target_9N jBDMIAi EFIbDMB Incongruent right correct Normal 573.5517
1 11 LeftSmaller RTTaskAPrac Prime_9A Target_6A LcKIBEi AEfCldH Congruent right correct Normal 608.7413
1 12 LeftSmaller RTTaskAPrac Prime_6N Target_1A mCKdcbL MdkJiBH Incongruent left correct Normal 554.7522
1 13 LeftSmaller RTTaskAPrac Prime_6N Target_9N kehIidb HKIakeh Congruent right correct Normal 605.3528
1 14 LeftSmaller RTTaskAPrac Prime_4N Target_1A dLmKJgF EiaLIBb Congruent left correct Normal 457.2442
1 15 LeftSmaller RTTaskAPrac Prime_1A Target_1A gcHAiKf FCJdlEa Congruent left correct Normal 498.5514
1 16 LeftSmaller RTTaskAPrac Prime_4N Target_1N MEKdgBJ lJhLaEj Congruent left correct Normal 477.9565
1 17 LeftSmaller RTTaskAExp1 Prime_6N Target_9N dKBjJiF beDMBHF Congruent right correct Normal 461.4602
1 18 LeftSmaller RTTaskAExp1 Prime_1N Target_9N IcEehKA gbLljAE Incongruent right correct Normal 496.8604
1 19 LeftSmaller RTTaskAExp1 Prime_9N Target_4N eCIbHJf gjKCBiD Incongruent left correct Normal 529.7699
1 20 LeftSmaller RTTaskAExp1 Prime_1A Target_4N EkJHhAM hKmDifb Congruent left correct Normal 530.5774
1 21 LeftSmaller RTTaskAExp1 Prime_6A Target_1A AKaMHek HEDadMj Incongruent left correct Normal 487.9789
1 22 LeftSmaller RTTaskAExp1 Prime_6A Target_4A JBdaHjg dJILKfC Incongruent left correct Normal 596.9863
1 23 LeftSmaller RTTaskAExp1 Prime_9A Target_4A LGCdMiA BJkKHcG Incongruent left correct Normal 443.7052
1 24 LeftSmaller RTTaskAExp1 Prime_9N Target_9A KAJdEFj IBDfbKJ Congruent right correct Normal 555.0677
1 25 LeftSmaller RTTaskAExp1 Prime_6A Target_4N dicLCIK HEhJadC Incongruent left correct Normal 652.4087
1 26 LeftSmaller RTTaskAExp1 Prime_1N Target_1A HAmEbFC gHmikJd Congruent left correct Normal 419.0864
1 27 LeftSmaller RTTaskAExp1 Prime_6A Target_6N KLdifEj ImalhJf Congruent right correct Normal 586.3698
1 28 LeftSmaller RTTaskAExp1 Prime_6A Target_6A HieJFmI dKAiFbh Congruent right correct Normal 426.557
1 29 LeftSmaller RTTaskAExp1 Prime_1N Target_6N cKCEgJb jDaBhFA Incongruent right correct Normal 426.181
1 30 LeftSmaller RTTaskAExp1 Prime_4A Target_6A AfmjabJ DLhCkgf Incongruent right correct Normal 424.2079
1 31 LeftSmaller RTTaskAExp1 Prime_9A Target_1N lkhKbdB KciLFfD Incongruent left correct Normal 690.7789
1 32 LeftSmaller RTTaskAExp1 Prime_9N Target_6A ajJCekf aGMgCiL Congruent right correct Normal 586.33
1 33 LeftSmaller RTTaskAExp1 Prime_4N Target_6N hfDlEBA cjBeEHA Incongruent right correct Normal 421.4871
1 34 LeftSmaller RTTaskAExp1 Prime_1A Target_9A kaAbKhE kacelJE Incongruent right correct Normal 581.293
1 35 LeftSmaller RTTaskAExp1 Prime_6N Target_4A FJDKIhb baMemIK Incongruent left correct Normal 711.3318
1 36 LeftSmaller RTTaskAExp1 Prime_9A Target_1A eAmkKEF iHlEgbd Incongruent left correct Normal 604.2206
1 37 LeftSmaller RTTaskAExp1 Prime_9N Target_1N AHhJaiM jaDELhd Incongruent left correct Normal 512.815
1 38 LeftSmaller RTTaskAExp1 Prime_9N Target_4A eDdMAif MhfFgEL Incongruent left correct Normal 510.0054
1 39 LeftSmaller RTTaskAExp1 Prime_9N Target_9N djmCfhA kaGBbCi Congruent right correct Normal 466.0204
1 40 LeftSmaller RTTaskAExp1 Prime_6N Target_1A EgJeGlD GLeKbfA Incongruent left correct Normal 454.5591
1 41 LeftSmaller RTTaskAExp1 Prime_4A Target_9N BICkehj JEiajcm Incongruent right correct Normal 510.7168
1 42 LeftSmaller RTTaskAExp1 Prime_6N Target_9A gAHbmch KFHLBGa Congruent right correct Normal 430.633
1 43 LeftSmaller RTTaskAExp1 Prime_6N Target_6N lhiHAID KJchebD Congruent right correct Normal 646.802
1 44 LeftSmaller RTTaskAExp1 Prime_1A Target_1A FMJmHCg fcEDCeF Congruent left correct Normal 465.7957
1 45 LeftSmaller RTTaskAExp1 Prime_4N Target_4N MmFlKaD fjcGIFE Congruent right error Normal 739.5866
1 46 LeftSmaller RTTaskAExp1 Prime_1N Target_4A MjkAhgH akBLcdJ Congruent left correct Normal 546.3075
1 47 LeftSmaller RTTaskAExp1 Prime_1A Target_6A bhFcedG imKjaAI Incongruent right correct Normal 594.9884
1 48 LeftSmaller RTTaskAExp1 Prime_1N Target_9A mFJCiKj fmIHgjd Incongruent right correct Normal 501.655
1 49 LeftSmaller RTTaskAExp1 Prime_4A Target_4N CFMljea BADILbc Congruent left correct Normal 668.3248
1 50 LeftSmaller RTTaskAExp1 Prime_1A Target_9N jkJIEKM EjGDBMd Incongruent right correct Normal 724.3798
1 51 LeftSmaller RTTaskAExp1 Prime_9A Target_6A hgKMdec FgbeHLJ Congruent right correct Normal 585.4112
1 52 LeftSmaller RTTaskAExp1 Prime_4A Target_1A ihGHeCI KcMlgdE Congruent left correct Normal 489.6024
1 53 LeftSmaller RTTaskAExp1 Prime_1A Target_1N EMjfiLh lJBFfDK Congruent left correct Normal 445.3468
1 54 LeftSmaller RTTaskAExp1 Prime_4A Target_6N KFdaEAH AIDHhKJ Incongruent right correct Normal 499.1259
1 55 LeftSmaller RTTaskAExp1 Prime_4A Target_9A ElGgbJe beAIJMi Incongruent right correct Normal 602.5928
1 56 LeftSmaller RTTaskAExp1 Prime_1N Target_4N cILeBiK bmFHjaM Congruent left correct Normal 558.6292
1 57 LeftSmaller RTTaskAExp1 Prime_4N Target_1N GlBhJHK JjKIHCc Congruent left correct Normal 610.6704
1 58 LeftSmaller RTTaskAExp1 Prime_9A Target_4N jeIJMBK FAiIcGH Incongruent left correct Normal 725.8474
1 59 LeftSmaller RTTaskAExp1 Prime_4N Target_6A kflgAaC mEGclAJ Incongruent right correct Normal 463.2549
1 60 LeftSmaller RTTaskAExp1 Prime_1N Target_1N kMJLcmd BdhlAcH Congruent left correct Normal 472.9636
1 61 LeftSmaller RTTaskAExp1 Prime_6A Target_9N ikIKDcm EbjLKFa Congruent right correct Normal 541.4889
1 62 LeftSmaller RTTaskAExp1 Prime_9N Target_1A ehLmFkD mdDAIFC Incongruent left correct Normal 478.5233
1 63 LeftSmaller RTTaskAExp1 Prime_1N Target_6A mIjEgJa FDfdMcl Incongruent right correct Normal 500.2929
1 64 LeftSmaller RTTaskAExp1 Prime_9A Target_9N fKkDmce LJFIKil Congruent right correct Normal 538.9807
1 65 LeftSmaller RTTaskAExp1 Prime_6A Target_1N LheAmak gejAmbI Incongruent left correct Normal 568.3901
1 66 LeftSmaller RTTaskAExp1 Prime_4N Target_9N FHdmkBG ifDBjhK Incongruent right correct Normal 577.3171
1 67 LeftSmaller RTTaskAExp1 Prime_4N Target_4N agGHBeE FHfAhEB Congruent left correct Normal 687.7208
1 68 LeftSmaller RTTaskAExp1 Prime_6A Target_9A aKbkieB McImbHA Congruent right correct Normal 433.1244
1 69 LeftSmaller RTTaskAExp1 Prime_1A Target_4A lGdBAcE hkMEcgL Congruent left correct Normal 535.5049
1 70 LeftSmaller RTTaskAExp1 Prime_6N Target_1N cEBkFMh cgiheIF Incongruent left correct Normal 526.9866
1 71 LeftSmaller RTTaskAExp1 Prime_4A Target_4A GhejFki lICaeiL Congruent left correct Normal 549.958
1 72 LeftSmaller RTTaskAExp1 Prime_4N Target_1A IhcFijC ickBCjF Congruent left correct Normal 497.3337
1 73 LeftSmaller RTTaskAExp1 Prime_1A Target_6N cLidCAm LhKijlG Incongruent right correct Normal 559.6399
1 74 LeftSmaller RTTaskAExp1 Prime_4N Target_9A ADBeKFH mjheKfB Incongruent right correct Normal 467.2044
1 75 LeftSmaller RTTaskAExp1 Prime_9A Target_9A efkLAGB bkIcMhi Congruent right correct Normal 410.0401
1 76 LeftSmaller RTTaskAExp1 Prime_4A Target_1N jFfgdKb meCdHhc Congruent left correct Normal 539.6276
1 77 LeftSmaller RTTaskAExp1 Prime_6N Target_6A gJLcBmi mjDbCdi Congruent right correct Normal 501.5141
1 78 LeftSmaller RTTaskAExp1 Prime_6N Target_4N GiKICdH MglaLDm Incongruent left correct Normal 643.1868
1 79 LeftSmaller RTTaskAExp1 Prime_9A Target_6N dfcHjhB MlAjLma Congruent right correct Normal 592.6235
1 80 LeftSmaller RTTaskAExp1 Prime_9N Target_6N Cibkedl KJkmbAD Congruent right correct Normal 724.7804
1 81 LeftSmaller RTTaskAExp1 Prime_4N Target_4A diIHjLC hFgEbkB Congruent left correct Normal 334.2072
1 82 LeftSmaller RTTaskAExp2 Prime_4A Target_6A KIJmeLk Abkjlem Incongruent right correct Normal 928.886
1 83 LeftSmaller RTTaskAExp2 Prime_4N Target_1N aMKGcCk KikhLGC Congruent left correct Normal 466.2168
1 84 LeftSmaller RTTaskAExp2 Prime_4N Target_6N hkFKijH iKJGfIE Incongruent right correct Normal 594.4704
1 85 LeftSmaller RTTaskAExp2 Prime_1N Target_1N eImALMH mMagFIk Congruent left correct Normal 429.2883
1 86 LeftSmaller RTTaskAExp2 Prime_6A Target_1A LCihljc FcmkEdC Incongruent left correct Normal 488.5904
1 87 LeftSmaller RTTaskAExp2 Prime_6A Target_4N kHDidMc iMmBaLE Incongruent right error Normal 359.7251
1 88 LeftSmaller RTTaskAExp2 Prime_1A Target_1N JhgmKcf kHIDjBE Congruent left correct Normal 428.547
1 89 LeftSmaller RTTaskAExp2 Prime_9A Target_1A iAhcbkd ablcGML Incongruent left correct Normal 437.341
1 90 LeftSmaller RTTaskAExp2 Prime_9N Target_9N jCJEFfL cFGDeCM Congruent right correct Normal 546.2615
1 91 LeftSmaller RTTaskAExp2 Prime_1N Target_6N FJcDgBd BebkajJ Incongruent right correct Normal 644.8278
1 92 LeftSmaller RTTaskAExp2 Prime_1A Target_9A cJLlMaI gHhCjdJ Incongruent right correct Normal 488.0504
1 93 LeftSmaller RTTaskAExp2 Prime_6A Target_4A fLDihAc aLmMDih Incongruent left correct Normal 488.6599
1 94 LeftSmaller RTTaskAExp2 Prime_4N Target_1A jaGdEMF AGcFjEK Congruent left correct Normal 514.0625
1 95 LeftSmaller RTTaskAExp2 Prime_9A Target_6A iCgJDMa HiMBjeK Congruent right correct Normal 647.9669
1 96 LeftSmaller RTTaskAExp2 Prime_9N Target_1N GmgIbdf CdbDAeG Incongruent left correct Normal 492.6427
1 97 LeftSmaller RTTaskAExp2 Prime_6N Target_4A cjAaIlm ihaHCBc Incongruent left correct Normal 798.8089
1 98 LeftSmaller RTTaskAExp2 Prime_6N Target_6N hGlefkb HjhKeGf Congruent right correct Normal 555.596
1 99 LeftSmaller RTTaskAExp2 Prime_4N Target_9N KFGLMeE gBhlaEH Incongruent right correct Normal 767.1695
1 100 LeftSmaller RTTaskAExp2 Prime_1A Target_6A CmMkabB kLEdCHb Incongruent right correct Normal 577.542
1 101 LeftSmaller RTTaskAExp2 Prime_9A Target_6N GfHelKM LcJiBCG Congruent right correct Normal 464.3824
1 102 LeftSmaller RTTaskAExp2 Prime_4A Target_4N FdDJBjl KLajBdD Congruent left correct Normal 550.1357
1 103 LeftSmaller RTTaskAExp2 Prime_6A Target_1N LlJFEji HKjchdE Incongruent left correct Normal 536.0772
1 104 LeftSmaller RTTaskAExp2 Prime_4N Target_4N HKiahMA eImEjGC Congruent left correct Normal 567.7495
1 105 LeftSmaller RTTaskAExp2 Prime_9A Target_4N eKEBika ICclFba Incongruent left correct Normal 653.1758
1 106 LeftSmaller RTTaskAExp2 Prime_4A Target_9N GJEmidI LgjaMdC Incongruent right correct Normal 512.4465
1 107 LeftSmaller RTTaskAExp2 Prime_4N Target_9A aFEeGKl cKAiCFG Incongruent right correct Normal 454.9826
1 108 LeftSmaller RTTaskAExp2 Prime_1N Target_6A kMKbFiE lCJcEgH Incongruent right correct Normal 625.3103
1 109 LeftSmaller RTTaskAExp2 Prime_1A Target_9N fAkcibJ jcFMCgK Incongruent right correct Normal 453.1737
1 110 LeftSmaller RTTaskAExp2 Prime_6N Target_9A hecDBdG HlgIiAm Congruent right correct Normal 440.0218
1 111 LeftSmaller RTTaskAExp2 Prime_9A Target_9N FkHhJBc LefIFHA Congruent right correct Normal 446.7981
1 112 LeftSmaller RTTaskAExp2 Prime_9N Target_9A JCkhEac GHDlEgh Congruent right correct Normal 383.205
1 113 LeftSmaller RTTaskAExp2 Prime_6A Target_6A dKCMeJi aLMDjcH Congruent right correct Normal 542.2766
1 114 LeftSmaller RTTaskAExp2 Prime_1A Target_4A CDjaBFm gkFhDmL Congruent left correct Normal 507.9215
1 115 LeftSmaller RTTaskAExp2 Prime_4N Target_6A gmkKcHj hAMgHdB Incongruent right correct Normal 584.0791
1 116 LeftSmaller RTTaskAExp2 Prime_6A Target_4N MAGECga MdkmBEg Incongruent left correct Normal 626.2509
1 117 LeftSmaller RTTaskAExp2 Prime_6N Target_6A eKFGmiL ELMDifC Congruent right correct Normal 794.0604
1 118 LeftSmaller RTTaskAExp2 Prime_9A Target_4A CjFbfhc cgfGjHD Incongruent left correct Normal 571.9672
1 119 LeftSmaller RTTaskAExp2 Prime_9A Target_1N KBCHEem MCAdBFI Incongruent left correct Normal 672.3983
1 120 LeftSmaller RTTaskAExp2 Prime_4A Target_6N mIGiald dJIfjEm Incongruent right correct Normal 514.8099
1 121 LeftSmaller RTTaskAExp2 Prime_1A Target_4N kFaflmA jLFhHfm Congruent left correct Normal 547.5471
1 122 LeftSmaller RTTaskAExp2 Prime_6N Target_1A JdebmFB lDgcFIL Incongruent right error Normal 715.9041
1 123 LeftSmaller RTTaskAExp2 Prime_6A Target_6N ldiaJBC aJeIBjD Congruent right correct Normal 534.5842
1 124 LeftSmaller RTTaskAExp2 Prime_6A Target_9N IjikaBm aFicMCA Congruent right correct Normal 534.5122
1 125 LeftSmaller RTTaskAExp2 Prime_9A Target_9A JCficGd FlGbCAB Congruent right correct Normal 403.9363
1 126 LeftSmaller RTTaskAExp2 Prime_4A Target_1N CdKJDfc MahjBGl Congruent left correct Normal 484.3575
1 127 LeftSmaller RTTaskAExp2 Prime_9N Target_6N DgLKAke fCLdgEI Congruent right correct Normal 598.3763
1 128 LeftSmaller RTTaskAExp2 Prime_1A Target_1A deLGHfJ mGdEIHA Congruent left correct Normal 441.3368
1 129 LeftSmaller RTTaskAExp2 Prime_1N Target_9N bGikBeM BAemKdh Incongruent right correct Normal 423.0504
1 130 LeftSmaller RTTaskAExp2 Prime_1N Target_1A MijJkFe ChIjdHc Congruent left correct Normal 423.236
1 131 LeftSmaller RTTaskAExp2 Prime_1N Target_9A IMFBDGJ MJfiCBm Incongruent right correct Normal 408.277
1 132 LeftSmaller RTTaskAExp2 Prime_6N Target_9N IhAFlgd aChklgJ Congruent right correct Normal 579.2397
1 133 LeftSmaller RTTaskAExp2 Prime_4A Target_4A LMbfiCh iLflJGB Congruent left correct Normal 594.1479
1 134 LeftSmaller RTTaskAExp2 Prime_4A Target_9A BFcmEAD CKFHIfm Incongruent right correct Normal 463.0509
1 135 LeftSmaller RTTaskAExp2 Prime_1N Target_4A mIGfbjd HjImMhJ Congruent left correct Normal 660.0196
1 136 LeftSmaller RTTaskAExp2 Prime_1N Target_4N jGhbgKc EIFGkgC Congruent left correct Normal 464.6476
1 137 LeftSmaller RTTaskAExp2 Prime_6N Target_4N ChEmJda lBMhLie Incongruent left correct Normal 503.6908
1 138 LeftSmaller RTTaskAExp2 Prime_9N Target_4A ClBgMaJ aLfbEle Incongruent left correct Normal 412.6925
1 139 LeftSmaller RTTaskAExp2 Prime_9N Target_1A fbElGHC BDdlhiF Incongruent left correct Normal 439.6026
1 140 LeftSmaller RTTaskAExp2 Prime_6A Target_9A fGFKmHg kagfKeI Congruent right correct Normal 458.0229
1 141 LeftSmaller RTTaskAExp2 Prime_9N Target_6A CiELgeD IHaBEgG Congruent right correct Normal 571.2338
1 142 LeftSmaller RTTaskAExp2 Prime_6N Target_1A KLkbdaC giIABbH Incongruent left correct Normal 471.3979
1 143 LeftSmaller RTTaskAExp2 Prime_6N Target_1N dmLBHlC mBDLHEJ Incongruent left correct Normal 511.3981
1 144 LeftSmaller RTTaskAExp2 Prime_1A Target_6N KCAdmDa JAEHcaC Incongruent right correct Normal 670.8617
1 145 LeftSmaller RTTaskAExp2 Prime_9N Target_4N AKackiM CfJekLB Incongruent left correct Normal 552.29
1 146 LeftSmaller RTTaskAExp2 Prime_4A Target_1A dLKhcMk EckIAKC Congruent left correct Normal 591.3161
1 147 LeftSmaller RTTaskAExp2 Prime_4N Target_4A glBIdAk lcCLjeI Congruent left correct Normal 661.6325
1 148 LeftLarger RTTaskBPrac Prime_6A Target_6A miLEeAg CcJakAb Congruent left correct Normal 688.9176
1 149 LeftLarger RTTaskBPrac Prime_6A Target_9N ILmghil JjFaAID Congruent left correct Normal 530.2913
1 150 LeftLarger RTTaskBPrac Prime_6N Target_1A HkKahel jikfClL Incongruent right correct Normal 493.1128
1 151 LeftLarger RTTaskBPrac Prime_1N Target_9N FHIDCgb GamMdil Incongruent left correct Normal 470.9381
1 152 LeftLarger RTTaskBPrac Prime_6N Target_9N hEjBgaD dcJHGmC Congruent left correct Normal 494.7901
1 153 LeftLarger RTTaskBPrac Prime_9A Target_1N AbCikgl fiKdlGC Incongruent right correct Normal 547.9547
1 154 LeftLarger RTTaskBPrac Prime_6N Target_1N CAKdHEe KJmhkab Incongruent right correct Normal 541.8957
1 155 LeftLarger RTTaskBPrac Prime_6A Target_1A kalhMij MIDbdjG Incongruent right correct Normal 649.766
1 156 LeftLarger RTTaskBPrac Prime_4N Target_4N CjhGaMg dKceEHA Congruent right correct Normal 628.9615
1 157 LeftLarger RTTaskBPrac Prime_1N Target_6A EMjCGAD gGIDbLK Incongruent left correct Normal 690.6439
1 158 LeftLarger RTTaskBPrac Prime_6N Target_4A Hmkgcbf hbEKjLa Incongruent right correct Normal 515.69
1 159 LeftLarger RTTaskBPrac Prime_9N Target_1N JjhbKmM FAGBJcI Incongruent right correct Normal 434.8629
1 160 LeftLarger RTTaskBPrac Prime_9N Target_4A MJfFlmd DaGAgdf Incongruent left error Normal 477.0388
1 161 LeftLarger RTTaskBPrac Prime_9N Target_4A EiGFgLd JdDMABi Incongruent right correct Normal 501.0767
1 162 LeftLarger RTTaskBPrac Prime_6A Target_1N HjlAGhD IdgmlHJ Incongruent right correct Normal 565.5031
1 163 LeftLarger RTTaskBPrac Prime_1A Target_9N CjkifEK AcIEakm Incongruent left correct Normal 488.2963
1 164 LeftLarger RTTaskBPrac Prime_4N Target_6N ICidLbD BDEGdiC Incongruent right error Normal 671.4445
1 165 LeftLarger RTTaskBPrac Prime_4N Target_6N LBmbkei kHbGLlf Incongruent left correct Normal 781.4023
1 166 LeftLarger RTTaskBExp1 Prime_9N Target_1A EKgMajL fbGmKMJ Incongruent right correct Normal 719.872
1 167 LeftLarger RTTaskBExp1 Prime_9N Target_9A hKlEbDG EbLdMcg Congruent left correct Normal 630.5845
1 168 LeftLarger RTTaskBExp1 Prime_6N Target_6N FafKHhB ACmMkaK Congruent left correct Normal 669.2167
1 169 LeftLarger RTTaskBExp1 Prime_4N Target_4A Ejfkelh iegfGJC Congruent right correct Normal 809.3715
1 170 LeftLarger RTTaskBExp1 Prime_1N Target_9A DLicjGk gdGbjBm Incongruent left correct Normal 500.2213
1 171 LeftLarger RTTaskBExp1 Prime_9A Target_4N BLagKHC dJBhkHM Incongruent right correct Normal 464.397
1 172 LeftLarger RTTaskBExp1 Prime_1A Target_6A iLkjlBG ikCAIfm Incongruent left correct Normal 592.0233
1 173 LeftLarger RTTaskBExp1 Prime_9N Target_1N fCAiHja KkBLhcM Incongruent right correct Normal 505.199
1 174 LeftLarger RTTaskBExp1 Prime_6A Target_1N ACdcgHE LKCfGIe Incongruent right correct Normal 481.3927
1 175 LeftLarger RTTaskBExp1 Prime_4A Target_9N CBdHlIg hMfJbDG Incongruent left correct Normal 592.7015
1 176 LeftLarger RTTaskBExp1 Prime_6N Target_1N cCbGBjF dajkFHb Incongruent right correct Normal 494.1071
1 177 LeftLarger RTTaskBExp1 Prime_9N Target_4A amdlebH FkLJbhc Incongruent left error Normal 472.5185
1 178 LeftLarger RTTaskBExp1 Prime_1N Target_1N ChFDcjk dJjAmfc Congruent right correct Normal 642.958
1 179 LeftLarger RTTaskBExp1 Prime_9A Target_1A fCKDkHG dJlaBKI Incongruent right correct Normal 396.0132
1 180 LeftLarger RTTaskBExp1 Prime_6N Target_9N bfkamlc aIDBMgc Congruent left correct Normal 479.7853
1 181 LeftLarger RTTaskBExp1 Prime_4A Target_6N CFjDKJf HjlEcGa Incongruent left correct Normal 941.972
1 182 LeftLarger RTTaskBExp1 Prime_9A Target_1N LMblchI lKfIFAi Incongruent right correct Normal 604.0227
1 183 LeftLarger RTTaskBExp1 Prime_1N Target_4N iJCbMHB LKDgiGe Congruent right correct Late 1038.682
1 184 LeftLarger RTTaskBExp1 Prime_9A Target_4A FGiJkIK EkjbCdA Incongruent right correct Normal 407.7838
1 185 LeftLarger RTTaskBExp1 Prime_6A Target_9A jadfmIi AdiFbaK Congruent left correct Normal 421.8008
1 186 LeftLarger RTTaskBExp1 Prime_1N Target_4N glDbfiH FBcIiaE Congruent right correct Normal 367.22
1 187 LeftLarger RTTaskBExp1 Prime_6A Target_4N bGgDBAE cMlDdbL Incongruent right correct Normal 432.2753
1 188 LeftLarger RTTaskBExp1 Prime_4N Target_6N CAldfja dgjCeBc Incongruent left correct Normal 462.3026
1 189 LeftLarger RTTaskBExp1 Prime_1A Target_4A FJbDeiM AFiHemb Congruent right correct Normal 455.0696
1 190 LeftLarger RTTaskBExp1 Prime_9A Target_9N bLdGlHI cgaKLjH Congruent left correct Normal 487.6346
1 191 LeftLarger RTTaskBExp1 Prime_4A Target_1A MajdDEL ECGFhLJ Congruent right correct Normal 454.0565
1 192 LeftLarger RTTaskBExp1 Prime_1N Target_6N galEJDe cEjdBCg Incongruent left correct Normal 631.9633
1 193 LeftLarger RTTaskBExp1 Prime_9A Target_6N gEJbKhf iEGhJKl Congruent left correct Normal 390.0359
1 194 LeftLarger RTTaskBExp1 Prime_6A Target_4A fmBFekE KbEaliM Incongruent right correct Normal 572.8064
1 195 LeftLarger RTTaskBExp1 Prime_1N Target_4A AeikImH AIGCJik Congruent right correct Normal 439.8494
1 196 LeftLarger RTTaskBExp1 Prime_4A Target_4A EBhfjJk dBkMGIC Congruent right correct Normal 399.0354
1 197 LeftLarger RTTaskBExp1 Prime_1A Target_9N dcCgiMh CkMKmhi Incongruent left correct Normal 585.3302
1 198 LeftLarger RTTaskBExp1 Prime_1A Target_4N hCIdJbc CKbGdJm Congruent right correct Normal 457.2271
1 199 LeftLarger RTTaskBExp1 Prime_9A Target_6A BbCIgEd hGFaieH Congruent left correct Normal 481.9432
1 200 LeftLarger RTTaskBExp1 Prime_9N Target_6A dlfgcLD ejEFHAD Congruent left correct Normal 647.8219
1 201 LeftLarger RTTaskBExp1 Prime_4N Target_9N LjBMlEJ KIcEjkG Incongruent left correct Normal 547.4459
1 202 LeftLarger RTTaskBExp1 Prime_4A Target_6A lgdiCbJ iCJmLjc Incongruent left correct Normal 440.7866
1 203 LeftLarger RTTaskBExp1 Prime_1N Target_6A AMbiekH mEcKlJj Incongruent left correct Normal 388.4486
1 204 LeftLarger RTTaskBExp1 Prime_6N Target_1A LCEjdlF akmBbcj Incongruent right correct Normal 435.8161
1 205 LeftLarger RTTaskBExp1 Prime_9N Target_6N lEkKmeB CiEMGlB Congruent left correct Normal 421.2918
1 206 LeftLarger RTTaskBExp1 Prime_4N Target_6A JEKcImH hHJIlaC Incongruent left correct Normal 506.3053
1 207 LeftLarger RTTaskBExp1 Prime_6A Target_1A FCILMak LmJgCFI Incongruent right correct Normal 522.2796
1 208 LeftLarger RTTaskBExp1 Prime_6N Target_4N HmCGKci afdMIAe Incongruent left error Normal 399.7888
1 209 LeftLarger RTTaskBExp1 Prime_9N Target_9N fLIlKhM hkHKlLm Congruent left correct Normal 543.8034
1 210 LeftLarger RTTaskBExp1 Prime_1A Target_6N ligMGKB daKiJLk Incongruent left correct Normal 419.5571
1 211 LeftLarger RTTaskBExp1 Prime_4N Target_9A giCBEeb KIAmJah Incongruent left correct Normal 450.1047
1 212 LeftLarger RTTaskBExp1 Prime_4N Target_1N dMaEbkA MKfAGdC Congruent right correct Normal 542.5933
1 213 LeftLarger RTTaskBExp1 Prime_1A Target_1N FMcfdgD DlhkAid Congruent right correct Normal 459.9036
1 214 LeftLarger RTTaskBExp1 Prime_1A Target_9A jlHhdFb HDCfFJh Incongruent left correct Normal 333.3126
1 215 LeftLarger RTTaskBExp1 Prime_1N Target_1A MLiljCH gchGlHk Congruent right correct Normal 431.9671
1 216 LeftLarger RTTaskBExp1 Prime_6N Target_4N hFLkegj MjkIAGa Incongruent left error Normal 511.0998
1 217 LeftLarger RTTaskBExp1 Prime_4A Target_4N HgFCcma aeGFMlf Congruent right correct Normal 661.3218
1 218 LeftLarger RTTaskBExp1 Prime_6A Target_9N BJMIhCm geLEAcK Congruent left correct Normal 654.4047
1 219 LeftLarger RTTaskBExp1 Prime_6A Target_6N kfdHBEF cLgFlGA Congruent right error Normal 415.7822
1 220 LeftLarger RTTaskBExp1 Prime_4N Target_1A JEecCib EIiKkFg Congruent right correct Normal 442.3672
1 221 LeftLarger RTTaskBExp1 Prime_6A Target_6A bkGKcCe ghkcjea Congruent left correct Normal 432.9015
1 222 LeftLarger RTTaskBExp1 Prime_4N Target_4N LljFbaK aLkBlfK Congruent right correct Normal 593.6949
1 223 LeftLarger RTTaskBExp1 Prime_9A Target_9A LgBCJDk MdmKecl Congruent left correct Normal 518.8815
1 224 LeftLarger RTTaskBExp1 Prime_6N Target_4A kCAlMEf DeCaBGb Incongruent right correct Normal 514.2791
1 225 LeftLarger RTTaskBExp1 Prime_1N Target_9N CgJMiFj chiLHMe Incongruent left correct Normal 522.5756
1 226 LeftLarger RTTaskBExp1 Prime_1A Target_1A GLKjBem HJGglKE Congruent right correct Normal 436.0997
1 227 LeftLarger RTTaskBExp1 Prime_6A Target_6N dhJHEcj bKlHGFD Congruent left correct Normal 433.5436
1 228 LeftLarger RTTaskBExp1 Prime_6N Target_4N LFjCAJg IdGJAmK Incongruent left error Normal 471.4513
1 229 LeftLarger RTTaskBExp1 Prime_6N Target_9A mfMLiIb EJFAfia Congruent left correct Normal 475.6825
1 230 LeftLarger RTTaskBExp1 Prime_9N Target_4A IDbaKdF HcmKJeG Incongruent right correct Normal 426.6979
1 231 LeftLarger RTTaskBExp1 Prime_9N Target_4N Badgbcm IAFjiJL Incongruent right correct Normal 457.9602
1 232 LeftLarger RTTaskBExp1 Prime_6N Target_4N EfDBmci EbDhAfH Incongruent right correct Normal 368.6638
1 233 LeftLarger RTTaskBExp1 Prime_6N Target_6A hMkLcfj mHgGcIA Congruent left correct Normal 494.06
1 234 LeftLarger RTTaskBExp1 Prime_4A Target_9A LKbBgkl faFhMCK Incongruent left correct Normal 502.4217
1 235 LeftLarger RTTaskBExp1 Prime_4A Target_1N KBJdCam AgFDeIk Congruent right correct Normal 498.277
1 236 LeftLarger RTTaskBExp2 Prime_1N Target_9N IBdAfjb CGFhIAB Incongruent left correct Normal 646.4408
1 237 LeftLarger RTTaskBExp2 Prime_1N Target_1A bEemaIf EGkLjAi Congruent right correct Normal 408.8777
1 238 LeftLarger RTTaskBExp2 Prime_6N Target_6N fcLJgiM BKeGakA Congruent left correct Normal 845.9303
1 239 LeftLarger RTTaskBExp2 Prime_4N Target_6A JMmkKId cGjEdhH Incongruent left correct Normal 481.1095
1 240 LeftLarger RTTaskBExp2 Prime_1N Target_4A EGedjHm iAlgJEF Congruent right correct Normal 432.0078
1 241 LeftLarger RTTaskBExp2 Prime_9A Target_4A DdkBFim idbmhHM Incongruent right correct Normal 500.8182
1 242 LeftLarger RTTaskBExp2 Prime_6N Target_4A BGIfDJH DkjHhKi Incongruent right correct Normal 428.8282
1 243 LeftLarger RTTaskBExp2 Prime_6A Target_9A KmGJifk HFfgjmE Congruent left correct Normal 561.3718
1 244 LeftLarger RTTaskBExp2 Prime_1N Target_6N MIkLFCb gHbIicd Incongruent left correct Normal 627.054
1 245 LeftLarger RTTaskBExp2 Prime_1A Target_4N hjgmAlK kBigDbm Congruent right correct Normal 464.4992
1 246 LeftLarger RTTaskBExp2 Prime_6A Target_4N AImCcie DdeGiIM Incongruent right correct Normal 516.3947
1 247 LeftLarger RTTaskBExp2 Prime_1N Target_1N IgHLBiF CHGdLjB Congruent right correct Normal 436.4483
1 248 LeftLarger RTTaskBExp2 Prime_4A Target_4N CaJIKHE lhdBeAI Congruent right correct Normal 590.3332
1 249 LeftLarger RTTaskBExp2 Prime_1A Target_1N mLBMHik DCAmIeb Congruent right correct Normal 502.3644
1 250 LeftLarger RTTaskBExp2 Prime_4N Target_1N BLAdIjh dMFjleh Congruent right correct Normal 464.8093
1 251 LeftLarger RTTaskBExp2 Prime_1A Target_4A JiFhMLk aDIiJlh Congruent right correct Normal 381.8367
1 252 LeftLarger RTTaskBExp2 Prime_4A Target_6N EBHmaej dKCmjDh Incongruent left correct Normal 590.6713
1 253 LeftLarger RTTaskBExp2 Prime_4A Target_9A hLEDigC aMlDjfC Incongruent left correct Normal 536.1551
1 254 LeftLarger RTTaskBExp2 Prime_6N Target_4N bEImJFL FbjCJkg Incongruent right correct Normal 501.9876
1 255 LeftLarger RTTaskBExp2 Prime_9N Target_1A adjhfDl jgCHBFi Incongruent right correct Normal 575.0362
1 256 LeftLarger RTTaskBExp2 Prime_1N Target_6A hFLlKcH DGKiIgL Incongruent left correct Normal 426.6695
1 257 LeftLarger RTTaskBExp2 Prime_9A Target_1N IfBbaeh cifEFMg Incongruent right correct Normal 482.6372
1 258 LeftLarger RTTaskBExp2 Prime_6N Target_1N DMbcaeK jLfcADm Incongruent right correct Normal 474.5505
1 259 LeftLarger RTTaskBExp2 Prime_9A Target_4N KAlfCaD GdlDIfB Incongruent right correct Normal 669.2522
1 260 LeftLarger RTTaskBExp2 Prime_4A Target_1N dfmiJIG LdImABG Congruent right correct Normal 481.885
1 261 LeftLarger RTTaskBExp2 Prime_9N Target_6A HFfkLEj ldKimBa Congruent right error Normal 483.6695
1 262 LeftLarger RTTaskBExp2 Prime_4N Target_4N iFkELmM CfaHhFD Congruent right correct Normal 553.2357
1 263 LeftLarger RTTaskBExp2 Prime_6A Target_6N DEjbGBi bFmDdfB Congruent left correct Normal 360.7897
1 264 LeftLarger RTTaskBExp2 Prime_6A Target_6A BGkHLgF cKIfkge Congruent left correct Normal 562.8248
1 265 LeftLarger RTTaskBExp2 Prime_6A Target_1A dHaIDkl GlFHhkd Incongruent right correct Normal 403.0017
1 266 LeftLarger RTTaskBExp2 Prime_9A Target_9N gmcKBHj IigLKbE Congruent left correct Normal 588.1477
1 267 LeftLarger RTTaskBExp2 Prime_4N Target_6N EGgFMLh JIKhGHk Incongruent left correct Normal 681.4656
1 268 LeftLarger RTTaskBExp2 Prime_1N Target_4N iMgaKjk hLlDCKG Congruent right correct Normal 794.0112
1 269 LeftLarger RTTaskBExp2 Prime_9N Target_4A liBDfkj mEBcdGL Incongruent right correct Normal 549.7435
1 270 LeftLarger RTTaskBExp2 Prime_9A Target_9A ckgDAaI kbflDmE Congruent left correct Normal 438.3573
1 271 LeftLarger RTTaskBExp2 Prime_9A Target_6N KBGdJEb eBgjaAE Congruent left correct Normal 578.6225
1 272 LeftLarger RTTaskBExp2 Prime_9N Target_6N MEcglJi JlcBMeh Congruent left correct Normal 448.3008
1 273 LeftLarger RTTaskBExp2 Prime_1A Target_9A BkalbhA FIakcdB Incongruent left correct Normal 456.109
1 274 LeftLarger RTTaskBExp2 Prime_9A Target_6A ebAJhiF KCAlgLk Congruent left correct Normal 404.5424
1 275 LeftLarger RTTaskBExp2 Prime_9N Target_9A cidLBgJ fmAEacL Congruent left correct Normal 397.4252
1 276 LeftLarger RTTaskBExp2 Prime_4A Target_4A EBldJDF hJaMedB Congruent right correct Normal 707.7211
1 277 LeftLarger RTTaskBExp2 Prime_9N Target_4N CdBgMaK HhfKJlm Incongruent right correct Normal 476.2929
1 278 LeftLarger RTTaskBExp2 Prime_4A Target_1A aKkHfEA fkECJeD Congruent right correct Normal 487.076
1 279 LeftLarger RTTaskBExp2 Prime_1A Target_9N HJkiIdB EIHgCMm Incongruent left correct Normal 522.5089
1 280 LeftLarger RTTaskBExp2 Prime_6N Target_6A JiHBlgI fcjEKCd Congruent left correct Normal 715.5307
1 281 LeftLarger RTTaskBExp2 Prime_4N Target_9N hFjmLIe gfieDJj Incongruent left correct Normal 509.082
1 282 LeftLarger RTTaskBExp2 Prime_9N Target_6A MhgbkcI AhkGKLi Congruent left correct Normal 698.2458
1 283 LeftLarger RTTaskBExp2 Prime_1A Target_6A IHiGDmM EAhBFkg Incongruent left correct Normal 413.9164
1 284 LeftLarger RTTaskBExp2 Prime_1N Target_9A GdDBgmK eAGagdK Incongruent left correct Normal 471.4849
1 285 LeftLarger RTTaskBExp2 Prime_4A Target_6A hAMCame jcEDbMm Incongruent left correct Normal 515.6237
1 286 LeftLarger RTTaskBExp2 Prime_4N Target_9A fCbiDAH KCHakdF Incongruent left correct Normal 470.0509
1 287 LeftLarger RTTaskBExp2 Prime_9N Target_1N mLAjfkE LlAjMFf Incongruent right correct Normal 485.2136
1 288 LeftLarger RTTaskBExp2 Prime_1A Target_1A AekabiE jkBCJaL Congruent right correct Normal 428.3772
1 289 LeftLarger RTTaskBExp2 Prime_9A Target_1A GdcmFMa BIljJim Incongruent right correct Normal 394.3057
1 290 LeftLarger RTTaskBExp2 Prime_9N Target_9N bGlDIFd LEAlkGd Congruent left correct Normal 566.8791
1 291 LeftLarger RTTaskBExp2 Prime_4N Target_4A aekfDIl dlcHgBm Congruent right correct Normal 406.6495
1 292 LeftLarger RTTaskBExp2 Prime_6N Target_9A kfmjhAi HJFLlfK Congruent left correct Normal 540.1918
1 293 LeftLarger RTTaskBExp2 Prime_6A Target_4A DFfLBeh IDcbEKH Incongruent right correct Normal 488.4178
1 294 LeftLarger RTTaskBExp2 Prime_6A Target_1N KIbeDMk MabHmLd Incongruent left error Normal 404.024
1 295 LeftLarger RTTaskBExp2 Prime_1A Target_6N GmHhaCD hbEcDlj Incongruent left correct Normal 567.0756
1 296 LeftLarger RTTaskBExp2 Prime_6A Target_9N bkHCEgK kIFLJKf Congruent left correct Normal 605.3844
1 297 LeftLarger RTTaskBExp2 Prime_6N Target_1A jKFgHmi BflKgEL Incongruent right correct Normal 471.403
1 298 LeftLarger RTTaskBExp2 Prime_4N Target_1A IlgCkbM HhCmcBK Congruent right correct Normal 519.9819
1 299 LeftLarger RTTaskBExp2 Prime_6N Target_9N KgkafHc mKcbGke Congruent left correct Normal 358.8818
1 300 LeftLarger RTTaskBExp2 Prime_4A Target_9N DiJekEM AjKIFda Incongruent left correct Normal 429.5733
1 301 LeftLarger RTTaskBExp2 Prime_6A Target_1N IiBemCE EBCajAh Incongruent left error Normal 379.1755
1 302 LeftLarger RTTaskBExp2 Prime_6A Target_1N CFAhgKl majiIbM Incongruent right correct Normal 419.7699
2 1 LeftSmaller RTTaskAPrac Prime_4N Target_1A aBebHdL HIgEfGj Congruent left correct Normal 457.2557
2 2 LeftSmaller RTTaskAPrac Prime_4A Target_9N LfiGFDm lfJGAki Incongruent right correct Normal 404.1527
2 3 LeftSmaller RTTaskAPrac Prime_4A Target_4N AefhgiE ajiGeKH Congruent right error Normal 455.8688
2 4 LeftSmaller RTTaskAPrac Prime_9N Target_6N kiaKLgF aDfChkI Congruent right correct Normal 703.6379
2 5 LeftSmaller RTTaskAPrac Prime_9N Target_6A jLAahlc laGBfkF Congruent right correct Normal 653.6826
2 6 LeftSmaller RTTaskAPrac Prime_4A Target_1N leLjEJk LhlAKfE Congruent left correct Normal 459.1101
2 7 LeftSmaller RTTaskAPrac Prime_9N Target_1A djfLDEK FGkEAej Incongruent left correct Normal 460.5137
2 8 LeftSmaller RTTaskAPrac Prime_6A Target_1N dkBeGCg fhDclGK Incongruent left correct Normal 470.0561
2 9 LeftSmaller RTTaskAPrac Prime_4A Target_4A LHCkFJh LbiEDlf Congruent left correct Normal 454.1588
2 10 LeftSmaller RTTaskAPrac Prime_4N Target_1N aGfHlCA FHGjEga Congruent left correct Normal 487.0035
2 11 LeftSmaller RTTaskAPrac Prime_6A Target_4N beGldmK bcAEDCk Incongruent left correct Normal 439.3438
2 12 LeftSmaller RTTaskAPrac Prime_4A Target_6N HcbMjLA aCGdKme Incongruent right correct Normal 504.6729
2 13 LeftSmaller RTTaskAPrac Prime_4A Target_4N HKLdfJb GKCFHgA Congruent left correct Normal 576.3739
2 14 LeftSmaller RTTaskAPrac Prime_6A Target_1A fFDdaGC mIJFjLc Incongruent left correct Normal 472.3042
2 15 LeftSmaller RTTaskAPrac Prime_9N Target_9A kMiGacB lmDgCkh Congruent right correct Normal 515.5793
2 16 LeftSmaller RTTaskAPrac Prime_6N Target_9N mDkBbGK KiHCadc Congruent right correct Normal 522.8905
2 17 LeftSmaller RTTaskAPrac Prime_6A Target_4A IlkHBaL HhfceKA Incongruent left correct Normal 461.369
2 18 LeftSmaller RTTaskAExp1 Prime_1A Target_6N GKkfdgL CLEFfIc Incongruent right correct Normal 665.2282
2 19 LeftSmaller RTTaskAExp1 Prime_1N Target_6N fbJCcLm hBFIieg Incongruent right correct Normal 519.1421
2 20 LeftSmaller RTTaskAExp1 Prime_9A Target_6N lHBcEdb ljDHakM Congruent right correct Normal 481.1868
2 21 LeftSmaller RTTaskAExp1 Prime_1A Target_9A hgjIdkE aJeAjkg Incongruent right correct Normal 522.2202
2 22 LeftSmaller RTTaskAExp1 Prime_4N Target_1N ghbmMAG chkGHEj Congruent left correct Normal 571.5188
2 23 LeftSmaller RTTaskAExp1 Prime_1N Target_4N jFMKmfL MdchfaF Congruent left correct Normal 632.5287
2 24 LeftSmaller RTTaskAExp1 Prime_4N Target_4A LCdBliG ElfBdea Congruent left correct Normal 702.5585
2 25 LeftSmaller RTTaskAExp1 Prime_4A Target_1A FlgfKDC HKbFGJC Congruent left correct Normal 586.1547
2 26 LeftSmaller RTTaskAExp1 Prime_6N Target_1A aJkMgeG DkMaEIK Incongruent left correct Normal 454.0721
2 27 LeftSmaller RTTaskAExp1 Prime_6A Target_6N BHCEbMd ifILFlG Congruent right correct Normal 629.8569
2 28 LeftSmaller RTTaskAExp1 Prime_6N Target_1N BDlAGaM mAgaiKD Incongruent left correct Normal 544.789
2 29 LeftSmaller RTTaskAExp1 Prime_1N Target_4A gfldMGi LkJhMGf Congruent left correct Normal 686.6939
2 30 LeftSmaller RTTaskAExp1 Prime_9N Target_4A FHemkJi GKefjkC Incongruent left correct Normal 557.5347
2 31 LeftSmaller RTTaskAExp1 Prime_4A Target_9N fHLcDKG CFDLGBA Incongruent right correct Normal 474.8426
2 32 LeftSmaller RTTaskAExp1 Prime_4N Target_4N jBmFKfe fBmFajD Congruent left correct Normal 552.0279
2 33 LeftSmaller RTTaskAExp1 Prime_4A Target_4N JEdGgce jAGFcdK Congruent left correct Normal 556.4893
2 34 LeftSmaller RTTaskAExp1 Prime_4N Target_1A lBMbDAd KdLemBi Congruent left correct Normal 670.0483
2 35 LeftSmaller RTTaskAExp1 Prime_6N Target_6N hlMFdcD geFKfbB Congruent right correct Normal 488.9725
2 36 LeftSmaller RTTaskAExp1 Prime_9A Target_6A cbdFigA ImDBbeh Congruent right correct Normal 437.3758
2 37 LeftSmaller RTTaskAExp1 Prime_6A Target_1A JdCMfGg KheMaDB Incongruent left correct Normal 433.5506
2 38 LeftSmaller RTTaskAExp1 Prime_6A Target_4N KMgJLHD baFdDIg Incongruent left correct Normal 549.1903
2 39 LeftSmaller RTTaskAExp1 Prime_1A Target_4A JhCDKMe ehfIECB Congruent left correct Normal 635.3543
2 40 LeftSmaller RTTaskAExp1 Prime_6N Target_4A hbiAfga FcilfhL Incongruent left correct Normal 465.7966
2 41 LeftSmaller RTTaskAExp1 Prime_1N Target_1N DEbhigH LjBIikf Congruent left correct Normal 582.3266
2 42 LeftSmaller RTTaskAExp1 Prime_1N Target_1A jGIhLBa CJGHKeM Congruent left correct Normal 449.2564
2 43 LeftSmaller RTTaskAExp1 Prime_4N Target_9A abfIFgD IgFkHfK Incongruent right correct Normal 443.5434
2 44 LeftSmaller RTTaskAExp1 Prime_6A Target_1N icfCKeA mIGfFDb Incongruent left correct Normal 549.697
2 45 LeftSmaller RTTaskAExp1 Prime_1A Target_1N eMaJfLd fGJFAIm Congruent left correct Normal 407.3496
2 46 LeftSmaller RTTaskAExp1 Prime_9N Target_1N kDAMHBe IBJcMhi Incongruent left correct Normal 679.7675
2 47 LeftSmaller RTTaskAExp1 Prime_6N Target_9N HIfjgaE jFbeMhk Congruent right correct Normal 480.8335
2 48 LeftSmaller RTTaskAExp1 Prime_9N Target_9A iEBmfHh mKfacLI Congruent right correct Normal 510.509
2 49 LeftSmaller RTTaskAExp1 Prime_4A Target_9A mDCKkBH IFdDfgE Incongruent right correct Normal 529.7559
2 50 LeftSmaller RTTaskAExp1 Prime_6N Target_6A MgcHamE djECDHl Congruent left error Normal 579.5117
2 51 LeftSmaller RTTaskAExp1 Prime_6N Target_6A EGcdmfK cDCfjhI Congruent right correct Normal 310.1514
2 52 LeftSmaller RTTaskAExp1 Prime_1A Target_1A hGdcKLf LDFhEjc Congruent left correct Normal 391.668
2 53 LeftSmaller RTTaskAExp1 Prime_9N Target_6N agklMCI DlmibCH Congruent right correct Normal 531.8045
2 54 LeftSmaller RTTaskAExp1 Prime_9A Target_4A EDkeFLa BdiCghl Incongruent left correct Normal 529.3962
2 55 LeftSmaller RTTaskAExp1 Prime_1N Target_6A KfHMmda cgjGEFC Incongruent right correct Normal 503.4406
2 56 LeftSmaller RTTaskAExp1 Prime_6A Target_6A KCMFdjH LcKDMIj Congruent right correct Normal 536.4783
2 57 LeftSmaller RTTaskAExp1 Prime_1N Target_9N GIiHEmK iKcLkmh Incongruent right correct Normal 566.1454
2 58 LeftSmaller RTTaskAExp1 Prime_4A Target_1N DFhBmKc JAFhfmG Congruent left correct Normal 558.5276
2 59 LeftSmaller RTTaskAExp1 Prime_9A Target_9A bEaJkdc mCfAlaB Congruent right correct Normal 606.9228
2 60 LeftSmaller RTTaskAExp1 Prime_9N Target_9N HdfEBlb leImkDa Congruent right correct Normal 632.5233
2 61 LeftSmaller RTTaskAExp1 Prime_4N Target_6N eIiEfDj BKgCEib Incongruent right correct Normal 794.6856
2 62 LeftSmaller RTTaskAExp1 Prime_1A Target_4N MDIjhAe EaIlMdj Congruent left correct Normal 567.2714
2 63 LeftSmaller RTTaskAExp1 Prime_9A Target_1N LCEbgKB lfAKjcC Incongruent left correct Normal 562.6058
2 64 LeftSmaller RTTaskAExp1 Prime_6N Target_4N AiEImKC giKkACc Incongruent left correct Normal 608.6267
2 65 LeftSmaller RTTaskAExp1 Prime_4A Target_6N iFhDHEf JkADKhj Incongruent right correct Normal 553.2503
2 66 LeftSmaller RTTaskAExp1 Prime_4N Target_6A CchJijH EalgBbc Incongruent right correct Normal 569.4094
2 67 LeftSmaller RTTaskAExp1 Prime_6A Target_9A ajkhGHI fjFhbcA Congruent right correct Normal 481.2617
2 68 LeftSmaller RTTaskAExp1 Prime_9N Target_1A iDcmbaI geAKDJd Incongruent left correct Normal 509.851
2 69 LeftSmaller RTTaskAExp1 Prime_1A Target_6A EgmfCHb lFdELjG Incongruent right correct Normal 539.5226
2 70 LeftSmaller RTTaskAExp1 Prime_6A Target_4A KlMgjLk hHKLMAB Incongruent left correct Normal 624.8351
2 71 LeftSmaller RTTaskAExp1 Prime_4A Target_6A gCfDleG BmaJdcC Incongruent right correct Normal 569.5492
2 72 LeftSmaller RTTaskAExp1 Prime_9A Target_1A MGFIejd aGMCLiB Incongruent left correct Normal 487.0675
2 73 LeftSmaller RTTaskAExp1 Prime_6A Target_9N ciBHeAM HceikAd Congruent right correct Normal 797.0877
2 74 LeftSmaller RTTaskAExp1 Prime_1A Target_9N LhGEDej DGihcMb Incongruent left error Late 2995.651
2 75 LeftSmaller RTTaskAExp1 Prime_1A Target_9N dCchbEM jKIkCbJ Incongruent right correct Normal 397.3632
2 76 LeftSmaller RTTaskAExp1 Prime_9N Target_6A BcaiFgb daIbkij Congruent right correct Normal 453.6545
2 77 LeftSmaller RTTaskAExp1 Prime_6N Target_9A HegCGEf GEfIMcd Congruent right correct Normal 435.4016
2 78 LeftSmaller RTTaskAExp1 Prime_9A Target_4N fhMKaFL LcMalHD Incongruent left correct Normal 425.8623
2 79 LeftSmaller RTTaskAExp1 Prime_1N Target_9A dcABkFb Fcmibhf Incongruent right correct Normal 456.0501
2 80 LeftSmaller RTTaskAExp1 Prime_9N Target_4N mEgFdDG CHGFIBg Incongruent left correct Normal 559.7184
2 81 LeftSmaller RTTaskAExp1 Prime_4A Target_4A DjIeEcH DLfbeBI Congruent left correct Normal 514.0266
2 82 LeftSmaller RTTaskAExp1 Prime_4N Target_9N bfaGKFB HIbmMEf Incongruent right correct Normal 473.889
2 83 LeftSmaller RTTaskAExp1 Prime_9A Target_9N kDgdbFc JKBGmAi Congruent right correct Normal 499.6775
2 84 LeftSmaller RTTaskAExp2 Prime_9A Target_6A HbhJfDA IMeCkjg Congruent right correct Normal 537.634
2 85 LeftSmaller RTTaskAExp2 Prime_4N Target_1N GgJiblH dLFmHJD Congruent left correct Normal 469.1224
2 86 LeftSmaller RTTaskAExp2 Prime_1N Target_6N GgehkID mLBDJcK Incongruent right correct Normal 574.3345
2 87 LeftSmaller RTTaskAExp2 Prime_1A Target_1N FjAhcBg eBlGJIM Congruent left correct Normal 539.2439
2 88 LeftSmaller RTTaskAExp2 Prime_6A Target_6A gkiEIah BiLFCkd Congruent right correct Normal 483.1527
2 89 LeftSmaller RTTaskAExp2 Prime_1A Target_9A DbkjIdF AHGeiMD Incongruent right correct Normal 580.8178
2 90 LeftSmaller RTTaskAExp2 Prime_4N Target_6A mfhHiJB lBimkKF Incongruent right correct Normal 517.9945
2 91 LeftSmaller RTTaskAExp2 Prime_9A Target_9N BdcDGeg fmjFaek Congruent right correct Normal 624.28
2 92 LeftSmaller RTTaskAExp2 Prime_1N Target_9A LhIiFjG GBdhicg Incongruent right correct Normal 511.2137
2 93 LeftSmaller RTTaskAExp2 Prime_4N Target_4N HmiADFj LiJgHID Congruent left correct Normal 589.7474
2 94 LeftSmaller RTTaskAExp2 Prime_1N Target_1A LIgHbfE kGijIcF Congruent left correct Normal 621.7279
2 95 LeftSmaller RTTaskAExp2 Prime_6N Target_6N kiMCjJA DHcfEkm Congruent right correct Normal 437.5906
2 96 LeftSmaller RTTaskAExp2 Prime_4N Target_6N CKgeIac MkEFehA Incongruent right correct Normal 576.6134
2 97 LeftSmaller RTTaskAExp2 Prime_1A Target_6A LiClmce KadkhiF Incongruent right correct Normal 430.1781
2 98 LeftSmaller RTTaskAExp2 Prime_9N Target_9N jbdHAIl HFiedMh Congruent right correct Normal 513.7722
2 99 LeftSmaller RTTaskAExp2 Prime_4A Target_9A khbgKef gMmJBDG Incongruent right correct Normal 446.2388
2 100 LeftSmaller RTTaskAExp2 Prime_9A Target_1N faCDiMc eEJgKkC Incongruent left correct Normal 573.5365
2 101 LeftSmaller RTTaskAExp2 Prime_9N Target_9A mIaDFgA GiLcejD Congruent right correct Normal 543.1003
2 102 LeftSmaller RTTaskAExp2 Prime_9A Target_4N kFjAKGb CdAkMLK Incongruent left correct Normal 619.8763
2 103 LeftSmaller RTTaskAExp2 Prime_4A Target_4A EFaHBCD jHJMiEB Congruent left correct Normal 780.4365
2 104 LeftSmaller RTTaskAExp2 Prime_6N Target_9N IeDjgLa CjkmIEK Congruent right correct Normal 442.9086
2 105 LeftSmaller RTTaskAExp2 Prime_9A Target_4A giheGLD ABHjfeM Incongruent left correct Normal 521.2476
2 106 LeftSmaller RTTaskAExp2 Prime_4A Target_9N CdcMJjE BKcHilG Incongruent right correct Normal 590.9309
2 107 LeftSmaller RTTaskAExp2 Prime_6A Target_6N dmJCAbe ecjaJdH Congruent right correct Normal 587.0925
2 108 LeftSmaller RTTaskAExp2 Prime_9A Target_1A fHFmJei dElaiFH Incongruent left correct Normal 496.381
2 109 LeftSmaller RTTaskAExp2 Prime_1A Target_1A FDbJKkH GjiCgFE Congruent left correct Normal 489.3111
2 110 LeftSmaller RTTaskAExp2 Prime_1N Target_9N MhajeDJ hLdHBlk Incongruent right correct Normal 593.2278
2 111 LeftSmaller RTTaskAExp2 Prime_1A Target_6N HbCAjLh cIkdHKA Incongruent right correct Normal 558.0009
2 112 LeftSmaller RTTaskAExp2 Prime_4N Target_9N cHKJfki LKEHeFD Incongruent right correct Normal 416.9497
2 113 LeftSmaller RTTaskAExp2 Prime_6N Target_9A MKfiGjI fJiKkFe Congruent right correct Normal 590.6949
2 114 LeftSmaller RTTaskAExp2 Prime_4N Target_1A ADkCbim HgEFhMC Congruent left correct Normal 470.1528
2 115 LeftSmaller RTTaskAExp2 Prime_6N Target_1A dJIGfKb eDIFGjf Incongruent left correct Normal 855.7103
2 116 LeftSmaller RTTaskAExp2 Prime_1N Target_4A igDJheF JkDfKMa Congruent left correct Normal 736.1888
2 117 LeftSmaller RTTaskAExp2 Prime_4A Target_1A kliACKG dcmHfiG Congruent left correct Normal 514.3936
2 118 LeftSmaller RTTaskAExp2 Prime_4A Target_1N EFiBChf MLCEdam Congruent left correct Normal 514.8327
2 119 LeftSmaller RTTaskAExp2 Prime_6A Target_4N CIAfEJk bFciJmh Incongruent left correct Normal 665.1089
2 120 LeftSmaller RTTaskAExp2 Prime_9N Target_6N IilHcgA DaCAHkc Congruent right correct Normal 627.1571
2 121 LeftSmaller RTTaskAExp2 Prime_9A Target_9A DAGgCKI AlgIcEd Congruent right correct Normal 481.713
2 122 LeftSmaller RTTaskAExp2 Prime_4A Target_4N mFBElbM LdKCBDl Congruent left correct Normal 623.0094
2 123 LeftSmaller RTTaskAExp2 Prime_6N Target_4A HhakJKc DceBMlI Incongruent left correct Normal 622.8015
2 124 LeftSmaller RTTaskAExp2 Prime_9N Target_1A efGbLmJ geDbLCj Incongruent left correct Normal 676.7195
2 125 LeftSmaller RTTaskAExp2 Prime_4N Target_9A dmKMDkh bhdMjfm Incongruent right correct Normal 642.1166
2 126 LeftSmaller RTTaskAExp2 Prime_6N Target_4N Amgjifa ehckFjM Incongruent left correct Normal 591.2945
2 127 LeftSmaller RTTaskAExp2 Prime_6A Target_9A ILMHDaC LAChlkb Congruent right correct Normal 441.3505
2 128 LeftSmaller RTTaskAExp2 Prime_6N Target_1N hMlcgaL JMLGBhC Incongruent left correct Normal 647.6574
2 129 LeftSmaller RTTaskAExp2 Prime_9N Target_1N FEjCiLG aIGiFhl Incongruent left correct Normal 567.0565
2 130 LeftSmaller RTTaskAExp2 Prime_4A Target_6N LmFabgk HjbFKiC Incongruent right correct Normal 696.6984
2 131 LeftSmaller RTTaskAExp2 Prime_1A Target_9N kJFDEag khJgLmI Incongruent right correct Normal 498.0283
2 132 LeftSmaller RTTaskAExp2 Prime_6A Target_9N gAEhkHC Dabikfd Congruent right correct Normal 494.8125
2 133 LeftSmaller RTTaskAExp2 Prime_4A Target_6A IGKMbke dGjmHga Incongruent right correct Normal 544.2122
2 134 LeftSmaller RTTaskAExp2 Prime_4N Target_4A ijGALcF hBjgdac Congruent left correct Normal 688.7449
2 135 LeftSmaller RTTaskAExp2 Prime_9N Target_4N AChBgKG kajbfKe Incongruent left correct Normal 790.1827
2 136 LeftSmaller RTTaskAExp2 Prime_6N Target_6A EfAhGIH HKdhmiF Congruent right correct Late 1081.783
2 137 LeftSmaller RTTaskAExp2 Prime_6A Target_4A aIdhFeD ebBKIkE Incongruent left correct Normal 524.1086
2 138 LeftSmaller RTTaskAExp2 Prime_1N Target_1N fIGJcdE LIMeJjG Congruent left correct Normal 623.8424
2 139 LeftSmaller RTTaskAExp2 Prime_6N Target_6A HEJAKeF BkAFeCl Congruent right correct Normal 452.6091
2 140 LeftSmaller RTTaskAExp2 Prime_1A Target_4N mfGkCga baKFcje Congruent left correct Normal 488.0605
2 141 LeftSmaller RTTaskAExp2 Prime_9A Target_6N CfJeGEA leBbIcM Congruent right correct Normal 484.3664
2 142 LeftSmaller RTTaskAExp2 Prime_6A Target_1A LeiDckB kMighJB Incongruent left correct Normal 461.0409
2 143 LeftSmaller RTTaskAExp2 Prime_9N Target_4A DgcdKFM gfDAbEa Incongruent left correct Normal 487.0127
2 144 LeftSmaller RTTaskAExp2 Prime_1N Target_4N AMaBFCg dGfJeMl Congruent left correct Normal 608.4554
2 145 LeftSmaller RTTaskAExp2 Prime_1N Target_6A DkFecLj dagBfLc Incongruent right correct Normal 471.4828
2 146 LeftSmaller RTTaskAExp2 Prime_9N Target_6A agCMfBd lDGCiaJ Congruent right correct Normal 473.7929
2 147 LeftSmaller RTTaskAExp2 Prime_1A Target_4A heiIlAD DAIdLHf Congruent left correct Normal 416.6105
2 148 LeftSmaller RTTaskAExp2 Prime_6A Target_1N dMEfJDI ihGLHMl Incongruent left correct Normal 476.654
2 149 LeftLarger RTTaskBPrac Prime_1A Target_4N fFIAEka CKAjGHg Congruent right correct Normal 779.5798
2 150 LeftLarger RTTaskBPrac Prime_9A Target_9N DFjkmal EFCJfGm Congruent left correct Normal 542.7984
2 151 LeftLarger RTTaskBPrac Prime_1N Target_4A FGghkji iLhDFdE Congruent right correct Late 1076.705
2 152 LeftLarger RTTaskBPrac Prime_6A Target_6A CiHghbA fhjJaDA Congruent left correct Normal 581.7699
2 153 LeftLarger RTTaskBPrac Prime_6N Target_6N jaECDKH eFdaiJB Congruent left correct Normal 598.4749
2 154 LeftLarger RTTaskBPrac Prime_1N Target_4N fCaeIkG hGLAlKB Congruent right correct Normal 711.0891
2 155 LeftLarger RTTaskBPrac Prime_9A Target_4N FAKbHji HmFheGJ Incongruent right correct Normal 396.8061
2 156 LeftLarger RTTaskBPrac Prime_6A Target_4N bAGcdLf EFKiLDC Incongruent left error Normal 352.9703
2 157 LeftLarger RTTaskBPrac Prime_4A Target_9N ckbgmFh EfAKJbB Incongruent right error Normal 523.1578
2 158 LeftLarger RTTaskBPrac Prime_9A Target_9A JafKHke faAclBC Congruent left correct Normal 682.4746
2 159 LeftLarger RTTaskBPrac Prime_6A Target_4N aleIdGL lIDkJma Incongruent right correct Normal 558.5167
2 160 LeftLarger RTTaskBPrac Prime_6N Target_1N edAaDKE DdgCKjL Incongruent left error Normal 465.6958
2 161 LeftLarger RTTaskBPrac Prime_9A Target_1N DIAjcEB cDijgae Incongruent right correct Normal 604.1034
2 162 LeftLarger RTTaskBPrac Prime_4N Target_1A fcGkKdH CGALDFI Congruent right correct Normal 358.2765
2 163 LeftLarger RTTaskBPrac Prime_6A Target_9N jkKbicH lLcgdmh Congruent left correct Normal 591.2248
2 164 LeftLarger RTTaskBPrac Prime_1A Target_9A cfdjgJE MbCaLde Incongruent left correct Normal 486.2398
2 165 LeftLarger RTTaskBPrac Prime_4A Target_9N chkbgHi EfGHeah Incongruent left correct Normal 377.0592
2 166 LeftLarger RTTaskBPrac Prime_6N Target_1N HlkcCFb FDejfIg Incongruent right correct Normal 657.83
2 167 LeftLarger RTTaskBPrac Prime_6A Target_1N LmBIgeh CFHehAa Incongruent right correct Normal 455.0165
2 168 LeftLarger RTTaskBPrac Prime_1N Target_4A jkLGcMl hMAJCGm Congruent right correct Normal 629.7243
2 169 LeftLarger RTTaskBExp1 Prime_4A Target_6A iEIfDBl GemklHg Incongruent left correct Normal 681.4391
2 170 LeftLarger RTTaskBExp1 Prime_4A Target_6N bfgEDCM kABgcDl Incongruent left correct Normal 494.9748
2 171 LeftLarger RTTaskBExp1 Prime_6N Target_9N mFlDchI FhGdIBH Congruent left correct Normal 682.7759
2 172 LeftLarger RTTaskBExp1 Prime_6N Target_4A cKeiCHa EDkeMac Incongruent right correct Normal 513.1982
2 173 LeftLarger RTTaskBExp1 Prime_9N Target_6A FEKfbAh LKadjlC Congruent left correct Normal 640.3352
2 174 LeftLarger RTTaskBExp1 Prime_9A Target_6N LdlJfhG AcLbliD Congruent left correct Normal 713.9115
2 175 LeftLarger RTTaskBExp1 Prime_4A Target_1A chgHdEI CfbcGHl Congruent right correct Normal 449.013
2 176 LeftLarger RTTaskBExp1 Prime_9A Target_4N BjElmhD cefBkFl Incongruent right correct Normal 826.9722
2 177 LeftLarger RTTaskBExp1 Prime_9N Target_1A jCJmeLG JjdCkAE Incongruent left error Normal 532.9196
2 178 LeftLarger RTTaskBExp1 Prime_4N Target_1N AcCbgHj gcHMADB Congruent right correct Normal 674.5912
2 179 LeftLarger RTTaskBExp1 Prime_4A Target_4N BJhHKEG GMgliIc Congruent right correct Normal 601.5719
2 180 LeftLarger RTTaskBExp1 Prime_4N Target_6A GDmMCke lIJbedk Incongruent left correct Normal 768.9251
2 181 LeftLarger RTTaskBExp1 Prime_9N Target_9A fKBJgej lBDmJMa Congruent left correct Normal 544.9312
2 182 LeftLarger RTTaskBExp1 Prime_1A Target_6A bBiaeDK ihHJCkA Incongruent left correct Normal 651.1147
2 183 LeftLarger RTTaskBExp1 Prime_9N Target_4A EhFKCAI hGJEklB Incongruent right correct Normal 540.7158
2 184 LeftLarger RTTaskBExp1 Prime_9N Target_1N cBFmlJb gfLAIMF Incongruent right correct Normal 610.0157
2 185 LeftLarger RTTaskBExp1 Prime_9A Target_6A KimAGIH mbCLcEe Congruent left correct Normal 745.8723
2 186 LeftLarger RTTaskBExp1 Prime_9A Target_9N jKlBbeH ahgFDAb Congruent left correct Normal 654.875
2 187 LeftLarger RTTaskBExp1 Prime_4N Target_1A EhcHjiG LahkIfb Congruent right correct Normal 609.7599
2 188 LeftLarger RTTaskBExp1 Prime_6N Target_1N gKAiICj aKhlJdG Incongruent right correct Normal 591.246
2 189 LeftLarger RTTaskBExp1 Prime_1N Target_6A gHfBaFK aClHKdA Incongruent left correct Normal 581.741
2 190 LeftLarger RTTaskBExp1 Prime_4A Target_9N FhcIDaM BiHcGFm Incongruent left correct Normal 676.0232
2 191 LeftLarger RTTaskBExp1 Prime_1N Target_6N cFAadfK mFkIDAc Incongruent left correct Normal 845.1777
2 192 LeftLarger RTTaskBExp1 Prime_4N Target_6N BaCmcIJ MjBedbc Incongruent left correct Normal 660.6295
2 193 LeftLarger RTTaskBExp1 Prime_9N Target_1A EdHfkDa FBbEJlH Incongruent right correct Normal 624.2753
2 194 LeftLarger RTTaskBExp1 Prime_4A Target_9A IAfGgkh CDbEhmB Incongruent left correct Normal 593.5717
2 195 LeftLarger RTTaskBExp1 Prime_1N Target_9A gaLAEcG AFecEga Incongruent left correct Normal 629.7346
2 196 LeftLarger RTTaskBExp1 Prime_6A Target_6N CIaHGDL CFdEjDa Congruent left correct Normal 669.7427
2 197 LeftLarger RTTaskBExp1 Prime_1N Target_1A ImCgekE MicFEHg Congruent right correct Normal 545.3455
2 198 LeftLarger RTTaskBExp1 Prime_9N Target_6N jJcgMKb bDGhiIm Congruent left correct Normal 598.7633
2 199 LeftLarger RTTaskBExp1 Prime_1N Target_9N HDfaFdM KekaIDi Incongruent left correct Normal 585.6917
2 200 LeftLarger RTTaskBExp1 Prime_6N Target_9A mcFChaL HEdmhLM Congruent left correct Normal 674.2468
2 201 LeftLarger RTTaskBExp1 Prime_4N Target_4N IlmgFbL mifJAcF Congruent right correct Normal 625.2779
2 202 LeftLarger RTTaskBExp1 Prime_6N Target_4N DgcIFHJ IFAcfLB Incongruent right correct Normal 643.0779
2 203 LeftLarger RTTaskBExp1 Prime_1A Target_6N egaIkmd BmIDidL Incongruent left correct Normal 683.4751
2 204 LeftLarger RTTaskBExp1 Prime_1A Target_4N GMBCcKh eDHILGi Congruent right correct Normal 649.2836
2 205 LeftLarger RTTaskBExp1 Prime_1N Target_4A mdCBfhG GLjAbFH Congruent right correct Normal 688.9681
2 206 LeftLarger RTTaskBExp1 Prime_4N Target_9A fLeDBGg LfecIba Incongruent left correct Normal 600.2552
2 207 LeftLarger RTTaskBExp1 Prime_6N Target_1A ilfjADG HaKjbME Incongruent right correct Normal 464.4244
2 208 LeftLarger RTTaskBExp1 Prime_6A Target_4N fikaBcA FjdCgKH Incongruent right correct Normal 602.829
2 209 LeftLarger RTTaskBExp1 Prime_1A Target_1A lGAhegH LaKifem Congruent right correct Normal 616.1369
2 210 LeftLarger RTTaskBExp1 Prime_9A Target_4A CgJdIla gLAafbF Incongruent right correct Normal 540.9256
2 211 LeftLarger RTTaskBExp1 Prime_6A Target_9N JldeagM MFGLhCE Congruent left correct Normal 643.366
2 212 LeftLarger RTTaskBExp1 Prime_6N Target_6A iFgJLMe hFKeAiE Congruent left correct Normal 719.7444
2 213 LeftLarger RTTaskBExp1 Prime_6A Target_4A jCaBDKg JlbBLgD Incongruent right correct Normal 464.5865
2 214 LeftLarger RTTaskBExp1 Prime_9N Target_4N kKiIchM CgEGlHe Incongruent right correct Normal 632.607
2 215 LeftLarger RTTaskBExp1 Prime_6N Target_6N dficMGg GKAeljI Congruent left correct Normal 650.9246
2 216 LeftLarger RTTaskBExp1 Prime_1A Target_4A GFjKJdg bHhGKcE Congruent right correct Normal 524.938
2 217 LeftLarger RTTaskBExp1 Prime_9A Target_1A BbdalIi BblMaGd Incongruent right correct Normal 606.9688
2 218 LeftLarger RTTaskBExp1 Prime_6A Target_1N cCkmGKJ aLcGfmF Incongruent right correct Normal 610.97
2 219 LeftLarger RTTaskBExp1 Prime_1N Target_1N mGCdBFa gDaklij Congruent right correct Normal 572.8503
2 220 LeftLarger RTTaskBExp1 Prime_9N Target_9N cDGbJfl EMLgmjC Congruent left correct Normal 528.4524
2 221 LeftLarger RTTaskBExp1 Prime_9A Target_9A IcfEDge hGJiCIA Congruent left correct Normal 584.187
2 222 LeftLarger RTTaskBExp1 Prime_6A Target_6A ilhKbDk cMeLEIC Congruent left correct Normal 686.4632
2 223 LeftLarger RTTaskBExp1 Prime_4N Target_4A Jkliceg CfMFjcL Congruent right correct Normal 603.8624
2 224 LeftLarger RTTaskBExp1 Prime_1N Target_4N iHKjCLl FAHeGLh Congruent right correct Normal 600.3063
2 225 LeftLarger RTTaskBExp1 Prime_9A Target_1N kIiGmfJ GJdakDi Incongruent right correct Normal 897.314
2 226 LeftLarger RTTaskBExp1 Prime_4A Target_1N KIdeHJc LhciMfH Congruent right correct Normal 785.9204
2 227 LeftLarger RTTaskBExp1 Prime_1A Target_1N iDjMbAe FaGJHlA Congruent right correct Normal 683.1953
2 228 LeftLarger RTTaskBExp1 Prime_4A Target_4A DBKlfgc hJClMja Congruent right correct Normal 634.4909
2 229 LeftLarger RTTaskBExp1 Prime_4N Target_9N eIAliMk dLiKFDc Incongruent left correct Normal 689.1446
2 230 LeftLarger RTTaskBExp1 Prime_1A Target_9A DiKacfe maEibhF Incongruent left correct Normal 605.7209
2 231 LeftLarger RTTaskBExp1 Prime_6A Target_9A BHbidLj hJAbCDk Congruent left correct Normal 551.0103
2 232 LeftLarger RTTaskBExp1 Prime_1A Target_9N FhEAkCj hAlLIFC Incongruent left correct Normal 897.1812
2 233 LeftLarger RTTaskBExp1 Prime_6A Target_1A aEejklf CGLIHJf Incongruent right correct Normal 782.3339
2 234 LeftLarger RTTaskBExp2 Prime_9N Target_4N AJelmHi HMCJKGc Incongruent right correct Normal 632.2261
2 235 LeftLarger RTTaskBExp2 Prime_1N Target_9A biIEJBd AdCfgmB Incongruent left correct Normal 610.6365
2 236 LeftLarger RTTaskBExp2 Prime_1N Target_4N CBGJaHb aAEILFf Congruent right correct Normal 588.7642
2 237 LeftLarger RTTaskBExp2 Prime_6N Target_6A eMdaiKj FlfHCeM Congruent left correct Normal 560.5088
2 238 LeftLarger RTTaskBExp2 Prime_4N Target_9N lEbBiFm KbDkLdf Incongruent left correct Normal 552.2411
2 239 LeftLarger RTTaskBExp2 Prime_1A Target_4A JFHhflA hbJjKem Congruent right correct Normal 452.9718
2 240 LeftLarger RTTaskBExp2 Prime_9A Target_6A dAjibaB iDFGCMH Congruent left correct Normal 546.6689
2 241 LeftLarger RTTaskBExp2 Prime_9A Target_9A kJmiCed HJjdegM Congruent left correct Normal 546.8723
2 242 LeftLarger RTTaskBExp2 Prime_9A Target_1N FjaCDML IDaMigJ Incongruent right correct Normal 588.3459
2 243 LeftLarger RTTaskBExp2 Prime_9A Target_6N adKkCAF AgkIbdi Congruent left correct Normal 906.7326
2 244 LeftLarger RTTaskBExp2 Prime_1A Target_1A bejmgLI cFkHKEm Congruent right correct Normal 580.3834
2 245 LeftLarger RTTaskBExp2 Prime_1N Target_6A jHkBbDF gefLCIm Incongruent left correct Normal 734.2288
2 246 LeftLarger RTTaskBExp2 Prime_4A Target_1N geCliBd LCBEMih Congruent right correct Normal 698.8925
2 247 LeftLarger RTTaskBExp2 Prime_1N Target_6N MeaCbIg DlkGCih Incongruent left correct Normal 681.4985
2 248 LeftLarger RTTaskBExp2 Prime_6N Target_6N eBifmkM bLiHgjk Congruent left correct Normal 513.0823
2 249 LeftLarger RTTaskBExp2 Prime_1A Target_9A AgcMBeL KAdeLmh Incongruent left correct Normal 602.912
2 250 LeftLarger RTTaskBExp2 Prime_4N Target_1N aJdDhlm bHmlAMC Congruent right correct Normal 656.0725
2 251 LeftLarger RTTaskBExp2 Prime_6N Target_1A eAbHGEj DkLBeGd Incongruent right correct Normal 503.1329
2 252 LeftLarger RTTaskBExp2 Prime_4N Target_6A KgGEhcD KFiGldh Incongruent left correct Normal 602.4182
2 253 LeftLarger RTTaskBExp2 Prime_4A Target_6A hjDBJkl jmcdJki Incongruent left correct Normal 889.1881
2 254 LeftLarger RTTaskBExp2 Prime_4N Target_6N HJhaFiM mhcbekC Incongruent left correct Normal 593.0108
2 255 LeftLarger RTTaskBExp2 Prime_9N Target_9A cklKJfH HEhGDce Congruent left correct Normal 538.945
2 256 LeftLarger RTTaskBExp2 Prime_1A Target_6A DLiCKJk BfFEKeC Incongruent left correct Normal 700.9849
2 257 LeftLarger RTTaskBExp2 Prime_6A Target_4N KLajJge kLeMJCh Incongruent right correct Normal 756.7024
2 258 LeftLarger RTTaskBExp2 Prime_9N Target_6A HBkfaGg jEJGDKA Congruent left correct Normal 592.4624
2 259 LeftLarger RTTaskBExp2 Prime_1A Target_1N dihcJGb GbgKjhH Congruent right correct Normal 658.4845
2 260 LeftLarger RTTaskBExp2 Prime_4N Target_9A GLHDAMk iMCahLg Incongruent left correct Normal 580.3017
2 261 LeftLarger RTTaskBExp2 Prime_4N Target_4N aImcBAl cIdMmDA Congruent right correct Normal 700.8339
2 262 LeftLarger RTTaskBExp2 Prime_9N Target_6N FkEBmAg gfDdjbK Congruent left correct Normal 700.4986
2 263 LeftLarger RTTaskBExp2 Prime_4A Target_9N AdlfFCL digMCbG Incongruent left correct Normal 720.0703
2 264 LeftLarger RTTaskBExp2 Prime_9A Target_4A lDMeFgk GiKHhCJ Incongruent right correct Normal 637.723
2 265 LeftLarger RTTaskBExp2 Prime_6A Target_9A gmCbafd eGFLEgk Congruent left correct Normal 504.3774
2 266 LeftLarger RTTaskBExp2 Prime_6A Target_6N fLbEdcA aMHlDfm Congruent left correct Normal 728.5303
2 267 LeftLarger RTTaskBExp2 Prime_4N Target_4A djBEeci BAebcHM Congruent right correct Normal 448.8237
2 268 LeftLarger RTTaskBExp2 Prime_1N Target_4A cDIGbLA jickgJM Congruent right correct Normal 553.5298
2 269 LeftLarger RTTaskBExp2 Prime_1N Target_1A MHFabmL fmiGFag Congruent right correct Normal 526.7077
2 270 LeftLarger RTTaskBExp2 Prime_6A Target_6A MmkbchJ lKdCemE Congruent left correct Normal 647.3323
2 271 LeftLarger RTTaskBExp2 Prime_9N Target_9N MJCEagh DHJGMha Congruent right error Late 1217.236
2 272 LeftLarger RTTaskBExp2 Prime_9N Target_1A lCfaKGJ JkehCGj Incongruent right correct Normal 524.2448
2 273 LeftLarger RTTaskBExp2 Prime_4A Target_6N diIFkca MJDeCGb Incongruent left correct Normal 652.2704
2 274 LeftLarger RTTaskBExp2 Prime_9A Target_9N EgkaKMI lHBgKAj Congruent left correct Normal 522.4369
2 275 LeftLarger RTTaskBExp2 Prime_1A Target_4N FkmKEdc FbcfaJB Congruent right correct Normal 559.7191
2 276 LeftLarger RTTaskBExp2 Prime_4A Target_4N dEmhDai AGcaIih Congruent right correct Normal 854.2704
2 277 LeftLarger RTTaskBExp2 Prime_6N Target_9N mIdfKFG bkdImae Congruent left correct Normal 565.3383
2 278 LeftLarger RTTaskBExp2 Prime_9N Target_1N CDfBLiJ LMikhag Incongruent right correct Normal 623.9776
2 279 LeftLarger RTTaskBExp2 Prime_9A Target_4N IjFkBmi iCDfbAh Incongruent right correct Normal 696.5571
2 280 LeftLarger RTTaskBExp2 Prime_9N Target_4A GiafcKh DkeLgbj Incongruent right correct Normal 517.605
2 281 LeftLarger RTTaskBExp2 Prime_1N Target_1N BhLbDJA IfCEech Congruent right correct Normal 707.7595
2 282 LeftLarger RTTaskBExp2 Prime_6N Target_4N igJCGkh LlFAmJi Incongruent right correct Normal 596.3102
2 283 LeftLarger RTTaskBExp2 Prime_4A Target_9A jaFeHdf HiFAfeL Incongruent left correct Normal 513.2514
2 284 LeftLarger RTTaskBExp2 Prime_1A Target_9N dfJcjgA dhGmDEA Incongruent left correct Normal 802.3847
2 285 LeftLarger RTTaskBExp2 Prime_6A Target_9N bieFLmH IehKMaf Congruent left correct Late 1090.257
2 286 LeftLarger RTTaskBExp2 Prime_6A Target_9N lafFGAE IJBidlF Congruent left correct Normal 548.1467
2 287 LeftLarger RTTaskBExp2 Prime_6A Target_4A baHkdgL ijbDJBc Incongruent right correct Normal 434.2012
2 288 LeftLarger RTTaskBExp2 Prime_6N Target_9A hIjiLDd jBaMebF Congruent left correct Normal 488.9441
2 289 LeftLarger RTTaskBExp2 Prime_6A Target_1N GaMLCbH FKjLkAB Incongruent right correct Normal 445.8765
2 290 LeftLarger RTTaskBExp2 Prime_1N Target_9N DCeGEkA bHAgEiI Incongruent left correct Normal 735.2833
2 291 LeftLarger RTTaskBExp2 Prime_6N Target_1N MmjgkBh jkLhcKI Incongruent right correct Normal 567.5678
2 292 LeftLarger RTTaskBExp2 Prime_4A Target_4A eLjCMac lmDfdAb Congruent left error Normal 522.8935
2 293 LeftLarger RTTaskBExp2 Prime_4A Target_1A BlDJHec JELHclf Congruent right correct Normal 473.9867
2 294 LeftLarger RTTaskBExp2 Prime_6N Target_4A LmHhlMg cMdGFCk Incongruent right correct Normal 513.6376
2 295 LeftLarger RTTaskBExp2 Prime_9A Target_1A IhbBMGg KkbgdfH Incongruent right correct Normal 562.4514
2 296 LeftLarger RTTaskBExp2 Prime_9N Target_9N LeKkDdh aGfLBgb Congruent left correct Normal 651.2982
2 297 LeftLarger RTTaskBExp2 Prime_6A Target_1A eAFckCj kJcLjbf Incongruent right correct Normal 429.0492
2 298 LeftLarger RTTaskBExp2 Prime_1A Target_6N iDcBMGI efGBhIi Incongruent left correct Normal 969.3055
2 299 LeftLarger RTTaskBExp2 Prime_4A Target_4A lFmiaeM gfejGIM Congruent right correct Normal 397.6337
2 300 LeftLarger RTTaskBExp2 Prime_4N Target_1A IKMkHjf aIhdmlB Congruent right correct Normal 516.5558
3 1 LeftLarger RTTaskAPrac Prime_9N Target_4N kdAEJlG CGmbKea Incongruent left error Normal 980.2071
3 2 LeftLarger RTTaskAPrac Prime_1A Target_6A LMKGbgI CaLfjIA Incongruent right error Normal 822.1261
3 3 LeftLarger RTTaskAPrac Prime_6N Target_4N ckFDIfB EclgbCD Incongruent right correct Late 1932.188
3 4 LeftLarger RTTaskAPrac Prime_1N Target_1N HGCgjfJ cdIifKL Congruent right correct Normal 915.665
3 5 LeftLarger RTTaskAPrac Prime_6N Target_9A liBGchj KkDLJBh Congruent left correct Normal 783.9229
3 6 LeftLarger RTTaskAPrac Prime_6N Target_4N mbHLAha IkHFAjC Incongruent left error Normal 856.8737
3 7 LeftLarger RTTaskAPrac Prime_6A Target_1A iejFgfB ilBdGej Incongruent right correct Normal 778.325
3 8 LeftLarger RTTaskAPrac Prime_9A Target_9A ADkBMlf mdJgEci Congruent left correct Normal 726.7126
3 9 LeftLarger RTTaskAPrac Prime_9A Target_1A leaDMJb eDFlBCJ Incongruent right correct Normal 684.4128
3 10 LeftLarger RTTaskAPrac Prime_1A Target_6A IiEjCKL kdLeCaK Incongruent left correct Normal 636.8586
3 11 LeftLarger RTTaskAPrac Prime_1N Target_6A lcfCikE IaKHmGL Incongruent left correct Normal 662.6475
3 12 LeftLarger RTTaskAPrac Prime_6N Target_4N mbfeHBD LielBHd Incongruent right correct Normal 691.4162
3 13 LeftLarger RTTaskAPrac Prime_9N Target_4N hebFmLj ifmBdkh Incongruent right correct Normal 634.0886
3 14 LeftLarger RTTaskAPrac Prime_9N Target_9A lbEGJMB GigKaDC Congruent left correct Normal 543.1479
3 15 LeftLarger RTTaskAPrac Prime_6A Target_4A fCbcaHE MJhiFgd Incongruent right correct Normal 581.4105
3 16 LeftLarger RTTaskAPrac Prime_6N Target_1A jhCGIeA lkbJGIj Incongruent right correct Normal 519.1458
3 17 LeftLarger RTTaskAPrac Prime_9A Target_4N bAIDjJc kCIDjFf Incongruent right correct Normal 698.2418
3 18 LeftLarger RTTaskAPrac Prime_4N Target_1A fkBcdDA CfKjLcE Congruent right correct Normal 544.837
3 19 LeftLarger RTTaskAPrac Prime_6N Target_1N jbLKBIk AFHkgle Incongruent right correct Normal 512.6534
3 20 LeftLarger RTTaskAPrac Prime_6N Target_6N eklgJCh iJIBfCE Congruent left correct Normal 557.8892
3 21 LeftLarger RTTaskAExp1 Prime_9N Target_9N ChbKGfg MABeihF Congruent left correct Normal 571.4673
3 22 LeftLarger RTTaskAExp1 Prime_6A Target_1N befAHhK jHIKbca Incongruent right correct Normal 530.1833
3 23 LeftLarger RTTaskAExp1 Prime_4A Target_1N lamcfMF bMGdmgK Congruent right correct Normal 703.0937
3 24 LeftLarger RTTaskAExp1 Prime_1A Target_4N AcHJImD fgMJAje Congruent right correct Normal 628.7896
3 25 LeftLarger RTTaskAExp1 Prime_1A Target_1N mAKiJMH cimfCLj Congruent right correct Normal 556.1502
3 26 LeftLarger RTTaskAExp1 Prime_6A Target_6N bljAgkd JfIlakA Congruent left correct Normal 547.3525
3 27 LeftLarger RTTaskAExp1 Prime_1N Target_9N lHLamhD cJehBaI Incongruent left correct Normal 655.0057
3 28 LeftLarger RTTaskAExp1 Prime_6A Target_6A lKehmID KmCfAia Congruent left correct Normal 626.5821
3 29 LeftLarger RTTaskAExp1 Prime_4A Target_1A dBIDMEi mlEgaiJ Congruent right correct Normal 513.7972
3 30 LeftLarger RTTaskAExp1 Prime_9A Target_9A CFBIJKe mdEFAib Congruent left correct Normal 950.4092
3 31 LeftLarger RTTaskAExp1 Prime_6N Target_6N EKIkMCD AmgfICb Congruent left correct Normal 711.4373
3 32 LeftLarger RTTaskAExp1 Prime_9A Target_6N cGhjmbA kALljdB Congruent left correct Normal 598.737
3 33 LeftLarger RTTaskAExp1 Prime_9A Target_1A bEdAMjg mDkeKfb Incongruent right correct Normal 552.2667
3 34 LeftLarger RTTaskAExp1 Prime_4A Target_4A hdHkDFB BjkMcIC Congruent right correct Normal 652.2982
3 35 LeftLarger RTTaskAExp1 Prime_9A Target_4N KmlgdID bjilhDC Incongruent right correct Normal 578.9814
3 36 LeftLarger RTTaskAExp1 Prime_4A Target_6N aGhIdBC CJcGEMB Incongruent left correct Normal 535.7669
3 37 LeftLarger RTTaskAExp1 Prime_4N Target_9A bkAcFKM JABfIEm Incongruent left correct Normal 553.0804
3 38 LeftLarger RTTaskAExp1 Prime_4A Target_9A dlGkcMF GgKDhea Incongruent left correct Normal 635.7315
3 39 LeftLarger RTTaskAExp1 Prime_1A Target_6A AlgdhCL mielaAg Incongruent left correct Normal 642.903
3 40 LeftLarger RTTaskAExp1 Prime_1N Target_6N blJgcFa CigEedH Incongruent left correct Normal 545.92
3 41 LeftLarger RTTaskAExp1 Prime_1N Target_1N bDBhCMF chDHFdJ Congruent right correct Normal 792.3919
3 42 LeftLarger RTTaskAExp1 Prime_1A Target_4A LedaKJG fKIGFac Congruent right correct Normal 859.7671
3 43 LeftLarger RTTaskAExp1 Prime_9N Target_1N EBdlKJh eLcGBAg Incongruent right correct Normal 599.1038
3 44 LeftLarger RTTaskAExp1 Prime_6N Target_9N LiJkdIH LmHGkKJ Congruent left correct Normal 600.4078
3 45 LeftLarger RTTaskAExp1 Prime_4N Target_1N BEjFebi LGHDCKm Congruent right correct Normal 742.878
3 46 LeftLarger RTTaskAExp1 Prime_4N Target_9N aijmHKh fjFcJdD Incongruent left correct Normal 541.2267
3 47 LeftLarger RTTaskAExp1 Prime_6A Target_9A djekFMA LFHCikB Congruent left correct Normal 691.397
3 48 LeftLarger RTTaskAExp1 Prime_9N Target_1A fhiaJde lAHdeEK Incongruent right correct Normal 671.2496
3 49 LeftLarger RTTaskAExp1 Prime_1N Target_1A fkDBAdj dkAiEGI Congruent right correct Normal 712.8456
3 50 LeftLarger RTTaskAExp1 Prime_4A Target_4N gdJDbal khgLEJb Congruent right correct Normal 758.3955
3 51 LeftLarger RTTaskAExp1 Prime_6N Target_6A CKhcJlG HFfIlbc Congruent left correct Normal 757.4348
3 52 LeftLarger RTTaskAExp1 Prime_6N Target_1A cMJLHfE lBHcfFe Incongruent right correct Normal 554.9109
3 53 LeftLarger RTTaskAExp1 Prime_1N Target_6A FcCmLgG JfcCjbh Incongruent left correct Normal 606.4142
3 54 LeftLarger RTTaskAExp1 Prime_1N Target_4N ladGIDL cMEGIBD Congruent right correct Normal 581.0658
3 55 LeftLarger RTTaskAExp1 Prime_4N Target_1A eBhlCdJ iLHajKF Congruent right correct Normal 449.154
3 56 LeftLarger RTTaskAExp1 Prime_1A Target_9A bgiLcjC daeMAFJ Incongruent left correct Normal 648.1686
3 57 LeftLarger RTTaskAExp1 Prime_1A Target_9N jCEgmMk KBEJhGg Incongruent left correct Normal 604.4657
3 58 LeftLarger RTTaskAExp1 Prime_4N Target_6A KhLfDgB GfDFKHA Incongruent left correct Normal 478.3171
3 59 LeftLarger RTTaskAExp1 Prime_6A Target_4N clLAgjC KBacEdC Incongruent right correct Normal 519.7948
3 60 LeftLarger RTTaskAExp1 Prime_9A Target_9N AEHBMGb fDHJkLE Congruent left correct Normal 528.24
3 61 LeftLarger RTTaskAExp1 Prime_6N Target_9A KieCFLI DckeBGm Congruent left correct Normal 520.1559
3 62 LeftLarger RTTaskAExp1 Prime_9A Target_1N GaMCFKl kGDeEhH Incongruent right correct Normal 469.0185
3 63 LeftLarger RTTaskAExp1 Prime_4N Target_4A ceHEhMD FDkAcKB Congruent right correct Normal 656.6052
3 64 LeftLarger RTTaskAExp1 Prime_6N Target_4N MBImHkd lDceMJG Incongruent right correct Normal 589.7502
3 65 LeftLarger RTTaskAExp1 Prime_4A Target_6A GAdKejL eKdmEcD Incongruent left correct Normal 521.0569
3 66 LeftLarger RTTaskAExp1 Prime_1A Target_1A jIkGJFg mlKEHAg Congruent right correct Normal 539.1171
3 67 LeftLarger RTTaskAExp1 Prime_9N Target_4N EClkadL EDembCF Incongruent right correct Late 1089.141
3 68 LeftLarger RTTaskAExp1 Prime_6N Target_4A haAmHbD bMJkIdB Incongruent right correct Normal 451.2009
3 69 LeftLarger RTTaskAExp1 Prime_9N Target_4A IAabcKE bkgeDLA Incongruent right correct Normal 537.5117
3 70 LeftLarger RTTaskAExp1 Prime_4N Target_6N AIKfBkC AKgmILk Incongruent left correct Normal 654.1829
3 71 LeftLarger RTTaskAExp1 Prime_6A Target_9N MHjEhGf IMDJcdf Congruent left correct Normal 730.8479
3 72 LeftLarger RTTaskAExp1 Prime_4A Target_9N kEjBlDA FeCbaBD Incongruent left correct Normal 656.3879
3 73 LeftLarger RTTaskAExp1 Prime_4N Target_4N aekClGD mEbJlAC Congruent right correct Normal 751.0458
3 74 LeftLarger RTTaskAExp1 Prime_1A Target_6N CckiHEM eJildDL Incongruent left correct Normal 796.3403
3 75 LeftLarger RTTaskAExp1 Prime_9N Target_6A BjDGcEm eHgalCd Congruent left correct Normal 685.162
3 76 LeftLarger RTTaskAExp1 Prime_9N Target_9A hCHDjId gcAekDl Congruent left correct Normal 648.9496
3 77 LeftLarger RTTaskAExp1 Prime_1N Target_4A bCFDLde fDaCiBI Congruent right correct Normal 620.8216
3 78 LeftLarger RTTaskAExp1 Prime_1N Target_9A aGlDJmg JFfbmLe Incongruent left correct Normal 616.1726
3 79 LeftLarger RTTaskAExp1 Prime_9N Target_6N iGfCdAD ECjlaHG Congruent left correct Normal 651.3321
3 80 LeftLarger RTTaskAExp1 Prime_6N Target_1N HbmBcaj difaCGh Incongruent right correct Normal 646.1925
3 81 LeftLarger RTTaskAExp1 Prime_6A Target_1A MKlcdGj keiKjhF Incongruent right correct Normal 665.0573
3 82 LeftLarger RTTaskAExp1 Prime_9A Target_6A JGeLbDg aKlmiML Congruent left correct Normal 529.5424
3 83 LeftLarger RTTaskAExp1 Prime_9N Target_4N FhJHjKi BMHFEJm Incongruent right correct Normal 659.5452
3 84 LeftLarger RTTaskAExp1 Prime_6A Target_4A JgelfHM FcChBJH Incongruent right correct Normal 572.1628
3 85 LeftLarger RTTaskAExp1 Prime_9A Target_4A gfcGLFC dEGIFaL Incongruent right correct Normal 500.326
3 86 LeftLarger RTTaskAExp2 Prime_9N Target_4A IcHagkF afKhMbC Incongruent right correct Normal 540.9902
3 87 LeftLarger RTTaskAExp2 Prime_9A Target_1N fDJceKg JeaMAGH Incongruent right correct Normal 624.0501
3 88 LeftLarger RTTaskAExp2 Prime_6N Target_4A gmjBaAK JClKjbG Incongruent right correct Normal 526.895
3 89 LeftLarger RTTaskAExp2 Prime_1A Target_1N iDfKLdc fjFCLah Congruent right correct Normal 511.0722
3 90 LeftLarger RTTaskAExp2 Prime_9N Target_6A HAjMGib CgeAMHL Congruent left correct Normal 494.2345
3 91 LeftLarger RTTaskAExp2 Prime_9N Target_9N BmcMbCa CcaefLI Congruent left correct Normal 526.3639
3 92 LeftLarger RTTaskAExp2 Prime_4A Target_1A KdCaHih alBcEAF Congruent right correct Normal 455.3719
3 93 LeftLarger RTTaskAExp2 Prime_6N Target_1A HeILgKc bGLmcdC Incongruent right correct Normal 480.4141
3 94 LeftLarger RTTaskAExp2 Prime_6N Target_9N DBdgLMl MGkKlCm Congruent left correct Normal 605.1949
3 95 LeftLarger RTTaskAExp2 Prime_4N Target_6A IlBmedF KACakFD Incongruent left correct Normal 549.2024
3 96 LeftLarger RTTaskAExp2 Prime_6N Target_6A aBAhGHd LdDjaih Congruent left correct Normal 548.255
3 97 LeftLarger RTTaskAExp2 Prime_4N Target_1A HfaLjEM HaLCmcJ Congruent right correct Normal 480.1068
3 98 LeftLarger RTTaskAExp2 Prime_9A Target_1A chidbLE JlKIcFh Incongruent right correct Normal 557.9991
3 99 LeftLarger RTTaskAExp2 Prime_6A Target_1A BEaIdGC AEfdBGD Incongruent right correct Normal 569.4197
3 100 LeftLarger RTTaskAExp2 Prime_6A Target_6N eahmlCE JIbCkfl Congruent left correct Normal 672.4652
3 101 LeftLarger RTTaskAExp2 Prime_4N Target_9A lmKGIkd cbkFeCA Incongruent left correct Normal 564.642
3 102 LeftLarger RTTaskAExp2 Prime_4A Target_9N JfFCdea GkKAaFf Incongruent left correct Normal 595.2549
3 103 LeftLarger RTTaskAExp2 Prime_9A Target_9N cAgJGim gdELMKa Congruent left correct Normal 569.8532
3 104 LeftLarger RTTaskAExp2 Prime_6N Target_6N GEMmAIH ElbGLdF Congruent left correct Normal 572.8435
3 105 LeftLarger RTTaskAExp2 Prime_9A Target_6N haGHcKJ egLaDJc Congruent left correct Normal 528.9348
3 106 LeftLarger RTTaskAExp2 Prime_1N Target_9N GjJcChg AMkFKCl Incongruent left correct Normal 575.0904
3 107 LeftLarger RTTaskAExp2 Prime_1A Target_6N HJBdahe MieHBcI Incongruent left correct Normal 621.3589
3 108 LeftLarger RTTaskAExp2 Prime_6A Target_4A lDfJKiB aEjdJBe Incongruent right correct Normal 610.0469
3 109 LeftLarger RTTaskAExp2 Prime_1A Target_4N cBkmgfA egJfCLb Congruent right correct Normal 496.7769
3 110 LeftLarger RTTaskAExp2 Prime_6A Target_6A LCMBKmj ABbGKkd Congruent left correct Normal 529.8392
3 111 LeftLarger RTTaskAExp2 Prime_4A Target_6N LAceglj gdMAmie Incongruent left correct Normal 435.0111
3 112 LeftLarger RTTaskAExp2 Prime_1A Target_4A KmHGLeM BmAfFhG Congruent right correct Normal 616.1393
3 113 LeftLarger RTTaskAExp2 Prime_6A Target_4N dlbaEcA JKkIidb Incongruent right correct Normal 528.769
3 114 LeftLarger RTTaskAExp2 Prime_1A Target_6A chbfMiJ IjCJadm Incongruent left correct Normal 577.5105
3 115 LeftLarger RTTaskAExp2 Prime_4A Target_9A afLhFDE khKfLHD Incongruent left correct Normal 568.699
3 116 LeftLarger RTTaskAExp2 Prime_1A Target_9A fcAMEIl hGbAmaF Incongruent left correct Normal 516.8428
3 117 LeftLarger RTTaskAExp2 Prime_4A Target_1N iHjEBba BHcmIDF Congruent right correct Normal 533.5748
3 118 LeftLarger RTTaskAExp2 Prime_4A Target_6A HIJdMam hblgcEH Incongruent left correct Normal 761.3206
3 119 LeftLarger RTTaskAExp2 Prime_9N Target_4N iAIGBEM HkGIhgf Incongruent right correct Normal 563.4914
3 120 LeftLarger RTTaskAExp2 Prime_4A Target_4A LBiClGh BhEaGHF Congruent right correct Normal 477.3238
3 121 LeftLarger RTTaskAExp2 Prime_9N Target_1N BLbIHED DcCJlmL Incongruent right correct Normal 575.3588
3 122 LeftLarger RTTaskAExp2 Prime_1N Target_6N mlKDGcg KfgmIal Incongruent left correct Normal 578.5454
3 123 LeftLarger RTTaskAExp2 Prime_1N Target_6A AfFDdcM MbFjleE Incongruent left correct Normal 589.599
3 124 LeftLarger RTTaskAExp2 Prime_9A Target_4A cleDkJh IdfmkFB Incongruent right correct Normal 512.702
3 125 LeftLarger RTTaskAExp2 Prime_1N Target_1A CLHIJcF DKMBGcm Congruent right correct Normal 499.2745
3 126 LeftLarger RTTaskAExp2 Prime_4A Target_4N hkGHgKF JLlFAMg Congruent right correct Normal 615.4496
3 127 LeftLarger RTTaskAExp2 Prime_9A Target_6A BKCJafc dmGJCfa Congruent left correct Normal 653.265
3 128 LeftLarger RTTaskAExp2 Prime_4N Target_6N cDfFCJg jJfedli Incongruent left correct Normal 579.752
3 129 LeftLarger RTTaskAExp2 Prime_1N Target_9A HAjEMbF GEMlFJg Incongruent left correct Normal 605.7069
3 130 LeftLarger RTTaskAExp2 Prime_1N Target_4A GKlBjhI EAFhGIi Congruent right correct Normal 570.1426
3 131 LeftLarger RTTaskAExp2 Prime_1N Target_1N BajKkFf GCHaKIA Congruent right correct Normal 489.5179
3 132 LeftLarger RTTaskAExp2 Prime_9N Target_6N bBMmkhA IkjamKG Congruent left correct Normal 608.3413
3 133 LeftLarger RTTaskAExp2 Prime_6N Target_9A akhMFCe CAJKGdj Congruent left correct Normal 619.5862
3 134 LeftLarger RTTaskAExp2 Prime_1N Target_4N HDhCgjf JKecEiA Congruent right correct Normal 593.4263
3 135 LeftLarger RTTaskAExp2 Prime_9A Target_4N JEaKlfA KLiegGl Incongruent right correct Normal 472.0032
3 136 LeftLarger RTTaskAExp2 Prime_1A Target_1A fClDbgh DHbJFKd Congruent right correct Normal 514.0228
3 137 LeftLarger RTTaskAExp2 Prime_9N Target_1A ijDIgHC CgHMBiA Incongruent right correct Normal 480.182
3 138 LeftLarger RTTaskAExp2 Prime_6A Target_9N cCfIHMg jmAGDaI Congruent left correct Normal 666.8333
3 139 LeftLarger RTTaskAExp2 Prime_4N Target_1N IgGcLkB ajfHKDh Congruent right correct Normal 527.1379
3 140 LeftLarger RTTaskAExp2 Prime_6N Target_4N mKkcBLE FHhdmfi Incongruent right correct Normal 524.8044
3 141 LeftLarger RTTaskAExp2 Prime_9A Target_9A JFBeDil blBaMcJ Congruent left correct Normal 557.4349
3 142 LeftLarger RTTaskAExp2 Prime_6A Target_9A gFLjKli hmdKJFk Congruent left correct Normal 424.882
3 143 LeftLarger RTTaskAExp2 Prime_6A Target_1N gEFmjfG fgLGDKe Incongruent right correct Normal 482.3077
3 144 LeftLarger RTTaskAExp2 Prime_1A Target_9N dIMfBic dleKagJ Incongruent left correct Normal 536.3444
3 145 LeftLarger RTTaskAExp2 Prime_4N Target_9N kdHIiLj CLAEDfh Incongruent left correct Normal 702.3839
3 146 LeftLarger RTTaskAExp2 Prime_9N Target_9A DLefljK biBCHjg Congruent left correct Normal 565.4482
3 147 LeftLarger RTTaskAExp2 Prime_6N Target_1N gBdhJkL FEBKdDl Incongruent right correct Normal 630.8722
3 148 LeftLarger RTTaskAExp2 Prime_4N Target_4A mBfbFjd aHeJglI Congruent right correct Normal 633.8336
3 149 LeftLarger RTTaskAExp2 Prime_4N Target_4N fjgMKad dbHDKBI Congruent right correct Normal 463.5816
3 150 LeftSmaller RTTaskBPrac Prime_6A Target_1N HmcLfGb cHJgLGa Incongruent left correct Normal 634.2132
3 151 LeftSmaller RTTaskBPrac Prime_6N Target_9N hdCKmMe fgMkDLl Congruent right correct Normal 663.065
3 152 LeftSmaller RTTaskBPrac Prime_1A Target_4A BKbEHlJ kBeGACK Congruent left correct Normal 598.2422
3 153 LeftSmaller RTTaskBPrac Prime_9N Target_4A gjAGBKJ HBgAjKE Incongruent left correct Normal 586.9456
3 154 LeftSmaller RTTaskBPrac Prime_6N Target_6A HfgiIjc kjCgKIM Congruent right correct Normal 674.3812
3 155 LeftSmaller RTTaskBPrac Prime_4A Target_6N BgaGfJK KJgfiLG Incongruent right correct Normal 581.1793
3 156 LeftSmaller RTTaskBPrac Prime_1A Target_9N lfcdAHj kCADEej Incongruent right correct Normal 621.8441
3 157 LeftSmaller RTTaskBPrac Prime_1N Target_9A jklCIGc cmkbEGJ Incongruent right correct Normal 544.7728
3 158 LeftSmaller RTTaskBPrac Prime_9A Target_9A ILbadFK albHDMJ Congruent right correct Normal 425.6872
3 159 LeftSmaller RTTaskBPrac Prime_4A Target_9N aBKElDe fhdLCiB Incongruent right correct Normal 518.7071
3 160 LeftSmaller RTTaskBPrac Prime_9A Target_6N ecbEdBL EhMHgdm Congruent right correct Normal 786.3823
3 161 LeftSmaller RTTaskBPrac Prime_1N Target_6A BiMjmlK bKCilfA Incongruent right correct Normal 485.5625
3 162 LeftSmaller RTTaskBPrac Prime_6N Target_1N EeicJmB bhJBFKM Incongruent left correct Normal 739.608
3 163 LeftSmaller RTTaskBPrac Prime_9A Target_4A BhagIiH imBeGFb Incongruent left correct Normal 974.1418
3 164 LeftSmaller RTTaskBPrac Prime_9N Target_1A bgfLBdE mbGEcaA Incongruent left correct Normal 643.482
3 165 LeftSmaller RTTaskBPrac Prime_1A Target_6A gmJKhMH migFdGI Incongruent right correct Normal 572.37
3 166 LeftSmaller RTTaskBExp1 Prime_6A Target_9A GJCMKcA DGkMCme Congruent right correct Normal 604.5794
3 167 LeftSmaller RTTaskBExp1 Prime_4N Target_6A KagCJME JjaMbgh Incongruent right correct Normal 965.7416
3 168 LeftSmaller RTTaskBExp1 Prime_1A Target_1A mEDegjH LGClEej Congruent left correct Normal 609.2885
3 169 LeftSmaller RTTaskBExp1 Prime_4N Target_9A FHfkbid kgidEHI Incongruent right correct Normal 788.8033
3 170 LeftSmaller RTTaskBExp1 Prime_9N Target_4A HfBlIeC mfkiDEC Incongruent left correct Normal 582.8051
3 171 LeftSmaller RTTaskBExp1 Prime_4N Target_1A HkFfgad CKciLaJ Congruent left correct Normal 528.1093
3 172 LeftSmaller RTTaskBExp1 Prime_1A Target_6A mhADHFI KhcGkBH Incongruent right correct Normal 591.9543
3 173 LeftSmaller RTTaskBExp1 Prime_6A Target_4A mEKglJC HLeKbIM Incongruent left correct Normal 536.1371
3 174 LeftSmaller RTTaskBExp1 Prime_4N Target_6N ceKCAlh iDaMHGf Incongruent right correct Normal 536.3082
3 175 LeftSmaller RTTaskBExp1 Prime_9A Target_1N lHkCBjh cIFjhDe Incongruent left correct Normal 546.3469
3 176 LeftSmaller RTTaskBExp1 Prime_4N Target_4A eifgmMc BFIEjMh Congruent left correct Normal 664.6298
3 177 LeftSmaller RTTaskBExp1 Prime_6N Target_6N jlDAMJe DKBEfMG Congruent right correct Normal 532.7014
3 178 LeftSmaller RTTaskBExp1 Prime_1N Target_9A MBjEcme BhecECa Incongruent right correct Normal 696.8536
3 179 LeftSmaller RTTaskBExp1 Prime_1A Target_1N kBGFMgJ gIMaCHi Congruent left correct Normal 630.5696
3 180 LeftSmaller RTTaskBExp1 Prime_6A Target_6N EljBcbh EmfCeAb Congruent right correct Normal 639.4489
3 181 LeftSmaller RTTaskBExp1 Prime_9A Target_6N dKilejJ LekJHlf Congruent right correct Normal 642.3756
3 182 LeftSmaller RTTaskBExp1 Prime_1N Target_1A kLigGmB hkELFlK Congruent left correct Normal 541.2797
3 183 LeftSmaller RTTaskBExp1 Prime_4A Target_9A MdkfLIC AfEKIeF Incongruent right correct Normal 504.8227
3 184 LeftSmaller RTTaskBExp1 Prime_1N Target_4A GHAleLf dAmfFJI Congruent left correct Normal 493.2381
3 185 LeftSmaller RTTaskBExp1 Prime_4N Target_4N HfgKhGE jgFfaED Congruent left correct Normal 679.7471
3 186 LeftSmaller RTTaskBExp1 Prime_9A Target_9N dCkEGaD fgDBjlG Congruent right correct Normal 483.6094
3 187 LeftSmaller RTTaskBExp1 Prime_6A Target_6A kceLajD mjCMlfF Congruent right correct Normal 588.769
3 188 LeftSmaller RTTaskBExp1 Prime_9N Target_4N iEdaKDe KIhHAlD Incongruent left correct Normal 632.6858
3 189 LeftSmaller RTTaskBExp1 Prime_4A Target_6N GALmKIM dAghaDE Incongruent right correct Normal 670.5783
3 190 LeftSmaller RTTaskBExp1 Prime_1A Target_9N lmdhLFE EajbFAH Incongruent right correct Normal 596.5047
3 191 LeftSmaller RTTaskBExp1 Prime_9N Target_9A DhiFLkd CEIidBk Congruent right correct Normal 459.6201
3 192 LeftSmaller RTTaskBExp1 Prime_6N Target_9N mAMdekD cBeGHfE Congruent right correct Normal 522.3522
3 193 LeftSmaller RTTaskBExp1 Prime_9N Target_1N AieIlmj dhgiELc Incongruent left correct Normal 642.1314
3 194 LeftSmaller RTTaskBExp1 Prime_4A Target_4N lMKjAga GJBFalI Congruent left correct Normal 564.4243
3 195 LeftSmaller RTTaskBExp1 Prime_9A Target_6A jDhmIHl gkACIjh Congruent right correct Normal 559.5595
3 196 LeftSmaller RTTaskBExp1 Prime_9N Target_6N mGfbekd lKGeHjk Congruent right correct Normal 741.2723
3 197 LeftSmaller RTTaskBExp1 Prime_6N Target_1A elbdLfi AJdilCD Incongruent left correct Normal 558.1867
3 198 LeftSmaller RTTaskBExp1 Prime_9A Target_1A IeAKkED Ldibkgc Incongruent left correct Normal 583.6292
3 199 LeftSmaller RTTaskBExp1 Prime_1N Target_6N bdDKahM LBJMmig Incongruent right correct Normal 511.1485
3 200 LeftSmaller RTTaskBExp1 Prime_1A Target_9A IBgficF dbMGaLA Incongruent right correct Normal 533.059
3 201 LeftSmaller RTTaskBExp1 Prime_4A Target_1A kDLjGBc dDmKaLk Congruent left correct Normal 560.358
3 202 LeftSmaller RTTaskBExp1 Prime_6N Target_1N IjgCcKE cEfkaJC Incongruent left correct Normal 582.5222
3 203 LeftSmaller RTTaskBExp1 Prime_1A Target_4A gGIelaj BJCkMDd Congruent left correct Normal 626.5909
3 204 LeftSmaller RTTaskBExp1 Prime_1N Target_9N GiIAabE gcadkbm Incongruent right correct Normal 506.4928
3 205 LeftSmaller RTTaskBExp1 Prime_6N Target_6A CaibjhF LlMCaEj Congruent right correct Normal 772.9018
3 206 LeftSmaller RTTaskBExp1 Prime_9A Target_9A AkGhMLH ADKabJe Congruent right correct Normal 586.8324
3 207 LeftSmaller RTTaskBExp1 Prime_6N Target_4N AFldMGH JLdgKiH Incongruent left correct Normal 592.8703
3 208 LeftSmaller RTTaskBExp1 Prime_4A Target_9N AilCjhH afcJMFH Incongruent right correct Normal 456.4278
3 209 LeftSmaller RTTaskBExp1 Prime_9N Target_1A jGAJIaM AjLbIBh Incongruent left correct Normal 556.2022
3 210 LeftSmaller RTTaskBExp1 Prime_6A Target_4N HmcjDIC LFEMaHk Incongruent right error Normal 523.8643
3 211 LeftSmaller RTTaskBExp1 Prime_6A Target_1A mALbeiJ DFAiedl Incongruent left correct Normal 691.066
3 212 LeftSmaller RTTaskBExp1 Prime_6A Target_9N cAKMjEi AHDMcbK Congruent right correct Normal 884.3831
3 213 LeftSmaller RTTaskBExp1 Prime_4N Target_1N EIkcmFC kHfABiC Congruent left correct Normal 711.8023
3 214 LeftSmaller RTTaskBExp1 Prime_4A Target_1N JecBHFh ejgHChd Congruent left correct Normal 580.7101
3 215 LeftSmaller RTTaskBExp1 Prime_1N Target_1N DdhmECA FDcIgkL Congruent left correct Normal 597.8899
3 216 LeftSmaller RTTaskBExp1 Prime_1N Target_6A lAcmeiE JIlmDLk Incongruent right correct Normal 532.9467
3 217 LeftSmaller RTTaskBExp1 Prime_9A Target_4A LcImJkh ALHjgGF Incongruent left correct Normal 674.2232
3 218 LeftSmaller RTTaskBExp1 Prime_6N Target_4A hGMJlCB JBfHFCi Incongruent left correct Normal 560.6442
3 219 LeftSmaller RTTaskBExp1 Prime_1A Target_6N GcJmjDd dFCKEmA Incongruent right correct Normal 517.6927
3 220 LeftSmaller RTTaskBExp1 Prime_1A Target_4N kgDabAJ GCeiEcD Congruent left correct Normal 660.8746
3 221 LeftSmaller RTTaskBExp1 Prime_4A Target_6A mhcAdKa aCAdDfJ Incongruent right correct Normal 524.0401
3 222 LeftSmaller RTTaskBExp1 Prime_9N Target_6A jLkhCHi iGbgKLl Congruent right correct Normal 559.3005
3 223 LeftSmaller RTTaskBExp1 Prime_6A Target_4N EaGBmjI GKlmibA Incongruent left correct Normal 498.0732
3 224 LeftSmaller RTTaskBExp1 Prime_9N Target_9N aeKfblE bdIfFjM Congruent right correct Late 1195.535
3 225 LeftSmaller RTTaskBExp1 Prime_1N Target_4N MhkDLHA mgFlkjD Congruent left correct Normal 613.0025
3 226 LeftSmaller RTTaskBExp1 Prime_9A Target_4N aJmBhjK egJmDBK Incongruent left correct Normal 525.7679
3 227 LeftSmaller RTTaskBExp1 Prime_6N Target_9A GajlgCk MLGagFl Congruent right correct Normal 595.0825
3 228 LeftSmaller RTTaskBExp1 Prime_6A Target_1N GljbHdF iFChjfm Incongruent left correct Normal 532.9052
3 229 LeftSmaller RTTaskBExp1 Prime_9N Target_9N fDAEBdg CFkMEgb Congruent right correct Normal 498.0263
3 230 LeftSmaller RTTaskBExp1 Prime_4N Target_9N bgicHkF HdgmfMk Incongruent right correct Normal 646.6865
3 231 LeftSmaller RTTaskBExp1 Prime_4A Target_4A JLlHIBK khiaEBA Congruent left correct Normal 521.3479
3 232 LeftSmaller RTTaskBExp2 Prime_9A Target_9A jifcKhC iHhdBFI Congruent right correct Normal 584.8689
3 233 LeftSmaller RTTaskBExp2 Prime_4A Target_1A hGHKeIF jlKiBGh Congruent left correct Normal 479.6091
3 234 LeftSmaller RTTaskBExp2 Prime_4N Target_9N IMCckeH eKAmfgk Incongruent right correct Normal 501.498
3 235 LeftSmaller RTTaskBExp2 Prime_9N Target_4A JGidcCh eHIGckC Incongruent left correct Normal 535.7811
3 236 LeftSmaller RTTaskBExp2 Prime_9A Target_4N fDgBMjh miglhDI Incongruent left correct Normal 537.1074
3 237 LeftSmaller RTTaskBExp2 Prime_4A Target_4N lhkbmei EFAHDhk Congruent left correct Normal 455.1241
3 238 LeftSmaller RTTaskBExp2 Prime_4A Target_4A mbIBike JDLCljm Congruent left correct Normal 426.4291
3 239 LeftSmaller RTTaskBExp2 Prime_6A Target_1N MgcKjdb DhdIgam Incongruent left correct Normal 492.7389
3 240 LeftSmaller RTTaskBExp2 Prime_4N Target_4N fjdcECa MaCBghJ Congruent left correct Normal 560.8803
3 241 LeftSmaller RTTaskBExp2 Prime_6N Target_1N fadAFeI GDCjAbI Incongruent left correct Normal 524.6588
3 242 LeftSmaller RTTaskBExp2 Prime_4N Target_6N JLbAkEG LFmKAID Incongruent right correct Normal 588.8355
3 243 LeftSmaller RTTaskBExp2 Prime_6A Target_9A bEhHeAB MLhbefd Congruent right correct Normal 489.2799
3 244 LeftSmaller RTTaskBExp2 Prime_6A Target_6N dAKgGaj eAILGbj Congruent right correct Normal 472.9033
3 245 LeftSmaller RTTaskBExp2 Prime_9A Target_6N aBAMhCI LgJklKB Congruent right correct Normal 626.0509
3 246 LeftSmaller RTTaskBExp2 Prime_9A Target_6A mjDclAa EBfjChe Congruent right correct Normal 458.2474
3 247 LeftSmaller RTTaskBExp2 Prime_6N Target_6A hfmbgjM LijIkfm Congruent right correct Normal 465.0532
3 248 LeftSmaller RTTaskBExp2 Prime_4A Target_9A cCgleAh GaKBCdg Incongruent right correct Normal 558.0911
3 249 LeftSmaller RTTaskBExp2 Prime_6N Target_6N LDkCBJh dfIlhCM Congruent right correct Normal 459.1971
3 250 LeftSmaller RTTaskBExp2 Prime_6N Target_4A jCfIbHl MaKCEfm Incongruent left correct Normal 729.6689
3 251 LeftSmaller RTTaskBExp2 Prime_9A Target_1A GdLBkIa jBMEAbl Incongruent left correct Normal 446.4948
3 252 LeftSmaller RTTaskBExp2 Prime_6A Target_9N hcdjGCI gaLGHfe Congruent right correct Normal 547.5225
3 253 LeftSmaller RTTaskBExp2 Prime_9N Target_4N kiAMmHD KcMJDkA Incongruent left correct Normal 505.9458
3 254 LeftSmaller RTTaskBExp2 Prime_6N Target_9N bDJMAfi HCjdAIi Congruent right correct Normal 519.3564
3 255 LeftSmaller RTTaskBExp2 Prime_9A Target_1N MjJeLaF ifKaeEb Incongruent left correct Normal 456.526
3 256 LeftSmaller RTTaskBExp2 Prime_4N Target_6A fbdEBhG hHMDJek Incongruent right correct Normal 485.4408
3 257 LeftSmaller RTTaskBExp2 Prime_1N Target_9N EHAekCG gLDGKEh Incongruent right correct Normal 523.0781
3 258 LeftSmaller RTTaskBExp2 Prime_4A Target_9N KHilbgF Kmkehba Incongruent right correct Normal 525.7848
3 259 LeftSmaller RTTaskBExp2 Prime_4N Target_1A fbJacig CJlLGkB Congruent left correct Normal 499.1936
3 260 LeftSmaller RTTaskBExp2 Prime_1N Target_6A DCjcIfa cJFCMEb Incongruent right correct Normal 572.8668
3 261 LeftSmaller RTTaskBExp2 Prime_1N Target_4A HFakdfl HKmaMjk Congruent left correct Normal 577.8638
3 262 LeftSmaller RTTaskBExp2 Prime_6A Target_4N MIgHGeF AHdgEkm Incongruent left correct Normal 472.8488
3 263 LeftSmaller RTTaskBExp2 Prime_9N Target_9N HhfAbak cLfkKDC Congruent right correct Normal 509.6185
3 264 LeftSmaller RTTaskBExp2 Prime_9A Target_9N DfGcljC hGAjEfF Congruent right correct Normal 488.3419
3 265 LeftSmaller RTTaskBExp2 Prime_9A Target_4A GDjABiI IkGcJjh Incongruent left correct Normal 530.0929
3 266 LeftSmaller RTTaskBExp2 Prime_1N Target_1N EJebLkh KLhGeig Congruent left correct Normal 548.364
3 267 LeftSmaller RTTaskBExp2 Prime_1A Target_6N cIeGalF EgfaGjl Incongruent right correct Normal 534.1236
3 268 LeftSmaller RTTaskBExp2 Prime_9N Target_1N mGJbajc EGjCgIl Incongruent left correct Normal 545.6035
3 269 LeftSmaller RTTaskBExp2 Prime_4A Target_6N EBMIJDl cgjMdfH Incongruent right correct Normal 509.1324
3 270 LeftSmaller RTTaskBExp2 Prime_9N Target_9A eiDJBbH mBiDJgF Congruent right correct Normal 587.9381
3 271 LeftSmaller RTTaskBExp2 Prime_9N Target_1A cHmgMfa BaEmiJk Incongruent left correct Normal 546.6888
3 272 LeftSmaller RTTaskBExp2 Prime_1N Target_4N aigEbLG gGHCcKa Congruent left correct Normal 632.4023
3 273 LeftSmaller RTTaskBExp2 Prime_6N Target_9A hEfDidk EmKbaBh Congruent right correct Normal 503.8176
3 274 LeftSmaller RTTaskBExp2 Prime_6A Target_6A JCbkDfg dlDEJch Congruent right correct Normal 476.6133
3 275 LeftSmaller RTTaskBExp2 Prime_4N Target_9A ilGgcFf HMKGlBL Incongruent right correct Normal 536.3673
3 276 LeftSmaller RTTaskBExp2 Prime_4A Target_6A AjHfJbk kBfmcMj Incongruent right correct Normal 554.3159
3 277 LeftSmaller RTTaskBExp2 Prime_1N Target_6N MjfAmlc bAEBicl Incongruent right correct Normal 504.9598
3 278 LeftSmaller RTTaskBExp2 Prime_1N Target_1A laBkbCM KEfmLgI Congruent left correct Normal 490.6608
3 279 LeftSmaller RTTaskBExp2 Prime_1A Target_4A KEfeghH ajhcAJG Congruent left correct Normal 436.5803
3 280 LeftSmaller RTTaskBExp2 Prime_1N Target_9A LhlmkAf KIFDCeM Incongruent right correct Normal 545.1018
3 281 LeftSmaller RTTaskBExp2 Prime_1A Target_9A IBDjeCK HlejCaE Incongruent right correct Normal 421.0318
3 282 LeftSmaller RTTaskBExp2 Prime_6A Target_4A lFhIcBi JIbeACi Incongruent left correct Normal 522.4726
3 283 LeftSmaller RTTaskBExp2 Prime_4A Target_1N gEBHLKI hedLgbc Congruent left correct Normal 530.3921
3 284 LeftSmaller RTTaskBExp2 Prime_1A Target_6A KIikmFJ DFKfBMi Incongruent right correct Normal 492.2573
3 285 LeftSmaller RTTaskBExp2 Prime_1A Target_4N mGilEfJ LlIDEMi Congruent left correct Normal 485.8457
3 286 LeftSmaller RTTaskBExp2 Prime_9N Target_6A iKJcFfk imaGIjb Congruent right correct Normal 439.3573
3 287 LeftSmaller RTTaskBExp2 Prime_4N Target_1N HJGalMb EMKGFjd Congruent left correct Normal 531.5143
3 288 LeftSmaller RTTaskBExp2 Prime_1A Target_9N kGCDABH JAhCEGg Incongruent right correct Normal 481.0886
3 289 LeftSmaller RTTaskBExp2 Prime_6A Target_1A cHJabBd jJdIaFc Incongruent left correct Normal 447.6226
3 290 LeftSmaller RTTaskBExp2 Prime_9N Target_6N LbdMlfe gGKkjAc Congruent right correct Normal 673.4161
3 291 LeftSmaller RTTaskBExp2 Prime_6N Target_1A bDLijBJ FEDLhGA Incongruent left correct Normal 542.0993
3 292 LeftSmaller RTTaskBExp2 Prime_1A Target_1N akCjDBm cJGKejE Congruent left correct Normal 530.0189
3 293 LeftSmaller RTTaskBExp2 Prime_4N Target_4A eabmMkB LelaJbF Congruent left correct Normal 523.9359
3 294 LeftSmaller RTTaskBExp2 Prime_1A Target_1A jBIbMKk jFMgAEl Congruent left correct Normal 493.1194
3 295 LeftSmaller RTTaskBExp2 Prime_6N Target_4N ifBgDaH ajJFiGD Incongruent left correct Normal 499.9885
4 1 LeftLarger RTTaskAPrac Prime_4N Target_6A BmFKIga GeKdgIB Incongruent left correct Late 7798.942
4 2 LeftLarger RTTaskAPrac Prime_9N Target_1N BlfFKmA EjMfeCH Incongruent left error Late 1906.297
4 3 LeftLarger RTTaskAPrac Prime_4N Target_6A DhMeCKj bBIfaim Incongruent right error Late 2098.096
4 4 LeftLarger RTTaskAPrac Prime_4A Target_6A GhKHcfB ehcbfiM Incongruent left correct Late 7853.552
4 5 LeftLarger RTTaskAPrac Prime_4N Target_9A IahlcMd HhmDkFf Incongruent left correct Late 1467.478
4 6 LeftLarger RTTaskAPrac Prime_9N Target_1N mFLJdkD cdIDmHk Incongruent right correct Normal 992.37
4 7 LeftLarger RTTaskAPrac Prime_4N Target_1N BdCDAfK JFAfECm Congruent right correct Normal 808.4123
4 8 LeftLarger RTTaskAPrac Prime_4A Target_9N GIDAbli hgaMmBC Incongruent left correct Normal 877.8315
4 9 LeftLarger RTTaskAPrac Prime_6N Target_4A eBFHikh MDdHkeb Incongruent right correct Normal 897.3488
4 10 LeftLarger RTTaskAPrac Prime_1N Target_1N cEKeBgm gcjMDmC Congruent left error Normal 600.533
4 11 LeftLarger RTTaskAPrac Prime_4N Target_1A jKCkLgD lfKEAHI Congruent right correct Normal 625.8357
4 12 LeftLarger RTTaskAPrac Prime_4N Target_6A GfbCDjI dEJcLMg Incongruent left correct Normal 535.4017
4 13 LeftLarger RTTaskAPrac Prime_6A Target_4N Khikbgm ejilmhL Incongruent right correct Late 2180.695
4 14 LeftLarger RTTaskAPrac Prime_9A Target_1N bgLiCJA hLaJCDE Incongruent right correct Late 1635.916
4 15 LeftLarger RTTaskAPrac Prime_6A Target_4N MHmgiAl mgGBdkc Incongruent right correct Normal 709.7135
4 16 LeftLarger RTTaskAPrac Prime_6N Target_6N kElCHMb eiHKhmE Congruent left correct Late 1248.669
4 17 LeftLarger RTTaskAPrac Prime_6N Target_1A kdDKife cFghLGi Incongruent right correct Late 1026.31
4 18 LeftLarger RTTaskAPrac Prime_1N Target_1N clMFmCd iajBGgH Congruent right correct Normal 788.1702
4 19 LeftLarger RTTaskAPrac Prime_6N Target_1A aCFEeLb FlIHDfA Incongruent right correct Normal 479.962
4 20 LeftLarger RTTaskAPrac Prime_6N Target_6A EHCAKjG fgJBcAl Congruent left correct Normal 656.5256
4 21 LeftLarger RTTaskAPrac Prime_9A Target_1A BALJcdK gIifdFM Incongruent right correct Normal 732.5686
4 22 LeftLarger RTTaskAPrac Prime_4N Target_4A CiBlDbk hdAigCj Congruent left error Normal 878.2643
4 23 LeftLarger RTTaskAPrac Prime_4A Target_6A cfEAkMh aIeMLDF Incongruent left correct Late 1171.036
4 24 LeftLarger RTTaskAPrac Prime_4N Target_4A MGKmDif CKhHdlD Congruent right correct Normal 599.937
4 25 LeftLarger RTTaskAPrac Prime_4A Target_6A dGfLAhe EgaKbId Incongruent left correct Late 1150.545
4 26 LeftLarger RTTaskAPrac Prime_9A Target_1N BEFKefg LJmMgAc Incongruent right correct Normal 680.4422
4 27 LeftLarger RTTaskAPrac Prime_4N Target_9A eBclALf dBjlaGF Incongruent left correct Normal 689.7482
4 28 LeftLarger RTTaskAPrac Prime_4A Target_6A FcIKlJM mdaDfiF Incongruent right error Normal 506.2044
4 29 LeftLarger RTTaskAPrac Prime_4A Target_6A IbJKFMG afhJKIl Incongruent right error Normal 676.2613
4 30 LeftLarger RTTaskAPrac Prime_4A Target_6A EJmeAGa bMACaLE Incongruent left correct Late 2563.683
4 31 LeftLarger RTTaskAPrac Prime_4A Target_6A ijkKcCB hHEliAC Incongruent left correct Normal 955.7606
4 32 LeftLarger RTTaskAPrac Prime_6N Target_6N iebhKEH EGaldKc Congruent left correct Normal 896.2384
4 33 LeftLarger RTTaskAExp1 Prime_4N Target_6A aCedEhi GdfJajK Incongruent right error Normal 682.6815
4 34 LeftLarger RTTaskAExp1 Prime_4A Target_1N LFGDkHB GCJDFmg Congruent right correct Normal 782.2867
4 35 LeftLarger RTTaskAExp1 Prime_4N Target_1A gCBFdJf aLijeJF Congruent right correct Normal 576.7386
4 36 LeftLarger RTTaskAExp1 Prime_1N Target_4A icJALmD gKhjIeA Congruent right correct Normal 528.6189
4 37 LeftLarger RTTaskAExp1 Prime_6A Target_6A lFMJmfj fHljkdJ Congruent left correct Normal 523.7857
4 38 LeftLarger RTTaskAExp1 Prime_1N Target_6A EKFilMj keKfjEB Incongruent left correct Normal 767.068
4 39 LeftLarger RTTaskAExp1 Prime_1N Target_6N BLjKFcl ELGClfb Incongruent left correct Normal 535.1333
4 40 LeftLarger RTTaskAExp1 Prime_6N Target_4N iefmbCc aJDBGlf Incongruent right correct Late 1121.543
4 41 LeftLarger RTTaskAExp1 Prime_4N Target_4N KBAJGca cMFbehl Congruent right correct Normal 748.1638
4 42 LeftLarger RTTaskAExp1 Prime_1N Target_1A CMLmgAh aimIjHg Congruent right correct Normal 628.5002
4 43 LeftLarger RTTaskAExp1 Prime_1A Target_9N fDeLbFB DilKbCg Incongruent left correct Normal 722.1946
4 44 LeftLarger RTTaskAExp1 Prime_6A Target_4N ckmIfBl aElHJBb Incongruent right correct Normal 875.6237
4 45 LeftLarger RTTaskAExp1 Prime_9A Target_9A iefblMK AEdbHaF Congruent right error Normal 528.1202
4 46 LeftLarger RTTaskAExp1 Prime_4A Target_1A BeAicKm AflCejI Congruent right correct Normal 819.9761
4 47 LeftLarger RTTaskAExp1 Prime_6A Target_4A hCIKBdf mjalBLE Incongruent right correct Late 1124.658
4 48 LeftLarger RTTaskAExp1 Prime_6N Target_4N elEKaLB GbIlhEc Incongruent right correct Normal 546.6056
4 49 LeftLarger RTTaskAExp1 Prime_9A Target_4N eMmHGhc mCcHDkj Incongruent right correct Normal 505.982
4 50 LeftLarger RTTaskAExp1 Prime_1A Target_1N gacmelF hiCMDFj Congruent right correct Normal 508.1705
4 51 LeftLarger RTTaskAExp1 Prime_9N Target_1A CgLhIFA KJgihFe Incongruent right correct Normal 440.8494
4 52 LeftLarger RTTaskAExp1 Prime_6A Target_1N kAchKla lDhcMEi Incongruent right correct Normal 507.7564
4 53 LeftLarger RTTaskAExp1 Prime_6A Target_6N bADHkih LKAkEdm Congruent left correct Normal 586.3581
4 54 LeftLarger RTTaskAExp1 Prime_4A Target_6A dcJejBM kCbFMfm Incongruent left correct Normal 504.8529
4 55 LeftLarger RTTaskAExp1 Prime_9N Target_9N ecKDGfE DdmALbM Congruent left correct Normal 709.5976
4 56 LeftLarger RTTaskAExp1 Prime_1A Target_9A jhkmliC IdjHgaA Incongruent left correct Normal 797.8062
4 57 LeftLarger RTTaskAExp1 Prime_9N Target_9A bDBLGfJ LjIKbkG Congruent left correct Normal 554.9772
4 58 LeftLarger RTTaskAExp1 Prime_6A Target_9A HilmLda EIAhaDj Congruent left correct Normal 512.6251
4 59 LeftLarger RTTaskAExp1 Prime_1A Target_1A LkBAcbG gEkhmld Congruent right correct Normal 605.3177
4 60 LeftLarger RTTaskAExp1 Prime_9A Target_1A JmMeAdG bgHiACh Incongruent right correct Normal 542.3558
