experiment,subject,uniqueID,block,trial,trial_cumulative,age,gender,color_cond_blocking,color_history,shape_type,set_size,distractor,rt,acc,target_orient,response_key,response_made,iti,target_color,target_item,distractor_item,target_X,target_Y,distractor_X,distractor_Y,item1_X,item1_Y,item2_X,item2_Y,item3_X,item3_Y,item4_X,item4_Y,item1_shape,item2_shape,item3_shape,item4_shape,item1_line,item2_line,item3_line,item4_line
2a,12,100261,1,1,1,20,M,NA,variable,heterogeneous,4,present,NaN,0,horizontal,none,0,8,green,2,4,980.31222920257,419.68777079743,619.68777079743,780.31222920257,980.31222920257,780.31222920257,980.31222920257,419.68777079743,619.68777079743,419.68777079743,619.68777079743,780.31222920257,3,4,5,0,horizontal,horizontal,horizontal,vertical
2a,12,100261,1,2,2,20,M,NA,variable,heterogeneous,4,absent,1.25282096862793,1,horizontal,horizontal,1,3,red,4,NaN,619.68777079743,780.31222920257,NaN,NaN,980.31222920257,780.31222920257,980.31222920257,419.68777079743,619.68777079743,419.68777079743,619.68777079743,780.31222920257,5,0,3,4,horizontal,vertical,horizontal,horizontal
2a,12,100261,1,3,3,20,M,NA,variable,heterogeneous,4,present,1.62588095664978,1,horizontal,horizontal,1,2,green,3,2,619.68777079743,419.68777079743,980.31222920257,419.68777079743,980.31222920257,780.31222920257,980.31222920257,419.68777079743,619.68777079743,419.68777079743,619.68777079743,780.31222920257,3,5,4,0,vertical,horizontal,horizontal,vertical
2a,12,100261,1,4,4,20,M,NA,variable,heterogeneous,4,present,1.67114996910095,1,vertical,vertical,1,8,red,2,4,980.31222920257,419.68777079743,619.68777079743,780.31222920257,980.31222920257,780.31222920257,980.31222920257,419.68777079743,619.68777079743,419.68777079743,619.68777079743,780.31222920257,5,4,3,6,horizontal,vertical,vertical,horizontal
2a,12,100261,1,5,5,20,M,NA,variable,heterogeneous,4,absent,1.70059704780579,1,vertical,vertical,1,8,green,2,NaN,980.31222920257,419.68777079743,NaN,NaN,980.31222920257,780.31222920257,980.31222920257,419.68777079743,619.68777079743,419.68777079743,619.68777079743,780.31222920257,0,4,6,3,vertical,vertical,vertical,vertical
2a,12,100261,1,6,6,20,M,NA,variable,heterogeneous,4,present,1.8350248336792,1,vertical,vertical,1,2,green,4,2,619.68777079743,780.31222920257,980.31222920257,419.68777079743,980.31222920257,780.31222920257,980.31222920257,419.68777079743,619.68777079743,419.68777079743,619.68777079743,780.31222920257,6,5,0,4,horizontal,vertical,horizontal,vertical
2a,12,100261,1,7,7,20,M,NA,variable,heterogeneous,4,present,0.955919981002808,1,horizontal,horizontal,1,5,green,3,4,619.68777079743,419.68777079743,619.68777079743,780.31222920257,980.31222920257,780.31222920257,980.31222920257,419.68777079743,619.68777079743,419.68777079743,619.68777079743,780.31222920257,5,0,4,6,vertical,horizontal,horizontal,horizontal
2a,12,100261,1,8,8,20,M,NA,variable,heterogeneous,4,absent,1.43157482147217,0,horizontal,vertical,1,8,green,4,NaN,619.68777079743,780.31222920257,NaN,NaN,980.31222920257,780.31222920257,980.31222920257,419.68777079743,619.68777079743,419.68777079743,619.68777079743,780.31222920257,5,3,6,4,horizontal,vertical,vertical,horizontal
2a,12,100261,1,9,9,20,M,NA,variable,heterogeneous,4,absent,0.844419002532959,1,horizontal,horizontal,1,2,green,4,NaN,619.68777079743,780.31222920257,NaN,NaN,980.31222920257,780.31222920257,980.31222920257,419.68777079743,619.68777079743,419.68777079743,619.68777079743,780.31222920257,6,3,0,4,horizontal,horizontal,horizontal,horizontal
2a,12,100261,1,10,10,20,M,NA,variable,heterogeneous,4,present,0.861260890960693,1,horizontal,horizontal,1,2,green,3,4,619.68777079743,419.68777079743,619.68777079743,780.31222920257,980.31222920257,780.31222920257,980.31222920257,419.68777079743,619.68777079743,419.68777079743,619.68777079743,780.31222920257,5,6,4,0,horizontal,vertical,horizontal,vertical
2a,12,100261,1,11,11,20,M,NA,variable,heterogeneous,4,absent,0.718599081039429,1,vertical,vertical,1,3,red,3,NaN,619.68777079743,419.68777079743,NaN,NaN,980.31222920257,780.31222920257,980.31222920257,419.68777079743,619.68777079743,419.68777079743,619.68777079743,780.31222920257,6,5,4,3,horizontal,horizontal,vertical,vertical
2a,12,100261,1,12,12,20,M,NA,variable,heterogeneous,4,present,0.901471138000488,0,vertical,horizontal,1,2,green,1,2,980.31222920257,780.31222920257,980.31222920257,419.68777079743,980.31222920257,780.31222920257,980.31222920257,419.68777079743,619.68777079743,419.68777079743,619.68777079743,780.31222920257,4,3,0,5,vertical,horizontal,horizontal,horizontal
2a,12,100261,1,13,13,20,M,NA,variable,heterogeneous,4,absent,1.56339907646179,1,horizontal,horizontal,1,2,red,4,NaN,619.68777079743,780.31222920257,NaN,NaN,980.31222920257,780.31222920257,980.31222920257,419.68777079743,619.68777079743,419.68777079743,619.68777079743,780.31222920257,3,6,0,4,vertical,vertical,horizontal,horizontal
2a,12,100261,1,14,14,20,M,NA,variable,heterogeneous,4,absent,1.29915404319763,1,vertical,vertical,1,2,red,3,NaN,619.68777079743,419.68777079743,NaN,NaN,980.31222920257,780.31222920257,980.31222920257,419.68777079743,619.68777079743,419.68777079743,619.68777079743,780.31222920257,6,0,4,3,vertical,vertical,vertical,horizontal
2a,12,100261,1,15,15,20,M,NA,variable,heterogeneous,4,absent,1.24946188926697,1,horizontal,horizontal,1,3,green,2,NaN,980.31222920257,419.68777079743,NaN,NaN,980.31222920257,780.31222920257,980.31222920257,419.68777079743,619.68777079743,419.68777079743,619.68777079743,780.31222920257,0,4,5,6,horizontal,horizontal,vertical,vertical
2a,12,100261,1,16,16,20,M,NA,variable,heterogeneous,4,absent,NaN,0,vertical,none,0,5,red,2,NaN,980.31222920257,419.68777079743,NaN,NaN,980.31222920257,780.31222920257,980.31222920257,419.68777079743,619.68777079743,419.68777079743,619.68777079743,780.31222920257,5,4,6,0,vertical,vertical,horizontal,vertical
2a,12,100261,1,17,17,20,M,NA,variable,heterogeneous,4,present,0.971143007278442,1,horizontal,horizontal,1,5,green,2,3,980.31222920257,419.68777079743,619.68777079743,419.68777079743,980.31222920257,780.31222920257,980.31222920257,419.68777079743,619.68777079743,419.68777079743,619.68777079743,780.31222920257,0,4,5,6,vertical,horizontal,vertical,vertical
2a,12,100261,1,18,18,20,M,NA,variable,heterogeneous,4,present,1.87475490570068,1,vertical,vertical,1,3,red,3,1,619.68777079743,419.68777079743,980.31222920257,780.31222920257,980.31222920257,780.31222920257,980.31222920257,419.68777079743,619.68777079743,419.68777079743,619.68777079743,780.31222920257,3,5,4,6,vertical,vertical,vertical,vertical
2a,12,100261,1,19,19,20,M,NA,variable,heterogeneous,4,present,0.928396940231323,1,horizontal,horizontal,1,3,red,3,1,619.68777079743,419.68777079743,980.31222920257,780.31222920257,980.31222920257,780.31222920257,980.31222920257,419.68777079743,619.68777079743,419.68777079743,619.68777079743,780.31222920257,0,5,4,3,horizontal,horizontal,horizontal,vertical
2a,12,100261,1,20,20,20,M,NA,variable,heterogeneous,4,absent,0.923266887664795,1,vertical,vertical,1,5,red,2,NaN,980.31222920257,419.68777079743,NaN,NaN,980.31222920257,780.31222920257,980.31222920257,419.68777079743,619.68777079743,419.68777079743,619.68777079743,780.31222920257,0,4,5,6,horizontal,vertical,vertical,vertical
2a,12,100261,1,21,21,20,M,NA,variable,heterogeneous,4,absent,1.81027293205261,1,vertical,vertical,1,3,red,1,NaN,980.31222920257,780.31222920257,NaN,NaN,980.31222920257,780.31222920257,980.31222920257,419.68777079743,619.68777079743,419.68777079743,619.68777079743,780.31222920257,4,5,6,3,vertical,horizontal,vertical,horizontal
2a,12,100261,1,22,22,20,M,NA,variable,heterogeneous,4,present,NaN,0,horizontal,none,0,3,red,2,3,980.31222920257,419.68777079743,619.68777079743,419.68777079743,980.31222920257,780.31222920257,980.31222920257,419.68777079743,619.68777079743,419.68777079743,619.68777079743,780.31222920257,5,4,3,0,horizontal,horizontal,vertical,horizontal
2a,12,100261,1,23,23,20,M,NA,variable,heterogeneous,4,absent,0.895282983779907,1,vertical,vertical,1,2,red,4,NaN,619.68777079743,780.31222920257,NaN,NaN,980.31222920257,780.31222920257,980.31222920257,419.68777079743,619.68777079743,419.68777079743,619.68777079743,780.31222920257,0,3,6,4,horizontal,vertical,vertical,vertical
2a,12,100261,1,24,24,20,M,NA,variable,heterogeneous,4,absent,0.83713698387146,1,horizontal,horizontal,1,2,green,4,NaN,619.68777079743,780.31222920257,NaN,NaN,980.31222920257,780.31222920257,980.31222920257,419.68777079743,619.68777079743,419.68777079743,619.68777079743,780.31222920257,6,5,3,4,vertical,horizontal,horizontal,horizontal
2a,12,100261,1,25,25,20,M,NA,variable,heterogeneous,4,present,1.41437387466431,1,horizontal,horizontal,1,2,green,3,1,619.68777079743,419.68777079743,980.31222920257,780.31222920257,980.31222920257,780.31222920257,980.31222920257,419.68777079743,619.68777079743,419.68777079743,619.68777079743,780.31222920257,6,3,4,5,vertical,vertical,horizontal,vertical
2a,12,100261,1,26,26,20,M,NA,variable,heterogeneous,4,absent,1.50313806533813,0,horizontal,vertical,1,5,red,1,NaN,980.31222920257,780.31222920257,NaN,NaN,980.31222920257,780.31222920257,980.31222920257,419.68777079743,619.68777079743,419.68777079743,619.68777079743,780.31222920257,4,5,0,6,horizontal,vertical,horizontal,vertical
2a,12,100261,1,27,27,20,M,NA,variable,heterogeneous,4,present,NaN,0,vertical,none,0,5,green,3,2,619.68777079743,419.68777079743,980.31222920257,419.68777079743,980.31222920257,780.31222920257,980.31222920257,419.68777079743,619.68777079743,419.68777079743,619.68777079743,780.31222920257,6,3,4,5,vertical,vertical,vertical,vertical
2a,12,100261,1,28,28,20,M,NA,variable,heterogeneous,4,present,1.76170992851257,1,vertical,vertical,1,3,red,3,2,619.68777079743,419.68777079743,980.31222920257,419.68777079743,980.31222920257,780.31222920257,980.31222920257,419.68777079743,619.68777079743,419.68777079743,619.68777079743,780.31222920257,5,3,4,0,vertical,horizontal,vertical,horizontal
2a,12,100261,1,29,29,20,M,NA,variable,heterogeneous,4,present,NaN,0,vertical,none,0,2,red,3,1,619.68777079743,419.68777079743,980.31222920257,780.31222920257,980.31222920257,780.31222920257,980.31222920257,419.68777079743,619.68777079743,419.68777079743,619.68777079743,780.31222920257,0,6,4,5,horizontal,horizontal,vertical,vertical
2a,12,100261,1,30,30,20,M,NA,variable,heterogeneous,4,absent,1.49726796150208,1,horizontal,horizontal,1,5,green,1,NaN,980.31222920257,780.31222920257,NaN,NaN,980.31222920257,780.31222920257,980.31222920257,419.68777079743,619.68777079743,419.68777079743,619.68777079743,780.31222920257,4,6,3,5,horizontal,vertical,vertical,vertical
2a,12,100261,1,31,31,20,M,NA,variable,heterogeneous,4,present,1.55169701576233,1,vertical,vertical,1,5,red,4,3,619.68777079743,780.31222920257,619.68777079743,419.68777079743,980.31222920257,780.31222920257,980.31222920257,419.68777079743,619.68777079743,419.68777079743,619.68777079743,780.31222920257,3,0,6,4,horizontal,horizontal,vertical,vertical
2a,12,100261,1,32,32,20,M,NA,variable,heterogeneous,4,absent,0.786808013916016,1,vertical,vertical,1,2,green,3,NaN,619.68777079743,419.68777079743,NaN,NaN,980.31222920257,780.31222920257,980.31222920257,419.68777079743,619.68777079743,419.68777079743,619.68777079743,780.31222920257,5,0,4,6,vertical,vertical,vertical,vertical
2a,12,100261,2,1,33,20,M,NA,variable,heterogeneous,4,absent,0.776201009750366,0,vertical,horizontal,1,2,red,3,NaN,619.68777079743,419.68777079743,NaN,NaN,980.31222920257,780.31222920257,980.31222920257,419.68777079743,619.68777079743,419.68777079743,619.68777079743,780.31222920257,0,3,4,6,vertical,vertical,vertical,horizontal
2a,12,100261,2,2,34,20,M,NA,variable,heterogeneous,4,absent,1.32405400276184,1,horizontal,horizontal,1,3,red,1,NaN,980.31222920257,780.31222920257,NaN,NaN,980.31222920257,780.31222920257,980.31222920257,419.68777079743,619.68777079743,419.68777079743,619.68777079743,780.31222920257,4,5,6,0,horizontal,horizontal,horizontal,vertical
2a,12,100261,2,3,35,20,M,NA,variable,heterogeneous,4,absent,0.970842123031616,1,vertical,vertical,1,2,red,3,NaN,619.68777079743,419.68777079743,NaN,NaN,980.31222920257,780.31222920257,980.31222920257,419.68777079743,619.68777079743,419.68777079743,619.68777079743,780.31222920257,0,3,4,6,horizontal,vertical,vertical,vertical
2a,12,100261,2,4,36,20,M,NA,variable,heterogeneous,4,present,1.58624505996704,1,vertical,vertical,1,3,green,1,2,980.31222920257,780.31222920257,980.31222920257,419.68777079743,980.31222920257,780.31222920257,980.31222920257,419.68777079743,619.68777079743,419.68777079743,619.68777079743,780.31222920257,4,3,6,5,vertical,horizontal,vertical,vertical
2a,12,100261,2,5,37,20,M,NA,variable,heterogeneous,4,absent,0.96642804145813,1,vertical,vertical,1,3,red,1,NaN,980.31222920257,780.31222920257,NaN,NaN,980.31222920257,780.31222920257,980.31222920257,419.68777079743,619.68777079743,419.68777079743,619.68777079743,780.31222920257,4,3,0,5,vertical,horizontal,vertical,horizontal
2a,12,100261,2,6,38,20,M,NA,variable,heterogeneous,4,absent,1.285884141922,1,horizontal,horizontal,1,2,red,4,NaN,619.68777079743,780.31222920257,NaN,NaN,980.31222920257,780.31222920257,980.31222920257,419.68777079743,619.68777079743,419.68777079743,619.68777079743,780.31222920257,3,5,0,4,horizontal,vertical,horizontal,horizontal
2a,12,100261,2,7,39,20,M,NA,variable,heterogeneous,4,present,1.70386385917664,1,vertical,vertical,1,2,red,2,3,980.31222920257,419.68777079743,619.68777079743,419.68777079743,980.31222920257,780.31222920257,980.31222920257,419.68777079743,619.68777079743,419.68777079743,619.68777079743,780.31222920257,5,4,3,6,horizontal,vertical,horizontal,horizontal
2a,12,100261,2,8,40,20,M,NA,variable,heterogeneous,4,present,0.934012889862061,0,horizontal,vertical,1,3,red,3,2,619.68777079743,419.68777079743,980.31222920257,419.68777079743,980.31222920257,780.31222920257,980.31222920257,419.68777079743,619.68777079743,419.68777079743,619.68777079743,780.31222920257,5,6,4,0,horizontal,horizontal,horizontal,vertical
2a,12,100261,2,9,41,20,M,NA,variable,heterogeneous,4,absent,1.73739004135132,1,vertical,vertical,1,8,red,4,NaN,619.68777079743,780.31222920257,NaN,NaN,980.31222920257,780.31222920257,980.31222920257,419.68777079743,619.68777079743,419.68777079743,619.68777079743,780.31222920257,3,0,5,4,vertical,horizontal,vertical,vertical
2a,12,100261,2,10,42,20,M,NA,variable,heterogeneous,4,present,1.34793186187744,1,horizontal,horizontal,1,5,red,1,4,980.31222920257,780.31222920257,619.68777079743,780.31222920257,980.31222920257,780.31222920257,980.31222920257,419.68777079743,619.68777079743,419.68777079743,619.68777079743,780.31222920257,4,0,6,3,horizontal,horizontal,vertical,horizontal
2a,12,100261,2,11,43,20,M,NA,variable,heterogeneous,4,present,1.06743502616882,1,horizontal,horizontal,1,2,green,4,3,619.68777079743,780.31222920257,619.68777079743,419.68777079743,980.31222920257,780.31222920257,980.31222920257,419.68777079743,619.68777079743,419.68777079743,619.68777079743,780.31222920257,3,0,5,4,vertical,horizontal,vertical,horizontal
2a,12,100261,2,12,44,20,M,NA,variable,heterogeneous,4,absent,1.54905009269714,1,horizontal,horizontal,1,8,red,3,NaN,619.68777079743,419.68777079743,NaN,NaN,980.31222920257,780.31222920257,980.31222920257,419.68777079743,619.68777079743,419.68777079743,619.68777079743,780.31222920257,0,6,4,3,horizontal,vertical,horizontal,horizontal
2a,12,100261,2,13,45,20,M,NA,variable,heterogeneous,4,present,0.995920181274414,1,horizontal,horizontal,1,3,red,4,2,619.68777079743,780.31222920257,980.31222920257,419.68777079743,980.31222920257,780.31222920257,980.31222920257,419.68777079743,619.68777079743,419.68777079743,619.68777079743,780.31222920257,5,6,3,4,vertical,horizontal,horizontal,horizontal
2a,12,100261,2,14,46,20,M,NA,variable,heterogeneous,4,present,1.60383105278015,1,vertical,vertical,1,5,red,4,2,619.68777079743,780.31222920257,980.31222920257,419.68777079743,980.31222920257,780.31222920257,980.31222920257,419.68777079743,619.68777079743,419.68777079743,619.68777079743,780.31222920257,5,3,6,4,horizontal,horizontal,horizontal,vertical
2a,12,100261,2,15,47,20,M,NA,variable,heterogeneous,4,present,NaN,0,vertical,none,0,8,green,1,3,980.31222920257,780.31222920257,619.68777079743,419.68777079743,980.31222920257,780.31222920257,980.31222920257,419.68777079743,619.68777079743,419.68777079743,619.68777079743,780.31222920257,4,3,0,6,vertical,vertical,horizontal,horizontal
2a,12,100261,2,16,48,20,M,NA,variable,heterogeneous,4,absent,1.21297597885132,1,horizontal,horizontal,1,2,red,3,NaN,619.68777079743,419.68777079743,NaN,NaN,980.31222920257,780.31222920257,980.31222920257,419.68777079743,619.68777079743,419.68777079743,619.68777079743,780.31222920257,0,3,4,5,vertical,horizontal,horizontal,vertical
2a,12,100261,2,17,49,20,M,NA,variable,heterogeneous,4,present,1.36540007591248,1,horizontal,horizontal,1,2,red,4,2,619.68777079743,780.31222920257,980.31222920257,419.68777079743,980.31222920257,780.31222920257,980.31222920257,419.68777079743,619.68777079743,419.68777079743,619.68777079743,780.31222920257,6,5,3,4,vertical,horizontal,horizontal,horizontal
2a,12,100261,2,18,50,20,M,NA,variable,heterogeneous,4,present,1.36530518531799,1,horizontal,horizontal,1,8,red,3,2,619.68777079743,419.68777079743,980.31222920257,419.68777079743,980.31222920257,780.31222920257,980.31222920257,419.68777079743,619.68777079743,419.68777079743,619.68777079743,780.31222920257,6,0,4,5,horizontal,horizontal,horizontal,horizontal
2a,12,100261,2,19,51,20,M,NA,variable,heterogeneous,4,absent,0.989051103591919,1,vertical,vertical,1,5,green,3,NaN,619.68777079743,419.68777079743,NaN,NaN,980.31222920257,780.31222920257,980.31222920257,419.68777079743,619.68777079743,419.68777079743,619.68777079743,780.31222920257,5,3,4,0,horizontal,vertical,vertical,horizontal
2a,12,100261,2,20,52,20,M,NA,variable,heterogeneous,4,present,0.772994041442871,0,vertical,horizontal,1,2,red,2,4,980.31222920257,419.68777079743,619.68777079743,780.31222920257,980.31222920257,780.31222920257,980.31222920257,419.68777079743,619.68777079743,419.68777079743,619.68777079743,780.31222920257,0,4,5,6,horizontal,vertical,horizontal,horizontal
2a,12,100261,2,21,53,20,M,NA,variable,heterogeneous,4,present,0.708867073059082,1,vertical,vertical,1,5,green,2,1,980.31222920257,419.68777079743,980.31222920257,780.31222920257,980.31222920257,780.31222920257,980.31222920257,419.68777079743,619.68777079743,419.68777079743,619.68777079743,780.31222920257,6,4,0,3,vertical,vertical,horizontal,horizontal
2a,12,100261,2,22,54,20,M,NA,variable,heterogeneous,4,present,1.40726804733276,1,horizontal,horizontal,1,5,green,3,2,619.68777079743,419.68777079743,980.31222920257,419.68777079743,980.31222920257,780.31222920257,980.31222920257,419.68777079743,619.68777079743,419.68777079743,619.68777079743,780.31222920257,5,0,4,3,horizontal,horizontal,horizontal,horizontal
2a,12,100261,2,23,55,20,M,NA,variable,heterogeneous,4,absent,0.739480972290039,1,vertical,vertical,1,3,red,3,NaN,619.68777079743,419.68777079743,NaN,NaN,980.31222920257,780.31222920257,980.31222920257,419.68777079743,619.68777079743,419.68777079743,619.68777079743,780.31222920257,5,0,4,6,vertical,vertical,vertical,vertical
2a,12,100261,2,24,56,20,M,NA,variable,heterogeneous,4,present,0.934597969055176,1,vertical,vertical,1,3,green,4,3,619.68777079743,780.31222920257,619.68777079743,419.68777079743,980.31222920257,780.31222920257,980.31222920257,419.68777079743,619.68777079743,419.68777079743,619.68777079743,780.31222920257,0,6,5,4,horizontal,horizontal,vertical,vertical
2a,12,100261,2,25,57,20,M,NA,variable,heterogeneous,4,present,0.697421073913574,1,horizontal,horizontal,1,2,red,4,2,619.68777079743,780.31222920257,980.31222920257,419.68777079743,980.31222920257,780.31222920257,980.31222920257,419.68777079743,619.68777079743,419.68777079743,619.68777079743,780.31222920257,5,6,0,4,horizontal,vertical,horizontal,horizontal
2a,12,100261,2,26,58,20,M,NA,variable,heterogeneous,4,absent,1.51961398124695,1,horizontal,horizontal,1,3,red,1,NaN,980.31222920257,780.31222920257,NaN,NaN,980.31222920257,780.31222920257,980.31222920257,419.68777079743,619.68777079743,419.68777079743,619.68777079743,780.31222920257,4,3,5,6,horizontal,vertical,vertical,vertical
2a,12,100261,2,27,59,20,M,NA,variable,heterogeneous,4,absent,NaN,0,horizontal,none,0,5,red,3,NaN,619.68777079743,419.68777079743,NaN,NaN,980.31222920257,780.31222920257,980.31222920257,419.68777079743,619.68777079743,419.68777079743,619.68777079743,780.31222920257,3,0,4,5,horizontal,horizontal,horizontal,horizontal
2a,12,100261,2,28,60,20,M,NA,variable,heterogeneous,4,absent,0.834725856781006,1,vertical,vertical,1,2,red,3,NaN,619.68777079743,419.68777079743,NaN,NaN,980.31222920257,780.31222920257,980.31222920257,419.68777079743,619.68777079743,419.68777079743,619.68777079743,780.31222920257,3,6,4,5,horizontal,vertical,vertical,horizontal
2a,12,100261,2,29,61,20,M,NA,variable,heterogeneous,4,absent,1.03549218177795,1,horizontal,horizontal,1,5,green,3,NaN,619.68777079743,419.68777079743,NaN,NaN,980.31222920257,780.31222920257,980.31222920257,419.68777079743,619.68777079743,419.68777079743,619.68777079743,780.31222920257,3,5,4,0,horizontal,vertical,horizontal,vertical
2a,12,100261,2,30,62,20,M,NA,variable,heterogeneous,4,present,0.788697004318237,1,vertical,vertical,1,2,green,3,2,619.68777079743,419.68777079743,980.31222920257,419.68777079743,980.31222920257,780.31222920257,980.31222920257,419.68777079743,619.68777079743,419.68777079743,619.68777079743,780.31222920257,0,6,4,3,horizontal,vertical,vertical,horizontal
2a,12,100261,2,31,63,20,M,NA,variable,heterogeneous,4,absent,1.38895010948181,1,vertical,vertical,1,5,green,1,NaN,980.31222920257,780.31222920257,NaN,NaN,980.31222920257,780.31222920257,980.31222920257,419.68777079743,619.68777079743,419.68777079743,619.68777079743,780.31222920257,4,5,3,6,vertical,horizontal,vertical,vertical
2a,12,100261,2,32,64,20,M,NA,variable,heterogeneous,4,absent,1.253014087677,1,horizontal,horizontal,1,2,green,1,NaN,980.31222920257,780.31222920257,NaN,NaN,980.31222920257,780.31222920257,980.31222920257,419.68777079743,619.68777079743,419.68777079743,619.68777079743,780.31222920257,4,6,5,3,horizontal,horizontal,vertical,vertical
2a,12,100261,3,1,65,20,M,NA,variable,heterogeneous,4,absent,1.35772800445557,1,vertical,vertical,1,3,red,3,NaN,619.68777079743,419.68777079743,NaN,NaN,980.31222920257,780.31222920257,980.31222920257,419.68777079743,619.68777079743,419.68777079743,619.68777079743,780.31222920257,3,6,4,5,horizontal,horizontal,vertical,vertical
2a,12,100261,3,2,66,20,M,NA,variable,heterogeneous,4,absent,1.02530694007874,1,horizontal,horizontal,1,5,red,2,NaN,980.31222920257,419.68777079743,NaN,NaN,980.31222920257,780.31222920257,980.31222920257,419.68777079743,619.68777079743,419.68777079743,619.68777079743,780.31222920257,5,4,3,0,vertical,horizontal,horizontal,horizontal
2a,12,100261,3,3,67,20,M,NA,variable,heterogeneous,4,absent,1.40609502792358,1,vertical,vertical,1,5,red,4,NaN,619.68777079743,780.31222920257,NaN,NaN,980.31222920257,780.31222920257,980.31222920257,419.68777079743,619.68777079743,419.68777079743,619.68777079743,780.31222920257,0,6,5,4,vertical,horizontal,horizontal,vertical
2a,12,100261,3,4,68,20,M,NA,variable,heterogeneous,4,present,1.11481714248657,1,vertical,vertical,1,2,green,3,4,619.68777079743,419.68777079743,619.68777079743,780.31222920257,980.31222920257,780.31222920257,980.31222920257,419.68777079743,619.68777079743,419.68777079743,619.68777079743,780.31222920257,3,5,4,6,horizontal,vertical,vertical,horizontal
2a,12,100261,3,5,69,20,M,NA,variable,heterogeneous,4,absent,0.661001920700073,1,horizontal,horizontal,1,3,red,3,NaN,619.68777079743,419.68777079743,NaN,NaN,980.31222920257,780.31222920257,980.31222920257,419.68777079743,619.68777079743,419.68777079743,619.68777079743,780.31222920257,6,5,4,0,horizontal,horizontal,horizontal,vertical
2a,12,100261,3,6,70,20,M,NA,variable,heterogeneous,4,absent,0.87044095993042,0,horizontal,vertical,1,2,green,1,NaN,980.31222920257,780.31222920257,NaN,NaN,980.31222920257,780.31222920257,980.31222920257,419.68777079743,619.68777079743,419.68777079743,619.68777079743,780.31222920257,4,0,5,6,horizontal,vertical,vertical,vertical
2a,12,100261,3,7,71,20,M,NA,variable,heterogeneous,4,absent,1.73219609260559,1,vertical,vertical,1,2,red,2,NaN,980.31222920257,419.68777079743,NaN,NaN,980.31222920257,780.31222920257,980.31222920257,419.68777079743,619.68777079743,419.68777079743,619.68777079743,780.31222920257,3,4,6,0,vertical,vertical,horizontal,horizontal
2a,12,100261,3,8,72,20,M,NA,variable,heterogeneous,4,absent,1.04707193374634,1,vertical,vertical,1,8,red,3,NaN,619.68777079743,419.68777079743,NaN,NaN,980.31222920257,780.31222920257,980.31222920257,419.68777079743,619.68777079743,419.68777079743,619.68777079743,780.31222920257,0,6,4,5,horizontal,vertical,vertical,horizontal
2a,12,100261,3,9,73,20,M,NA,variable,heterogeneous,4,present,1.29254794120789,1,vertical,vertical,1,3,green,4,1,619.68777079743,780.31222920257,980.31222920257,780.31222920257,980.31222920257,780.31222920257,980.31222920257,419.68777079743,619.68777079743,419.68777079743,619.68777079743,780.31222920257,6,3,5,4,horizontal,horizontal,vertical,vertical
2a,12,100261,3,10,74,20,M,NA,variable,heterogeneous,4,absent,0.814481019973755,1,horizontal,horizontal,1,2,green,4,NaN,619.68777079743,780.31222920257,NaN,NaN,980.31222920257,780.31222920257,980.31222920257,419.68777079743,619.68777079743,419.68777079743,619.68777079743,780.31222920257,3,0,5,4,horizontal,vertical,vertical,horizontal
2a,12,100261,3,11,75,20,M,NA,variable,heterogeneous,4,present,NaN,0,vertical,none,0,8,green,1,2,980.31222920257,780.31222920257,980.31222920257,419.68777079743,980.31222920257,780.31222920257,980.31222920257,419.68777079743,619.68777079743,419.68777079743,619.68777079743,780.31222920257,4,0,3,6,vertical,vertical,horizontal,vertical
2a,12,100261,3,12,76,20,M,NA,variable,heterogeneous,4,present,0.899610996246338,1,horizontal,horizontal,1,5,green,1,4,980.31222920257,780.31222920257,619.68777079743,780.31222920257,980.31222920257,780.31222920257,980.31222920257,419.68777079743,619.68777079743,419.68777079743,619.68777079743,780.31222920257,4,0,6,3,horizontal,vertical,vertical,vertical
2a,12,100261,3,13,77,20,M,NA,variable,heterogeneous,4,present,1.01765894889832,1,horizontal,horizontal,1,8,green,4,3,619.68777079743,780.31222920257,619.68777079743,419.68777079743,980.31222920257,780.31222920257,980.31222920257,419.68777079743,619.68777079743,419.68777079743,619.68777079743,780.31222920257,0,6,3,4,vertical,vertical,horizontal,horizontal
2a,12,100261,3,14,78,20,M,NA,variable,heterogeneous,4,absent,1.14647197723389,1,horizontal,horizontal,1,2,red,2,NaN,980.31222920257,419.68777079743,NaN,NaN,980.31222920257,780.31222920257,980.31222920257,419.68777079743,619.68777079743,419.68777079743,619.68777079743,780.31222920257,0,4,3,5,horizontal,horizontal,vertical,horizontal
2a,12,100261,3,15,79,20,M,NA,variable,heterogeneous,4,absent,1.32150816917419,1,vertical,vertical,1,2,green,1,NaN,980.31222920257,780.31222920257,NaN,NaN,980.31222920257,780.31222920257,980.31222920257,419.68777079743,619.68777079743,419.68777079743,619.68777079743,780.31222920257,4,5,3,0,vertical,vertical,horizontal,vertical
2a,12,100261,3,16,80,20,M,NA,variable,heterogeneous,4,present,1.33628416061401,1,vertical,vertical,1,2,green,3,1,619.68777079743,419.68777079743,980.31222920257,780.31222920257,980.31222920257,780.31222920257,980.31222920257,419.68777079743,619.68777079743,419.68777079743,619.68777079743,780.31222920257,0,6,4,5,vertical,vertical,vertical,horizontal
2a,12,100261,3,17,81,20,M,NA,variable,heterogeneous,4,present,0.651216983795166,1,horizontal,horizontal,1,2,green,4,3,619.68777079743,780.31222920257,619.68777079743,419.68777079743,980.31222920257,780.31222920257,980.31222920257,419.68777079743,619.68777079743,419.68777079743,619.68777079743,780.31222920257,3,0,6,4,vertical,vertical,horizontal,horizontal
2a,12,100261,3,18,82,20,M,NA,variable,heterogeneous,4,present,1.42426300048828,1,vertical,vertical,1,5,green,2,3,980.31222920257,419.68777079743,619.68777079743,419.68777079743,980.31222920257,780.31222920257,980.31222920257,419.68777079743,619.68777079743,419.68777079743,619.68777079743,780.31222920257,3,4,5,0,horizontal,vertical,horizontal,vertical
2a,12,100261,3,19,83,20,M,NA,variable,heterogeneous,4,present,1.973228931427,1,vertical,vertical,1,2,red,4,2,619.68777079743,780.31222920257,980.31222920257,419.68777079743,980.31222920257,780.31222920257,980.31222920257,419.68777079743,619.68777079743,419.68777079743,619.68777079743,780.31222920257,3,0,5,4,vertical,vertical,horizontal,vertical
2a,12,100261,3,20,84,20,M,NA,variable,heterogeneous,4,present,1.23701190948486,1,vertical,vertical,1,3,red,3,2,619.68777079743,419.68777079743,980.31222920257,419.68777079743,980.31222920257,780.31222920257,980.31222920257,419.68777079743,619.68777079743,419.68777079743,619.68777079743,780.31222920257,5,0,4,6,horizontal,vertical,vertical,horizontal
2a,12,100261,3,21,85,20,M,NA,variable,heterogeneous,4,present,1.50212907791138,1,vertical,vertical,1,5,red,2,4,980.31222920257,419.68777079743,619.68777079743,780.31222920257,980.31222920257,780.31222920257,980.31222920257,419.68777079743,619.68777079743,419.68777079743,619.68777079743,780.31222920257,0,4,6,5,horizontal,vertical,horizontal,vertical
2a,12,100261,3,22,86,20,M,NA,variable,heterogeneous,4,absent,1.04402709007263,1,vertical,vertical,1,3,green,3,NaN,619.68777079743,419.68777079743,NaN,NaN,980.31222920257,780.31222920257,980.31222920257,419.68777079743,619.68777079743,419.68777079743,619.68777079743,780.31222920257,0,3,4,6,horizontal,horizontal,vertical,vertical
2a,12,100261,3,23,87,20,M,NA,variable,heterogeneous,4,present,1.65318202972412,1,horizontal,horizontal,1,5,red,1,4,980.31222920257,780.31222920257,619.68777079743,780.31222920257,980.31222920257,780.31222920257,980.31222920257,419.68777079743,619.68777079743,419.68777079743,619.68777079743,780.31222920257,4,3,6,5,horizontal,vertical,vertical,horizontal
2a,12,100261,3,24,88,20,M,NA,variable,heterogeneous,4,absent,1.00262498855591,1,vertical,vertical,1,2,green,4,NaN,619.68777079743,780.31222920257,NaN,NaN,980.31222920257,780.31222920257,980.31222920257,419.68777079743,619.68777079743,419.68777079743,619.68777079743,780.31222920257,3,5,0,4,horizontal,vertical,horizontal,vertical
2a,12,100261,3,25,89,20,M,NA,variable,heterogeneous,4,absent,1.90282297134399,1,horizontal,horizontal,1,5,red,3,NaN,619.68777079743,419.68777079743,NaN,NaN,980.31222920257,780.31222920257,980.31222920257,419.68777079743,619.68777079743,419.68777079743,619.68777079743,780.31222920257,6,0,4,5,horizontal,vertical,horizontal,horizontal
2a,12,100261,3,26,90,20,M,NA,variable,heterogeneous,4,present,0.909079074859619,1,horizontal,horizontal,1,2,green,3,2,619.68777079743,419.68777079743,980.31222920257,419.68777079743,980.31222920257,780.31222920257,980.31222920257,419.68777079743,619.68777079743,419.68777079743,619.68777079743,780.31222920257,6,5,4,3,vertical,vertical,horizontal,vertical
2a,12,100261,3,27,91,20,M,NA,variable,heterogeneous,4,present,0.751435995101929,1,horizontal,horizontal,1,3,red,3,2,619.68777079743,419.68777079743,980.31222920257,419.68777079743,980.31222920257,780.31222920257,980.31222920257,419.68777079743,619.68777079743,419.68777079743,619.68777079743,780.31222920257,0,3,4,5,vertical,vertical,horizontal,vertical
2a,12,100261,3,28,92,20,M,NA,variable,heterogeneous,4,present,1.32281398773193,1,horizontal,horizontal,1,3,red,2,3,980.31222920257,419.68777079743,619.68777079743,419.68777079743,980.31222920257,780.31222920257,980.31222920257,419.68777079743,619.68777079743,419.68777079743,619.68777079743,780.31222920257,3,4,0,5,horizontal,horizontal,horizontal,vertical
2a,12,100261,3,29,93,20,M,NA,variable,heterogeneous,4,absent,1.49767088890076,1,horizontal,horizontal,1,8,red,4,NaN,619.68777079743,780.31222920257,NaN,NaN,980.31222920257,780.31222920257,980.31222920257,419.68777079743,619.68777079743,419.68777079743,619.68777079743,780.31222920257,0,6,3,4,vertical,horizontal,vertical,horizontal
2a,12,100261,3,30,94,20,M,NA,variable,heterogeneous,4,absent,1.23209285736084,1,vertical,vertical,1,5,green,3,NaN,619.68777079743,419.68777079743,NaN,NaN,980.31222920257,780.31222920257,980.31222920257,419.68777079743,619.68777079743,419.68777079743,619.68777079743,780.31222920257,3,6,4,0,vertical,vertical,vertical,horizontal
2a,12,100261,3,31,95,20,M,NA,variable,heterogeneous,4,absent,1.18894696235657,1,horizontal,horizontal,1,3,green,1,NaN,980.31222920257,780.31222920257,NaN,NaN,980.31222920257,780.31222920257,980.31222920257,419.68777079743,619.68777079743,419.68777079743,619.68777079743,780.31222920257,4,5,0,6,horizontal,vertical,horizontal,horizontal
2a,12,100261,3,32,96,20,M,NA,variable,heterogeneous,4,present,1.04504990577698,1,horizontal,horizontal,1,2,green,3,4,619.68777079743,419.68777079743,619.68777079743,780.31222920257,980.31222920257,780.31222920257,980.31222920257,419.68777079743,619.68777079743,419.68777079743,619.68777079743,780.31222920257,5,0,4,3,vertical,vertical,horizontal,vertical
2a,12,100261,4,1,97,20,M,NA,variable,heterogeneous,4,absent,1.24340605735779,1,horizontal,horizontal,1,5,red,1,NaN,980.31222920257,780.31222920257,NaN,NaN,980.31222920257,780.31222920257,980.31222920257,419.68777079743,619.68777079743,419.68777079743,619.68777079743,780.31222920257,4,5,0,3,horizontal,vertical,vertical,vertical
2a,12,100261,4,2,98,20,M,NA,variable,heterogeneous,4,absent,1.12420105934143,1,vertical,vertical,1,5,red,1,NaN,980.31222920257,780.31222920257,NaN,NaN,980.31222920257,780.31222920257,980.31222920257,419.68777079743,619.68777079743,419.68777079743,619.68777079743,780.31222920257,4,0,3,6,vertical,vertical,horizontal,horizontal
2a,12,100261,4,3,99,20,M,NA,variable,heterogeneous,4,absent,0.770931959152222,1,horizontal,horizontal,1,3,red,3,NaN,619.68777079743,419.68777079743,NaN,NaN,980.31222920257,780.31222920257,980.31222920257,419.68777079743,619.68777079743,419.68777079743,619.68777079743,780.31222920257,6,3,4,0,vertical,horizontal,horizontal,horizontal
2a,12,100261,4,4,100,20,M,NA,variable,heterogeneous,4,present,1.16298294067383,1,horizontal,horizontal,1,2,green,1,3,980.31222920257,780.31222920257,619.68777079743,419.68777079743,980.31222920257,780.31222920257,980.31222920257,419.68777079743,619.68777079743,419.68777079743,619.68777079743,780.31222920257,4,3,0,5,horizontal,vertical,vertical,vertical
2a,12,100261,4,5,101,20,M,NA,variable,heterogeneous,4,absent,0.518046855926514,1,vertical,vertical,1,3,red,2,NaN,980.31222920257,419.68777079743,NaN,NaN,980.31222920257,780.31222920257,980.31222920257,419.68777079743,619.68777079743,419.68777079743,619.68777079743,780.31222920257,0,4,6,3,vertical,vertical,vertical,vertical
2a,12,100261,4,6,102,20,M,NA,variable,heterogeneous,4,absent,0.772858142852783,1,horizontal,horizontal,1,2,red,4,NaN,619.68777079743,780.31222920257,NaN,NaN,980.31222920257,780.31222920257,980.31222920257,419.68777079743,619.68777079743,419.68777079743,619.68777079743,780.31222920257,3,0,6,4,horizontal,vertical,vertical,horizontal
2a,12,100261,4,7,103,20,M,NA,variable,heterogeneous,4,present,0.89251708984375,1,horizontal,horizontal,1,8,green,3,2,619.68777079743,419.68777079743,980.31222920257,419.68777079743,980.31222920257,780.31222920257,980.31222920257,419.68777079743,619.68777079743,419.68777079743,619.68777079743,780.31222920257,0,6,4,5,horizontal,vertical,horizontal,vertical
2a,12,100261,4,8,104,20,M,NA,variable,heterogeneous,4,present,0.83832311630249,1,horizontal,horizontal,1,3,green,1,4,980.31222920257,780.31222920257,619.68777079743,780.31222920257,980.31222920257,780.31222920257,980.31222920257,419.68777079743,619.68777079743,419.68777079743,619.68777079743,780.31222920257,4,6,0,5,horizontal,horizontal,horizontal,vertical
2a,12,100261,4,9,105,20,M,NA,variable,heterogeneous,4,absent,0.951466083526611,1,horizontal,horizontal,1,2,red,1,NaN,980.31222920257,780.31222920257,NaN,NaN,980.31222920257,780.31222920257,980.31222920257,419.68777079743,619.68777079743,419.68777079743,619.68777079743,780.31222920257,4,5,0,6,horizontal,horizontal,vertical,vertical
2a,12,100261,4,10,106,20,M,NA,variable,heterogeneous,4,present,1.29088616371155,1,horizontal,horizontal,1,5,red,2,4,980.31222920257,419.68777079743,619.68777079743,780.31222920257,980.31222920257,780.31222920257,980.31222920257,419.68777079743,619.68777079743,419.68777079743,619.68777079743,780.31222920257,3,4,0,5,vertical,horizontal,vertical,horizontal
2a,12,100261,4,11,107,20,M,NA,variable,heterogeneous,4,present,0.973142147064209,1,vertical,vertical,1,2,red,1,4,980.31222920257,780.31222920257,619.68777079743,780.31222920257,980.31222920257,780.31222920257,980.31222920257,419.68777079743,619.68777079743,419.68777079743,619.68777079743,780.31222920257,4,0,5,6,vertical,horizontal,horizontal,vertical
2a,12,100261,4,12,108,20,M,NA,variable,heterogeneous,4,absent,1.30861902236938,1,vertical,vertical,1,8,green,4,NaN,619.68777079743,780.31222920257,NaN,NaN,980.31222920257,780.31222920257,980.31222920257,419.68777079743,619.68777079743,419.68777079743,619.68777079743,780.31222920257,5,3,6,4,horizontal,vertical,horizontal,vertical
2a,12,100261,4,13,109,20,M,NA,variable,heterogeneous,4,present,1.12735104560852,1,horizontal,horizontal,1,2,green,2,1,980.31222920257,419.68777079743,980.31222920257,780.31222920257,980.31222920257,780.31222920257,980.31222920257,419.68777079743,619.68777079743,419.68777079743,619.68777079743,780.31222920257,0,4,3,5,vertical,horizontal,horizontal,horizontal
2a,12,100261,4,14,110,20,M,NA,variable,heterogeneous,4,present,1.36597299575806,1,vertical,vertical,1,3,green,1,3,980.31222920257,780.31222920257,619.68777079743,419.68777079743,980.31222920257,780.31222920257,980.31222920257,419.68777079743,619.68777079743,419.68777079743,619.68777079743,780.31222920257,4,3,5,6,vertical,horizontal,horizontal,horizontal
2a,12,100261,4,15,111,20,M,NA,variable,heterogeneous,4,present,1.05366802215576,1,vertical,vertical,1,5,green,3,4,619.68777079743,419.68777079743,619.68777079743,780.31222920257,980.31222920257,780.31222920257,980.31222920257,419.68777079743,619.68777079743,419.68777079743,619.68777079743,780.31222920257,3,6,4,5,vertical,vertical,vertical,horizontal
2a,12,100261,4,16,112,20,M,NA,variable,heterogeneous,4,absent,1.0588641166687,0,vertical,horizontal,1,5,green,3,NaN,619.68777079743,419.68777079743,NaN,NaN,980.31222920257,780.31222920257,980.31222920257,419.68777079743,619.68777079743,419.68777079743,619.68777079743,780.31222920257,0,6,4,3,horizontal,horizontal,vertical,horizontal
2a,12,100261,4,17,113,20,M,NA,variable,heterogeneous,4,present,1.67649006843567,1,vertical,vertical,1,5,red,4,2,619.68777079743,780.31222920257,980.31222920257,419.68777079743,980.31222920257,780.31222920257,980.31222920257,419.68777079743,619.68777079743,419.68777079743,619.68777079743,780.31222920257,5,0,3,4,vertical,vertical,horizontal,vertical
2a,12,100261,4,18,114,20,M,NA,variable,heterogeneous,4,present,1.37022304534912,1,vertical,vertical,1,8,green,1,3,980.31222920257,780.31222920257,619.68777079743,419.68777079743,980.31222920257,780.31222920257,980.31222920257,419.68777079743,619.68777079743,419.68777079743,619.68777079743,780.31222920257,4,6,5,3,vertical,horizontal,vertical,vertical
2a,12,100261,4,19,115,20,M,NA,variable,heterogeneous,4,absent,1.2021689414978,1,horizontal,horizontal,1,5,green,1,NaN,980.31222920257,780.31222920257,NaN,NaN,980.31222920257,780.31222920257,980.31222920257,419.68777079743,619.68777079743,419.68777079743,619.68777079743,780.31222920257,4,6,3,5,horizontal,vertical,horizontal,horizontal
2a,12,100261,4,20,116,20,M,NA,variable,heterogeneous,4,present,1.17441415786743,1,horizontal,horizontal,1,2,red,1,2,980.31222920257,780.31222920257,980.31222920257,419.68777079743,980.31222920257,780.31222920257,980.31222920257,419.68777079743,619.68777079743,419.68777079743,619.68777079743,780.31222920257,4,0,6,5,horizontal,vertical,horizontal,vertical
2a,12,100261,4,21,117,20,M,NA,variable,heterogeneous,4,present,1.60586094856262,1,horizontal,horizontal,1,3,red,2,1,980.31222920257,419.68777079743,980.31222920257,780.31222920257,980.31222920257,780.31222920257,980.31222920257,419.68777079743,619.68777079743,419.68777079743,619.68777079743,780.31222920257,6,4,0,3,vertical,horizontal,vertical,horizontal
2a,12,100261,4,22,118,20,M,NA,variable,heterogeneous,4,present,0.970340013504028,1,vertical,vertical,1,2,red,2,4,980.31222920257,419.68777079743,619.68777079743,780.31222920257,980.31222920257,780.31222920257,980.31222920257,419.68777079743,619.68777079743,419.68777079743,619.68777079743,780.31222920257,0,4,3,6,horizontal,vertical,vertical,vertical
2a,12,100261,4,23,119,20,M,NA,variable,heterogeneous,4,absent,1.72200894355774,1,horizontal,horizontal,1,8,green,2,NaN,980.31222920257,419.68777079743,NaN,NaN,980.31222920257,780.31222920257,980.31222920257,419.68777079743,619.68777079743,419.68777079743,619.68777079743,780.31222920257,0,4,5,3,horizontal,horizontal,horizontal,horizontal
2a,12,100261,4,24,120,20,M,NA,variable,heterogeneous,4,absent,0.712972164154053,1,vertical,vertical,1,2,red,2,NaN,980.31222920257,419.68777079743,NaN,NaN,980.31222920257,780.31222920257,980.31222920257,419.68777079743,619.68777079743,419.68777079743,619.68777079743,780.31222920257,5,4,3,0,horizontal,vertical,horizontal,horizontal
2a,12,100261,4,25,121,20,M,NA,variable,heterogeneous,4,absent,1.259437084198,1,horizontal,horizontal,1,2,green,3,NaN,619.68777079743,419.68777079743,NaN,NaN,980.31222920257,780.31222920257,980.31222920257,419.68777079743,619.68777079743,419.68777079743,619.68777079743,780.31222920257,3,5,4,0,vertical,horizontal,horizontal,vertical
2a,12,100261,4,26,122,20,M,NA,variable,heterogeneous,4,absent,1.48494005203247,1,horizontal,horizontal,1,3,red,4,NaN,619.68777079743,780.31222920257,NaN,NaN,980.31222920257,780.31222920257,980.31222920257,419.68777079743,619.68777079743,419.68777079743,619.68777079743,780.31222920257,3,0,6,4,vertical,horizontal,vertical,horizontal
2a,12,100261,4,27,123,20,M,NA,variable,heterogeneous,4,absent,0.870512962341309,1,vertical,vertical,1,2,red,3,NaN,619.68777079743,419.68777079743,NaN,NaN,980.31222920257,780.31222920257,980.31222920257,419.68777079743,619.68777079743,419.68777079743,619.68777079743,780.31222920257,5,6,4,0,vertical,vertical,vertical,horizontal
2a,12,100261,4,28,124,20,M,NA,variable,heterogeneous,4,present,1.1004650592804,1,horizontal,horizontal,1,5,green,3,2,619.68777079743,419.68777079743,980.31222920257,419.68777079743,980.31222920257,780.31222920257,980.31222920257,419.68777079743,619.68777079743,419.68777079743,619.68777079743,780.31222920257,6,5,4,0,horizontal,horizontal,horizontal,vertical
2a,12,100261,4,29,125,20,M,NA,variable,heterogeneous,4,absent,0.802613973617554,1,vertical,vertical,1,3,green,3,NaN,619.68777079743,419.68777079743,NaN,NaN,980.31222920257,780.31222920257,980.31222920257,419.68777079743,619.68777079743,419.68777079743,619.68777079743,780.31222920257,6,0,4,5,vertical,vertical,vertical,vertical
2a,12,100261,4,30,126,20,M,NA,variable,heterogeneous,4,present,1.28696990013123,1,vertical,vertical,1,2,red,1,2,980.31222920257,780.31222920257,980.31222920257,419.68777079743,980.31222920257,780.31222920257,980.31222920257,419.68777079743,619.68777079743,419.68777079743,619.68777079743,780.31222920257,4,3,5,0,vertical,vertical,vertical,horizontal
2a,12,100261,4,31,127,20,M,NA,variable,heterogeneous,4,absent,1.65696811676025,1,vertical,vertical,1,2,red,2,NaN,980.31222920257,419.68777079743,NaN,NaN,980.31222920257,780.31222920257,980.31222920257,419.68777079743,619.68777079743,419.68777079743,619.68777079743,780.31222920257,5,4,6,0,horizontal,vertical,vertical,horizontal
2a,12,100261,4,32,128,20,M,NA,variable,heterogeneous,4,present,1.03016114234924,1,vertical,vertical,1,3,red,3,1,619.68777079743,419.68777079743,980.31222920257,780.31222920257,980.31222920257,780.31222920257,980.31222920257,419.68777079743,619.68777079743,419.68777079743,619.68777079743,780.31222920257,0,5,4,6,vertical,vertical,vertical,horizontal
2a,12,100261,5,1,129,20,M,NA,variable,heterogeneous,4,absent,1.6599760055542,1,horizontal,horizontal,1,3,green,3,NaN,619.68777079743,419.68777079743,NaN,NaN,980.31222920257,780.31222920257,980.31222920257,419.68777079743,619.68777079743,419.68777079743,619.68777079743,780.31222920257,0,3,4,5,horizontal,horizontal,horizontal,horizontal
2a,12,100261,5,2,130,20,M,NA,variable,heterogeneous,4,present,1.20547318458557,1,horizontal,horizontal,1,2,green,2,3,980.31222920257,419.68777079743,619.68777079743,419.68777079743,980.31222920257,780.31222920257,980.31222920257,419.68777079743,619.68777079743,419.68777079743,619.68777079743,780.31222920257,5,4,0,6,horizontal,horizontal,vertical,horizontal
2a,12,100261,5,3,131,20,M,NA,variable,heterogeneous,4,present,1.85782480239868,1,vertical,vertical,1,5,red,3,1,619.68777079743,419.68777079743,980.31222920257,780.31222920257,980.31222920257,780.31222920257,980.31222920257,419.68777079743,619.68777079743,419.68777079743,619.68777079743,780.31222920257,5,6,4,0,horizontal,horizontal,vertical,horizontal
2a,12,100261,5,4,132,20,M,NA,variable,heterogeneous,4,absent,1.5071861743927,1,vertical,vertical,1,2,red,4,NaN,619.68777079743,780.31222920257,NaN,NaN,980.31222920257,780.31222920257,980.31222920257,419.68777079743,619.68777079743,419.68777079743,619.68777079743,780.31222920257,0,5,3,4,horizontal,horizontal,horizontal,vertical
2a,12,100261,5,5,133,20,M,NA,variable,heterogeneous,4,present,1.61383485794067,1,vertical,vertical,1,3,red,3,4,619.68777079743,419.68777079743,619.68777079743,780.31222920257,980.31222920257,780.31222920257,980.31222920257,419.68777079743,619.68777079743,419.68777079743,619.68777079743,780.31222920257,5,6,4,3,horizontal,horizontal,vertical,horizontal
2a,12,100261,5,6,134,20,M,NA,variable,heterogeneous,4,present,1.71036505699158,1,vertical,vertical,1,3,green,1,4,980.31222920257,780.31222920257,619.68777079743,780.31222920257,980.31222920257,780.31222920257,980.31222920257,419.68777079743,619.68777079743,419.68777079743,619.68777079743,780.31222920257,4,0,3,6,vertical,horizontal,vertical,horizontal
2a,12,100261,5,7,135,20,M,NA,variable,heterogeneous,4,absent,1.11286401748657,1,vertical,vertical,1,2,red,4,NaN,619.68777079743,780.31222920257,NaN,NaN,980.31222920257,780.31222920257,980.31222920257,419.68777079743,619.68777079743,419.68777079743,619.68777079743,780.31222920257,6,5,0,4,vertical,horizontal,horizontal,vertical
2a,12,100261,5,8,136,20,M,NA,variable,heterogeneous,4,present,1.06751608848572,1,vertical,vertical,1,8,green,3,1,619.68777079743,419.68777079743,980.31222920257,780.31222920257,980.31222920257,780.31222920257,980.31222920257,419.68777079743,619.68777079743,419.68777079743,619.68777079743,780.31222920257,0,6,4,5,horizontal,vertical,vertical,vertical
2a,12,100261,5,9,137,20,M,NA,variable,heterogeneous,4,absent,1.68479895591736,1,horizontal,horizontal,1,5,red,2,NaN,980.31222920257,419.68777079743,NaN,NaN,980.31222920257,780.31222920257,980.31222920257,419.68777079743,619.68777079743,419.68777079743,619.68777079743,780.31222920257,5,4,0,3,vertical,horizontal,horizontal,vertical
2a,12,100261,5,10,138,20,M,NA,variable,heterogeneous,4,absent,NaN,0,horizontal,none,0,2,red,1,NaN,980.31222920257,780.31222920257,NaN,NaN,980.31222920257,780.31222920257,980.31222920257,419.68777079743,619.68777079743,419.68777079743,619.68777079743,780.31222920257,4,0,6,3,horizontal,vertical,vertical,horizontal
2a,12,100261,5,11,139,20,M,NA,variable,heterogeneous,4,absent,1.89130401611328,1,vertical,vertical,1,5,green,3,NaN,619.68777079743,419.68777079743,NaN,NaN,980.31222920257,780.31222920257,980.31222920257,419.68777079743,619.68777079743,419.68777079743,619.68777079743,780.31222920257,3,5,4,6,vertical,horizontal,vertical,vertical
2a,12,100261,5,12,140,20,M,NA,variable,heterogeneous,4,present,1.57335686683655,1,horizontal,horizontal,1,5,red,1,3,980.31222920257,780.31222920257,619.68777079743,419.68777079743,980.31222920257,780.31222920257,980.31222920257,419.68777079743,619.68777079743,419.68777079743,619.68777079743,780.31222920257,4,3,0,6,horizontal,vertical,horizontal,vertical
2a,12,100261,5,13,141,20,M,NA,variable,heterogeneous,4,absent,1.29307579994202,1,vertical,vertical,1,8,red,4,NaN,619.68777079743,780.31222920257,NaN,NaN,980.31222920257,780.31222920257,980.31222920257,419.68777079743,619.68777079743,419.68777079743,619.68777079743,780.31222920257,3,5,6,4,horizontal,horizontal,vertical,vertical
2a,12,100261,5,14,142,20,M,NA,variable,heterogeneous,4,absent,1.2753119468689,1,vertical,vertical,1,3,red,2,NaN,980.31222920257,419.68777079743,NaN,NaN,980.31222920257,780.31222920257,980.31222920257,419.68777079743,619.68777079743,419.68777079743,619.68777079743,780.31222920257,3,4,5,0,horizontal,vertical,horizontal,horizontal
2a,12,100261,5,15,143,20,M,NA,variable,heterogeneous,4,present,0.937059164047241,1,vertical,vertical,1,2,green,4,1,619.68777079743,780.31222920257,980.31222920257,780.31222920257,980.31222920257,780.31222920257,980.31222920257,419.68777079743,619.68777079743,419.68777079743,619.68777079743,780.31222920257,3,0,6,4,horizontal,vertical,vertical,vertical
2a,12,100261,5,16,144,20,M,NA,variable,heterogeneous,4,absent,0.724344968795776,1,horizontal,horizontal,1,3,green,3,NaN,619.68777079743,419.68777079743,NaN,NaN,980.31222920257,780.31222920257,980.31222920257,419.68777079743,619.68777079743,419.68777079743,619.68777079743,780.31222920257,0,6,4,5,vertical,horizontal,horizontal,horizontal
2a,12,100261,5,17,145,20,M,NA,variable,heterogeneous,4,present,0.75469708442688,1,horizontal,horizontal,1,3,red,3,1,619.68777079743,419.68777079743,980.31222920257,780.31222920257,980.31222920257,780.31222920257,980.31222920257,419.68777079743,619.68777079743,419.68777079743,619.68777079743,780.31222920257,3,6,4,5,horizontal,vertical,horizontal,vertical
2a,12,100261,5,18,146,20,M,NA,variable,heterogeneous,4,absent,0.774105072021484,1,horizontal,horizontal,1,8,red,3,NaN,619.68777079743,419.68777079743,NaN,NaN,980.31222920257,780.31222920257,980.31222920257,419.68777079743,619.68777079743,419.68777079743,619.68777079743,780.31222920257,3,0,4,5,vertical,vertical,horizontal,vertical
2a,12,100261,5,19,147,20,M,NA,variable,heterogeneous,4,absent,1.40575194358826,1,vertical,vertical,1,2,red,3,NaN,619.68777079743,419.68777079743,NaN,NaN,980.31222920257,780.31222920257,980.31222920257,419.68777079743,619.68777079743,419.68777079743,619.68777079743,780.31222920257,0,6,4,3,vertical,horizontal,vertical,vertical
2a,12,100261,5,20,148,20,M,NA,variable,heterogeneous,4,absent,0.850507020950317,1,horizontal,horizontal,1,5,green,4,NaN,619.68777079743,780.31222920257,NaN,NaN,980.31222920257,780.31222920257,980.31222920257,419.68777079743,619.68777079743,419.68777079743,619.68777079743,780.31222920257,0,6,3,4,horizontal,vertical,horizontal,horizontal
2a,12,100261,5,21,149,20,M,NA,variable,heterogeneous,4,present,1.35158896446228,1,vertical,vertical,1,2,green,2,4,980.31222920257,419.68777079743,619.68777079743,780.31222920257,980.31222920257,780.31222920257,980.31222920257,419.68777079743,619.68777079743,419.68777079743,619.68777079743,780.31222920257,3,4,5,0,horizontal,vertical,horizontal,vertical
2a,12,100261,5,22,150,20,M,NA,variable,heterogeneous,4,present,1.21089696884155,1,horizontal,horizontal,1,5,green,2,1,980.31222920257,419.68777079743,980.31222920257,780.31222920257,980.31222920257,780.31222920257,980.31222920257,419.68777079743,619.68777079743,419.68777079743,619.68777079743,780.31222920257,3,4,6,0,vertical,horizontal,horizontal,horizontal
2a,12,100261,5,23,151,20,M,NA,variable,heterogeneous,4,absent,1.09956216812134,1,vertical,vertical,1,5,green,4,NaN,619.68777079743,780.31222920257,NaN,NaN,980.31222920257,780.31222920257,980.31222920257,419.68777079743,619.68777079743,419.68777079743,619.68777079743,780.31222920257,0,3,5,4,vertical,vertical,vertical,vertical
2a,12,100261,5,24,152,20,M,NA,variable,heterogeneous,4,present,1.74585700035095,1,horizontal,horizontal,1,3,red,1,3,980.31222920257,780.31222920257,619.68777079743,419.68777079743,980.31222920257,780.31222920257,980.31222920257,419.68777079743,619.68777079743,419.68777079743,619.68777079743,780.31222920257,4,3,6,0,horizontal,horizontal,vertical,vertical
2a,12,100261,5,25,153,20,M,NA,variable,heterogeneous,4,present,1.93703198432922,1,vertical,vertical,1,5,green,3,4,619.68777079743,419.68777079743,619.68777079743,780.31222920257,980.31222920257,780.31222920257,980.31222920257,419.68777079743,619.68777079743,419.68777079743,619.68777079743,780.31222920257,0,3,4,5,vertical,horizontal,vertical,vertical
2a,12,100261,5,26,154,20,M,NA,variable,heterogeneous,4,absent,0.684187889099121,1,horizontal,horizontal,1,2,green,3,NaN,619.68777079743,419.68777079743,NaN,NaN,980.31222920257,780.31222920257,980.31222920257,419.68777079743,619.68777079743,419.68777079743,619.68777079743,780.31222920257,0,5,4,6,vertical,horizontal,horizontal,horizontal
2a,12,100261,5,27,155,20,M,NA,variable,heterogeneous,4,absent,1.15770101547241,1,horizontal,horizontal,1,2,green,4,NaN,619.68777079743,780.31222920257,NaN,NaN,980.31222920257,780.31222920257,980.31222920257,419.68777079743,619.68777079743,419.68777079743,619.68777079743,780.31222920257,0,6,3,4,horizontal,vertical,vertical,horizontal
2a,12,100261,5,28,156,20,M,NA,variable,heterogeneous,4,present,1.4652988910675,1,horizontal,horizontal,1,2,green,2,3,980.31222920257,419.68777079743,619.68777079743,419.68777079743,980.31222920257,780.31222920257,980.31222920257,419.68777079743,619.68777079743,419.68777079743,619.68777079743,780.31222920257,0,4,6,3,vertical,horizontal,vertical,horizontal
2a,12,100261,5,29,157,20,M,NA,variable,heterogeneous,4,absent,1.15470290184021,1,vertical,vertical,1,3,green,1,NaN,980.31222920257,780.31222920257,NaN,NaN,980.31222920257,780.31222920257,980.31222920257,419.68777079743,619.68777079743,419.68777079743,619.68777079743,780.31222920257,4,6,0,3,vertical,vertical,horizontal,horizontal
2a,12,100261,5,30,158,20,M,NA,variable,heterogeneous,4,present,0.998174905776978,1,horizontal,horizontal,1,2,green,2,3,980.31222920257,419.68777079743,619.68777079743,419.68777079743,980.31222920257,780.31222920257,980.31222920257,419.68777079743,619.68777079743,419.68777079743,619.68777079743,780.31222920257,6,4,5,3,horizontal,horizontal,vertical,vertical
2a,12,100261,5,31,159,20,M,NA,variable,heterogeneous,4,present,1.45423603057861,1,vertical,vertical,1,2,red,1,3,980.31222920257,780.31222920257,619.68777079743,419.68777079743,980.31222920257,780.31222920257,980.31222920257,419.68777079743,619.68777079743,419.68777079743,619.68777079743,780.31222920257,4,0,5,6,vertical,horizontal,vertical,horizontal
2a,12,100261,5,32,160,20,M,NA,variable,heterogeneous,4,present,1.43580198287964,1,horizontal,horizontal,1,8,red,1,2,980.31222920257,780.31222920257,980.31222920257,419.68777079743,980.31222920257,780.31222920257,980.31222920257,419.68777079743,619.68777079743,419.68777079743,619.68777079743,780.31222920257,4,0,3,5,horizontal,vertical,horizontal,horizontal
2a,12,100261,6,1,161,20,M,NA,variable,heterogeneous,4,present,NaN,0,vertical,none,0,3,red,3,2,619.68777079743,419.68777079743,980.31222920257,419.68777079743,980.31222920257,780.31222920257,980.31222920257,419.68777079743,619.68777079743,419.68777079743,619.68777079743,780.31222920257,0,3,4,5,vertical,vertical,vertical,vertical
2a,12,100261,6,2,162,20,M,NA,variable,heterogeneous,4,present,1.3900420665741,1,vertical,vertical,1,5,green,1,2,980.31222920257,780.31222920257,980.31222920257,419.68777079743,980.31222920257,780.31222920257,980.31222920257,419.68777079743,619.68777079743,419.68777079743,619.68777079743,780.31222920257,4,5,3,6,vertical,horizontal,horizontal,horizontal
2a,12,100261,6,3,163,20,M,NA,variable,heterogeneous,4,present,1.11014080047607,1,horizontal,horizontal,1,8,green,4,1,619.68777079743,780.31222920257,980.31222920257,780.31222920257,980.31222920257,780.31222920257,980.31222920257,419.68777079743,619.68777079743,419.68777079743,619.68777079743,780.31222920257,0,3,5,4,horizontal,horizontal,horizontal,horizontal
2a,12,100261,6,4,164,20,M,NA,variable,heterogeneous,4,absent,1.62488698959351,1,vertical,vertical,1,8,green,3,NaN,619.68777079743,419.68777079743,NaN,NaN,980.31222920257,780.31222920257,980.31222920257,419.68777079743,619.68777079743,419.68777079743,619.68777079743,780.31222920257,6,5,4,3,horizontal,vertical,vertical,horizontal
2a,12,100261,6,5,165,20,M,NA,variable,heterogeneous,4,absent,1.36575102806091,1,horizontal,horizontal,1,2,green,2,NaN,980.31222920257,419.68777079743,NaN,NaN,980.31222920257,780.31222920257,980.31222920257,419.68777079743,619.68777079743,419.68777079743,619.68777079743,780.31222920257,0,4,3,6,vertical,horizontal,horizontal,horizontal
2a,12,100261,6,6,166,20,M,NA,variable,heterogeneous,4,absent,NaN,0,horizontal,none,0,5,green,4,NaN,619.68777079743,780.31222920257,NaN,NaN,980.31222920257,780.31222920257,980.31222920257,419.68777079743,619.68777079743,419.68777079743,619.68777079743,780.31222920257,6,0,3,4,vertical,vertical,horizontal,horizontal
2a,12,100261,6,7,167,20,M,NA,variable,heterogeneous,4,present,0.905678987503052,1,horizontal,horizontal,1,3,green,3,4,619.68777079743,419.68777079743,619.68777079743,780.31222920257,980.31222920257,780.31222920257,980.31222920257,419.68777079743,619.68777079743,419.68777079743,619.68777079743,780.31222920257,0,5,4,6,horizontal,vertical,horizontal,horizontal
2a,12,100261,6,8,168,20,M,NA,variable,heterogeneous,4,present,1.34013986587524,1,vertical,vertical,1,5,green,2,3,980.31222920257,419.68777079743,619.68777079743,419.68777079743,980.31222920257,780.31222920257,980.31222920257,419.68777079743,619.68777079743,419.68777079743,619.68777079743,780.31222920257,3,4,6,5,horizontal,vertical,vertical,vertical
2a,12,100261,6,9,169,20,M,NA,variable,heterogeneous,4,absent,1.41111493110657,1,horizontal,horizontal,1,2,green,2,NaN,980.31222920257,419.68777079743,NaN,NaN,980.31222920257,780.31222920257,980.31222920257,419.68777079743,619.68777079743,419.68777079743,619.68777079743,780.31222920257,0,4,5,3,horizontal,horizontal,horizontal,vertical
2a,12,100261,6,10,170,20,M,NA,variable,heterogeneous,4,absent,1.49181890487671,1,vertical,vertical,1,2,red,3,NaN,619.68777079743,419.68777079743,NaN,NaN,980.31222920257,780.31222920257,980.31222920257,419.68777079743,619.68777079743,419.68777079743,619.68777079743,780.31222920257,3,0,4,6,vertical,horizontal,vertical,vertical
2a,12,100261,6,11,171,20,M,NA,variable,heterogeneous,4,present,0.893954992294312,1,vertical,vertical,1,2,red,3,1,619.68777079743,419.68777079743,980.31222920257,780.31222920257,980.31222920257,780.31222920257,980.31222920257,419.68777079743,619.68777079743,419.68777079743,619.68777079743,780.31222920257,5,6,4,3,horizontal,vertical,vertical,vertical
2a,12,100261,6,12,172,20,M,NA,variable,heterogeneous,4,absent,1.82013988494873,1,vertical,vertical,1,3,green,2,NaN,980.31222920257,419.68777079743,NaN,NaN,980.31222920257,780.31222920257,980.31222920257,419.68777079743,619.68777079743,419.68777079743,619.68777079743,780.31222920257,3,4,6,5,vertical,vertical,vertical,vertical
2a,12,100261,6,13,173,20,M,NA,variable,heterogeneous,4,absent,1.1727249622345,1,vertical,vertical,1,5,green,4,NaN,619.68777079743,780.31222920257,NaN,NaN,980.31222920257,780.31222920257,980.31222920257,419.68777079743,619.68777079743,419.68777079743,619.68777079743,780.31222920257,3,6,0,4,vertical,vertical,vertical,vertical
2a,12,100261,6,14,174,20,M,NA,variable,heterogeneous,4,present,0.828339815139771,1,horizontal,horizontal,1,2,green,4,1,619.68777079743,780.31222920257,980.31222920257,780.31222920257,980.31222920257,780.31222920257,980.31222920257,419.68777079743,619.68777079743,419.68777079743,619.68777079743,780.31222920257,0,3,6,4,vertical,horizontal,vertical,horizontal
2a,12,100261,6,15,175,20,M,NA,variable,heterogeneous,4,present,1.56110000610352,0,horizontal,vertical,1,2,red,2,3,980.31222920257,419.68777079743,619.68777079743,419.68777079743,980.31222920257,780.31222920257,980.31222920257,419.68777079743,619.68777079743,419.68777079743,619.68777079743,780.31222920257,0,4,6,3,vertical,horizontal,vertical,horizontal
2a,12,100261,6,16,176,20,M,NA,variable,heterogeneous,4,absent,1.24458193778992,1,vertical,vertical,1,2,red,3,NaN,619.68777079743,419.68777079743,NaN,NaN,980.31222920257,780.31222920257,980.31222920257,419.68777079743,619.68777079743,419.68777079743,619.68777079743,780.31222920257,6,5,4,3,vertical,horizontal,vertical,vertical
2a,12,100261,6,17,177,20,M,NA,variable,heterogeneous,4,present,1.36553001403809,1,horizontal,horizontal,1,5,red,3,2,619.68777079743,419.68777079743,980.31222920257,419.68777079743,980.31222920257,780.31222920257,980.31222920257,419.68777079743,619.68777079743,419.68777079743,619.68777079743,780.31222920257,6,5,4,3,horizontal,vertical,horizontal,horizontal
2a,12,100261,6,18,178,20,M,NA,variable,heterogeneous,4,absent,1.30131888389587,1,horizontal,horizontal,1,8,green,3,NaN,619.68777079743,419.68777079743,NaN,NaN,980.31222920257,780.31222920257,980.31222920257,419.68777079743,619.68777079743,419.68777079743,619.68777079743,780.31222920257,6,0,4,5,horizontal,horizontal,horizontal,vertical
2a,12,100261,6,19,179,20,M,NA,variable,heterogeneous,4,present,1.37153482437134,1,vertical,vertical,1,8,green,1,3,980.31222920257,780.31222920257,619.68777079743,419.68777079743,980.31222920257,780.31222920257,980.31222920257,419.68777079743,619.68777079743,419.68777079743,619.68777079743,780.31222920257,4,3,6,0,vertical,horizontal,vertical,horizontal
2a,12,100261,6,20,180,20,M,NA,variable,heterogeneous,4,present,1.38743209838867,1,horizontal,horizontal,1,2,red,2,1,980.31222920257,419.68777079743,980.31222920257,780.31222920257,980.31222920257,780.31222920257,980.31222920257,419.68777079743,619.68777079743,419.68777079743,619.68777079743,780.31222920257,3,4,6,0,horizontal,horizontal,horizontal,horizontal
2a,12,100261,6,21,181,20,M,NA,variable,heterogeneous,4,absent,0.691497087478638,1,vertical,vertical,1,2,green,3,NaN,619.68777079743,419.68777079743,NaN,NaN,980.31222920257,780.31222920257,980.31222920257,419.68777079743,619.68777079743,419.68777079743,619.68777079743,780.31222920257,6,0,4,3,vertical,vertical,vertical,horizontal
2a,12,100261,6,22,182,20,M,NA,variable,heterogeneous,4,absent,1.36540293693542,1,horizontal,horizontal,1,5,red,3,NaN,619.68777079743,419.68777079743,NaN,NaN,980.31222920257,780.31222920257,980.31222920257,419.68777079743,619.68777079743,419.68777079743,619.68777079743,780.31222920257,3,5,4,6,vertical,vertical,horizontal,vertical
2a,12,100261,6,23,183,20,M,NA,variable,heterogeneous,4,present,1.07689309120178,1,vertical,vertical,1,2,red,4,2,619.68777079743,780.31222920257,980.31222920257,419.68777079743,980.31222920257,780.31222920257,980.31222920257,419.68777079743,619.68777079743,419.68777079743,619.68777079743,780.31222920257,6,3,0,4,vertical,vertical,horizontal,vertical
2a,12,100261,6,24,184,20,M,NA,variable,heterogeneous,4,present,0.594796895980835,1,horizontal,horizontal,1,3,green,3,2,619.68777079743,419.68777079743,980.31222920257,419.68777079743,980.31222920257,780.31222920257,980.31222920257,419.68777079743,619.68777079743,419.68777079743,619.68777079743,780.31222920257,6,0,4,5,horizontal,horizontal,horizontal,horizontal
2a,12,100261,6,25,185,20,M,NA,variable,heterogeneous,4,absent,1.68271899223328,1,vertical,vertical,1,5,green,2,NaN,980.31222920257,419.68777079743,NaN,NaN,980.31222920257,780.31222920257,980.31222920257,419.68777079743,619.68777079743,419.68777079743,619.68777079743,780.31222920257,3,4,5,6,vertical,vertical,vertical,vertical
2a,12,100261,6,26,186,20,M,NA,variable,heterogeneous,4,present,NaN,0,vertical,none,0,2,red,4,1,619.68777079743,780.31222920257,980.31222920257,780.31222920257,980.31222920257,780.31222920257,980.31222920257,419.68777079743,619.68777079743,419.68777079743,619.68777079743,780.31222920257,5,6,3,4,vertical,horizontal,vertical,vertical
2a,12,100261,6,27,187,20,M,NA,variable,heterogeneous,4,absent,0.705244064331055,1,horizontal,horizontal,1,3,green,3,NaN,619.68777079743,419.68777079743,NaN,NaN,980.31222920257,780.31222920257,980.31222920257,419.68777079743,619.68777079743,419.68777079743,619.68777079743,780.31222920257,0,3,4,6,horizontal,horizontal,horizontal,vertical
2a,12,100261,6,28,188,20,M,NA,variable,heterogeneous,4,absent,1.73177480697632,1,horizontal,horizontal,1,2,green,2,NaN,980.31222920257,419.68777079743,NaN,NaN,980.31222920257,780.31222920257,980.31222920257,419.68777079743,619.68777079743,419.68777079743,619.68777079743,780.31222920257,3,4,5,6,horizontal,horizontal,vertical,horizontal
2a,12,100261,6,29,189,20,M,NA,variable,heterogeneous,4,present,1.13457989692688,0,vertical,horizontal,1,3,green,1,3,980.31222920257,780.31222920257,619.68777079743,419.68777079743,980.31222920257,780.31222920257,980.31222920257,419.68777079743,619.68777079743,419.68777079743,619.68777079743,780.31222920257,4,3,5,6,vertical,vertical,vertical,vertical
2a,12,100261,6,30,190,20,M,NA,variable,heterogeneous,4,absent,NaN,0,horizontal,none,0,3,green,4,NaN,619.68777079743,780.31222920257,NaN,NaN,980.31222920257,780.31222920257,980.31222920257,419.68777079743,619.68777079743,419.68777079743,619.68777079743,780.31222920257,0,6,3,4,vertical,horizontal,horizontal,horizontal
2a,12,100261,6,31,191,20,M,NA,variable,heterogeneous,4,present,1.24612712860107,1,horizontal,horizontal,1,5,red,3,4,619.68777079743,419.68777079743,619.68777079743,780.31222920257,980.31222920257,780.31222920257,980.31222920257,419.68777079743,619.68777079743,419.68777079743,619.68777079743,780.31222920257,3,0,4,5,horizontal,vertical,horizontal,horizontal
2a,12,100261,6,32,192,20,M,NA,variable,heterogeneous,4,absent,1.56310296058655,1,vertical,vertical,1,3,green,4,NaN,619.68777079743,780.31222920257,NaN,NaN,980.31222920257,780.31222920257,980.31222920257,419.68777079743,619.68777079743,419.68777079743,619.68777079743,780.31222920257,0,3,5,4,vertical,vertical,vertical,vertical
2a,12,100261,7,1,193,20,M,NA,variable,heterogeneous,4,absent,1.19014286994934,1,horizontal,horizontal,1,2,green,2,NaN,980.31222920257,419.68777079743,NaN,NaN,980.31222920257,780.31222920257,980.31222920257,419.68777079743,619.68777079743,419.68777079743,619.68777079743,780.31222920257,3,4,0,6,horizontal,horizontal,horizontal,horizontal
2a,12,100261,7,2,194,20,M,NA,variable,heterogeneous,4,absent,1.29417681694031,1,horizontal,horizontal,1,3,red,1,NaN,980.31222920257,780.31222920257,NaN,NaN,980.31222920257,780.31222920257,980.31222920257,419.68777079743,619.68777079743,419.68777079743,619.68777079743,780.31222920257,4,6,0,3,horizontal,horizontal,horizontal,vertical
2a,12,100261,7,3,195,20,M,NA,variable,heterogeneous,4,absent,NaN,0,vertical,none,0,5,green,2,NaN,980.31222920257,419.68777079743,NaN,NaN,980.31222920257,780.31222920257,980.31222920257,419.68777079743,619.68777079743,419.68777079743,619.68777079743,780.31222920257,6,4,5,3,horizontal,vertical,vertical,vertical
2a,12,100261,7,4,196,20,M,NA,variable,heterogeneous,4,present,0.69676685333252,1,horizontal,horizontal,1,3,green,3,4,619.68777079743,419.68777079743,619.68777079743,780.31222920257,980.31222920257,780.31222920257,980.31222920257,419.68777079743,619.68777079743,419.68777079743,619.68777079743,780.31222920257,6,0,4,5,vertical,vertical,horizontal,horizontal
2a,12,100261,7,5,197,20,M,NA,variable,heterogeneous,4,present,0.734939098358154,1,horizontal,horizontal,1,5,green,2,3,980.31222920257,419.68777079743,619.68777079743,419.68777079743,980.31222920257,780.31222920257,980.31222920257,419.68777079743,619.68777079743,419.68777079743,619.68777079743,780.31222920257,0,4,5,6,horizontal,horizontal,horizontal,horizontal
2a,12,100261,7,6,198,20,M,NA,variable,heterogeneous,4,present,1.88196682929993,1,horizontal,horizontal,1,2,red,4,2,619.68777079743,780.31222920257,980.31222920257,419.68777079743,980.31222920257,780.31222920257,980.31222920257,419.68777079743,619.68777079743,419.68777079743,619.68777079743,780.31222920257,3,6,5,4,vertical,horizontal,vertical,horizontal
2a,12,100261,7,7,199,20,M,NA,variable,heterogeneous,4,present,1.22007894515991,1,vertical,vertical,1,8,green,3,1,619.68777079743,419.68777079743,980.31222920257,780.31222920257,980.31222920257,780.31222920257,980.31222920257,419.68777079743,619.68777079743,419.68777079743,619.68777079743,780.31222920257,5,3,4,6,vertical,vertical,vertical,horizontal
2a,12,100261,7,8,200,20,M,NA,variable,heterogeneous,4,present,1.19648098945618,1,horizontal,horizontal,1,8,green,4,1,619.68777079743,780.31222920257,980.31222920257,780.31222920257,980.31222920257,780.31222920257,980.31222920257,419.68777079743,619.68777079743,419.68777079743,619.68777079743,780.31222920257,5,6,3,4,horizontal,horizontal,vertical,horizontal
2a,12,100261,7,9,201,20,M,NA,variable,heterogeneous,4,absent,1.10087919235229,1,vertical,vertical,1,8,red,4,NaN,619.68777079743,780.31222920257,NaN,NaN,980.31222920257,780.31222920257,980.31222920257,419.68777079743,619.68777079743,419.68777079743,619.68777079743,780.31222920257,3,0,6,4,horizontal,vertical,horizontal,vertical
2a,12,100261,7,10,202,20,M,NA,variable,heterogeneous,4,absent,1.05097603797913,1,horizontal,horizontal,1,2,green,3,NaN,619.68777079743,419.68777079743,NaN,NaN,980.31222920257,780.31222920257,980.31222920257,419.68777079743,619.68777079743,419.68777079743,619.68777079743,780.31222920257,6,0,4,3,horizontal,vertical,horizontal,horizontal
2a,12,100261,7,11,203,20,M,NA,variable,heterogeneous,4,present,0.704248189926147,1,horizontal,horizontal,1,5,green,3,1,619.68777079743,419.68777079743,980.31222920257,780.31222920257,980.31222920257,780.31222920257,980.31222920257,419.68777079743,619.68777079743,419.68777079743,619.68777079743,780.31222920257,3,5,4,6,horizontal,vertical,horizontal,vertical
2a,12,100261,7,12,204,20,M,NA,variable,heterogeneous,4,present,1.27869701385498,1,vertical,vertical,1,2,red,2,1,980.31222920257,419.68777079743,980.31222920257,780.31222920257,980.31222920257,780.31222920257,980.31222920257,419.68777079743,619.68777079743,419.68777079743,619.68777079743,780.31222920257,5,4,3,6,vertical,vertical,vertical,vertical
2a,12,100261,7,13,205,20,M,NA,variable,heterogeneous,4,absent,1.08424997329712,0,vertical,horizontal,1,2,red,2,NaN,980.31222920257,419.68777079743,NaN,NaN,980.31222920257,780.31222920257,980.31222920257,419.68777079743,619.68777079743,419.68777079743,619.68777079743,780.31222920257,6,4,0,5,vertical,vertical,vertical,horizontal
2a,12,100261,7,14,206,20,M,NA,variable,heterogeneous,4,absent,1.406329870224,1,vertical,vertical,1,3,red,2,NaN,980.31222920257,419.68777079743,NaN,NaN,980.31222920257,780.31222920257,980.31222920257,419.68777079743,619.68777079743,419.68777079743,619.68777079743,780.31222920257,0,4,5,3,horizontal,vertical,horizontal,horizontal
2a,12,100261,7,15,207,20,M,NA,variable,heterogeneous,4,present,1.00257897377014,1,horizontal,horizontal,1,2,red,3,1,619.68777079743,419.68777079743,980.31222920257,780.31222920257,980.31222920257,780.31222920257,980.31222920257,419.68777079743,619.68777079743,419.68777079743,619.68777079743,780.31222920257,6,3,4,0,vertical,vertical,horizontal,vertical
2a,12,100261,7,16,208,20,M,NA,variable,heterogeneous,4,present,1.45501303672791,1,vertical,vertical,1,3,red,2,4,980.31222920257,419.68777079743,619.68777079743,780.31222920257,980.31222920257,780.31222920257,980.31222920257,419.68777079743,619.68777079743,419.68777079743,619.68777079743,780.31222920257,5,4,6,3,horizontal,vertical,horizontal,horizontal
2a,12,100261,7,17,209,20,M,NA,variable,heterogeneous,4,present,1.35633397102356,1,horizontal,horizontal,1,2,red,4,1,619.68777079743,780.31222920257,980.31222920257,780.31222920257,980.31222920257,780.31222920257,980.31222920257,419.68777079743,619.68777079743,419.68777079743,619.68777079743,780.31222920257,0,6,3,4,vertical,horizontal,horizontal,horizontal
2a,12,100261,7,18,210,20,M,NA,variable,heterogeneous,4,present,1.79174399375916,1,vertical,vertical,1,3,red,3,1,619.68777079743,419.68777079743,980.31222920257,780.31222920257,980.31222920257,780.31222920257,980.31222920257,419.68777079743,619.68777079743,419.68777079743,619.68777079743,780.31222920257,0,3,4,6,horizontal,vertical,vertical,horizontal
2a,12,100261,7,19,211,20,M,NA,variable,heterogeneous,4,present,1.50371694564819,1,vertical,vertical,1,5,green,1,2,980.31222920257,780.31222920257,980.31222920257,419.68777079743,980.31222920257,780.31222920257,980.31222920257,419.68777079743,619.68777079743,419.68777079743,619.68777079743,780.31222920257,4,6,0,5,vertical,vertical,horizontal,horizontal
2a,12,100261,7,20,212,20,M,NA,variable,heterogeneous,4,absent,1.86218309402466,1,vertical,vertical,1,5,green,2,NaN,980.31222920257,419.68777079743,NaN,NaN,980.31222920257,780.31222920257,980.31222920257,419.68777079743,619.68777079743,419.68777079743,619.68777079743,780.31222920257,3,4,5,6,horizontal,vertical,horizontal,horizontal
2a,12,100261,7,21,213,20,M,NA,variable,heterogeneous,4,absent,0.487664937973022,1,vertical,vertical,1,2,green,2,NaN,980.31222920257,419.68777079743,NaN,NaN,980.31222920257,780.31222920257,980.31222920257,419.68777079743,619.68777079743,419.68777079743,619.68777079743,780.31222920257,5,4,3,0,vertical,vertical,horizontal,vertical
2a,12,100261,7,22,214,20,M,NA,variable,heterogeneous,4,present,1.13741517066956,1,vertical,vertical,1,5,red,4,1,619.68777079743,780.31222920257,980.31222920257,780.31222920257,980.31222920257,780.31222920257,980.31222920257,419.68777079743,619.68777079743,419.68777079743,619.68777079743,780.31222920257,3,0,5,4,horizontal,horizontal,horizontal,vertical
2a,12,100261,7,23,215,20,M,NA,variable,heterogeneous,4,absent,0.764580965042114,1,horizontal,horizontal,1,8,red,3,NaN,619.68777079743,419.68777079743,NaN,NaN,980.31222920257,780.31222920257,980.31222920257,419.68777079743,619.68777079743,419.68777079743,619.68777079743,780.31222920257,5,6,4,0,vertical,vertical,horizontal,vertical
2a,12,100261,7,24,216,20,M,NA,variable,heterogeneous,4,absent,0.924309015274048,1,vertical,vertical,1,3,green,2,NaN,980.31222920257,419.68777079743,NaN,NaN,980.31222920257,780.31222920257,980.31222920257,419.68777079743,619.68777079743,419.68777079743,619.68777079743,780.31222920257,0,4,5,6,vertical,vertical,horizontal,vertical
2a,12,100261,7,25,217,20,M,NA,variable,heterogeneous,4,absent,1.4189920425415,1,vertical,vertical,1,2,red,4,NaN,619.68777079743,780.31222920257,NaN,NaN,980.31222920257,780.31222920257,980.31222920257,419.68777079743,619.68777079743,419.68777079743,619.68777079743,780.31222920257,3,6,5,4,vertical,vertical,vertical,vertical
2a,12,100261,7,26,218,20,M,NA,variable,heterogeneous,4,absent,0.83555793762207,1,horizontal,horizontal,1,3,red,3,NaN,619.68777079743,419.68777079743,NaN,NaN,980.31222920257,780.31222920257,980.31222920257,419.68777079743,619.68777079743,419.68777079743,619.68777079743,780.31222920257,0,5,4,6,vertical,horizontal,horizontal,vertical
2a,12,100261,7,27,219,20,M,NA,variable,heterogeneous,4,absent,1.5804979801178,1,horizontal,horizontal,1,5,green,1,NaN,980.31222920257,780.31222920257,NaN,NaN,980.31222920257,780.31222920257,980.31222920257,419.68777079743,619.68777079743,419.68777079743,619.68777079743,780.31222920257,4,0,6,3,horizontal,horizontal,vertical,vertical
2a,12,100261,7,28,220,20,M,NA,variable,heterogeneous,4,present,1.18448400497437,1,horizontal,horizontal,1,3,red,1,2,980.31222920257,780.31222920257,980.31222920257,419.68777079743,980.31222920257,780.31222920257,980.31222920257,419.68777079743,619.68777079743,419.68777079743,619.68777079743,780.31222920257,4,0,5,3,horizontal,vertical,vertical,vertical
2a,12,100261,7,29,221,20,M,NA,variable,heterogeneous,4,present,0.844565868377686,1,vertical,vertical,1,2,green,3,2,619.68777079743,419.68777079743,980.31222920257,419.68777079743,980.31222920257,780.31222920257,980.31222920257,419.68777079743,619.68777079743,419.68777079743,619.68777079743,780.31222920257,6,3,4,5,vertical,horizontal,vertical,horizontal
2a,12,100261,7,30,222,20,M,NA,variable,heterogeneous,4,present,1.1172730922699,0,vertical,horizontal,1,2,red,4,1,619.68777079743,780.31222920257,980.31222920257,780.31222920257,980.31222920257,780.31222920257,980.31222920257,419.68777079743,619.68777079743,419.68777079743,619.68777079743,780.31222920257,6,3,5,4,vertical,horizontal,horizontal,vertical
2a,12,100261,7,31,223,20,M,NA,variable,heterogeneous,4,absent,1.211993932724,1,horizontal,horizontal,1,5,green,4,NaN,619.68777079743,780.31222920257,NaN,NaN,980.31222920257,780.31222920257,980.31222920257,419.68777079743,619.68777079743,419.68777079743,619.68777079743,780.31222920257,6,3,5,4,horizontal,vertical,vertical,horizontal
2a,12,100261,7,32,224,20,M,NA,variable,heterogeneous,4,absent,1.28471493721008,1,horizontal,horizontal,1,2,green,2,NaN,980.31222920257,419.68777079743,NaN,NaN,980.31222920257,780.31222920257,980.31222920257,419.68777079743,619.68777079743,419.68777079743,619.68777079743,780.31222920257,6,4,0,3,vertical,horizontal,vertical,vertical
2a,12,100261,8,1,225,20,M,NA,variable,heterogeneous,4,present,1.1714448928833,1,horizontal,horizontal,1,2,green,1,4,980.31222920257,780.31222920257,619.68777079743,780.31222920257,980.31222920257,780.31222920257,980.31222920257,419.68777079743,619.68777079743,419.68777079743,619.68777079743,780.31222920257,4,0,6,3,horizontal,vertical,horizontal,vertical
2a,12,100261,8,2,226,20,M,NA,variable,heterogeneous,4,absent,1.05885291099548,1,vertical,vertical,1,3,red,3,NaN,619.68777079743,419.68777079743,NaN,NaN,980.31222920257,780.31222920257,980.31222920257,419.68777079743,619.68777079743,419.68777079743,619.68777079743,780.31222920257,0,5,4,3,vertical,vertical,vertical,horizontal
2a,12,100261,8,3,227,20,M,NA,variable,heterogeneous,4,absent,0.716850996017456,1,horizontal,horizontal,1,5,green,3,NaN,619.68777079743,419.68777079743,NaN,NaN,980.31222920257,780.31222920257,980.31222920257,419.68777079743,619.68777079743,419.68777079743,619.68777079743,780.31222920257,3,0,4,5,vertical,horizontal,horizontal,vertical
2a,12,100261,8,4,228,20,M,NA,variable,heterogeneous,4,absent,1.41960692405701,1,horizontal,horizontal,1,5,green,1,NaN,980.31222920257,780.31222920257,NaN,NaN,980.31222920257,780.31222920257,980.31222920257,419.68777079743,619.68777079743,419.68777079743,619.68777079743,780.31222920257,4,6,0,3,horizontal,horizontal,vertical,vertical
2a,12,100261,8,5,229,20,M,NA,variable,heterogeneous,4,present,1.29194903373718,1,vertical,vertical,1,2,green,1,4,980.31222920257,780.31222920257,619.68777079743,780.31222920257,980.31222920257,780.31222920257,980.31222920257,419.68777079743,619.68777079743,419.68777079743,619.68777079743,780.31222920257,4,5,0,6,vertical,horizontal,vertical,horizontal
2a,12,100261,8,6,230,20,M,NA,variable,heterogeneous,4,present,0.813931226730347,1,horizontal,horizontal,1,2,green,1,2,980.31222920257,780.31222920257,980.31222920257,419.68777079743,980.31222920257,780.31222920257,980.31222920257,419.68777079743,619.68777079743,419.68777079743,619.68777079743,780.31222920257,4,0,5,6,horizontal,horizontal,horizontal,horizontal
2a,12,100261,8,7,231,20,M,NA,variable,heterogeneous,4,absent,0.862435102462769,1,horizontal,horizontal,1,3,red,3,NaN,619.68777079743,419.68777079743,NaN,NaN,980.31222920257,780.31222920257,980.31222920257,419.68777079743,619.68777079743,419.68777079743,619.68777079743,780.31222920257,3,6,4,5,horizontal,vertical,horizontal,vertical
2a,12,100261,8,8,232,20,M,NA,variable,heterogeneous,4,absent,1.19998812675476,1,vertical,vertical,1,3,red,1,NaN,980.31222920257,780.31222920257,NaN,NaN,980.31222920257,780.31222920257,980.31222920257,419.68777079743,619.68777079743,419.68777079743,619.68777079743,780.31222920257,4,3,5,6,vertical,vertical,vertical,vertical
2a,12,100261,8,9,233,20,M,NA,variable,heterogeneous,4,absent,1.30038213729858,1,vertical,vertical,1,8,red,1,NaN,980.31222920257,780.31222920257,NaN,NaN,980.31222920257,780.31222920257,980.31222920257,419.68777079743,619.68777079743,419.68777079743,619.68777079743,780.31222920257,4,3,0,6,vertical,horizontal,horizontal,horizontal
2a,12,100261,8,10,234,20,M,NA,variable,heterogeneous,4,present,NaN,0,horizontal,none,0,3,red,1,3,980.31222920257,780.31222920257,619.68777079743,419.68777079743,980.31222920257,780.31222920257,980.31222920257,419.68777079743,619.68777079743,419.68777079743,619.68777079743,780.31222920257,4,3,0,5,horizontal,horizontal,horizontal,vertical
2a,12,100261,8,11,235,20,M,NA,variable,heterogeneous,4,absent,0.742995023727417,1,vertical,vertical,1,2,red,3,NaN,619.68777079743,419.68777079743,NaN,NaN,980.31222920257,780.31222920257,980.31222920257,419.68777079743,619.68777079743,419.68777079743,619.68777079743,780.31222920257,0,3,4,5,vertical,horizontal,vertical,horizontal
2a,12,100261,8,12,236,20,M,NA,variable,heterogeneous,4,absent,1.55017518997192,1,vertical,vertical,1,5,green,1,NaN,980.31222920257,780.31222920257,NaN,NaN,980.31222920257,780.31222920257,980.31222920257,419.68777079743,619.68777079743,419.68777079743,619.68777079743,780.31222920257,4,5,0,3,vertical,horizontal,vertical,horizontal
2a,12,100261,8,13,237,20,M,NA,variable,heterogeneous,4,absent,0.829207897186279,1,horizontal,horizontal,1,2,red,3,NaN,619.68777079743,419.68777079743,NaN,NaN,980.31222920257,780.31222920257,980.31222920257,419.68777079743,619.68777079743,419.68777079743,619.68777079743,780.31222920257,5,0,4,6,vertical,vertical,horizontal,vertical
2a,12,100261,8,14,238,20,M,NA,variable,heterogeneous,4,absent,0.778129100799561,1,horizontal,horizontal,1,8,green,3,NaN,619.68777079743,419.68777079743,NaN,NaN,980.31222920257,780.31222920257,980.31222920257,419.68777079743,619.68777079743,419.68777079743,619.68777079743,780.31222920257,3,6,4,5,vertical,vertical,horizontal,vertical
2a,12,100261,8,15,239,20,M,NA,variable,heterogeneous,4,present,0.966177940368652,1,horizontal,horizontal,1,2,green,1,3,980.31222920257,780.31222920257,619.68777079743,419.68777079743,980.31222920257,780.31222920257,980.31222920257,419.68777079743,619.68777079743,419.68777079743,619.68777079743,780.31222920257,4,5,3,0,horizontal,vertical,vertical,horizontal
2a,12,100261,8,16,240,20,M,NA,variable,heterogeneous,4,present,1.10198998451233,1,vertical,vertical,1,3,red,4,2,619.68777079743,780.31222920257,980.31222920257,419.68777079743,980.31222920257,780.31222920257,980.31222920257,419.68777079743,619.68777079743,419.68777079743,619.68777079743,780.31222920257,6,3,0,4,horizontal,horizontal,horizontal,vertical
2a,12,100261,8,17,241,20,M,NA,variable,heterogeneous,4,present,0.819958925247192,1,horizontal,horizontal,1,3,red,3,1,619.68777079743,419.68777079743,980.31222920257,780.31222920257,980.31222920257,780.31222920257,980.31222920257,419.68777079743,619.68777079743,419.68777079743,619.68777079743,780.31222920257,5,0,4,6,vertical,vertical,horizontal,vertical
2a,12,100261,8,18,242,20,M,NA,variable,heterogeneous,4,absent,1.11663484573364,1,horizontal,horizontal,1,2,red,1,NaN,980.31222920257,780.31222920257,NaN,NaN,980.31222920257,780.31222920257,980.31222920257,419.68777079743,619.68777079743,419.68777079743,619.68777079743,780.31222920257,4,0,5,3,horizontal,vertical,vertical,horizontal
2a,12,100261,8,19,243,20,M,NA,variable,heterogeneous,4,present,1.40327095985413,1,horizontal,horizontal,1,5,red,1,4,980.31222920257,780.31222920257,619.68777079743,780.31222920257,980.31222920257,780.31222920257,980.31222920257,419.68777079743,619.68777079743,419.68777079743,619.68777079743,780.31222920257,4,6,3,0,horizontal,vertical,vertical,horizontal
2a,12,100261,8,20,244,20,M,NA,variable,heterogeneous,4,present,0.951534986495972,1,vertical,vertical,1,2,green,1,4,980.31222920257,780.31222920257,619.68777079743,780.31222920257,980.31222920257,780.31222920257,980.31222920257,419.68777079743,619.68777079743,419.68777079743,619.68777079743,780.31222920257,4,5,3,6,vertical,horizontal,vertical,horizontal
2a,12,100261,8,21,245,20,M,NA,variable,heterogeneous,4,absent,1.30677700042725,1,horizontal,horizontal,1,3,green,2,NaN,980.31222920257,419.68777079743,NaN,NaN,980.31222920257,780.31222920257,980.31222920257,419.68777079743,619.68777079743,419.68777079743,619.68777079743,780.31222920257,0,4,6,3,horizontal,horizontal,horizontal,horizontal
2a,12,100261,8,22,246,20,M,NA,variable,heterogeneous,4,absent,1.06121587753296,1,vertical,vertical,1,2,green,4,NaN,619.68777079743,780.31222920257,NaN,NaN,980.31222920257,780.31222920257,980.31222920257,419.68777079743,619.68777079743,419.68777079743,619.68777079743,780.31222920257,6,0,5,4,vertical,horizontal,vertical,vertical
2a,12,100261,8,23,247,20,M,NA,variable,heterogeneous,4,present,0.855169057846069,1,vertical,vertical,1,8,red,3,1,619.68777079743,419.68777079743,980.31222920257,780.31222920257,980.31222920257,780.31222920257,980.31222920257,419.68777079743,619.68777079743,419.68777079743,619.68777079743,780.31222920257,5,6,4,0,vertical,vertical,vertical,vertical
2a,12,100261,8,24,248,20,M,NA,variable,heterogeneous,4,present,1.03646993637085,1,horizontal,horizontal,1,8,red,3,1,619.68777079743,419.68777079743,980.31222920257,780.31222920257,980.31222920257,780.31222920257,980.31222920257,419.68777079743,619.68777079743,419.68777079743,619.68777079743,780.31222920257,0,6,4,3,vertical,horizontal,horizontal,horizontal
2a,12,100261,8,25,249,20,M,NA,variable,heterogeneous,4,present,1.04569506645203,1,vertical,vertical,1,2,green,4,3,619.68777079743,780.31222920257,619.68777079743,419.68777079743,980.31222920257,780.31222920257,980.31222920257,419.68777079743,619.68777079743,419.68777079743,619.68777079743,780.31222920257,5,3,0,4,vertical,vertical,vertical,vertical
2a,12,100261,8,26,250,20,M,NA,variable,heterogeneous,4,present,1.1147129535675,1,vertical,vertical,1,3,red,3,4,619.68777079743,419.68777079743,619.68777079743,780.31222920257,980.31222920257,780.31222920257,980.31222920257,419.68777079743,619.68777079743,419.68777079743,619.68777079743,780.31222920257,5,3,4,0,vertical,horizontal,vertical,vertical
2a,12,100261,8,27,251,20,M,NA,variable,heterogeneous,4,absent,1.40515303611755,1,vertical,vertical,1,2,red,1,NaN,980.31222920257,780.31222920257,NaN,NaN,980.31222920257,780.31222920257,980.31222920257,419.68777079743,619.68777079743,419.68777079743,619.68777079743,780.31222920257,4,0,6,3,vertical,horizontal,vertical,vertical
2a,12,100261,8,28,252,20,M,NA,variable,heterogeneous,4,present,1.55358004570007,1,horizontal,horizontal,1,5,red,2,1,980.31222920257,419.68777079743,980.31222920257,780.31222920257,980.31222920257,780.31222920257,980.31222920257,419.68777079743,619.68777079743,419.68777079743,619.68777079743,780.31222920257,0,4,5,3,vertical,horizontal,vertical,vertical
2a,12,100261,8,29,253,20,M,NA,variable,heterogeneous,4,present,1.10071396827698,1,vertical,vertical,1,5,red,3,2,619.68777079743,419.68777079743,980.31222920257,419.68777079743,980.31222920257,780.31222920257,980.31222920257,419.68777079743,619.68777079743,419.68777079743,619.68777079743,780.31222920257,5,6,4,3,horizontal,horizontal,vertical,horizontal
2a,12,100261,8,30,254,20,M,NA,variable,heterogeneous,4,present,1.44329404830933,1,vertical,vertical,1,5,red,4,3,619.68777079743,780.31222920257,619.68777079743,419.68777079743,980.31222920257,780.31222920257,980.31222920257,419.68777079743,619.68777079743,419.68777079743,619.68777079743,780.31222920257,6,5,3,4,horizontal,horizontal,vertical,vertical
2a,12,100261,8,31,255,20,M,NA,variable,heterogeneous,4,absent,1.74014210700989,1,horizontal,horizontal,1,2,green,2,NaN,980.31222920257,419.68777079743,NaN,NaN,980.31222920257,780.31222920257,980.31222920257,419.68777079743,619.68777079743,419.68777079743,619.68777079743,780.31222920257,3,4,0,6,vertical,horizontal,vertical,horizontal
2a,12,100261,8,32,256,20,M,NA,variable,heterogeneous,4,absent,0.891373157501221,1,vertical,vertical,1,5,green,2,NaN,980.31222920257,419.68777079743,NaN,NaN,980.31222920257,780.31222920257,980.31222920257,419.68777079743,619.68777079743,419.68777079743,619.68777079743,780.31222920257,5,4,6,3,horizontal,vertical,horizontal,vertical
2a,12,100261,9,1,257,20,M,NA,variable,heterogeneous,4,present,1.25149893760681,1,horizontal,horizontal,1,2,green,2,3,980.31222920257,419.68777079743,619.68777079743,419.68777079743,980.31222920257,780.31222920257,980.31222920257,419.68777079743,619.68777079743,419.68777079743,619.68777079743,780.31222920257,6,4,5,0,vertical,horizontal,horizontal,horizontal
2a,12,100261,9,2,258,20,M,NA,variable,heterogeneous,4,absent,1.08071112632751,1,vertical,vertical,1,2,red,3,NaN,619.68777079743,419.68777079743,NaN,NaN,980.31222920257,780.31222920257,980.31222920257,419.68777079743,619.68777079743,419.68777079743,619.68777079743,780.31222920257,0,6,4,3,vertical,horizontal,vertical,vertical
2a,12,100261,9,3,259,20,M,NA,variable,heterogeneous,4,present,1.35832905769348,1,vertical,vertical,1,8,red,4,2,619.68777079743,780.31222920257,980.31222920257,419.68777079743,980.31222920257,780.31222920257,980.31222920257,419.68777079743,619.68777079743,419.68777079743,619.68777079743,780.31222920257,0,3,5,4,horizontal,horizontal,horizontal,vertical
2a,12,100261,9,4,260,20,M,NA,variable,heterogeneous,4,present,0.721879005432129,1,vertical,vertical,1,5,red,4,2,619.68777079743,780.31222920257,980.31222920257,419.68777079743,980.31222920257,780.31222920257,980.31222920257,419.68777079743,619.68777079743,419.68777079743,619.68777079743,780.31222920257,5,3,6,4,horizontal,vertical,horizontal,vertical
2a,12,100261,9,5,261,20,M,NA,variable,heterogeneous,4,present,0.728705883026123,1,vertical,vertical,1,2,green,4,3,619.68777079743,780.31222920257,619.68777079743,419.68777079743,980.31222920257,780.31222920257,980.31222920257,419.68777079743,619.68777079743,419.68777079743,619.68777079743,780.31222920257,6,0,3,4,horizontal,horizontal,horizontal,vertical
2a,12,100261,9,6,262,20,M,NA,variable,heterogeneous,4,absent,1.06747102737427,1,vertical,vertical,1,3,red,2,NaN,980.31222920257,419.68777079743,NaN,NaN,980.31222920257,780.31222920257,980.31222920257,419.68777079743,619.68777079743,419.68777079743,619.68777079743,780.31222920257,6,4,0,3,vertical,vertical,horizontal,vertical
2a,12,100261,9,7,263,20,M,NA,variable,heterogeneous,4,present,0.85312294960022,1,vertical,vertical,1,3,green,3,2,619.68777079743,419.68777079743,980.31222920257,419.68777079743,980.31222920257,780.31222920257,980.31222920257,419.68777079743,619.68777079743,419.68777079743,619.68777079743,780.31222920257,6,3,4,5,vertical,vertical,vertical,horizontal
2a,12,100261,9,8,264,20,M,NA,variable,heterogeneous,4,absent,1.25047302246094,1,horizontal,horizontal,1,3,green,2,NaN,980.31222920257,419.68777079743,NaN,NaN,980.31222920257,780.31222920257,980.31222920257,419.68777079743,619.68777079743,419.68777079743,619.68777079743,780.31222920257,0,4,6,5,vertical,horizontal,horizontal,horizontal
2a,12,100261,9,9,265,20,M,NA,variable,heterogeneous,4,present,0.815478086471558,1,horizontal,horizontal,1,3,green,3,1,619.68777079743,419.68777079743,980.31222920257,780.31222920257,980.31222920257,780.31222920257,980.31222920257,419.68777079743,619.68777079743,419.68777079743,619.68777079743,780.31222920257,0,5,4,6,vertical,horizontal,horizontal,horizontal
2a,12,100261,9,10,266,20,M,NA,variable,heterogeneous,4,absent,1.40033912658691,1,vertical,vertical,1,8,green,2,NaN,980.31222920257,419.68777079743,NaN,NaN,980.31222920257,780.31222920257,980.31222920257,419.68777079743,619.68777079743,419.68777079743,619.68777079743,780.31222920257,3,4,5,6,horizontal,vertical,vertical,vertical
2a,12,100261,9,11,267,20,M,NA,variable,heterogeneous,4,present,1.2528350353241,1,horizontal,horizontal,1,2,green,3,2,619.68777079743,419.68777079743,980.31222920257,419.68777079743,980.31222920257,780.31222920257,980.31222920257,419.68777079743,619.68777079743,419.68777079743,619.68777079743,780.31222920257,6,3,4,0,horizontal,horizontal,horizontal,vertical
2a,12,100261,9,12,268,20,M,NA,variable,heterogeneous,4,present,1.12196803092957,1,vertical,vertical,1,5,red,4,2,619.68777079743,780.31222920257,980.31222920257,419.68777079743,980.31222920257,780.31222920257,980.31222920257,419.68777079743,619.68777079743,419.68777079743,619.68777079743,780.31222920257,5,0,3,4,horizontal,horizontal,horizontal,vertical
2a,12,100261,9,13,269,20,M,NA,variable,heterogeneous,4,absent,NaN,0,vertical,none,0,5,red,2,NaN,980.31222920257,419.68777079743,NaN,NaN,980.31222920257,780.31222920257,980.31222920257,419.68777079743,619.68777079743,419.68777079743,619.68777079743,780.31222920257,3,4,5,0,vertical,vertical,horizontal,vertical
2a,12,100261,9,14,270,20,M,NA,variable,heterogeneous,4,present,0.765137910842896,1,horizontal,horizontal,1,3,red,3,2,619.68777079743,419.68777079743,980.31222920257,419.68777079743,980.31222920257,780.31222920257,980.31222920257,419.68777079743,619.68777079743,419.68777079743,619.68777079743,780.31222920257,3,6,4,5,vertical,horizontal,horizontal,vertical
2a,12,100261,9,15,271,20,M,NA,variable,heterogeneous,4,present,0.996701002120972,1,vertical,vertical,1,2,red,2,4,980.31222920257,419.68777079743,619.68777079743,780.31222920257,980.31222920257,780.31222920257,980.31222920257,419.68777079743,619.68777079743,419.68777079743,619.68777079743,780.31222920257,0,4,3,6,vertical,vertical,horizontal,horizontal
2a,12,100261,9,16,272,20,M,NA,variable,heterogeneous,4,absent,1.44473099708557,1,horizontal,horizontal,1,5,red,2,NaN,980.31222920257,419.68777079743,NaN,NaN,980.31222920257,780.31222920257,980.31222920257,419.68777079743,619.68777079743,419.68777079743,619.68777079743,780.31222920257,0,4,6,5,horizontal,horizontal,horizontal,horizontal
2a,12,100261,9,17,273,20,M,NA,variable,heterogeneous,4,present,0.846168994903564,1,vertical,vertical,1,2,red,3,2,619.68777079743,419.68777079743,980.31222920257,419.68777079743,980.31222920257,780.31222920257,980.31222920257,419.68777079743,619.68777079743,419.68777079743,619.68777079743,780.31222920257,6,0,4,3,horizontal,vertical,vertical,horizontal
2a,12,100261,9,18,274,20,M,NA,variable,heterogeneous,4,absent,1.31511878967285,1,horizontal,horizontal,1,8,red,1,NaN,980.31222920257,780.31222920257,NaN,NaN,980.31222920257,780.31222920257,980.31222920257,419.68777079743,619.68777079743,419.68777079743,619.68777079743,780.31222920257,4,6,0,5,horizontal,horizontal,vertical,horizontal
2a,12,100261,9,19,275,20,M,NA,variable,heterogeneous,4,absent,1.22974300384521,1,horizontal,horizontal,1,2,red,4,NaN,619.68777079743,780.31222920257,NaN,NaN,980.31222920257,780.31222920257,980.31222920257,419.68777079743,619.68777079743,419.68777079743,619.68777079743,780.31222920257,6,3,0,4,vertical,horizontal,horizontal,horizontal
2a,12,100261,9,20,276,20,M,NA,variable,heterogeneous,4,absent,1.56237602233887,1,vertical,vertical,1,2,red,4,NaN,619.68777079743,780.31222920257,NaN,NaN,980.31222920257,780.31222920257,980.31222920257,419.68777079743,619.68777079743,419.68777079743,619.68777079743,780.31222920257,3,6,5,4,vertical,horizontal,vertical,vertical
2a,12,100261,9,21,277,20,M,NA,variable,heterogeneous,4,present,1.90962910652161,1,vertical,vertical,1,3,red,1,2,980.31222920257,780.31222920257,980.31222920257,419.68777079743,980.31222920257,780.31222920257,980.31222920257,419.68777079743,619.68777079743,419.68777079743,619.68777079743,780.31222920257,4,3,6,0,vertical,vertical,vertical,vertical
2a,12,100261,9,22,278,20,M,NA,variable,heterogeneous,4,present,1.31246185302734,1,horizontal,horizontal,1,5,green,2,1,980.31222920257,419.68777079743,980.31222920257,780.31222920257,980.31222920257,780.31222920257,980.31222920257,419.68777079743,619.68777079743,419.68777079743,619.68777079743,780.31222920257,6,4,0,5,vertical,horizontal,horizontal,vertical
2a,12,100261,9,23,279,20,M,NA,variable,heterogeneous,4,absent,1.33097505569458,1,horizontal,horizontal,1,3,red,4,NaN,619.68777079743,780.31222920257,NaN,NaN,980.31222920257,780.31222920257,980.31222920257,419.68777079743,619.68777079743,419.68777079743,619.68777079743,780.31222920257,6,3,0,4,vertical,vertical,horizontal,horizontal
2a,12,100261,9,24,280,20,M,NA,variable,heterogeneous,4,absent,1.32574200630188,1,vertical,vertical,1,5,red,2,NaN,980.31222920257,419.68777079743,NaN,NaN,980.31222920257,780.31222920257,980.31222920257,419.68777079743,619.68777079743,419.68777079743,619.68777079743,780.31222920257,0,4,5,3,vertical,vertical,vertical,horizontal
2a,12,100261,9,25,281,20,M,NA,variable,heterogeneous,4,present,0.716858863830566,1,horizontal,horizontal,1,2,red,2,3,980.31222920257,419.68777079743,619.68777079743,419.68777079743,980.31222920257,780.31222920257,980.31222920257,419.68777079743,619.68777079743,419.68777079743,619.68777079743,780.31222920257,6,4,0,3,vertical,horizontal,vertical,vertical
2a,12,100261,9,26,282,20,M,NA,variable,heterogeneous,4,absent,1.0272331237793,1,horizontal,horizontal,1,2,red,3,NaN,619.68777079743,419.68777079743,NaN,NaN,980.31222920257,780.31222920257,980.31222920257,419.68777079743,619.68777079743,419.68777079743,619.68777079743,780.31222920257,5,6,4,3,vertical,horizontal,horizontal,vertical
2a,12,100261,9,27,283,20,M,NA,variable,heterogeneous,4,absent,NaN,0,horizontal,none,0,2,red,1,NaN,980.31222920257,780.31222920257,NaN,NaN,980.31222920257,780.31222920257,980.31222920257,419.68777079743,619.68777079743,419.68777079743,619.68777079743,780.31222920257,4,5,0,3,horizontal,vertical,horizontal,vertical
2a,12,100261,9,28,284,20,M,NA,variable,heterogeneous,4,present,1.25242495536804,1,horizontal,horizontal,1,5,red,3,4,619.68777079743,419.68777079743,619.68777079743,780.31222920257,980.31222920257,780.31222920257,980.31222920257,419.68777079743,619.68777079743,419.68777079743,619.68777079743,780.31222920257,0,6,4,3,horizontal,vertical,horizontal,vertical
2a,12,100261,9,29,285,20,M,NA,variable,heterogeneous,4,absent,1.52175498008728,0,horizontal,vertical,1,5,green,4,NaN,619.68777079743,780.31222920257,NaN,NaN,980.31222920257,780.31222920257,980.31222920257,419.68777079743,619.68777079743,419.68777079743,619.68777079743,780.31222920257,0,6,3,4,vertical,vertical,vertical,horizontal
2a,12,100261,9,30,286,20,M,NA,variable,heterogeneous,4,absent,1.32040691375732,1,vertical,vertical,1,2,green,4,NaN,619.68777079743,780.31222920257,NaN,NaN,980.31222920257,780.31222920257,980.31222920257,419.68777079743,619.68777079743,419.68777079743,619.68777079743,780.31222920257,6,0,3,4,vertical,vertical,horizontal,vertical
2a,12,100261,9,31,287,20,M,NA,variable,heterogeneous,4,present,1.55911493301392,1,horizontal,horizontal,1,8,red,1,2,980.31222920257,780.31222920257,980.31222920257,419.68777079743,980.31222920257,780.31222920257,980.31222920257,419.68777079743,619.68777079743,419.68777079743,619.68777079743,780.31222920257,4,6,5,0,horizontal,vertical,horizontal,horizontal
2a,12,100261,9,32,288,20,M,NA,variable,heterogeneous,4,absent,1.50674104690552,1,vertical,vertical,1,3,green,1,NaN,980.31222920257,780.31222920257,NaN,NaN,980.31222920257,780.31222920257,980.31222920257,419.68777079743,619.68777079743,419.68777079743,619.68777079743,780.31222920257,4,0,5,3,vertical,horizontal,horizontal,vertical
2a,12,100261,10,1,289,20,M,NA,variable,heterogeneous,4,present,0.934120893478394,1,horizontal,horizontal,1,2,red,4,1,619.68777079743,780.31222920257,980.31222920257,780.31222920257,980.31222920257,780.31222920257,980.31222920257,419.68777079743,619.68777079743,419.68777079743,619.68777079743,780.31222920257,0,6,3,4,horizontal,vertical,horizontal,horizontal
2a,12,100261,10,2,290,20,M,NA,variable,heterogeneous,4,absent,1.05721092224121,1,vertical,vertical,1,5,green,2,NaN,980.31222920257,419.68777079743,NaN,NaN,980.31222920257,780.31222920257,980.31222920257,419.68777079743,619.68777079743,419.68777079743,619.68777079743,780.31222920257,5,4,3,6,vertical,vertical,horizontal,horizontal
2a,12,100261,10,3,291,20,M,NA,variable,heterogeneous,4,absent,1.22228503227234,1,horizontal,horizontal,1,3,green,4,NaN,619.68777079743,780.31222920257,NaN,NaN,980.31222920257,780.31222920257,980.31222920257,419.68777079743,619.68777079743,419.68777079743,619.68777079743,780.31222920257,0,6,5,4,vertical,horizontal,vertical,horizontal
