experiment,subject,uniqueID,block,trial,trial_cumulative,age,gender,color_cond_blocking,color_history,shape_type,set_size,distractor,rt,acc,target_orient,response_key,response_made,iti,target_color,target_item,distractor_item,target_X,target_Y,distractor_X,distractor_Y,item1_X,item1_Y,item2_X,item2_Y,item3_X,item3_Y,item4_X,item4_Y,item1_shape,item2_shape,item3_shape,item4_shape,item1_line,item2_line,item3_line,item4_line
2a,14,100265,1,1,1,23,M,NA,variable,heterogeneous,4,present,NaN,0,horizontal,none,0,3,red,2,1,980.31222920257,419.68777079743,980.31222920257,780.31222920257,980.31222920257,780.31222920257,980.31222920257,419.68777079743,619.68777079743,419.68777079743,619.68777079743,780.31222920257,0,4,5,3,vertical,horizontal,horizontal,horizontal
2a,14,100265,1,2,2,23,M,NA,variable,heterogeneous,4,present,1.85603499412537,0,horizontal,vertical,1,5,green,2,3,980.31222920257,419.68777079743,619.68777079743,419.68777079743,980.31222920257,780.31222920257,980.31222920257,419.68777079743,619.68777079743,419.68777079743,619.68777079743,780.31222920257,3,4,6,0,horizontal,horizontal,horizontal,horizontal
2a,14,100265,1,3,3,23,M,NA,variable,heterogeneous,4,present,NaN,0,vertical,none,0,8,red,1,4,980.31222920257,780.31222920257,619.68777079743,780.31222920257,980.31222920257,780.31222920257,980.31222920257,419.68777079743,619.68777079743,419.68777079743,619.68777079743,780.31222920257,4,6,5,3,vertical,horizontal,vertical,vertical
2a,14,100265,1,4,4,23,M,NA,variable,heterogeneous,4,absent,1.40175008773804,1,horizontal,horizontal,1,3,red,1,NaN,980.31222920257,780.31222920257,NaN,NaN,980.31222920257,780.31222920257,980.31222920257,419.68777079743,619.68777079743,419.68777079743,619.68777079743,780.31222920257,4,3,6,0,horizontal,horizontal,horizontal,horizontal
2a,14,100265,1,5,5,23,M,NA,variable,heterogeneous,4,absent,NaN,0,vertical,none,0,5,green,1,NaN,980.31222920257,780.31222920257,NaN,NaN,980.31222920257,780.31222920257,980.31222920257,419.68777079743,619.68777079743,419.68777079743,619.68777079743,780.31222920257,4,0,6,3,vertical,horizontal,vertical,horizontal
2a,14,100265,1,6,6,23,M,NA,variable,heterogeneous,4,absent,1.89011216163635,1,horizontal,horizontal,1,2,green,2,NaN,980.31222920257,419.68777079743,NaN,NaN,980.31222920257,780.31222920257,980.31222920257,419.68777079743,619.68777079743,419.68777079743,619.68777079743,780.31222920257,6,4,0,3,vertical,horizontal,horizontal,horizontal
2a,14,100265,1,7,7,23,M,NA,variable,heterogeneous,4,present,NaN,0,vertical,none,0,2,red,2,4,980.31222920257,419.68777079743,619.68777079743,780.31222920257,980.31222920257,780.31222920257,980.31222920257,419.68777079743,619.68777079743,419.68777079743,619.68777079743,780.31222920257,6,4,5,0,horizontal,vertical,horizontal,vertical
2a,14,100265,1,8,8,23,M,NA,variable,heterogeneous,4,absent,1.9762499332428,0,vertical,horizontal,1,3,red,1,NaN,980.31222920257,780.31222920257,NaN,NaN,980.31222920257,780.31222920257,980.31222920257,419.68777079743,619.68777079743,419.68777079743,619.68777079743,780.31222920257,4,6,3,0,vertical,horizontal,horizontal,vertical
2a,14,100265,1,9,9,23,M,NA,variable,heterogeneous,4,absent,1.77224206924438,1,horizontal,horizontal,1,5,green,4,NaN,619.68777079743,780.31222920257,NaN,NaN,980.31222920257,780.31222920257,980.31222920257,419.68777079743,619.68777079743,419.68777079743,619.68777079743,780.31222920257,5,0,6,4,horizontal,vertical,horizontal,horizontal
2a,14,100265,1,10,10,23,M,NA,variable,heterogeneous,4,present,NaN,0,vertical,none,0,5,red,3,1,619.68777079743,419.68777079743,980.31222920257,780.31222920257,980.31222920257,780.31222920257,980.31222920257,419.68777079743,619.68777079743,419.68777079743,619.68777079743,780.31222920257,0,6,4,5,horizontal,horizontal,vertical,vertical
2a,14,100265,1,11,11,23,M,NA,variable,heterogeneous,4,present,1.81602120399475,1,horizontal,horizontal,1,2,green,2,4,980.31222920257,419.68777079743,619.68777079743,780.31222920257,980.31222920257,780.31222920257,980.31222920257,419.68777079743,619.68777079743,419.68777079743,619.68777079743,780.31222920257,3,4,5,0,horizontal,horizontal,horizontal,horizontal
2a,14,100265,1,12,12,23,M,NA,variable,heterogeneous,4,absent,NaN,0,vertical,none,0,2,green,2,NaN,980.31222920257,419.68777079743,NaN,NaN,980.31222920257,780.31222920257,980.31222920257,419.68777079743,619.68777079743,419.68777079743,619.68777079743,780.31222920257,0,4,3,5,horizontal,vertical,horizontal,vertical
2a,14,100265,1,13,13,23,M,NA,variable,heterogeneous,4,absent,NaN,0,vertical,none,0,2,red,2,NaN,980.31222920257,419.68777079743,NaN,NaN,980.31222920257,780.31222920257,980.31222920257,419.68777079743,619.68777079743,419.68777079743,619.68777079743,780.31222920257,5,4,6,3,horizontal,vertical,vertical,horizontal
2a,14,100265,1,14,14,23,M,NA,variable,heterogeneous,4,present,1.34503602981567,1,vertical,vertical,1,2,red,2,4,980.31222920257,419.68777079743,619.68777079743,780.31222920257,980.31222920257,780.31222920257,980.31222920257,419.68777079743,619.68777079743,419.68777079743,619.68777079743,780.31222920257,0,4,6,3,horizontal,vertical,horizontal,horizontal
2a,14,100265,1,15,15,23,M,NA,variable,heterogeneous,4,present,1.46422386169434,1,horizontal,horizontal,1,2,green,4,1,619.68777079743,780.31222920257,980.31222920257,780.31222920257,980.31222920257,780.31222920257,980.31222920257,419.68777079743,619.68777079743,419.68777079743,619.68777079743,780.31222920257,0,3,6,4,horizontal,vertical,vertical,horizontal
2a,14,100265,1,16,16,23,M,NA,variable,heterogeneous,4,present,1.37744116783142,1,vertical,vertical,1,5,green,4,3,619.68777079743,780.31222920257,619.68777079743,419.68777079743,980.31222920257,780.31222920257,980.31222920257,419.68777079743,619.68777079743,419.68777079743,619.68777079743,780.31222920257,5,6,3,4,vertical,vertical,horizontal,vertical
2a,14,100265,1,17,17,23,M,NA,variable,heterogeneous,4,absent,1.57343101501465,1,horizontal,horizontal,1,2,green,2,NaN,980.31222920257,419.68777079743,NaN,NaN,980.31222920257,780.31222920257,980.31222920257,419.68777079743,619.68777079743,419.68777079743,619.68777079743,780.31222920257,5,4,3,0,horizontal,horizontal,vertical,vertical
2a,14,100265,1,18,18,23,M,NA,variable,heterogeneous,4,absent,1.44501781463623,1,vertical,vertical,1,5,green,4,NaN,619.68777079743,780.31222920257,NaN,NaN,980.31222920257,780.31222920257,980.31222920257,419.68777079743,619.68777079743,419.68777079743,619.68777079743,780.31222920257,0,6,3,4,vertical,horizontal,horizontal,vertical
2a,14,100265,1,19,19,23,M,NA,variable,heterogeneous,4,absent,1.886314868927,1,horizontal,horizontal,1,8,red,3,NaN,619.68777079743,419.68777079743,NaN,NaN,980.31222920257,780.31222920257,980.31222920257,419.68777079743,619.68777079743,419.68777079743,619.68777079743,780.31222920257,0,3,4,5,horizontal,horizontal,horizontal,vertical
2a,14,100265,1,20,20,23,M,NA,variable,heterogeneous,4,absent,1.69626784324646,1,horizontal,horizontal,1,5,red,2,NaN,980.31222920257,419.68777079743,NaN,NaN,980.31222920257,780.31222920257,980.31222920257,419.68777079743,619.68777079743,419.68777079743,619.68777079743,780.31222920257,3,4,0,6,horizontal,horizontal,horizontal,vertical
2a,14,100265,1,21,21,23,M,NA,variable,heterogeneous,4,present,1.91039800643921,1,horizontal,horizontal,1,8,green,3,4,619.68777079743,419.68777079743,619.68777079743,780.31222920257,980.31222920257,780.31222920257,980.31222920257,419.68777079743,619.68777079743,419.68777079743,619.68777079743,780.31222920257,0,6,4,3,vertical,horizontal,horizontal,vertical
2a,14,100265,1,22,22,23,M,NA,variable,heterogeneous,4,absent,NaN,0,vertical,none,0,8,green,2,NaN,980.31222920257,419.68777079743,NaN,NaN,980.31222920257,780.31222920257,980.31222920257,419.68777079743,619.68777079743,419.68777079743,619.68777079743,780.31222920257,3,4,6,5,vertical,vertical,vertical,horizontal
2a,14,100265,1,23,23,23,M,NA,variable,heterogeneous,4,present,NaN,0,vertical,none,0,3,red,1,2,980.31222920257,780.31222920257,980.31222920257,419.68777079743,980.31222920257,780.31222920257,980.31222920257,419.68777079743,619.68777079743,419.68777079743,619.68777079743,780.31222920257,4,5,3,6,vertical,horizontal,horizontal,vertical
2a,14,100265,1,24,24,23,M,NA,variable,heterogeneous,4,present,1.47358012199402,0,vertical,horizontal,1,3,green,3,2,619.68777079743,419.68777079743,980.31222920257,419.68777079743,980.31222920257,780.31222920257,980.31222920257,419.68777079743,619.68777079743,419.68777079743,619.68777079743,780.31222920257,6,3,4,0,horizontal,horizontal,vertical,horizontal
2a,14,100265,1,25,25,23,M,NA,variable,heterogeneous,4,present,1.1593291759491,1,vertical,vertical,1,2,red,3,2,619.68777079743,419.68777079743,980.31222920257,419.68777079743,980.31222920257,780.31222920257,980.31222920257,419.68777079743,619.68777079743,419.68777079743,619.68777079743,780.31222920257,3,6,4,5,vertical,vertical,vertical,horizontal
2a,14,100265,1,26,26,23,M,NA,variable,heterogeneous,4,absent,1.44267106056213,1,vertical,vertical,1,3,red,2,NaN,980.31222920257,419.68777079743,NaN,NaN,980.31222920257,780.31222920257,980.31222920257,419.68777079743,619.68777079743,419.68777079743,619.68777079743,780.31222920257,6,4,0,3,horizontal,vertical,vertical,horizontal
2a,14,100265,1,27,27,23,M,NA,variable,heterogeneous,4,present,0.971540927886963,1,horizontal,horizontal,1,2,red,2,3,980.31222920257,419.68777079743,619.68777079743,419.68777079743,980.31222920257,780.31222920257,980.31222920257,419.68777079743,619.68777079743,419.68777079743,619.68777079743,780.31222920257,0,4,5,3,vertical,horizontal,vertical,vertical
2a,14,100265,1,28,28,23,M,NA,variable,heterogeneous,4,present,1.25118589401245,1,horizontal,horizontal,1,5,green,3,1,619.68777079743,419.68777079743,980.31222920257,780.31222920257,980.31222920257,780.31222920257,980.31222920257,419.68777079743,619.68777079743,419.68777079743,619.68777079743,780.31222920257,5,0,4,6,horizontal,horizontal,horizontal,vertical
2a,14,100265,1,29,29,23,M,NA,variable,heterogeneous,4,present,NaN,0,horizontal,none,0,3,red,2,1,980.31222920257,419.68777079743,980.31222920257,780.31222920257,980.31222920257,780.31222920257,980.31222920257,419.68777079743,619.68777079743,419.68777079743,619.68777079743,780.31222920257,0,4,3,6,vertical,horizontal,vertical,vertical
2a,14,100265,1,30,30,23,M,NA,variable,heterogeneous,4,absent,1.39701890945435,1,vertical,vertical,1,2,red,2,NaN,980.31222920257,419.68777079743,NaN,NaN,980.31222920257,780.31222920257,980.31222920257,419.68777079743,619.68777079743,419.68777079743,619.68777079743,780.31222920257,5,4,0,3,vertical,vertical,vertical,vertical
2a,14,100265,1,31,31,23,M,NA,variable,heterogeneous,4,absent,1.67691802978516,1,horizontal,horizontal,1,2,red,4,NaN,619.68777079743,780.31222920257,NaN,NaN,980.31222920257,780.31222920257,980.31222920257,419.68777079743,619.68777079743,419.68777079743,619.68777079743,780.31222920257,5,3,6,4,horizontal,horizontal,horizontal,horizontal
2a,14,100265,1,32,32,23,M,NA,variable,heterogeneous,4,absent,1.23458099365234,1,horizontal,horizontal,1,3,green,4,NaN,619.68777079743,780.31222920257,NaN,NaN,980.31222920257,780.31222920257,980.31222920257,419.68777079743,619.68777079743,419.68777079743,619.68777079743,780.31222920257,0,3,6,4,vertical,vertical,vertical,horizontal
2a,14,100265,2,1,33,23,M,NA,variable,heterogeneous,4,present,NaN,0,horizontal,none,0,2,green,1,4,980.31222920257,780.31222920257,619.68777079743,780.31222920257,980.31222920257,780.31222920257,980.31222920257,419.68777079743,619.68777079743,419.68777079743,619.68777079743,780.31222920257,4,3,5,6,horizontal,horizontal,vertical,vertical
2a,14,100265,2,2,34,23,M,NA,variable,heterogeneous,4,present,1.84775495529175,1,vertical,vertical,1,3,red,3,4,619.68777079743,419.68777079743,619.68777079743,780.31222920257,980.31222920257,780.31222920257,980.31222920257,419.68777079743,619.68777079743,419.68777079743,619.68777079743,780.31222920257,0,5,4,3,horizontal,horizontal,vertical,horizontal
2a,14,100265,2,3,35,23,M,NA,variable,heterogeneous,4,present,0.964906930923462,1,horizontal,horizontal,1,2,green,4,1,619.68777079743,780.31222920257,980.31222920257,780.31222920257,980.31222920257,780.31222920257,980.31222920257,419.68777079743,619.68777079743,419.68777079743,619.68777079743,780.31222920257,5,3,0,4,horizontal,vertical,vertical,horizontal
2a,14,100265,2,4,36,23,M,NA,variable,heterogeneous,4,absent,1.02043795585632,1,horizontal,horizontal,1,3,red,4,NaN,619.68777079743,780.31222920257,NaN,NaN,980.31222920257,780.31222920257,980.31222920257,419.68777079743,619.68777079743,419.68777079743,619.68777079743,780.31222920257,0,3,6,4,horizontal,horizontal,vertical,horizontal
2a,14,100265,2,5,37,23,M,NA,variable,heterogeneous,4,absent,1.21316695213318,1,vertical,vertical,1,2,red,1,NaN,980.31222920257,780.31222920257,NaN,NaN,980.31222920257,780.31222920257,980.31222920257,419.68777079743,619.68777079743,419.68777079743,619.68777079743,780.31222920257,4,6,3,5,vertical,vertical,horizontal,horizontal
2a,14,100265,2,6,38,23,M,NA,variable,heterogeneous,4,absent,1.42941999435425,1,vertical,vertical,1,8,green,2,NaN,980.31222920257,419.68777079743,NaN,NaN,980.31222920257,780.31222920257,980.31222920257,419.68777079743,619.68777079743,419.68777079743,619.68777079743,780.31222920257,5,4,0,3,vertical,vertical,horizontal,vertical
2a,14,100265,2,7,39,23,M,NA,variable,heterogeneous,4,absent,1.18629908561707,1,horizontal,horizontal,1,3,green,2,NaN,980.31222920257,419.68777079743,NaN,NaN,980.31222920257,780.31222920257,980.31222920257,419.68777079743,619.68777079743,419.68777079743,619.68777079743,780.31222920257,3,4,5,0,horizontal,horizontal,horizontal,horizontal
2a,14,100265,2,8,40,23,M,NA,variable,heterogeneous,4,present,1.34213399887085,1,horizontal,horizontal,1,8,green,2,4,980.31222920257,419.68777079743,619.68777079743,780.31222920257,980.31222920257,780.31222920257,980.31222920257,419.68777079743,619.68777079743,419.68777079743,619.68777079743,780.31222920257,6,4,5,3,vertical,horizontal,horizontal,horizontal
2a,14,100265,2,9,41,23,M,NA,variable,heterogeneous,4,present,1.74138998985291,1,vertical,vertical,1,5,red,4,2,619.68777079743,780.31222920257,980.31222920257,419.68777079743,980.31222920257,780.31222920257,980.31222920257,419.68777079743,619.68777079743,419.68777079743,619.68777079743,780.31222920257,0,6,3,4,vertical,horizontal,horizontal,vertical
2a,14,100265,2,10,42,23,M,NA,variable,heterogeneous,4,present,1.50889706611633,1,vertical,vertical,1,8,red,2,1,980.31222920257,419.68777079743,980.31222920257,780.31222920257,980.31222920257,780.31222920257,980.31222920257,419.68777079743,619.68777079743,419.68777079743,619.68777079743,780.31222920257,6,4,5,0,horizontal,vertical,vertical,horizontal
2a,14,100265,2,11,43,23,M,NA,variable,heterogeneous,4,absent,1.54325795173645,1,horizontal,horizontal,1,8,green,3,NaN,619.68777079743,419.68777079743,NaN,NaN,980.31222920257,780.31222920257,980.31222920257,419.68777079743,619.68777079743,419.68777079743,619.68777079743,780.31222920257,6,0,4,3,vertical,horizontal,horizontal,vertical
2a,14,100265,2,12,44,23,M,NA,variable,heterogeneous,4,absent,1.59014391899109,1,vertical,vertical,1,2,green,1,NaN,980.31222920257,780.31222920257,NaN,NaN,980.31222920257,780.31222920257,980.31222920257,419.68777079743,619.68777079743,419.68777079743,619.68777079743,780.31222920257,4,6,0,3,vertical,vertical,vertical,horizontal
2a,14,100265,2,13,45,23,M,NA,variable,heterogeneous,4,present,1.62245798110962,1,horizontal,horizontal,1,2,red,4,1,619.68777079743,780.31222920257,980.31222920257,780.31222920257,980.31222920257,780.31222920257,980.31222920257,419.68777079743,619.68777079743,419.68777079743,619.68777079743,780.31222920257,3,5,6,4,vertical,vertical,horizontal,horizontal
2a,14,100265,2,14,46,23,M,NA,variable,heterogeneous,4,present,0.875203132629395,1,horizontal,horizontal,1,3,green,3,4,619.68777079743,419.68777079743,619.68777079743,780.31222920257,980.31222920257,780.31222920257,980.31222920257,419.68777079743,619.68777079743,419.68777079743,619.68777079743,780.31222920257,0,3,4,6,horizontal,vertical,horizontal,horizontal
2a,14,100265,2,15,47,23,M,NA,variable,heterogeneous,4,absent,0.992801904678345,1,vertical,vertical,1,3,red,4,NaN,619.68777079743,780.31222920257,NaN,NaN,980.31222920257,780.31222920257,980.31222920257,419.68777079743,619.68777079743,419.68777079743,619.68777079743,780.31222920257,5,0,3,4,horizontal,vertical,horizontal,vertical
2a,14,100265,2,16,48,23,M,NA,variable,heterogeneous,4,absent,1.16102194786072,1,vertical,vertical,1,2,green,1,NaN,980.31222920257,780.31222920257,NaN,NaN,980.31222920257,780.31222920257,980.31222920257,419.68777079743,619.68777079743,419.68777079743,619.68777079743,780.31222920257,4,5,0,3,vertical,vertical,horizontal,vertical
2a,14,100265,2,17,49,23,M,NA,variable,heterogeneous,4,present,1.6839759349823,1,vertical,vertical,1,5,red,2,4,980.31222920257,419.68777079743,619.68777079743,780.31222920257,980.31222920257,780.31222920257,980.31222920257,419.68777079743,619.68777079743,419.68777079743,619.68777079743,780.31222920257,3,4,0,5,horizontal,vertical,vertical,vertical
2a,14,100265,2,18,50,23,M,NA,variable,heterogeneous,4,present,0.87017297744751,1,vertical,vertical,1,2,green,3,1,619.68777079743,419.68777079743,980.31222920257,780.31222920257,980.31222920257,780.31222920257,980.31222920257,419.68777079743,619.68777079743,419.68777079743,619.68777079743,780.31222920257,6,3,4,5,vertical,horizontal,vertical,vertical
2a,14,100265,2,19,51,23,M,NA,variable,heterogeneous,4,absent,1.03609395027161,1,vertical,vertical,1,5,green,1,NaN,980.31222920257,780.31222920257,NaN,NaN,980.31222920257,780.31222920257,980.31222920257,419.68777079743,619.68777079743,419.68777079743,619.68777079743,780.31222920257,4,0,6,5,vertical,horizontal,horizontal,vertical
2a,14,100265,2,20,52,23,M,NA,variable,heterogeneous,4,absent,0.876913070678711,1,vertical,vertical,1,3,red,2,NaN,980.31222920257,419.68777079743,NaN,NaN,980.31222920257,780.31222920257,980.31222920257,419.68777079743,619.68777079743,419.68777079743,619.68777079743,780.31222920257,5,4,3,0,horizontal,vertical,vertical,horizontal
2a,14,100265,2,21,53,23,M,NA,variable,heterogeneous,4,present,0.954585075378418,1,vertical,vertical,1,2,green,4,1,619.68777079743,780.31222920257,980.31222920257,780.31222920257,980.31222920257,780.31222920257,980.31222920257,419.68777079743,619.68777079743,419.68777079743,619.68777079743,780.31222920257,5,3,0,4,horizontal,vertical,horizontal,vertical
2a,14,100265,2,22,54,23,M,NA,variable,heterogeneous,4,absent,1.0537691116333,1,vertical,vertical,1,5,green,2,NaN,980.31222920257,419.68777079743,NaN,NaN,980.31222920257,780.31222920257,980.31222920257,419.68777079743,619.68777079743,419.68777079743,619.68777079743,780.31222920257,0,4,5,6,horizontal,vertical,vertical,vertical
2a,14,100265,2,23,55,23,M,NA,variable,heterogeneous,4,present,0.851254224777222,1,horizontal,horizontal,1,5,green,2,3,980.31222920257,419.68777079743,619.68777079743,419.68777079743,980.31222920257,780.31222920257,980.31222920257,419.68777079743,619.68777079743,419.68777079743,619.68777079743,780.31222920257,6,4,3,0,vertical,horizontal,horizontal,vertical
2a,14,100265,2,24,56,23,M,NA,variable,heterogeneous,4,absent,0.848256826400757,1,horizontal,horizontal,1,5,green,3,NaN,619.68777079743,419.68777079743,NaN,NaN,980.31222920257,780.31222920257,980.31222920257,419.68777079743,619.68777079743,419.68777079743,619.68777079743,780.31222920257,6,3,4,0,horizontal,horizontal,horizontal,horizontal
2a,14,100265,2,25,57,23,M,NA,variable,heterogeneous,4,absent,1.01377606391907,1,horizontal,horizontal,1,2,red,4,NaN,619.68777079743,780.31222920257,NaN,NaN,980.31222920257,780.31222920257,980.31222920257,419.68777079743,619.68777079743,419.68777079743,619.68777079743,780.31222920257,6,5,3,4,horizontal,horizontal,vertical,horizontal
2a,14,100265,2,26,58,23,M,NA,variable,heterogeneous,4,present,0.854235887527466,1,vertical,vertical,1,2,red,4,3,619.68777079743,780.31222920257,619.68777079743,419.68777079743,980.31222920257,780.31222920257,980.31222920257,419.68777079743,619.68777079743,419.68777079743,619.68777079743,780.31222920257,5,0,3,4,vertical,vertical,vertical,vertical
2a,14,100265,2,27,59,23,M,NA,variable,heterogeneous,4,present,1.76346111297607,1,horizontal,horizontal,1,5,green,2,1,980.31222920257,419.68777079743,980.31222920257,780.31222920257,980.31222920257,780.31222920257,980.31222920257,419.68777079743,619.68777079743,419.68777079743,619.68777079743,780.31222920257,6,4,3,5,horizontal,horizontal,horizontal,horizontal
2a,14,100265,2,28,60,23,M,NA,variable,heterogeneous,4,absent,0.707169055938721,1,horizontal,horizontal,1,2,green,2,NaN,980.31222920257,419.68777079743,NaN,NaN,980.31222920257,780.31222920257,980.31222920257,419.68777079743,619.68777079743,419.68777079743,619.68777079743,780.31222920257,5,4,0,3,horizontal,horizontal,vertical,horizontal
2a,14,100265,2,29,61,23,M,NA,variable,heterogeneous,4,present,1.14954209327698,1,horizontal,horizontal,1,3,green,1,3,980.31222920257,780.31222920257,619.68777079743,419.68777079743,980.31222920257,780.31222920257,980.31222920257,419.68777079743,619.68777079743,419.68777079743,619.68777079743,780.31222920257,4,6,0,3,horizontal,vertical,vertical,vertical
2a,14,100265,2,30,62,23,M,NA,variable,heterogeneous,4,absent,0.836877822875977,1,horizontal,horizontal,1,5,red,4,NaN,619.68777079743,780.31222920257,NaN,NaN,980.31222920257,780.31222920257,980.31222920257,419.68777079743,619.68777079743,419.68777079743,619.68777079743,780.31222920257,5,6,3,4,vertical,horizontal,vertical,horizontal
2a,14,100265,2,31,63,23,M,NA,variable,heterogeneous,4,absent,1.26971387863159,0,horizontal,vertical,1,2,red,2,NaN,980.31222920257,419.68777079743,NaN,NaN,980.31222920257,780.31222920257,980.31222920257,419.68777079743,619.68777079743,419.68777079743,619.68777079743,780.31222920257,3,4,6,5,vertical,horizontal,vertical,vertical
2a,14,100265,2,32,64,23,M,NA,variable,heterogeneous,4,present,1.53156208992004,1,vertical,vertical,1,3,green,3,1,619.68777079743,419.68777079743,980.31222920257,780.31222920257,980.31222920257,780.31222920257,980.31222920257,419.68777079743,619.68777079743,419.68777079743,619.68777079743,780.31222920257,6,0,4,5,vertical,vertical,vertical,horizontal
2a,14,100265,3,1,65,23,M,NA,variable,heterogeneous,4,present,1.33729410171509,1,horizontal,horizontal,1,2,red,3,2,619.68777079743,419.68777079743,980.31222920257,419.68777079743,980.31222920257,780.31222920257,980.31222920257,419.68777079743,619.68777079743,419.68777079743,619.68777079743,780.31222920257,0,6,4,3,horizontal,vertical,horizontal,vertical
2a,14,100265,3,2,66,23,M,NA,variable,heterogeneous,4,present,1.08401012420654,1,vertical,vertical,1,8,green,4,3,619.68777079743,780.31222920257,619.68777079743,419.68777079743,980.31222920257,780.31222920257,980.31222920257,419.68777079743,619.68777079743,419.68777079743,619.68777079743,780.31222920257,3,0,5,4,horizontal,horizontal,vertical,vertical
2a,14,100265,3,3,67,23,M,NA,variable,heterogeneous,4,absent,1.45417499542236,1,vertical,vertical,1,5,red,1,NaN,980.31222920257,780.31222920257,NaN,NaN,980.31222920257,780.31222920257,980.31222920257,419.68777079743,619.68777079743,419.68777079743,619.68777079743,780.31222920257,4,0,6,5,vertical,vertical,horizontal,horizontal
2a,14,100265,3,4,68,23,M,NA,variable,heterogeneous,4,absent,NaN,0,vertical,none,0,5,red,2,NaN,980.31222920257,419.68777079743,NaN,NaN,980.31222920257,780.31222920257,980.31222920257,419.68777079743,619.68777079743,419.68777079743,619.68777079743,780.31222920257,3,4,6,5,horizontal,vertical,horizontal,horizontal
2a,14,100265,3,5,69,23,M,NA,variable,heterogeneous,4,absent,1.83970904350281,1,horizontal,horizontal,1,5,green,2,NaN,980.31222920257,419.68777079743,NaN,NaN,980.31222920257,780.31222920257,980.31222920257,419.68777079743,619.68777079743,419.68777079743,619.68777079743,780.31222920257,5,4,6,0,vertical,horizontal,vertical,horizontal
2a,14,100265,3,6,70,23,M,NA,variable,heterogeneous,4,absent,1.56101894378662,1,horizontal,horizontal,1,2,green,4,NaN,619.68777079743,780.31222920257,NaN,NaN,980.31222920257,780.31222920257,980.31222920257,419.68777079743,619.68777079743,419.68777079743,619.68777079743,780.31222920257,6,5,3,4,vertical,vertical,horizontal,horizontal
2a,14,100265,3,7,71,23,M,NA,variable,heterogeneous,4,present,1.95597505569458,1,horizontal,horizontal,1,3,red,1,2,980.31222920257,780.31222920257,980.31222920257,419.68777079743,980.31222920257,780.31222920257,980.31222920257,419.68777079743,619.68777079743,419.68777079743,619.68777079743,780.31222920257,4,5,3,6,horizontal,vertical,horizontal,vertical
2a,14,100265,3,8,72,23,M,NA,variable,heterogeneous,4,present,0.751868963241577,1,horizontal,horizontal,1,5,green,4,1,619.68777079743,780.31222920257,980.31222920257,780.31222920257,980.31222920257,780.31222920257,980.31222920257,419.68777079743,619.68777079743,419.68777079743,619.68777079743,780.31222920257,6,3,5,4,horizontal,horizontal,horizontal,horizontal
2a,14,100265,3,9,73,23,M,NA,variable,heterogeneous,4,absent,1.58682179450989,1,vertical,vertical,1,2,red,1,NaN,980.31222920257,780.31222920257,NaN,NaN,980.31222920257,780.31222920257,980.31222920257,419.68777079743,619.68777079743,419.68777079743,619.68777079743,780.31222920257,4,5,6,3,vertical,vertical,horizontal,horizontal
2a,14,100265,3,10,74,23,M,NA,variable,heterogeneous,4,present,1.26702404022217,0,horizontal,vertical,1,2,red,3,4,619.68777079743,419.68777079743,619.68777079743,780.31222920257,980.31222920257,780.31222920257,980.31222920257,419.68777079743,619.68777079743,419.68777079743,619.68777079743,780.31222920257,5,3,4,6,horizontal,horizontal,horizontal,horizontal
2a,14,100265,3,11,75,23,M,NA,variable,heterogeneous,4,absent,1.80445599555969,1,vertical,vertical,1,2,green,4,NaN,619.68777079743,780.31222920257,NaN,NaN,980.31222920257,780.31222920257,980.31222920257,419.68777079743,619.68777079743,419.68777079743,619.68777079743,780.31222920257,3,5,0,4,horizontal,vertical,horizontal,vertical
2a,14,100265,3,12,76,23,M,NA,variable,heterogeneous,4,present,1.28891897201538,1,horizontal,horizontal,1,8,red,4,1,619.68777079743,780.31222920257,980.31222920257,780.31222920257,980.31222920257,780.31222920257,980.31222920257,419.68777079743,619.68777079743,419.68777079743,619.68777079743,780.31222920257,3,6,0,4,vertical,vertical,vertical,horizontal
2a,14,100265,3,13,77,23,M,NA,variable,heterogeneous,4,absent,1.01903891563416,1,horizontal,horizontal,1,2,green,4,NaN,619.68777079743,780.31222920257,NaN,NaN,980.31222920257,780.31222920257,980.31222920257,419.68777079743,619.68777079743,419.68777079743,619.68777079743,780.31222920257,3,6,0,4,vertical,vertical,horizontal,horizontal
2a,14,100265,3,14,78,23,M,NA,variable,heterogeneous,4,absent,0.947415828704834,1,vertical,vertical,1,3,red,1,NaN,980.31222920257,780.31222920257,NaN,NaN,980.31222920257,780.31222920257,980.31222920257,419.68777079743,619.68777079743,419.68777079743,619.68777079743,780.31222920257,4,0,5,3,vertical,horizontal,horizontal,vertical
2a,14,100265,3,15,79,23,M,NA,variable,heterogeneous,4,present,1.04229116439819,1,vertical,vertical,1,5,green,1,3,980.31222920257,780.31222920257,619.68777079743,419.68777079743,980.31222920257,780.31222920257,980.31222920257,419.68777079743,619.68777079743,419.68777079743,619.68777079743,780.31222920257,4,0,6,5,vertical,vertical,vertical,vertical
2a,14,100265,3,16,80,23,M,NA,variable,heterogeneous,4,present,1.79547691345215,1,horizontal,horizontal,1,3,red,3,2,619.68777079743,419.68777079743,980.31222920257,419.68777079743,980.31222920257,780.31222920257,980.31222920257,419.68777079743,619.68777079743,419.68777079743,619.68777079743,780.31222920257,0,3,4,5,horizontal,horizontal,horizontal,vertical
2a,14,100265,3,17,81,23,M,NA,variable,heterogeneous,4,present,1.09959816932678,1,vertical,vertical,1,2,red,4,2,619.68777079743,780.31222920257,980.31222920257,419.68777079743,980.31222920257,780.31222920257,980.31222920257,419.68777079743,619.68777079743,419.68777079743,619.68777079743,780.31222920257,6,5,3,4,horizontal,vertical,vertical,vertical
2a,14,100265,3,18,82,23,M,NA,variable,heterogeneous,4,absent,1.01754188537598,1,vertical,vertical,1,8,red,4,NaN,619.68777079743,780.31222920257,NaN,NaN,980.31222920257,780.31222920257,980.31222920257,419.68777079743,619.68777079743,419.68777079743,619.68777079743,780.31222920257,5,0,6,4,horizontal,vertical,horizontal,vertical
2a,14,100265,3,19,83,23,M,NA,variable,heterogeneous,4,absent,1.44213509559631,1,horizontal,horizontal,1,3,green,1,NaN,980.31222920257,780.31222920257,NaN,NaN,980.31222920257,780.31222920257,980.31222920257,419.68777079743,619.68777079743,419.68777079743,619.68777079743,780.31222920257,4,0,5,3,horizontal,horizontal,vertical,horizontal
2a,14,100265,3,20,84,23,M,NA,variable,heterogeneous,4,absent,0.907377958297729,1,horizontal,horizontal,1,8,green,3,NaN,619.68777079743,419.68777079743,NaN,NaN,980.31222920257,780.31222920257,980.31222920257,419.68777079743,619.68777079743,419.68777079743,619.68777079743,780.31222920257,0,5,4,6,horizontal,vertical,horizontal,vertical
2a,14,100265,3,21,85,23,M,NA,variable,heterogeneous,4,absent,0.941757917404175,1,horizontal,horizontal,1,3,red,2,NaN,980.31222920257,419.68777079743,NaN,NaN,980.31222920257,780.31222920257,980.31222920257,419.68777079743,619.68777079743,419.68777079743,619.68777079743,780.31222920257,0,4,6,5,horizontal,horizontal,vertical,horizontal
2a,14,100265,3,22,86,23,M,NA,variable,heterogeneous,4,present,0.797158002853394,1,vertical,vertical,1,5,green,4,3,619.68777079743,780.31222920257,619.68777079743,419.68777079743,980.31222920257,780.31222920257,980.31222920257,419.68777079743,619.68777079743,419.68777079743,619.68777079743,780.31222920257,5,0,6,4,vertical,horizontal,horizontal,vertical
2a,14,100265,3,23,87,23,M,NA,variable,heterogeneous,4,present,1.47708702087402,1,vertical,vertical,1,3,red,3,1,619.68777079743,419.68777079743,980.31222920257,780.31222920257,980.31222920257,780.31222920257,980.31222920257,419.68777079743,619.68777079743,419.68777079743,619.68777079743,780.31222920257,3,5,4,0,vertical,horizontal,vertical,horizontal
2a,14,100265,3,24,88,23,M,NA,variable,heterogeneous,4,absent,1.45062613487244,1,vertical,vertical,1,2,red,2,NaN,980.31222920257,419.68777079743,NaN,NaN,980.31222920257,780.31222920257,980.31222920257,419.68777079743,619.68777079743,419.68777079743,619.68777079743,780.31222920257,3,4,0,5,horizontal,vertical,horizontal,horizontal
2a,14,100265,3,25,89,23,M,NA,variable,heterogeneous,4,present,0.807948112487793,1,vertical,vertical,1,2,red,4,2,619.68777079743,780.31222920257,980.31222920257,419.68777079743,980.31222920257,780.31222920257,980.31222920257,419.68777079743,619.68777079743,419.68777079743,619.68777079743,780.31222920257,0,6,5,4,vertical,horizontal,vertical,vertical
2a,14,100265,3,26,90,23,M,NA,variable,heterogeneous,4,present,NaN,0,horizontal,none,0,2,green,2,1,980.31222920257,419.68777079743,980.31222920257,780.31222920257,980.31222920257,780.31222920257,980.31222920257,419.68777079743,619.68777079743,419.68777079743,619.68777079743,780.31222920257,6,4,0,3,horizontal,horizontal,vertical,vertical
2a,14,100265,3,27,91,23,M,NA,variable,heterogeneous,4,present,1.10467481613159,1,vertical,vertical,1,2,red,1,3,980.31222920257,780.31222920257,619.68777079743,419.68777079743,980.31222920257,780.31222920257,980.31222920257,419.68777079743,619.68777079743,419.68777079743,619.68777079743,780.31222920257,4,6,3,0,vertical,horizontal,horizontal,vertical
2a,14,100265,3,28,92,23,M,NA,variable,heterogeneous,4,present,1.21090292930603,1,horizontal,horizontal,1,5,green,1,2,980.31222920257,780.31222920257,980.31222920257,419.68777079743,980.31222920257,780.31222920257,980.31222920257,419.68777079743,619.68777079743,419.68777079743,619.68777079743,780.31222920257,4,5,6,3,horizontal,horizontal,vertical,vertical
2a,14,100265,3,29,93,23,M,NA,variable,heterogeneous,4,present,0.715574979782104,1,vertical,vertical,1,3,green,4,3,619.68777079743,780.31222920257,619.68777079743,419.68777079743,980.31222920257,780.31222920257,980.31222920257,419.68777079743,619.68777079743,419.68777079743,619.68777079743,780.31222920257,0,6,5,4,horizontal,horizontal,vertical,vertical
2a,14,100265,3,30,94,23,M,NA,variable,heterogeneous,4,absent,0.950092077255249,1,vertical,vertical,1,3,green,3,NaN,619.68777079743,419.68777079743,NaN,NaN,980.31222920257,780.31222920257,980.31222920257,419.68777079743,619.68777079743,419.68777079743,619.68777079743,780.31222920257,6,5,4,3,vertical,horizontal,vertical,horizontal
2a,14,100265,3,31,95,23,M,NA,variable,heterogeneous,4,absent,0.893088102340698,1,horizontal,horizontal,1,2,red,4,NaN,619.68777079743,780.31222920257,NaN,NaN,980.31222920257,780.31222920257,980.31222920257,419.68777079743,619.68777079743,419.68777079743,619.68777079743,780.31222920257,3,5,6,4,vertical,vertical,horizontal,horizontal
2a,14,100265,3,32,96,23,M,NA,variable,heterogeneous,4,absent,0.92327880859375,1,horizontal,horizontal,1,5,red,2,NaN,980.31222920257,419.68777079743,NaN,NaN,980.31222920257,780.31222920257,980.31222920257,419.68777079743,619.68777079743,419.68777079743,619.68777079743,780.31222920257,5,4,3,6,horizontal,horizontal,horizontal,horizontal
2a,14,100265,4,1,97,23,M,NA,variable,heterogeneous,4,present,NaN,0,horizontal,none,0,3,red,2,3,980.31222920257,419.68777079743,619.68777079743,419.68777079743,980.31222920257,780.31222920257,980.31222920257,419.68777079743,619.68777079743,419.68777079743,619.68777079743,780.31222920257,3,4,5,6,horizontal,horizontal,vertical,vertical
2a,14,100265,4,2,98,23,M,NA,variable,heterogeneous,4,absent,1.39070391654968,1,vertical,vertical,1,2,green,3,NaN,619.68777079743,419.68777079743,NaN,NaN,980.31222920257,780.31222920257,980.31222920257,419.68777079743,619.68777079743,419.68777079743,619.68777079743,780.31222920257,3,0,4,6,horizontal,horizontal,vertical,vertical
2a,14,100265,4,3,99,23,M,NA,variable,heterogeneous,4,absent,1.29506301879883,1,vertical,vertical,1,5,red,2,NaN,980.31222920257,419.68777079743,NaN,NaN,980.31222920257,780.31222920257,980.31222920257,419.68777079743,619.68777079743,419.68777079743,619.68777079743,780.31222920257,3,4,6,0,horizontal,vertical,vertical,vertical
2a,14,100265,4,4,100,23,M,NA,variable,heterogeneous,4,absent,0.773129940032959,1,horizontal,horizontal,1,8,red,4,NaN,619.68777079743,780.31222920257,NaN,NaN,980.31222920257,780.31222920257,980.31222920257,419.68777079743,619.68777079743,419.68777079743,619.68777079743,780.31222920257,5,0,6,4,horizontal,vertical,horizontal,horizontal
2a,14,100265,4,5,101,23,M,NA,variable,heterogeneous,4,absent,0.796753883361816,1,vertical,vertical,1,2,red,4,NaN,619.68777079743,780.31222920257,NaN,NaN,980.31222920257,780.31222920257,980.31222920257,419.68777079743,619.68777079743,419.68777079743,619.68777079743,780.31222920257,6,0,3,4,horizontal,vertical,horizontal,vertical
2a,14,100265,4,6,102,23,M,NA,variable,heterogeneous,4,present,0.676706075668335,1,horizontal,horizontal,1,3,green,4,3,619.68777079743,780.31222920257,619.68777079743,419.68777079743,980.31222920257,780.31222920257,980.31222920257,419.68777079743,619.68777079743,419.68777079743,619.68777079743,780.31222920257,6,0,3,4,vertical,horizontal,vertical,horizontal
2a,14,100265,4,7,103,23,M,NA,variable,heterogeneous,4,absent,0.73071813583374,1,vertical,vertical,1,8,green,4,NaN,619.68777079743,780.31222920257,NaN,NaN,980.31222920257,780.31222920257,980.31222920257,419.68777079743,619.68777079743,419.68777079743,619.68777079743,780.31222920257,3,6,0,4,horizontal,horizontal,vertical,vertical
2a,14,100265,4,8,104,23,M,NA,variable,heterogeneous,4,present,0.773656845092773,1,horizontal,horizontal,1,8,red,4,1,619.68777079743,780.31222920257,980.31222920257,780.31222920257,980.31222920257,780.31222920257,980.31222920257,419.68777079743,619.68777079743,419.68777079743,619.68777079743,780.31222920257,6,3,5,4,vertical,vertical,vertical,horizontal
2a,14,100265,4,9,105,23,M,NA,variable,heterogeneous,4,absent,1.0055558681488,1,horizontal,horizontal,1,2,red,1,NaN,980.31222920257,780.31222920257,NaN,NaN,980.31222920257,780.31222920257,980.31222920257,419.68777079743,619.68777079743,419.68777079743,619.68777079743,780.31222920257,4,3,0,5,horizontal,horizontal,vertical,vertical
2a,14,100265,4,10,106,23,M,NA,variable,heterogeneous,4,present,1.84129905700684,1,vertical,vertical,1,5,green,3,4,619.68777079743,419.68777079743,619.68777079743,780.31222920257,980.31222920257,780.31222920257,980.31222920257,419.68777079743,619.68777079743,419.68777079743,619.68777079743,780.31222920257,5,6,4,3,horizontal,vertical,vertical,vertical
2a,14,100265,4,11,107,23,M,NA,variable,heterogeneous,4,present,0.858611106872559,1,vertical,vertical,1,2,green,4,3,619.68777079743,780.31222920257,619.68777079743,419.68777079743,980.31222920257,780.31222920257,980.31222920257,419.68777079743,619.68777079743,419.68777079743,619.68777079743,780.31222920257,3,0,6,4,horizontal,horizontal,horizontal,vertical
2a,14,100265,4,12,108,23,M,NA,variable,heterogeneous,4,present,1.564129114151,0,horizontal,vertical,1,5,red,2,1,980.31222920257,419.68777079743,980.31222920257,780.31222920257,980.31222920257,780.31222920257,980.31222920257,419.68777079743,619.68777079743,419.68777079743,619.68777079743,780.31222920257,3,4,0,5,horizontal,horizontal,vertical,vertical
2a,14,100265,4,13,109,23,M,NA,variable,heterogeneous,4,absent,1.37157201766968,1,horizontal,horizontal,1,3,red,1,NaN,980.31222920257,780.31222920257,NaN,NaN,980.31222920257,780.31222920257,980.31222920257,419.68777079743,619.68777079743,419.68777079743,619.68777079743,780.31222920257,4,3,5,0,horizontal,vertical,vertical,vertical
2a,14,100265,4,14,110,23,M,NA,variable,heterogeneous,4,absent,0.891131162643433,1,horizontal,horizontal,1,2,red,3,NaN,619.68777079743,419.68777079743,NaN,NaN,980.31222920257,780.31222920257,980.31222920257,419.68777079743,619.68777079743,419.68777079743,619.68777079743,780.31222920257,6,5,4,0,horizontal,vertical,horizontal,vertical
2a,14,100265,4,15,111,23,M,NA,variable,heterogeneous,4,present,NaN,0,vertical,none,0,3,green,2,4,980.31222920257,419.68777079743,619.68777079743,780.31222920257,980.31222920257,780.31222920257,980.31222920257,419.68777079743,619.68777079743,419.68777079743,619.68777079743,780.31222920257,0,4,5,6,vertical,vertical,vertical,vertical
2a,14,100265,4,16,112,23,M,NA,variable,heterogeneous,4,absent,1.72161102294922,0,vertical,horizontal,1,2,green,1,NaN,980.31222920257,780.31222920257,NaN,NaN,980.31222920257,780.31222920257,980.31222920257,419.68777079743,619.68777079743,419.68777079743,619.68777079743,780.31222920257,4,0,3,6,vertical,horizontal,horizontal,vertical
2a,14,100265,4,17,113,23,M,NA,variable,heterogeneous,4,present,1.78402304649353,1,vertical,vertical,1,2,red,1,2,980.31222920257,780.31222920257,980.31222920257,419.68777079743,980.31222920257,780.31222920257,980.31222920257,419.68777079743,619.68777079743,419.68777079743,619.68777079743,780.31222920257,4,3,0,6,vertical,horizontal,horizontal,vertical
2a,14,100265,4,18,114,23,M,NA,variable,heterogeneous,4,present,1.19585108757019,1,horizontal,horizontal,1,2,green,1,4,980.31222920257,780.31222920257,619.68777079743,780.31222920257,980.31222920257,780.31222920257,980.31222920257,419.68777079743,619.68777079743,419.68777079743,619.68777079743,780.31222920257,4,5,3,6,horizontal,horizontal,vertical,vertical
2a,14,100265,4,19,115,23,M,NA,variable,heterogeneous,4,absent,1.42812705039978,1,vertical,vertical,1,3,green,1,NaN,980.31222920257,780.31222920257,NaN,NaN,980.31222920257,780.31222920257,980.31222920257,419.68777079743,619.68777079743,419.68777079743,619.68777079743,780.31222920257,4,6,0,5,vertical,horizontal,vertical,vertical
2a,14,100265,4,20,116,23,M,NA,variable,heterogeneous,4,present,0.952764987945557,1,horizontal,horizontal,1,2,green,3,4,619.68777079743,419.68777079743,619.68777079743,780.31222920257,980.31222920257,780.31222920257,980.31222920257,419.68777079743,619.68777079743,419.68777079743,619.68777079743,780.31222920257,5,3,4,0,vertical,vertical,horizontal,vertical
2a,14,100265,4,21,117,23,M,NA,variable,heterogeneous,4,absent,1.02030181884766,1,vertical,vertical,1,5,red,4,NaN,619.68777079743,780.31222920257,NaN,NaN,980.31222920257,780.31222920257,980.31222920257,419.68777079743,619.68777079743,419.68777079743,619.68777079743,780.31222920257,3,6,5,4,vertical,vertical,vertical,vertical
2a,14,100265,4,22,118,23,M,NA,variable,heterogeneous,4,absent,0.868686199188232,1,horizontal,horizontal,1,5,red,4,NaN,619.68777079743,780.31222920257,NaN,NaN,980.31222920257,780.31222920257,980.31222920257,419.68777079743,619.68777079743,419.68777079743,619.68777079743,780.31222920257,3,5,6,4,horizontal,horizontal,horizontal,horizontal
2a,14,100265,4,23,119,23,M,NA,variable,heterogeneous,4,present,0.806525945663452,1,vertical,vertical,1,3,green,4,3,619.68777079743,780.31222920257,619.68777079743,419.68777079743,980.31222920257,780.31222920257,980.31222920257,419.68777079743,619.68777079743,419.68777079743,619.68777079743,780.31222920257,0,5,3,4,vertical,vertical,horizontal,vertical
2a,14,100265,4,24,120,23,M,NA,variable,heterogeneous,4,absent,1.26659107208252,1,horizontal,horizontal,1,5,red,4,NaN,619.68777079743,780.31222920257,NaN,NaN,980.31222920257,780.31222920257,980.31222920257,419.68777079743,619.68777079743,419.68777079743,619.68777079743,780.31222920257,0,6,3,4,horizontal,vertical,horizontal,horizontal
2a,14,100265,4,25,121,23,M,NA,variable,heterogeneous,4,present,1.12399411201477,1,horizontal,horizontal,1,5,green,1,4,980.31222920257,780.31222920257,619.68777079743,780.31222920257,980.31222920257,780.31222920257,980.31222920257,419.68777079743,619.68777079743,419.68777079743,619.68777079743,780.31222920257,4,0,5,3,horizontal,horizontal,horizontal,vertical
2a,14,100265,4,26,122,23,M,NA,variable,heterogeneous,4,present,1.24261784553528,1,horizontal,horizontal,1,2,red,2,1,980.31222920257,419.68777079743,980.31222920257,780.31222920257,980.31222920257,780.31222920257,980.31222920257,419.68777079743,619.68777079743,419.68777079743,619.68777079743,780.31222920257,5,4,6,3,horizontal,horizontal,vertical,horizontal
2a,14,100265,4,27,123,23,M,NA,variable,heterogeneous,4,present,1.21969103813171,1,vertical,vertical,1,5,red,1,2,980.31222920257,780.31222920257,980.31222920257,419.68777079743,980.31222920257,780.31222920257,980.31222920257,419.68777079743,619.68777079743,419.68777079743,619.68777079743,780.31222920257,4,3,0,6,vertical,horizontal,horizontal,horizontal
2a,14,100265,4,28,124,23,M,NA,variable,heterogeneous,4,present,1.69227886199951,1,vertical,vertical,1,8,green,1,3,980.31222920257,780.31222920257,619.68777079743,419.68777079743,980.31222920257,780.31222920257,980.31222920257,419.68777079743,619.68777079743,419.68777079743,619.68777079743,780.31222920257,4,6,3,5,vertical,vertical,horizontal,horizontal
2a,14,100265,4,29,125,23,M,NA,variable,heterogeneous,4,absent,1.4462308883667,1,horizontal,horizontal,1,3,red,2,NaN,980.31222920257,419.68777079743,NaN,NaN,980.31222920257,780.31222920257,980.31222920257,419.68777079743,619.68777079743,419.68777079743,619.68777079743,780.31222920257,6,4,0,3,vertical,horizontal,horizontal,vertical
2a,14,100265,4,30,126,23,M,NA,variable,heterogeneous,4,absent,1.5394880771637,1,horizontal,horizontal,1,2,red,1,NaN,980.31222920257,780.31222920257,NaN,NaN,980.31222920257,780.31222920257,980.31222920257,419.68777079743,619.68777079743,419.68777079743,619.68777079743,780.31222920257,4,3,6,0,horizontal,horizontal,horizontal,horizontal
2a,14,100265,4,31,127,23,M,NA,variable,heterogeneous,4,present,1.61434578895569,1,vertical,vertical,1,2,red,2,4,980.31222920257,419.68777079743,619.68777079743,780.31222920257,980.31222920257,780.31222920257,980.31222920257,419.68777079743,619.68777079743,419.68777079743,619.68777079743,780.31222920257,3,4,6,5,horizontal,vertical,horizontal,vertical
2a,14,100265,4,32,128,23,M,NA,variable,heterogeneous,4,absent,1.03886890411377,1,vertical,vertical,1,3,red,4,NaN,619.68777079743,780.31222920257,NaN,NaN,980.31222920257,780.31222920257,980.31222920257,419.68777079743,619.68777079743,419.68777079743,619.68777079743,780.31222920257,0,3,6,4,horizontal,vertical,horizontal,vertical
2a,14,100265,5,1,129,23,M,NA,variable,heterogeneous,4,absent,0.868371963500977,1,vertical,vertical,1,8,red,3,NaN,619.68777079743,419.68777079743,NaN,NaN,980.31222920257,780.31222920257,980.31222920257,419.68777079743,619.68777079743,419.68777079743,619.68777079743,780.31222920257,6,3,4,0,vertical,vertical,vertical,horizontal
2a,14,100265,5,2,130,23,M,NA,variable,heterogeneous,4,present,0.661861896514893,1,vertical,vertical,1,3,red,3,1,619.68777079743,419.68777079743,980.31222920257,780.31222920257,980.31222920257,780.31222920257,980.31222920257,419.68777079743,619.68777079743,419.68777079743,619.68777079743,780.31222920257,3,5,4,0,horizontal,horizontal,vertical,vertical
2a,14,100265,5,3,131,23,M,NA,variable,heterogeneous,4,absent,1.15922498703003,1,vertical,vertical,1,2,red,2,NaN,980.31222920257,419.68777079743,NaN,NaN,980.31222920257,780.31222920257,980.31222920257,419.68777079743,619.68777079743,419.68777079743,619.68777079743,780.31222920257,0,4,6,5,vertical,vertical,horizontal,horizontal
2a,14,100265,5,4,132,23,M,NA,variable,heterogeneous,4,present,1.79476499557495,1,horizontal,horizontal,1,5,red,4,3,619.68777079743,780.31222920257,619.68777079743,419.68777079743,980.31222920257,780.31222920257,980.31222920257,419.68777079743,619.68777079743,419.68777079743,619.68777079743,780.31222920257,6,5,3,4,horizontal,vertical,horizontal,horizontal
2a,14,100265,5,5,133,23,M,NA,variable,heterogeneous,4,present,1.05891418457031,1,vertical,vertical,1,3,red,3,2,619.68777079743,419.68777079743,980.31222920257,419.68777079743,980.31222920257,780.31222920257,980.31222920257,419.68777079743,619.68777079743,419.68777079743,619.68777079743,780.31222920257,0,3,4,5,horizontal,vertical,vertical,vertical
2a,14,100265,5,6,134,23,M,NA,variable,heterogeneous,4,absent,1.00438714027405,1,vertical,vertical,1,5,red,4,NaN,619.68777079743,780.31222920257,NaN,NaN,980.31222920257,780.31222920257,980.31222920257,419.68777079743,619.68777079743,419.68777079743,619.68777079743,780.31222920257,6,0,5,4,horizontal,vertical,vertical,vertical
2a,14,100265,5,7,135,23,M,NA,variable,heterogeneous,4,present,1.05655789375305,1,horizontal,horizontal,1,3,red,3,1,619.68777079743,419.68777079743,980.31222920257,780.31222920257,980.31222920257,780.31222920257,980.31222920257,419.68777079743,619.68777079743,419.68777079743,619.68777079743,780.31222920257,5,6,4,3,horizontal,vertical,horizontal,horizontal
2a,14,100265,5,8,136,23,M,NA,variable,heterogeneous,4,present,1.29412698745728,1,horizontal,horizontal,1,8,red,1,2,980.31222920257,780.31222920257,980.31222920257,419.68777079743,980.31222920257,780.31222920257,980.31222920257,419.68777079743,619.68777079743,419.68777079743,619.68777079743,780.31222920257,4,0,6,3,horizontal,vertical,horizontal,horizontal
2a,14,100265,5,9,137,23,M,NA,variable,heterogeneous,4,present,1.14812207221985,1,horizontal,horizontal,1,3,red,3,2,619.68777079743,419.68777079743,980.31222920257,419.68777079743,980.31222920257,780.31222920257,980.31222920257,419.68777079743,619.68777079743,419.68777079743,619.68777079743,780.31222920257,0,5,4,3,vertical,vertical,horizontal,horizontal
2a,14,100265,5,10,138,23,M,NA,variable,heterogeneous,4,present,1.21911406517029,1,horizontal,horizontal,1,5,green,1,3,980.31222920257,780.31222920257,619.68777079743,419.68777079743,980.31222920257,780.31222920257,980.31222920257,419.68777079743,619.68777079743,419.68777079743,619.68777079743,780.31222920257,4,5,3,0,horizontal,vertical,vertical,horizontal
2a,14,100265,5,11,139,23,M,NA,variable,heterogeneous,4,present,1.0516791343689,1,horizontal,horizontal,1,2,red,1,4,980.31222920257,780.31222920257,619.68777079743,780.31222920257,980.31222920257,780.31222920257,980.31222920257,419.68777079743,619.68777079743,419.68777079743,619.68777079743,780.31222920257,4,0,6,5,horizontal,vertical,horizontal,vertical
2a,14,100265,5,12,140,23,M,NA,variable,heterogeneous,4,absent,0.6491858959198,1,horizontal,horizontal,1,2,green,1,NaN,980.31222920257,780.31222920257,NaN,NaN,980.31222920257,780.31222920257,980.31222920257,419.68777079743,619.68777079743,419.68777079743,619.68777079743,780.31222920257,4,0,6,5,horizontal,horizontal,horizontal,horizontal
2a,14,100265,5,13,141,23,M,NA,variable,heterogeneous,4,absent,0.838252067565918,1,horizontal,horizontal,1,2,red,1,NaN,980.31222920257,780.31222920257,NaN,NaN,980.31222920257,780.31222920257,980.31222920257,419.68777079743,619.68777079743,419.68777079743,619.68777079743,780.31222920257,4,6,5,3,horizontal,horizontal,vertical,vertical
2a,14,100265,5,14,142,23,M,NA,variable,heterogeneous,4,present,1.76746392250061,1,horizontal,horizontal,1,2,red,2,1,980.31222920257,419.68777079743,980.31222920257,780.31222920257,980.31222920257,780.31222920257,980.31222920257,419.68777079743,619.68777079743,419.68777079743,619.68777079743,780.31222920257,5,4,0,3,horizontal,horizontal,vertical,horizontal
2a,14,100265,5,15,143,23,M,NA,variable,heterogeneous,4,absent,1.89498400688171,1,vertical,vertical,1,2,green,1,NaN,980.31222920257,780.31222920257,NaN,NaN,980.31222920257,780.31222920257,980.31222920257,419.68777079743,619.68777079743,419.68777079743,619.68777079743,780.31222920257,4,3,5,0,vertical,vertical,vertical,horizontal
2a,14,100265,5,16,144,23,M,NA,variable,heterogeneous,4,absent,1.03711104393005,1,horizontal,horizontal,1,3,red,4,NaN,619.68777079743,780.31222920257,NaN,NaN,980.31222920257,780.31222920257,980.31222920257,419.68777079743,619.68777079743,419.68777079743,619.68777079743,780.31222920257,3,6,0,4,horizontal,horizontal,vertical,horizontal
2a,14,100265,5,17,145,23,M,NA,variable,heterogeneous,4,absent,1.19009494781494,1,horizontal,horizontal,1,2,red,2,NaN,980.31222920257,419.68777079743,NaN,NaN,980.31222920257,780.31222920257,980.31222920257,419.68777079743,619.68777079743,419.68777079743,619.68777079743,780.31222920257,0,4,5,3,horizontal,horizontal,horizontal,horizontal
2a,14,100265,5,18,146,23,M,NA,variable,heterogeneous,4,absent,0.902163028717041,1,horizontal,horizontal,1,8,green,3,NaN,619.68777079743,419.68777079743,NaN,NaN,980.31222920257,780.31222920257,980.31222920257,419.68777079743,619.68777079743,419.68777079743,619.68777079743,780.31222920257,5,6,4,3,horizontal,horizontal,horizontal,vertical
2a,14,100265,5,19,147,23,M,NA,variable,heterogeneous,4,present,1.35662293434143,1,vertical,vertical,1,2,green,1,3,980.31222920257,780.31222920257,619.68777079743,419.68777079743,980.31222920257,780.31222920257,980.31222920257,419.68777079743,619.68777079743,419.68777079743,619.68777079743,780.31222920257,4,5,6,0,vertical,horizontal,horizontal,vertical
2a,14,100265,5,20,148,23,M,NA,variable,heterogeneous,4,absent,1.13563990592957,1,horizontal,horizontal,1,5,green,2,NaN,980.31222920257,419.68777079743,NaN,NaN,980.31222920257,780.31222920257,980.31222920257,419.68777079743,619.68777079743,419.68777079743,619.68777079743,780.31222920257,0,4,3,5,vertical,horizontal,horizontal,horizontal
2a,14,100265,5,21,149,23,M,NA,variable,heterogeneous,4,present,1.23462200164795,1,vertical,vertical,1,5,green,1,3,980.31222920257,780.31222920257,619.68777079743,419.68777079743,980.31222920257,780.31222920257,980.31222920257,419.68777079743,619.68777079743,419.68777079743,619.68777079743,780.31222920257,4,6,3,0,vertical,horizontal,horizontal,vertical
2a,14,100265,5,22,150,23,M,NA,variable,heterogeneous,4,present,1.2836799621582,1,vertical,vertical,1,8,red,3,1,619.68777079743,419.68777079743,980.31222920257,780.31222920257,980.31222920257,780.31222920257,980.31222920257,419.68777079743,619.68777079743,419.68777079743,619.68777079743,780.31222920257,3,5,4,0,horizontal,horizontal,vertical,vertical
2a,14,100265,5,23,151,23,M,NA,variable,heterogeneous,4,present,0.821691989898682,1,horizontal,horizontal,1,2,red,4,2,619.68777079743,780.31222920257,980.31222920257,419.68777079743,980.31222920257,780.31222920257,980.31222920257,419.68777079743,619.68777079743,419.68777079743,619.68777079743,780.31222920257,5,3,0,4,horizontal,vertical,vertical,horizontal
2a,14,100265,5,24,152,23,M,NA,variable,heterogeneous,4,absent,0.926321029663086,1,vertical,vertical,1,2,red,4,NaN,619.68777079743,780.31222920257,NaN,NaN,980.31222920257,780.31222920257,980.31222920257,419.68777079743,619.68777079743,419.68777079743,619.68777079743,780.31222920257,3,0,5,4,horizontal,horizontal,horizontal,vertical
2a,14,100265,5,25,153,23,M,NA,variable,heterogeneous,4,absent,1.09306502342224,1,horizontal,horizontal,1,5,green,3,NaN,619.68777079743,419.68777079743,NaN,NaN,980.31222920257,780.31222920257,980.31222920257,419.68777079743,619.68777079743,419.68777079743,619.68777079743,780.31222920257,5,3,4,6,vertical,horizontal,horizontal,horizontal
2a,14,100265,5,26,154,23,M,NA,variable,heterogeneous,4,absent,0.778954982757568,1,vertical,vertical,1,3,green,4,NaN,619.68777079743,780.31222920257,NaN,NaN,980.31222920257,780.31222920257,980.31222920257,419.68777079743,619.68777079743,419.68777079743,619.68777079743,780.31222920257,6,5,3,4,vertical,horizontal,vertical,vertical
2a,14,100265,5,27,155,23,M,NA,variable,heterogeneous,4,present,0.950965166091919,1,vertical,vertical,1,2,green,3,2,619.68777079743,419.68777079743,980.31222920257,419.68777079743,980.31222920257,780.31222920257,980.31222920257,419.68777079743,619.68777079743,419.68777079743,619.68777079743,780.31222920257,6,0,4,3,vertical,horizontal,vertical,horizontal
2a,14,100265,5,28,156,23,M,NA,variable,heterogeneous,4,absent,1.04627704620361,1,vertical,vertical,1,3,green,2,NaN,980.31222920257,419.68777079743,NaN,NaN,980.31222920257,780.31222920257,980.31222920257,419.68777079743,619.68777079743,419.68777079743,619.68777079743,780.31222920257,0,4,5,6,vertical,vertical,horizontal,vertical
2a,14,100265,5,29,157,23,M,NA,variable,heterogeneous,4,present,0.915427923202515,1,vertical,vertical,1,2,red,4,1,619.68777079743,780.31222920257,980.31222920257,780.31222920257,980.31222920257,780.31222920257,980.31222920257,419.68777079743,619.68777079743,419.68777079743,619.68777079743,780.31222920257,0,5,3,4,vertical,horizontal,horizontal,vertical
2a,14,100265,5,30,158,23,M,NA,variable,heterogeneous,4,absent,0.693704843521118,1,horizontal,horizontal,1,3,red,4,NaN,619.68777079743,780.31222920257,NaN,NaN,980.31222920257,780.31222920257,980.31222920257,419.68777079743,619.68777079743,419.68777079743,619.68777079743,780.31222920257,0,6,3,4,vertical,vertical,horizontal,horizontal
2a,14,100265,5,31,159,23,M,NA,variable,heterogeneous,4,absent,0.76381516456604,1,vertical,vertical,1,5,green,3,NaN,619.68777079743,419.68777079743,NaN,NaN,980.31222920257,780.31222920257,980.31222920257,419.68777079743,619.68777079743,419.68777079743,619.68777079743,780.31222920257,3,6,4,5,vertical,vertical,vertical,vertical
2a,14,100265,5,32,160,23,M,NA,variable,heterogeneous,4,present,0.651577949523926,1,vertical,vertical,1,5,red,3,1,619.68777079743,419.68777079743,980.31222920257,780.31222920257,980.31222920257,780.31222920257,980.31222920257,419.68777079743,619.68777079743,419.68777079743,619.68777079743,780.31222920257,3,6,4,5,vertical,horizontal,vertical,vertical
2a,14,100265,6,1,161,23,M,NA,variable,heterogeneous,4,present,0.701658010482788,1,vertical,vertical,1,2,green,4,3,619.68777079743,780.31222920257,619.68777079743,419.68777079743,980.31222920257,780.31222920257,980.31222920257,419.68777079743,619.68777079743,419.68777079743,619.68777079743,780.31222920257,0,6,3,4,horizontal,horizontal,vertical,vertical
2a,14,100265,6,2,162,23,M,NA,variable,heterogeneous,4,absent,1.26000690460205,1,horizontal,horizontal,1,8,green,3,NaN,619.68777079743,419.68777079743,NaN,NaN,980.31222920257,780.31222920257,980.31222920257,419.68777079743,619.68777079743,419.68777079743,619.68777079743,780.31222920257,3,6,4,5,vertical,horizontal,horizontal,horizontal
2a,14,100265,6,3,163,23,M,NA,variable,heterogeneous,4,present,1.32563805580139,1,vertical,vertical,1,3,red,2,3,980.31222920257,419.68777079743,619.68777079743,419.68777079743,980.31222920257,780.31222920257,980.31222920257,419.68777079743,619.68777079743,419.68777079743,619.68777079743,780.31222920257,6,4,3,0,horizontal,vertical,horizontal,horizontal
2a,14,100265,6,4,164,23,M,NA,variable,heterogeneous,4,present,1.44411206245422,1,vertical,vertical,1,5,green,1,4,980.31222920257,780.31222920257,619.68777079743,780.31222920257,980.31222920257,780.31222920257,980.31222920257,419.68777079743,619.68777079743,419.68777079743,619.68777079743,780.31222920257,4,6,3,5,vertical,vertical,horizontal,horizontal
2a,14,100265,6,5,165,23,M,NA,variable,heterogeneous,4,absent,1.21314597129822,1,horizontal,horizontal,1,2,red,3,NaN,619.68777079743,419.68777079743,NaN,NaN,980.31222920257,780.31222920257,980.31222920257,419.68777079743,619.68777079743,419.68777079743,619.68777079743,780.31222920257,0,5,4,3,vertical,vertical,horizontal,horizontal
2a,14,100265,6,6,166,23,M,NA,variable,heterogeneous,4,present,0.917764186859131,1,horizontal,horizontal,1,8,red,3,2,619.68777079743,419.68777079743,980.31222920257,419.68777079743,980.31222920257,780.31222920257,980.31222920257,419.68777079743,619.68777079743,419.68777079743,619.68777079743,780.31222920257,6,0,4,5,horizontal,horizontal,horizontal,vertical
2a,14,100265,6,7,167,23,M,NA,variable,heterogeneous,4,present,1.19649004936218,1,vertical,vertical,1,3,red,2,4,980.31222920257,419.68777079743,619.68777079743,780.31222920257,980.31222920257,780.31222920257,980.31222920257,419.68777079743,619.68777079743,419.68777079743,619.68777079743,780.31222920257,6,4,3,5,vertical,vertical,vertical,vertical
2a,14,100265,6,8,168,23,M,NA,variable,heterogeneous,4,absent,0.908584117889404,1,vertical,vertical,1,8,green,4,NaN,619.68777079743,780.31222920257,NaN,NaN,980.31222920257,780.31222920257,980.31222920257,419.68777079743,619.68777079743,419.68777079743,619.68777079743,780.31222920257,5,3,0,4,vertical,horizontal,vertical,vertical
2a,14,100265,6,9,169,23,M,NA,variable,heterogeneous,4,absent,0.798994064331055,1,horizontal,horizontal,1,5,green,3,NaN,619.68777079743,419.68777079743,NaN,NaN,980.31222920257,780.31222920257,980.31222920257,419.68777079743,619.68777079743,419.68777079743,619.68777079743,780.31222920257,6,5,4,0,vertical,horizontal,horizontal,vertical
2a,14,100265,6,10,170,23,M,NA,variable,heterogeneous,4,absent,1.29147601127625,1,horizontal,horizontal,1,3,green,4,NaN,619.68777079743,780.31222920257,NaN,NaN,980.31222920257,780.31222920257,980.31222920257,419.68777079743,619.68777079743,419.68777079743,619.68777079743,780.31222920257,0,6,3,4,horizontal,vertical,vertical,horizontal
2a,14,100265,6,11,171,23,M,NA,variable,heterogeneous,4,absent,1.15710687637329,1,vertical,vertical,1,3,green,1,NaN,980.31222920257,780.31222920257,NaN,NaN,980.31222920257,780.31222920257,980.31222920257,419.68777079743,619.68777079743,419.68777079743,619.68777079743,780.31222920257,4,6,3,5,vertical,vertical,vertical,horizontal
2a,14,100265,6,12,172,23,M,NA,variable,heterogeneous,4,absent,1.39275312423706,1,horizontal,horizontal,1,5,green,2,NaN,980.31222920257,419.68777079743,NaN,NaN,980.31222920257,780.31222920257,980.31222920257,419.68777079743,619.68777079743,419.68777079743,619.68777079743,780.31222920257,0,4,5,6,vertical,horizontal,vertical,horizontal
2a,14,100265,6,13,173,23,M,NA,variable,heterogeneous,4,present,0.864958047866821,1,vertical,vertical,1,5,red,3,4,619.68777079743,419.68777079743,619.68777079743,780.31222920257,980.31222920257,780.31222920257,980.31222920257,419.68777079743,619.68777079743,419.68777079743,619.68777079743,780.31222920257,6,5,4,0,horizontal,vertical,vertical,horizontal
2a,14,100265,6,14,174,23,M,NA,variable,heterogeneous,4,present,0.986561059951782,1,vertical,vertical,1,2,red,1,2,980.31222920257,780.31222920257,980.31222920257,419.68777079743,980.31222920257,780.31222920257,980.31222920257,419.68777079743,619.68777079743,419.68777079743,619.68777079743,780.31222920257,4,5,6,0,vertical,vertical,vertical,vertical
2a,14,100265,6,15,175,23,M,NA,variable,heterogeneous,4,present,1.35813093185425,1,vertical,vertical,1,8,red,3,2,619.68777079743,419.68777079743,980.31222920257,419.68777079743,980.31222920257,780.31222920257,980.31222920257,419.68777079743,619.68777079743,419.68777079743,619.68777079743,780.31222920257,0,6,4,5,horizontal,vertical,vertical,vertical
2a,14,100265,6,16,176,23,M,NA,variable,heterogeneous,4,present,1.12143898010254,1,horizontal,horizontal,1,3,green,1,3,980.31222920257,780.31222920257,619.68777079743,419.68777079743,980.31222920257,780.31222920257,980.31222920257,419.68777079743,619.68777079743,419.68777079743,619.68777079743,780.31222920257,4,6,3,5,horizontal,vertical,vertical,vertical
2a,14,100265,6,17,177,23,M,NA,variable,heterogeneous,4,present,1.18416905403137,1,horizontal,horizontal,1,5,green,2,1,980.31222920257,419.68777079743,980.31222920257,780.31222920257,980.31222920257,780.31222920257,980.31222920257,419.68777079743,619.68777079743,419.68777079743,619.68777079743,780.31222920257,3,4,0,6,horizontal,horizontal,vertical,horizontal
2a,14,100265,6,18,178,23,M,NA,variable,heterogeneous,4,absent,0.883944034576416,1,vertical,vertical,1,5,red,1,NaN,980.31222920257,780.31222920257,NaN,NaN,980.31222920257,780.31222920257,980.31222920257,419.68777079743,619.68777079743,419.68777079743,619.68777079743,780.31222920257,4,0,5,6,vertical,horizontal,horizontal,horizontal
2a,14,100265,6,19,179,23,M,NA,variable,heterogeneous,4,absent,0.774139165878296,1,vertical,vertical,1,2,red,1,NaN,980.31222920257,780.31222920257,NaN,NaN,980.31222920257,780.31222920257,980.31222920257,419.68777079743,619.68777079743,419.68777079743,619.68777079743,780.31222920257,4,0,5,6,vertical,vertical,horizontal,horizontal
2a,14,100265,6,20,180,23,M,NA,variable,heterogeneous,4,absent,0.789682865142822,1,vertical,vertical,1,5,green,3,NaN,619.68777079743,419.68777079743,NaN,NaN,980.31222920257,780.31222920257,980.31222920257,419.68777079743,619.68777079743,419.68777079743,619.68777079743,780.31222920257,6,5,4,0,horizontal,horizontal,vertical,vertical
2a,14,100265,6,21,181,23,M,NA,variable,heterogeneous,4,absent,0.629617214202881,1,vertical,vertical,1,2,green,3,NaN,619.68777079743,419.68777079743,NaN,NaN,980.31222920257,780.31222920257,980.31222920257,419.68777079743,619.68777079743,419.68777079743,619.68777079743,780.31222920257,6,0,4,3,horizontal,vertical,vertical,horizontal
2a,14,100265,6,22,182,23,M,NA,variable,heterogeneous,4,present,1.56255793571472,1,horizontal,horizontal,1,2,red,2,3,980.31222920257,419.68777079743,619.68777079743,419.68777079743,980.31222920257,780.31222920257,980.31222920257,419.68777079743,619.68777079743,419.68777079743,619.68777079743,780.31222920257,6,4,3,5,horizontal,horizontal,vertical,horizontal
2a,14,100265,6,23,183,23,M,NA,variable,heterogeneous,4,absent,1.52561902999878,1,horizontal,horizontal,1,3,green,1,NaN,980.31222920257,780.31222920257,NaN,NaN,980.31222920257,780.31222920257,980.31222920257,419.68777079743,619.68777079743,419.68777079743,619.68777079743,780.31222920257,4,3,6,0,horizontal,horizontal,vertical,vertical
2a,14,100265,6,24,184,23,M,NA,variable,heterogeneous,4,absent,0.740550994873047,1,vertical,vertical,1,3,green,4,NaN,619.68777079743,780.31222920257,NaN,NaN,980.31222920257,780.31222920257,980.31222920257,419.68777079743,619.68777079743,419.68777079743,619.68777079743,780.31222920257,5,6,3,4,vertical,vertical,vertical,vertical
2a,14,100265,6,25,185,23,M,NA,variable,heterogeneous,4,present,0.891732931137085,1,horizontal,horizontal,1,5,green,4,2,619.68777079743,780.31222920257,980.31222920257,419.68777079743,980.31222920257,780.31222920257,980.31222920257,419.68777079743,619.68777079743,419.68777079743,619.68777079743,780.31222920257,5,0,6,4,vertical,horizontal,horizontal,horizontal
2a,14,100265,6,26,186,23,M,NA,variable,heterogeneous,4,present,1.2138979434967,1,vertical,vertical,1,2,red,2,3,980.31222920257,419.68777079743,619.68777079743,419.68777079743,980.31222920257,780.31222920257,980.31222920257,419.68777079743,619.68777079743,419.68777079743,619.68777079743,780.31222920257,5,4,3,0,vertical,vertical,horizontal,horizontal
2a,14,100265,6,27,187,23,M,NA,variable,heterogeneous,4,present,1.28630900382996,1,horizontal,horizontal,1,2,red,1,2,980.31222920257,780.31222920257,980.31222920257,419.68777079743,980.31222920257,780.31222920257,980.31222920257,419.68777079743,619.68777079743,419.68777079743,619.68777079743,780.31222920257,4,3,5,0,horizontal,horizontal,horizontal,vertical
2a,14,100265,6,28,188,23,M,NA,variable,heterogeneous,4,present,1.20018696784973,1,horizontal,horizontal,1,3,green,1,2,980.31222920257,780.31222920257,980.31222920257,419.68777079743,980.31222920257,780.31222920257,980.31222920257,419.68777079743,619.68777079743,419.68777079743,619.68777079743,780.31222920257,4,6,0,3,horizontal,horizontal,vertical,vertical
2a,14,100265,6,29,189,23,M,NA,variable,heterogeneous,4,present,1.09229016304016,1,horizontal,horizontal,1,2,green,4,1,619.68777079743,780.31222920257,980.31222920257,780.31222920257,980.31222920257,780.31222920257,980.31222920257,419.68777079743,619.68777079743,419.68777079743,619.68777079743,780.31222920257,0,5,3,4,vertical,vertical,horizontal,horizontal
2a,14,100265,6,30,190,23,M,NA,variable,heterogeneous,4,absent,0.670420169830322,1,horizontal,horizontal,1,2,red,4,NaN,619.68777079743,780.31222920257,NaN,NaN,980.31222920257,780.31222920257,980.31222920257,419.68777079743,619.68777079743,419.68777079743,619.68777079743,780.31222920257,5,3,6,4,horizontal,horizontal,horizontal,horizontal
2a,14,100265,6,31,191,23,M,NA,variable,heterogeneous,4,absent,0.644056081771851,1,vertical,vertical,1,2,red,4,NaN,619.68777079743,780.31222920257,NaN,NaN,980.31222920257,780.31222920257,980.31222920257,419.68777079743,619.68777079743,419.68777079743,619.68777079743,780.31222920257,3,5,6,4,horizontal,vertical,horizontal,vertical
2a,14,100265,6,32,192,23,M,NA,variable,heterogeneous,4,absent,1.42108607292175,1,horizontal,horizontal,1,2,green,2,NaN,980.31222920257,419.68777079743,NaN,NaN,980.31222920257,780.31222920257,980.31222920257,419.68777079743,619.68777079743,419.68777079743,619.68777079743,780.31222920257,3,4,5,0,vertical,horizontal,vertical,horizontal
2a,14,100265,7,1,193,23,M,NA,variable,heterogeneous,4,absent,1.20302891731262,1,vertical,vertical,1,2,green,3,NaN,619.68777079743,419.68777079743,NaN,NaN,980.31222920257,780.31222920257,980.31222920257,419.68777079743,619.68777079743,419.68777079743,619.68777079743,780.31222920257,5,3,4,6,horizontal,horizontal,vertical,horizontal
2a,14,100265,7,2,194,23,M,NA,variable,heterogeneous,4,present,1.27923393249512,1,vertical,vertical,1,3,red,2,1,980.31222920257,419.68777079743,980.31222920257,780.31222920257,980.31222920257,780.31222920257,980.31222920257,419.68777079743,619.68777079743,419.68777079743,619.68777079743,780.31222920257,5,4,6,0,horizontal,vertical,vertical,horizontal
2a,14,100265,7,3,195,23,M,NA,variable,heterogeneous,4,absent,0.933034896850586,1,horizontal,horizontal,1,5,green,3,NaN,619.68777079743,419.68777079743,NaN,NaN,980.31222920257,780.31222920257,980.31222920257,419.68777079743,619.68777079743,419.68777079743,619.68777079743,780.31222920257,5,3,4,0,horizontal,vertical,horizontal,horizontal
2a,14,100265,7,4,196,23,M,NA,variable,heterogeneous,4,present,1.68794393539429,1,horizontal,horizontal,1,2,red,2,3,980.31222920257,419.68777079743,619.68777079743,419.68777079743,980.31222920257,780.31222920257,980.31222920257,419.68777079743,619.68777079743,419.68777079743,619.68777079743,780.31222920257,5,4,3,6,vertical,horizontal,horizontal,vertical
2a,14,100265,7,5,197,23,M,NA,variable,heterogeneous,4,present,0.929898977279663,1,horizontal,horizontal,1,5,green,4,1,619.68777079743,780.31222920257,980.31222920257,780.31222920257,980.31222920257,780.31222920257,980.31222920257,419.68777079743,619.68777079743,419.68777079743,619.68777079743,780.31222920257,0,3,5,4,vertical,vertical,horizontal,horizontal
2a,14,100265,7,6,198,23,M,NA,variable,heterogeneous,4,absent,0.772931098937988,1,horizontal,horizontal,1,2,red,4,NaN,619.68777079743,780.31222920257,NaN,NaN,980.31222920257,780.31222920257,980.31222920257,419.68777079743,619.68777079743,419.68777079743,619.68777079743,780.31222920257,3,0,6,4,horizontal,horizontal,vertical,horizontal
2a,14,100265,7,7,199,23,M,NA,variable,heterogeneous,4,present,1.80457711219788,1,horizontal,horizontal,1,2,red,1,3,980.31222920257,780.31222920257,619.68777079743,419.68777079743,980.31222920257,780.31222920257,980.31222920257,419.68777079743,619.68777079743,419.68777079743,619.68777079743,780.31222920257,4,6,5,0,horizontal,vertical,vertical,vertical
2a,14,100265,7,8,200,23,M,NA,variable,heterogeneous,4,absent,1.19283699989319,1,horizontal,horizontal,1,2,green,2,NaN,980.31222920257,419.68777079743,NaN,NaN,980.31222920257,780.31222920257,980.31222920257,419.68777079743,619.68777079743,419.68777079743,619.68777079743,780.31222920257,0,4,5,3,horizontal,horizontal,horizontal,horizontal
2a,14,100265,7,9,201,23,M,NA,variable,heterogeneous,4,absent,0.904685020446777,1,vertical,vertical,1,2,red,4,NaN,619.68777079743,780.31222920257,NaN,NaN,980.31222920257,780.31222920257,980.31222920257,419.68777079743,619.68777079743,419.68777079743,619.68777079743,780.31222920257,3,6,5,4,horizontal,horizontal,horizontal,vertical
2a,14,100265,7,10,202,23,M,NA,variable,heterogeneous,4,present,0.859040021896362,1,horizontal,horizontal,1,5,red,4,1,619.68777079743,780.31222920257,980.31222920257,780.31222920257,980.31222920257,780.31222920257,980.31222920257,419.68777079743,619.68777079743,419.68777079743,619.68777079743,780.31222920257,6,5,0,4,vertical,horizontal,horizontal,horizontal
2a,14,100265,7,11,203,23,M,NA,variable,heterogeneous,4,present,0.532891988754272,1,horizontal,horizontal,1,2,red,4,3,619.68777079743,780.31222920257,619.68777079743,419.68777079743,980.31222920257,780.31222920257,980.31222920257,419.68777079743,619.68777079743,419.68777079743,619.68777079743,780.31222920257,6,3,0,4,vertical,horizontal,horizontal,horizontal
2a,14,100265,7,12,204,23,M,NA,variable,heterogeneous,4,absent,1.02354598045349,1,vertical,vertical,1,3,red,1,NaN,980.31222920257,780.31222920257,NaN,NaN,980.31222920257,780.31222920257,980.31222920257,419.68777079743,619.68777079743,419.68777079743,619.68777079743,780.31222920257,4,5,0,6,vertical,vertical,horizontal,horizontal
2a,14,100265,7,13,205,23,M,NA,variable,heterogeneous,4,present,1.23626708984375,1,vertical,vertical,1,2,red,3,2,619.68777079743,419.68777079743,980.31222920257,419.68777079743,980.31222920257,780.31222920257,980.31222920257,419.68777079743,619.68777079743,419.68777079743,619.68777079743,780.31222920257,0,5,4,3,horizontal,vertical,vertical,vertical
2a,14,100265,7,14,206,23,M,NA,variable,heterogeneous,4,absent,0.925526857376099,1,vertical,vertical,1,3,green,3,NaN,619.68777079743,419.68777079743,NaN,NaN,980.31222920257,780.31222920257,980.31222920257,419.68777079743,619.68777079743,419.68777079743,619.68777079743,780.31222920257,0,3,4,6,horizontal,horizontal,vertical,horizontal
2a,14,100265,7,15,207,23,M,NA,variable,heterogeneous,4,present,0.924108982086182,1,vertical,vertical,1,8,red,3,4,619.68777079743,419.68777079743,619.68777079743,780.31222920257,980.31222920257,780.31222920257,980.31222920257,419.68777079743,619.68777079743,419.68777079743,619.68777079743,780.31222920257,5,0,4,3,vertical,horizontal,vertical,horizontal
2a,14,100265,7,16,208,23,M,NA,variable,heterogeneous,4,absent,1.54659199714661,1,horizontal,horizontal,1,2,red,2,NaN,980.31222920257,419.68777079743,NaN,NaN,980.31222920257,780.31222920257,980.31222920257,419.68777079743,619.68777079743,419.68777079743,619.68777079743,780.31222920257,3,4,0,5,vertical,horizontal,vertical,vertical
2a,14,100265,7,17,209,23,M,NA,variable,heterogeneous,4,absent,0.833853006362915,1,vertical,vertical,1,5,red,1,NaN,980.31222920257,780.31222920257,NaN,NaN,980.31222920257,780.31222920257,980.31222920257,419.68777079743,619.68777079743,419.68777079743,619.68777079743,780.31222920257,4,3,0,6,vertical,vertical,vertical,vertical
2a,14,100265,7,18,210,23,M,NA,variable,heterogeneous,4,present,0.922909021377563,1,vertical,vertical,1,5,red,2,1,980.31222920257,419.68777079743,980.31222920257,780.31222920257,980.31222920257,780.31222920257,980.31222920257,419.68777079743,619.68777079743,419.68777079743,619.68777079743,780.31222920257,5,4,0,6,horizontal,vertical,horizontal,horizontal
2a,14,100265,7,19,211,23,M,NA,variable,heterogeneous,4,present,0.681602001190186,1,vertical,vertical,1,2,green,3,1,619.68777079743,419.68777079743,980.31222920257,780.31222920257,980.31222920257,780.31222920257,980.31222920257,419.68777079743,619.68777079743,419.68777079743,619.68777079743,780.31222920257,5,0,4,3,vertical,vertical,vertical,vertical
2a,14,100265,7,20,212,23,M,NA,variable,heterogeneous,4,present,1.58750700950623,1,vertical,vertical,1,2,red,1,4,980.31222920257,780.31222920257,619.68777079743,780.31222920257,980.31222920257,780.31222920257,980.31222920257,419.68777079743,619.68777079743,419.68777079743,619.68777079743,780.31222920257,4,3,0,5,vertical,vertical,vertical,horizontal
2a,14,100265,7,21,213,23,M,NA,variable,heterogeneous,4,absent,0.875555038452148,1,horizontal,horizontal,1,5,red,3,NaN,619.68777079743,419.68777079743,NaN,NaN,980.31222920257,780.31222920257,980.31222920257,419.68777079743,619.68777079743,419.68777079743,619.68777079743,780.31222920257,6,5,4,3,vertical,vertical,horizontal,horizontal
2a,14,100265,7,22,214,23,M,NA,variable,heterogeneous,4,absent,1.10531616210938,1,horizontal,horizontal,1,3,green,1,NaN,980.31222920257,780.31222920257,NaN,NaN,980.31222920257,780.31222920257,980.31222920257,419.68777079743,619.68777079743,419.68777079743,619.68777079743,780.31222920257,4,6,5,0,horizontal,vertical,vertical,vertical
2a,14,100265,7,23,215,23,M,NA,variable,heterogeneous,4,present,1.115642786026,1,horizontal,horizontal,1,3,red,3,4,619.68777079743,419.68777079743,619.68777079743,780.31222920257,980.31222920257,780.31222920257,980.31222920257,419.68777079743,619.68777079743,419.68777079743,619.68777079743,780.31222920257,0,5,4,6,vertical,horizontal,horizontal,horizontal
2a,14,100265,7,24,216,23,M,NA,variable,heterogeneous,4,absent,0.862154006958008,1,vertical,vertical,1,8,green,4,NaN,619.68777079743,780.31222920257,NaN,NaN,980.31222920257,780.31222920257,980.31222920257,419.68777079743,619.68777079743,419.68777079743,619.68777079743,780.31222920257,3,0,6,4,vertical,horizontal,vertical,vertical
2a,14,100265,7,25,217,23,M,NA,variable,heterogeneous,4,present,1.03962802886963,1,horizontal,horizontal,1,3,red,1,4,980.31222920257,780.31222920257,619.68777079743,780.31222920257,980.31222920257,780.31222920257,980.31222920257,419.68777079743,619.68777079743,419.68777079743,619.68777079743,780.31222920257,4,5,6,3,horizontal,horizontal,vertical,vertical
2a,14,100265,7,26,218,23,M,NA,variable,heterogeneous,4,present,1.29665303230286,1,vertical,vertical,1,3,green,2,1,980.31222920257,419.68777079743,980.31222920257,780.31222920257,980.31222920257,780.31222920257,980.31222920257,419.68777079743,619.68777079743,419.68777079743,619.68777079743,780.31222920257,5,4,0,3,vertical,vertical,vertical,horizontal
2a,14,100265,7,27,219,23,M,NA,variable,heterogeneous,4,present,1.27099704742432,1,horizontal,horizontal,1,8,green,2,4,980.31222920257,419.68777079743,619.68777079743,780.31222920257,980.31222920257,780.31222920257,980.31222920257,419.68777079743,619.68777079743,419.68777079743,619.68777079743,780.31222920257,5,4,3,0,vertical,horizontal,horizontal,vertical
2a,14,100265,7,28,220,23,M,NA,variable,heterogeneous,4,absent,1.20464086532593,1,horizontal,horizontal,1,8,green,1,NaN,980.31222920257,780.31222920257,NaN,NaN,980.31222920257,780.31222920257,980.31222920257,419.68777079743,619.68777079743,419.68777079743,619.68777079743,780.31222920257,4,0,3,6,horizontal,horizontal,vertical,horizontal
2a,14,100265,7,29,221,23,M,NA,variable,heterogeneous,4,absent,0.849025011062622,1,horizontal,horizontal,1,3,green,4,NaN,619.68777079743,780.31222920257,NaN,NaN,980.31222920257,780.31222920257,980.31222920257,419.68777079743,619.68777079743,419.68777079743,619.68777079743,780.31222920257,3,5,6,4,vertical,vertical,vertical,horizontal
2a,14,100265,7,30,222,23,M,NA,variable,heterogeneous,4,present,0.814273118972778,1,vertical,vertical,1,5,green,3,4,619.68777079743,419.68777079743,619.68777079743,780.31222920257,980.31222920257,780.31222920257,980.31222920257,419.68777079743,619.68777079743,419.68777079743,619.68777079743,780.31222920257,3,5,4,6,vertical,vertical,vertical,horizontal
2a,14,100265,7,31,223,23,M,NA,variable,heterogeneous,4,absent,0.686964988708496,1,vertical,vertical,1,5,green,4,NaN,619.68777079743,780.31222920257,NaN,NaN,980.31222920257,780.31222920257,980.31222920257,419.68777079743,619.68777079743,419.68777079743,619.68777079743,780.31222920257,5,6,0,4,horizontal,horizontal,horizontal,vertical
2a,14,100265,7,32,224,23,M,NA,variable,heterogeneous,4,absent,0.968801021575928,0,vertical,horizontal,1,2,green,3,NaN,619.68777079743,419.68777079743,NaN,NaN,980.31222920257,780.31222920257,980.31222920257,419.68777079743,619.68777079743,419.68777079743,619.68777079743,780.31222920257,3,0,4,6,horizontal,horizontal,vertical,vertical
2a,14,100265,8,1,225,23,M,NA,variable,heterogeneous,4,present,1.74871206283569,1,vertical,vertical,1,8,green,2,4,980.31222920257,419.68777079743,619.68777079743,780.31222920257,980.31222920257,780.31222920257,980.31222920257,419.68777079743,619.68777079743,419.68777079743,619.68777079743,780.31222920257,0,4,3,5,horizontal,vertical,vertical,vertical
2a,14,100265,8,2,226,23,M,NA,variable,heterogeneous,4,present,1.74800491333008,1,horizontal,horizontal,1,3,red,1,2,980.31222920257,780.31222920257,980.31222920257,419.68777079743,980.31222920257,780.31222920257,980.31222920257,419.68777079743,619.68777079743,419.68777079743,619.68777079743,780.31222920257,4,0,3,6,horizontal,horizontal,horizontal,horizontal
2a,14,100265,8,3,227,23,M,NA,variable,heterogeneous,4,present,1.3071129322052,1,horizontal,horizontal,1,2,red,3,1,619.68777079743,419.68777079743,980.31222920257,780.31222920257,980.31222920257,780.31222920257,980.31222920257,419.68777079743,619.68777079743,419.68777079743,619.68777079743,780.31222920257,5,0,4,3,vertical,vertical,horizontal,horizontal
2a,14,100265,8,4,228,23,M,NA,variable,heterogeneous,4,present,1.27757382392883,1,vertical,vertical,1,3,green,2,4,980.31222920257,419.68777079743,619.68777079743,780.31222920257,980.31222920257,780.31222920257,980.31222920257,419.68777079743,619.68777079743,419.68777079743,619.68777079743,780.31222920257,0,4,6,5,vertical,vertical,vertical,horizontal
2a,14,100265,8,5,229,23,M,NA,variable,heterogeneous,4,absent,0.707145929336548,1,vertical,vertical,1,3,red,4,NaN,619.68777079743,780.31222920257,NaN,NaN,980.31222920257,780.31222920257,980.31222920257,419.68777079743,619.68777079743,419.68777079743,619.68777079743,780.31222920257,6,0,5,4,vertical,vertical,vertical,vertical
2a,14,100265,8,6,230,23,M,NA,variable,heterogeneous,4,absent,0.797734975814819,1,vertical,vertical,1,5,red,1,NaN,980.31222920257,780.31222920257,NaN,NaN,980.31222920257,780.31222920257,980.31222920257,419.68777079743,619.68777079743,419.68777079743,619.68777079743,780.31222920257,4,5,0,3,vertical,horizontal,horizontal,horizontal
2a,14,100265,8,7,231,23,M,NA,variable,heterogeneous,4,absent,0.805802822113037,1,horizontal,horizontal,1,5,red,3,NaN,619.68777079743,419.68777079743,NaN,NaN,980.31222920257,780.31222920257,980.31222920257,419.68777079743,619.68777079743,419.68777079743,619.68777079743,780.31222920257,5,0,4,6,vertical,horizontal,horizontal,horizontal
2a,14,100265,8,8,232,23,M,NA,variable,heterogeneous,4,present,1.23416900634766,1,vertical,vertical,1,5,green,1,3,980.31222920257,780.31222920257,619.68777079743,419.68777079743,980.31222920257,780.31222920257,980.31222920257,419.68777079743,619.68777079743,419.68777079743,619.68777079743,780.31222920257,4,5,3,0,vertical,horizontal,vertical,horizontal
2a,14,100265,8,9,233,23,M,NA,variable,heterogeneous,4,present,1.09116196632385,1,vertical,vertical,1,2,green,3,4,619.68777079743,419.68777079743,619.68777079743,780.31222920257,980.31222920257,780.31222920257,980.31222920257,419.68777079743,619.68777079743,419.68777079743,619.68777079743,780.31222920257,0,5,4,6,vertical,horizontal,vertical,horizontal
2a,14,100265,8,10,234,23,M,NA,variable,heterogeneous,4,present,0.717027902603149,1,horizontal,horizontal,1,2,green,4,3,619.68777079743,780.31222920257,619.68777079743,419.68777079743,980.31222920257,780.31222920257,980.31222920257,419.68777079743,619.68777079743,419.68777079743,619.68777079743,780.31222920257,6,0,5,4,vertical,horizontal,vertical,horizontal
2a,14,100265,8,11,235,23,M,NA,variable,heterogeneous,4,absent,0.835723876953125,1,vertical,vertical,1,2,red,3,NaN,619.68777079743,419.68777079743,NaN,NaN,980.31222920257,780.31222920257,980.31222920257,419.68777079743,619.68777079743,419.68777079743,619.68777079743,780.31222920257,6,5,4,0,horizontal,horizontal,vertical,horizontal
2a,14,100265,8,12,236,23,M,NA,variable,heterogeneous,4,present,0.956861972808838,1,horizontal,horizontal,1,5,green,1,3,980.31222920257,780.31222920257,619.68777079743,419.68777079743,980.31222920257,780.31222920257,980.31222920257,419.68777079743,619.68777079743,419.68777079743,619.68777079743,780.31222920257,4,6,5,3,horizontal,horizontal,vertical,vertical
2a,14,100265,8,13,237,23,M,NA,variable,heterogeneous,4,present,1.12830305099487,1,vertical,vertical,1,2,red,2,3,980.31222920257,419.68777079743,619.68777079743,419.68777079743,980.31222920257,780.31222920257,980.31222920257,419.68777079743,619.68777079743,419.68777079743,619.68777079743,780.31222920257,5,4,6,0,horizontal,vertical,vertical,vertical
2a,14,100265,8,14,238,23,M,NA,variable,heterogeneous,4,present,1.17118382453918,1,vertical,vertical,1,2,red,2,3,980.31222920257,419.68777079743,619.68777079743,419.68777079743,980.31222920257,780.31222920257,980.31222920257,419.68777079743,619.68777079743,419.68777079743,619.68777079743,780.31222920257,5,4,3,6,horizontal,vertical,vertical,horizontal
2a,14,100265,8,15,239,23,M,NA,variable,heterogeneous,4,absent,0.842545986175537,1,vertical,vertical,1,2,green,1,NaN,980.31222920257,780.31222920257,NaN,NaN,980.31222920257,780.31222920257,980.31222920257,419.68777079743,619.68777079743,419.68777079743,619.68777079743,780.31222920257,4,6,0,3,vertical,horizontal,vertical,horizontal
2a,14,100265,8,16,240,23,M,NA,variable,heterogeneous,4,present,0.811437129974365,1,horizontal,horizontal,1,8,red,1,2,980.31222920257,780.31222920257,980.31222920257,419.68777079743,980.31222920257,780.31222920257,980.31222920257,419.68777079743,619.68777079743,419.68777079743,619.68777079743,780.31222920257,4,5,6,3,horizontal,vertical,horizontal,vertical
2a,14,100265,8,17,241,23,M,NA,variable,heterogeneous,4,present,0.668144941329956,1,vertical,vertical,1,5,green,3,1,619.68777079743,419.68777079743,980.31222920257,780.31222920257,980.31222920257,780.31222920257,980.31222920257,419.68777079743,619.68777079743,419.68777079743,619.68777079743,780.31222920257,6,3,4,0,vertical,vertical,vertical,vertical
2a,14,100265,8,18,242,23,M,NA,variable,heterogeneous,4,absent,0.645768880844116,0,vertical,horizontal,1,5,red,1,NaN,980.31222920257,780.31222920257,NaN,NaN,980.31222920257,780.31222920257,980.31222920257,419.68777079743,619.68777079743,419.68777079743,619.68777079743,780.31222920257,4,0,6,3,vertical,horizontal,horizontal,horizontal
2a,14,100265,8,19,243,23,M,NA,variable,heterogeneous,4,absent,0.811048984527588,1,horizontal,horizontal,1,3,red,1,NaN,980.31222920257,780.31222920257,NaN,NaN,980.31222920257,780.31222920257,980.31222920257,419.68777079743,619.68777079743,419.68777079743,619.68777079743,780.31222920257,4,3,6,0,horizontal,horizontal,vertical,horizontal
2a,14,100265,8,20,244,23,M,NA,variable,heterogeneous,4,absent,0.86755895614624,1,vertical,vertical,1,2,red,4,NaN,619.68777079743,780.31222920257,NaN,NaN,980.31222920257,780.31222920257,980.31222920257,419.68777079743,619.68777079743,419.68777079743,619.68777079743,780.31222920257,0,5,3,4,horizontal,horizontal,horizontal,vertical
2a,14,100265,8,21,245,23,M,NA,variable,heterogeneous,4,absent,0.900979995727539,1,vertical,vertical,1,3,red,1,NaN,980.31222920257,780.31222920257,NaN,NaN,980.31222920257,780.31222920257,980.31222920257,419.68777079743,619.68777079743,419.68777079743,619.68777079743,780.31222920257,4,6,5,3,vertical,horizontal,horizontal,horizontal
2a,14,100265,8,22,246,23,M,NA,variable,heterogeneous,4,absent,1.05143690109253,1,horizontal,horizontal,1,2,red,4,NaN,619.68777079743,780.31222920257,NaN,NaN,980.31222920257,780.31222920257,980.31222920257,419.68777079743,619.68777079743,419.68777079743,619.68777079743,780.31222920257,5,6,3,4,vertical,vertical,horizontal,horizontal
2a,14,100265,8,23,247,23,M,NA,variable,heterogeneous,4,absent,0.61650013923645,1,horizontal,horizontal,1,2,red,4,NaN,619.68777079743,780.31222920257,NaN,NaN,980.31222920257,780.31222920257,980.31222920257,419.68777079743,619.68777079743,419.68777079743,619.68777079743,780.31222920257,3,0,6,4,vertical,horizontal,vertical,horizontal
2a,14,100265,8,24,248,23,M,NA,variable,heterogeneous,4,present,1.47302007675171,1,horizontal,horizontal,1,5,green,2,3,980.31222920257,419.68777079743,619.68777079743,419.68777079743,980.31222920257,780.31222920257,980.31222920257,419.68777079743,619.68777079743,419.68777079743,619.68777079743,780.31222920257,6,4,3,5,horizontal,horizontal,horizontal,horizontal
2a,14,100265,8,25,249,23,M,NA,variable,heterogeneous,4,absent,0.926746845245361,1,horizontal,horizontal,1,5,green,3,NaN,619.68777079743,419.68777079743,NaN,NaN,980.31222920257,780.31222920257,980.31222920257,419.68777079743,619.68777079743,419.68777079743,619.68777079743,780.31222920257,0,3,4,6,vertical,horizontal,horizontal,horizontal
2a,14,100265,8,26,250,23,M,NA,variable,heterogeneous,4,absent,0.677482128143311,1,horizontal,horizontal,1,3,green,4,NaN,619.68777079743,780.31222920257,NaN,NaN,980.31222920257,780.31222920257,980.31222920257,419.68777079743,619.68777079743,419.68777079743,619.68777079743,780.31222920257,6,5,0,4,vertical,vertical,vertical,horizontal
2a,14,100265,8,27,251,23,M,NA,variable,heterogeneous,4,present,0.61123514175415,1,horizontal,horizontal,1,3,green,3,2,619.68777079743,419.68777079743,980.31222920257,419.68777079743,980.31222920257,780.31222920257,980.31222920257,419.68777079743,619.68777079743,419.68777079743,619.68777079743,780.31222920257,6,3,4,0,vertical,vertical,horizontal,horizontal
2a,14,100265,8,28,252,23,M,NA,variable,heterogeneous,4,present,0.667659044265747,1,vertical,vertical,1,3,red,3,1,619.68777079743,419.68777079743,980.31222920257,780.31222920257,980.31222920257,780.31222920257,980.31222920257,419.68777079743,619.68777079743,419.68777079743,619.68777079743,780.31222920257,3,0,4,6,horizontal,horizontal,vertical,horizontal
2a,14,100265,8,29,253,23,M,NA,variable,heterogeneous,4,absent,0.733152866363525,1,vertical,vertical,1,8,red,1,NaN,980.31222920257,780.31222920257,NaN,NaN,980.31222920257,780.31222920257,980.31222920257,419.68777079743,619.68777079743,419.68777079743,619.68777079743,780.31222920257,4,3,6,0,vertical,vertical,vertical,vertical
2a,14,100265,8,30,254,23,M,NA,variable,heterogeneous,4,absent,0.680133104324341,1,horizontal,horizontal,1,8,red,3,NaN,619.68777079743,419.68777079743,NaN,NaN,980.31222920257,780.31222920257,980.31222920257,419.68777079743,619.68777079743,419.68777079743,619.68777079743,780.31222920257,6,3,4,0,horizontal,horizontal,horizontal,horizontal
2a,14,100265,8,31,255,23,M,NA,variable,heterogeneous,4,absent,0.717961072921753,0,horizontal,vertical,1,2,red,2,NaN,980.31222920257,419.68777079743,NaN,NaN,980.31222920257,780.31222920257,980.31222920257,419.68777079743,619.68777079743,419.68777079743,619.68777079743,780.31222920257,0,4,6,3,horizontal,horizontal,vertical,horizontal
2a,14,100265,8,32,256,23,M,NA,variable,heterogeneous,4,present,0.788594961166382,1,horizontal,horizontal,1,2,red,4,3,619.68777079743,780.31222920257,619.68777079743,419.68777079743,980.31222920257,780.31222920257,980.31222920257,419.68777079743,619.68777079743,419.68777079743,619.68777079743,780.31222920257,5,3,6,4,vertical,vertical,horizontal,horizontal
2a,14,100265,9,1,257,23,M,NA,variable,heterogeneous,4,absent,1.50904703140259,1,horizontal,horizontal,1,5,red,1,NaN,980.31222920257,780.31222920257,NaN,NaN,980.31222920257,780.31222920257,980.31222920257,419.68777079743,619.68777079743,419.68777079743,619.68777079743,780.31222920257,4,3,5,0,horizontal,horizontal,vertical,vertical
2a,14,100265,9,2,258,23,M,NA,variable,heterogeneous,4,absent,1.24753308296204,1,vertical,vertical,1,3,green,1,NaN,980.31222920257,780.31222920257,NaN,NaN,980.31222920257,780.31222920257,980.31222920257,419.68777079743,619.68777079743,419.68777079743,619.68777079743,780.31222920257,4,6,3,0,vertical,horizontal,horizontal,horizontal
2a,14,100265,9,3,259,23,M,NA,variable,heterogeneous,4,absent,1.22886300086975,1,vertical,vertical,1,5,red,2,NaN,980.31222920257,419.68777079743,NaN,NaN,980.31222920257,780.31222920257,980.31222920257,419.68777079743,619.68777079743,419.68777079743,619.68777079743,780.31222920257,0,4,5,3,vertical,vertical,vertical,vertical
2a,14,100265,9,4,260,23,M,NA,variable,heterogeneous,4,absent,1.09763884544373,1,vertical,vertical,1,2,red,1,NaN,980.31222920257,780.31222920257,NaN,NaN,980.31222920257,780.31222920257,980.31222920257,419.68777079743,619.68777079743,419.68777079743,619.68777079743,780.31222920257,4,6,0,3,vertical,vertical,horizontal,vertical
2a,14,100265,9,5,261,23,M,NA,variable,heterogeneous,4,present,0.911787986755371,1,horizontal,horizontal,1,5,red,3,1,619.68777079743,419.68777079743,980.31222920257,780.31222920257,980.31222920257,780.31222920257,980.31222920257,419.68777079743,619.68777079743,419.68777079743,619.68777079743,780.31222920257,0,3,4,6,vertical,horizontal,horizontal,vertical
2a,14,100265,9,6,262,23,M,NA,variable,heterogeneous,4,absent,0.930416822433472,1,horizontal,horizontal,1,3,green,2,NaN,980.31222920257,419.68777079743,NaN,NaN,980.31222920257,780.31222920257,980.31222920257,419.68777079743,619.68777079743,419.68777079743,619.68777079743,780.31222920257,0,4,5,6,vertical,horizontal,horizontal,horizontal
2a,14,100265,9,7,263,23,M,NA,variable,heterogeneous,4,absent,0.669232130050659,1,horizontal,horizontal,1,5,red,4,NaN,619.68777079743,780.31222920257,NaN,NaN,980.31222920257,780.31222920257,980.31222920257,419.68777079743,619.68777079743,419.68777079743,619.68777079743,780.31222920257,0,3,6,4,vertical,horizontal,horizontal,horizontal
2a,14,100265,9,8,264,23,M,NA,variable,heterogeneous,4,present,0.698738098144531,1,vertical,vertical,1,5,green,3,2,619.68777079743,419.68777079743,980.31222920257,419.68777079743,980.31222920257,780.31222920257,980.31222920257,419.68777079743,619.68777079743,419.68777079743,619.68777079743,780.31222920257,5,3,4,0,vertical,horizontal,vertical,horizontal
2a,14,100265,9,9,265,23,M,NA,variable,heterogeneous,4,absent,0.681256055831909,1,horizontal,horizontal,1,2,red,4,NaN,619.68777079743,780.31222920257,NaN,NaN,980.31222920257,780.31222920257,980.31222920257,419.68777079743,619.68777079743,419.68777079743,619.68777079743,780.31222920257,5,6,0,4,vertical,horizontal,vertical,horizontal
2a,14,100265,9,10,266,23,M,NA,variable,heterogeneous,4,absent,0.659197092056274,1,horizontal,horizontal,1,2,green,4,NaN,619.68777079743,780.31222920257,NaN,NaN,980.31222920257,780.31222920257,980.31222920257,419.68777079743,619.68777079743,419.68777079743,619.68777079743,780.31222920257,5,0,6,4,vertical,horizontal,vertical,horizontal
2a,14,100265,9,11,267,23,M,NA,variable,heterogeneous,4,present,0.900563955307007,1,vertical,vertical,1,2,red,2,3,980.31222920257,419.68777079743,619.68777079743,419.68777079743,980.31222920257,780.31222920257,980.31222920257,419.68777079743,619.68777079743,419.68777079743,619.68777079743,780.31222920257,6,4,3,0,horizontal,vertical,horizontal,horizontal
2a,14,100265,9,12,268,23,M,NA,variable,heterogeneous,4,absent,0.954519987106323,1,vertical,vertical,1,2,red,2,NaN,980.31222920257,419.68777079743,NaN,NaN,980.31222920257,780.31222920257,980.31222920257,419.68777079743,619.68777079743,419.68777079743,619.68777079743,780.31222920257,5,4,0,3,horizontal,vertical,horizontal,horizontal
2a,14,100265,9,13,269,23,M,NA,variable,heterogeneous,4,present,1.18988490104675,1,horizontal,horizontal,1,2,red,1,4,980.31222920257,780.31222920257,619.68777079743,780.31222920257,980.31222920257,780.31222920257,980.31222920257,419.68777079743,619.68777079743,419.68777079743,619.68777079743,780.31222920257,4,5,6,3,horizontal,horizontal,horizontal,vertical
2a,14,100265,9,14,270,23,M,NA,variable,heterogeneous,4,absent,0.877966165542603,1,vertical,vertical,1,5,red,4,NaN,619.68777079743,780.31222920257,NaN,NaN,980.31222920257,780.31222920257,980.31222920257,419.68777079743,619.68777079743,419.68777079743,619.68777079743,780.31222920257,3,5,0,4,horizontal,horizontal,vertical,vertical
2a,14,100265,9,15,271,23,M,NA,variable,heterogeneous,4,present,0.851662874221802,1,horizontal,horizontal,1,3,green,1,3,980.31222920257,780.31222920257,619.68777079743,419.68777079743,980.31222920257,780.31222920257,980.31222920257,419.68777079743,619.68777079743,419.68777079743,619.68777079743,780.31222920257,4,3,0,6,horizontal,vertical,horizontal,vertical
2a,14,100265,9,16,272,23,M,NA,variable,heterogeneous,4,absent,0.680959939956665,1,horizontal,horizontal,1,2,red,4,NaN,619.68777079743,780.31222920257,NaN,NaN,980.31222920257,780.31222920257,980.31222920257,419.68777079743,619.68777079743,419.68777079743,619.68777079743,780.31222920257,3,6,5,4,horizontal,horizontal,vertical,horizontal
2a,14,100265,9,17,273,23,M,NA,variable,heterogeneous,4,present,1.29891490936279,1,vertical,vertical,1,8,green,3,4,619.68777079743,419.68777079743,619.68777079743,780.31222920257,980.31222920257,780.31222920257,980.31222920257,419.68777079743,619.68777079743,419.68777079743,619.68777079743,780.31222920257,6,5,4,3,horizontal,horizontal,vertical,vertical
2a,14,100265,9,18,274,23,M,NA,variable,heterogeneous,4,present,1.03303098678589,1,vertical,vertical,1,2,green,2,3,980.31222920257,419.68777079743,619.68777079743,419.68777079743,980.31222920257,780.31222920257,980.31222920257,419.68777079743,619.68777079743,419.68777079743,619.68777079743,780.31222920257,5,4,6,3,vertical,vertical,horizontal,horizontal
2a,14,100265,9,19,275,23,M,NA,variable,heterogeneous,4,absent,0.654235124588013,1,vertical,vertical,1,2,red,2,NaN,980.31222920257,419.68777079743,NaN,NaN,980.31222920257,780.31222920257,980.31222920257,419.68777079743,619.68777079743,419.68777079743,619.68777079743,780.31222920257,3,4,5,0,vertical,vertical,horizontal,vertical
2a,14,100265,9,20,276,23,M,NA,variable,heterogeneous,4,present,0.82715892791748,1,vertical,vertical,1,2,red,3,2,619.68777079743,419.68777079743,980.31222920257,419.68777079743,980.31222920257,780.31222920257,980.31222920257,419.68777079743,619.68777079743,419.68777079743,619.68777079743,780.31222920257,5,0,4,3,horizontal,vertical,vertical,vertical
2a,14,100265,9,21,277,23,M,NA,variable,heterogeneous,4,present,0.56801700592041,1,horizontal,horizontal,1,2,green,3,1,619.68777079743,419.68777079743,980.31222920257,780.31222920257,980.31222920257,780.31222920257,980.31222920257,419.68777079743,619.68777079743,419.68777079743,619.68777079743,780.31222920257,3,5,4,6,horizontal,vertical,horizontal,vertical
2a,14,100265,9,22,278,23,M,NA,variable,heterogeneous,4,present,0.975453853607178,1,horizontal,horizontal,1,5,red,1,4,980.31222920257,780.31222920257,619.68777079743,780.31222920257,980.31222920257,780.31222920257,980.31222920257,419.68777079743,619.68777079743,419.68777079743,619.68777079743,780.31222920257,4,3,0,5,horizontal,vertical,horizontal,horizontal
2a,14,100265,9,23,279,23,M,NA,variable,heterogeneous,4,present,0.987201929092407,1,vertical,vertical,1,3,green,2,1,980.31222920257,419.68777079743,980.31222920257,780.31222920257,980.31222920257,780.31222920257,980.31222920257,419.68777079743,619.68777079743,419.68777079743,619.68777079743,780.31222920257,6,4,3,0,vertical,vertical,vertical,horizontal
2a,14,100265,9,24,280,23,M,NA,variable,heterogeneous,4,absent,0.891252994537354,1,vertical,vertical,1,3,red,4,NaN,619.68777079743,780.31222920257,NaN,NaN,980.31222920257,780.31222920257,980.31222920257,419.68777079743,619.68777079743,419.68777079743,619.68777079743,780.31222920257,3,0,5,4,vertical,vertical,horizontal,vertical
2a,14,100265,9,25,281,23,M,NA,variable,heterogeneous,4,present,1.58922100067139,1,vertical,vertical,1,3,green,1,2,980.31222920257,780.31222920257,980.31222920257,419.68777079743,980.31222920257,780.31222920257,980.31222920257,419.68777079743,619.68777079743,419.68777079743,619.68777079743,780.31222920257,4,0,3,6,vertical,vertical,horizontal,vertical
2a,14,100265,9,26,282,23,M,NA,variable,heterogeneous,4,present,0.62160587310791,1,horizontal,horizontal,1,3,green,4,1,619.68777079743,780.31222920257,980.31222920257,780.31222920257,980.31222920257,780.31222920257,980.31222920257,419.68777079743,619.68777079743,419.68777079743,619.68777079743,780.31222920257,5,3,6,4,horizontal,vertical,vertical,horizontal
2a,14,100265,9,27,283,23,M,NA,variable,heterogeneous,4,absent,1.00603008270264,1,horizontal,horizontal,1,8,red,4,NaN,619.68777079743,780.31222920257,NaN,NaN,980.31222920257,780.31222920257,980.31222920257,419.68777079743,619.68777079743,419.68777079743,619.68777079743,780.31222920257,5,6,3,4,vertical,horizontal,horizontal,horizontal
2a,14,100265,9,28,284,23,M,NA,variable,heterogeneous,4,present,0.794447898864746,1,horizontal,horizontal,1,2,red,4,2,619.68777079743,780.31222920257,980.31222920257,419.68777079743,980.31222920257,780.31222920257,980.31222920257,419.68777079743,619.68777079743,419.68777079743,619.68777079743,780.31222920257,0,5,3,4,horizontal,vertical,horizontal,horizontal
2a,14,100265,9,29,285,23,M,NA,variable,heterogeneous,4,absent,0.762580871582031,1,vertical,vertical,1,8,red,2,NaN,980.31222920257,419.68777079743,NaN,NaN,980.31222920257,780.31222920257,980.31222920257,419.68777079743,619.68777079743,419.68777079743,619.68777079743,780.31222920257,6,4,5,0,horizontal,vertical,vertical,horizontal
2a,14,100265,9,30,286,23,M,NA,variable,heterogeneous,4,present,1.19783782958984,1,horizontal,horizontal,1,8,red,3,4,619.68777079743,419.68777079743,619.68777079743,780.31222920257,980.31222920257,780.31222920257,980.31222920257,419.68777079743,619.68777079743,419.68777079743,619.68777079743,780.31222920257,6,0,4,3,horizontal,horizontal,horizontal,vertical
2a,14,100265,9,31,287,23,M,NA,variable,heterogeneous,4,present,1.17411994934082,1,vertical,vertical,1,5,red,2,3,980.31222920257,419.68777079743,619.68777079743,419.68777079743,980.31222920257,780.31222920257,980.31222920257,419.68777079743,619.68777079743,419.68777079743,619.68777079743,780.31222920257,0,4,3,6,horizontal,vertical,vertical,vertical
2a,14,100265,9,32,288,23,M,NA,variable,heterogeneous,4,absent,1.07750988006592,1,horizontal,horizontal,1,3,red,2,NaN,980.31222920257,419.68777079743,NaN,NaN,980.31222920257,780.31222920257,980.31222920257,419.68777079743,619.68777079743,419.68777079743,619.68777079743,780.31222920257,3,4,0,5,horizontal,horizontal,vertical,vertical
2a,14,100265,10,1,289,23,M,NA,variable,heterogeneous,4,present,1.31782507896423,1,vertical,vertical,1,3,red,4,1,619.68777079743,780.31222920257,980.31222920257,780.31222920257,980.31222920257,780.31222920257,980.31222920257,419.68777079743,619.68777079743,419.68777079743,619.68777079743,780.31222920257,5,0,6,4,vertical,horizontal,horizontal,vertical
2a,14,100265,10,2,290,23,M,NA,variable,heterogeneous,4,present,0.836643934249878,1,vertical,vertical,1,8,red,4,2,619.68777079743,780.31222920257,980.31222920257,419.68777079743,980.31222920257,780.31222920257,980.31222920257,419.68777079743,619.68777079743,419.68777079743,619.68777079743,780.31222920257,3,5,0,4,horizontal,horizontal,horizontal,vertical
