experiment,subject,uniqueID,block,trial,trial_cumulative,age,gender,color_cond_blocking,color_history,shape_type,set_size,distractor,rt,acc,target_orient,response_key,response_made,iti,target_color,target_item,distractor_item,target_X,target_Y,distractor_X,distractor_Y,item1_X,item1_Y,item2_X,item2_Y,item3_X,item3_Y,item4_X,item4_Y,item1_shape,item2_shape,item3_shape,item4_shape,item1_line,item2_line,item3_line,item4_line
2a,17,100277,1,1,1,21,F,NA,variable,homogeneous,4,present,1.06699800491333,1,horizontal,horizontal,1,2,green,3,4,619.68777079743,419.68777079743,619.68777079743,780.31222920257,980.31222920257,780.31222920257,980.31222920257,419.68777079743,619.68777079743,419.68777079743,619.68777079743,780.31222920257,0,0,4,0,horizontal,vertical,horizontal,horizontal
2a,17,100277,1,2,2,21,F,NA,variable,homogeneous,4,present,1.10444593429565,1,horizontal,horizontal,1,2,red,1,4,980.31222920257,780.31222920257,619.68777079743,780.31222920257,980.31222920257,780.31222920257,980.31222920257,419.68777079743,619.68777079743,419.68777079743,619.68777079743,780.31222920257,4,0,0,0,horizontal,vertical,horizontal,vertical
2a,17,100277,1,3,3,21,F,NA,variable,homogeneous,4,absent,0.739084005355835,1,vertical,vertical,1,2,red,4,NaN,619.68777079743,780.31222920257,NaN,NaN,980.31222920257,780.31222920257,980.31222920257,419.68777079743,619.68777079743,419.68777079743,619.68777079743,780.31222920257,0,0,0,4,horizontal,vertical,horizontal,vertical
2a,17,100277,1,4,4,21,F,NA,variable,homogeneous,4,absent,0.849942922592163,1,vertical,vertical,1,2,green,3,NaN,619.68777079743,419.68777079743,NaN,NaN,980.31222920257,780.31222920257,980.31222920257,419.68777079743,619.68777079743,419.68777079743,619.68777079743,780.31222920257,0,0,4,0,vertical,vertical,vertical,vertical
2a,17,100277,1,5,5,21,F,NA,variable,homogeneous,4,present,0.79116415977478,1,horizontal,horizontal,1,2,green,4,3,619.68777079743,780.31222920257,619.68777079743,419.68777079743,980.31222920257,780.31222920257,980.31222920257,419.68777079743,619.68777079743,419.68777079743,619.68777079743,780.31222920257,0,0,0,4,vertical,horizontal,horizontal,horizontal
2a,17,100277,1,6,6,21,F,NA,variable,homogeneous,4,absent,0.999262094497681,1,horizontal,horizontal,1,2,red,3,NaN,619.68777079743,419.68777079743,NaN,NaN,980.31222920257,780.31222920257,980.31222920257,419.68777079743,619.68777079743,419.68777079743,619.68777079743,780.31222920257,0,0,4,0,horizontal,vertical,horizontal,horizontal
2a,17,100277,1,7,7,21,F,NA,variable,homogeneous,4,present,1.0597767829895,1,horizontal,horizontal,1,2,green,2,3,980.31222920257,419.68777079743,619.68777079743,419.68777079743,980.31222920257,780.31222920257,980.31222920257,419.68777079743,619.68777079743,419.68777079743,619.68777079743,780.31222920257,0,4,0,0,vertical,horizontal,vertical,horizontal
2a,17,100277,1,8,8,21,F,NA,variable,homogeneous,4,present,0.837218046188354,1,vertical,vertical,1,2,green,3,2,619.68777079743,419.68777079743,980.31222920257,419.68777079743,980.31222920257,780.31222920257,980.31222920257,419.68777079743,619.68777079743,419.68777079743,619.68777079743,780.31222920257,0,0,4,0,vertical,horizontal,vertical,horizontal
2a,17,100277,1,9,9,21,F,NA,variable,homogeneous,4,present,0.774213075637817,1,vertical,vertical,1,2,green,1,2,980.31222920257,780.31222920257,980.31222920257,419.68777079743,980.31222920257,780.31222920257,980.31222920257,419.68777079743,619.68777079743,419.68777079743,619.68777079743,780.31222920257,4,0,0,0,vertical,vertical,horizontal,vertical
2a,17,100277,1,10,10,21,F,NA,variable,homogeneous,4,absent,0.71752405166626,1,vertical,vertical,1,2,green,1,NaN,980.31222920257,780.31222920257,NaN,NaN,980.31222920257,780.31222920257,980.31222920257,419.68777079743,619.68777079743,419.68777079743,619.68777079743,780.31222920257,4,0,0,0,vertical,horizontal,horizontal,vertical
2a,17,100277,1,11,11,21,F,NA,variable,homogeneous,4,present,0.67638897895813,1,horizontal,horizontal,1,2,green,4,2,619.68777079743,780.31222920257,980.31222920257,419.68777079743,980.31222920257,780.31222920257,980.31222920257,419.68777079743,619.68777079743,419.68777079743,619.68777079743,780.31222920257,0,0,0,4,vertical,horizontal,vertical,horizontal
2a,17,100277,1,12,12,21,F,NA,variable,homogeneous,4,present,0.713894128799438,1,vertical,vertical,1,2,green,4,1,619.68777079743,780.31222920257,980.31222920257,780.31222920257,980.31222920257,780.31222920257,980.31222920257,419.68777079743,619.68777079743,419.68777079743,619.68777079743,780.31222920257,0,0,0,4,vertical,horizontal,horizontal,vertical
2a,17,100277,1,13,13,21,F,NA,variable,homogeneous,4,present,0.732089996337891,1,vertical,vertical,1,2,green,3,4,619.68777079743,419.68777079743,619.68777079743,780.31222920257,980.31222920257,780.31222920257,980.31222920257,419.68777079743,619.68777079743,419.68777079743,619.68777079743,780.31222920257,0,0,4,0,vertical,vertical,vertical,horizontal
2a,17,100277,1,14,14,21,F,NA,variable,homogeneous,4,absent,0.855355978012085,1,vertical,vertical,1,2,green,2,NaN,980.31222920257,419.68777079743,NaN,NaN,980.31222920257,780.31222920257,980.31222920257,419.68777079743,619.68777079743,419.68777079743,619.68777079743,780.31222920257,0,4,0,0,horizontal,vertical,horizontal,vertical
2a,17,100277,1,15,15,21,F,NA,variable,homogeneous,4,present,0.844460010528564,1,vertical,vertical,1,2,red,2,3,980.31222920257,419.68777079743,619.68777079743,419.68777079743,980.31222920257,780.31222920257,980.31222920257,419.68777079743,619.68777079743,419.68777079743,619.68777079743,780.31222920257,0,4,0,0,vertical,vertical,vertical,vertical
2a,17,100277,1,16,16,21,F,NA,variable,homogeneous,4,absent,0.733199119567871,1,vertical,vertical,1,2,red,4,NaN,619.68777079743,780.31222920257,NaN,NaN,980.31222920257,780.31222920257,980.31222920257,419.68777079743,619.68777079743,419.68777079743,619.68777079743,780.31222920257,0,0,0,4,vertical,horizontal,vertical,vertical
2a,17,100277,1,17,17,21,F,NA,variable,homogeneous,4,absent,0.696197986602783,1,horizontal,horizontal,1,2,green,4,NaN,619.68777079743,780.31222920257,NaN,NaN,980.31222920257,780.31222920257,980.31222920257,419.68777079743,619.68777079743,419.68777079743,619.68777079743,780.31222920257,0,0,0,4,vertical,vertical,horizontal,horizontal
2a,17,100277,1,18,18,21,F,NA,variable,homogeneous,4,absent,0.758332014083862,1,horizontal,horizontal,1,2,green,2,NaN,980.31222920257,419.68777079743,NaN,NaN,980.31222920257,780.31222920257,980.31222920257,419.68777079743,619.68777079743,419.68777079743,619.68777079743,780.31222920257,0,4,0,0,horizontal,horizontal,vertical,horizontal
2a,17,100277,1,19,19,21,F,NA,variable,homogeneous,4,present,0.953782081604004,1,vertical,vertical,1,2,green,2,4,980.31222920257,419.68777079743,619.68777079743,780.31222920257,980.31222920257,780.31222920257,980.31222920257,419.68777079743,619.68777079743,419.68777079743,619.68777079743,780.31222920257,0,4,0,0,vertical,vertical,horizontal,horizontal
2a,17,100277,1,20,20,21,F,NA,variable,homogeneous,4,absent,0.837187051773071,1,vertical,vertical,1,2,red,4,NaN,619.68777079743,780.31222920257,NaN,NaN,980.31222920257,780.31222920257,980.31222920257,419.68777079743,619.68777079743,419.68777079743,619.68777079743,780.31222920257,0,0,0,4,horizontal,horizontal,vertical,vertical
2a,17,100277,1,21,21,21,F,NA,variable,homogeneous,4,absent,0.981947898864746,1,horizontal,horizontal,1,2,green,4,NaN,619.68777079743,780.31222920257,NaN,NaN,980.31222920257,780.31222920257,980.31222920257,419.68777079743,619.68777079743,419.68777079743,619.68777079743,780.31222920257,0,0,0,4,horizontal,horizontal,vertical,horizontal
2a,17,100277,1,22,22,21,F,NA,variable,homogeneous,4,absent,1.38571619987488,1,vertical,vertical,1,2,red,3,NaN,619.68777079743,419.68777079743,NaN,NaN,980.31222920257,780.31222920257,980.31222920257,419.68777079743,619.68777079743,419.68777079743,619.68777079743,780.31222920257,0,0,4,0,horizontal,vertical,vertical,horizontal
2a,17,100277,1,23,23,21,F,NA,variable,homogeneous,4,present,0.717742204666138,1,vertical,vertical,1,2,green,1,4,980.31222920257,780.31222920257,619.68777079743,780.31222920257,980.31222920257,780.31222920257,980.31222920257,419.68777079743,619.68777079743,419.68777079743,619.68777079743,780.31222920257,4,0,0,0,vertical,horizontal,horizontal,vertical
2a,17,100277,1,24,24,21,F,NA,variable,homogeneous,4,present,0.756240844726562,1,horizontal,horizontal,1,2,green,1,2,980.31222920257,780.31222920257,980.31222920257,419.68777079743,980.31222920257,780.31222920257,980.31222920257,419.68777079743,619.68777079743,419.68777079743,619.68777079743,780.31222920257,4,0,0,0,horizontal,horizontal,vertical,horizontal
2a,17,100277,1,25,25,21,F,NA,variable,homogeneous,4,absent,0.855845928192139,1,horizontal,horizontal,1,2,green,3,NaN,619.68777079743,419.68777079743,NaN,NaN,980.31222920257,780.31222920257,980.31222920257,419.68777079743,619.68777079743,419.68777079743,619.68777079743,780.31222920257,0,0,4,0,vertical,vertical,horizontal,vertical
2a,17,100277,1,26,26,21,F,NA,variable,homogeneous,4,present,0.492767095565796,1,horizontal,horizontal,1,2,green,4,1,619.68777079743,780.31222920257,980.31222920257,780.31222920257,980.31222920257,780.31222920257,980.31222920257,419.68777079743,619.68777079743,419.68777079743,619.68777079743,780.31222920257,0,0,0,4,horizontal,horizontal,vertical,horizontal
2a,17,100277,1,27,27,21,F,NA,variable,homogeneous,4,absent,0.611274003982544,1,horizontal,horizontal,1,2,red,3,NaN,619.68777079743,419.68777079743,NaN,NaN,980.31222920257,780.31222920257,980.31222920257,419.68777079743,619.68777079743,419.68777079743,619.68777079743,780.31222920257,0,0,4,0,horizontal,horizontal,horizontal,horizontal
2a,17,100277,1,28,28,21,F,NA,variable,homogeneous,4,present,0.531732082366943,1,horizontal,horizontal,1,2,green,3,2,619.68777079743,419.68777079743,980.31222920257,419.68777079743,980.31222920257,780.31222920257,980.31222920257,419.68777079743,619.68777079743,419.68777079743,619.68777079743,780.31222920257,0,0,4,0,vertical,horizontal,horizontal,vertical
2a,17,100277,1,29,29,21,F,NA,variable,homogeneous,4,absent,0.886214971542358,1,horizontal,horizontal,1,2,red,2,NaN,980.31222920257,419.68777079743,NaN,NaN,980.31222920257,780.31222920257,980.31222920257,419.68777079743,619.68777079743,419.68777079743,619.68777079743,780.31222920257,0,4,0,0,vertical,horizontal,vertical,horizontal
2a,17,100277,1,30,30,21,F,NA,variable,homogeneous,4,absent,0.744338989257812,1,horizontal,horizontal,1,2,red,1,NaN,980.31222920257,780.31222920257,NaN,NaN,980.31222920257,780.31222920257,980.31222920257,419.68777079743,619.68777079743,419.68777079743,619.68777079743,780.31222920257,4,0,0,0,horizontal,vertical,vertical,vertical
2a,17,100277,1,31,31,21,F,NA,variable,homogeneous,4,absent,0.999674081802368,1,vertical,vertical,1,2,green,3,NaN,619.68777079743,419.68777079743,NaN,NaN,980.31222920257,780.31222920257,980.31222920257,419.68777079743,619.68777079743,419.68777079743,619.68777079743,780.31222920257,0,0,4,0,vertical,vertical,vertical,vertical
2a,17,100277,1,32,32,21,F,NA,variable,homogeneous,4,present,0.739548921585083,1,vertical,vertical,1,2,red,4,1,619.68777079743,780.31222920257,980.31222920257,780.31222920257,980.31222920257,780.31222920257,980.31222920257,419.68777079743,619.68777079743,419.68777079743,619.68777079743,780.31222920257,0,0,0,4,vertical,horizontal,vertical,vertical
2a,17,100277,2,1,33,21,F,NA,variable,homogeneous,4,absent,0.776343822479248,1,vertical,vertical,1,2,green,1,NaN,980.31222920257,780.31222920257,NaN,NaN,980.31222920257,780.31222920257,980.31222920257,419.68777079743,619.68777079743,419.68777079743,619.68777079743,780.31222920257,4,0,0,0,vertical,vertical,vertical,vertical
2a,17,100277,2,2,34,21,F,NA,variable,homogeneous,4,absent,0.660547971725464,1,horizontal,horizontal,1,2,red,1,NaN,980.31222920257,780.31222920257,NaN,NaN,980.31222920257,780.31222920257,980.31222920257,419.68777079743,619.68777079743,419.68777079743,619.68777079743,780.31222920257,4,0,0,0,horizontal,horizontal,vertical,vertical
2a,17,100277,2,3,35,21,F,NA,variable,homogeneous,4,present,0.901880979537964,1,vertical,vertical,1,2,green,2,4,980.31222920257,419.68777079743,619.68777079743,780.31222920257,980.31222920257,780.31222920257,980.31222920257,419.68777079743,619.68777079743,419.68777079743,619.68777079743,780.31222920257,0,4,0,0,vertical,vertical,vertical,vertical
2a,17,100277,2,4,36,21,F,NA,variable,homogeneous,4,present,0.683935880661011,0,horizontal,vertical,1,2,green,1,2,980.31222920257,780.31222920257,980.31222920257,419.68777079743,980.31222920257,780.31222920257,980.31222920257,419.68777079743,619.68777079743,419.68777079743,619.68777079743,780.31222920257,4,0,0,0,horizontal,vertical,horizontal,vertical
2a,17,100277,2,5,37,21,F,NA,variable,homogeneous,4,present,0.83819317817688,0,horizontal,vertical,1,2,red,4,3,619.68777079743,780.31222920257,619.68777079743,419.68777079743,980.31222920257,780.31222920257,980.31222920257,419.68777079743,619.68777079743,419.68777079743,619.68777079743,780.31222920257,0,0,0,4,horizontal,vertical,vertical,horizontal
2a,17,100277,2,6,38,21,F,NA,variable,homogeneous,4,absent,0.726943016052246,1,horizontal,horizontal,1,2,green,3,NaN,619.68777079743,419.68777079743,NaN,NaN,980.31222920257,780.31222920257,980.31222920257,419.68777079743,619.68777079743,419.68777079743,619.68777079743,780.31222920257,0,0,4,0,horizontal,horizontal,horizontal,horizontal
2a,17,100277,2,7,39,21,F,NA,variable,homogeneous,4,absent,0.653553009033203,1,vertical,vertical,1,2,red,2,NaN,980.31222920257,419.68777079743,NaN,NaN,980.31222920257,780.31222920257,980.31222920257,419.68777079743,619.68777079743,419.68777079743,619.68777079743,780.31222920257,0,4,0,0,horizontal,vertical,vertical,vertical
2a,17,100277,2,8,40,21,F,NA,variable,homogeneous,4,absent,0.61872386932373,1,horizontal,horizontal,1,2,green,4,NaN,619.68777079743,780.31222920257,NaN,NaN,980.31222920257,780.31222920257,980.31222920257,419.68777079743,619.68777079743,419.68777079743,619.68777079743,780.31222920257,0,0,0,4,vertical,vertical,vertical,horizontal
2a,17,100277,2,9,41,21,F,NA,variable,homogeneous,4,present,0.715352058410645,1,vertical,vertical,1,2,green,4,3,619.68777079743,780.31222920257,619.68777079743,419.68777079743,980.31222920257,780.31222920257,980.31222920257,419.68777079743,619.68777079743,419.68777079743,619.68777079743,780.31222920257,0,0,0,4,horizontal,horizontal,vertical,vertical
2a,17,100277,2,10,42,21,F,NA,variable,homogeneous,4,present,0.733605861663818,0,horizontal,vertical,1,2,red,1,4,980.31222920257,780.31222920257,619.68777079743,780.31222920257,980.31222920257,780.31222920257,980.31222920257,419.68777079743,619.68777079743,419.68777079743,619.68777079743,780.31222920257,4,0,0,0,horizontal,vertical,horizontal,vertical
2a,17,100277,2,11,43,21,F,NA,variable,homogeneous,4,absent,0.648278951644897,1,vertical,vertical,1,2,red,2,NaN,980.31222920257,419.68777079743,NaN,NaN,980.31222920257,780.31222920257,980.31222920257,419.68777079743,619.68777079743,419.68777079743,619.68777079743,780.31222920257,0,4,0,0,horizontal,vertical,vertical,horizontal
2a,17,100277,2,12,44,21,F,NA,variable,homogeneous,4,absent,0.789820909500122,1,vertical,vertical,1,2,red,3,NaN,619.68777079743,419.68777079743,NaN,NaN,980.31222920257,780.31222920257,980.31222920257,419.68777079743,619.68777079743,419.68777079743,619.68777079743,780.31222920257,0,0,4,0,horizontal,vertical,vertical,horizontal
2a,17,100277,2,13,45,21,F,NA,variable,homogeneous,4,present,0.917686223983765,1,vertical,vertical,1,2,red,3,4,619.68777079743,419.68777079743,619.68777079743,780.31222920257,980.31222920257,780.31222920257,980.31222920257,419.68777079743,619.68777079743,419.68777079743,619.68777079743,780.31222920257,0,0,4,0,vertical,horizontal,vertical,vertical
2a,17,100277,2,14,46,21,F,NA,variable,homogeneous,4,present,0.852385997772217,1,vertical,vertical,1,2,green,3,4,619.68777079743,419.68777079743,619.68777079743,780.31222920257,980.31222920257,780.31222920257,980.31222920257,419.68777079743,619.68777079743,419.68777079743,619.68777079743,780.31222920257,0,0,4,0,horizontal,vertical,vertical,vertical
2a,17,100277,2,15,47,21,F,NA,variable,homogeneous,4,present,0.537582159042358,1,horizontal,horizontal,1,2,green,4,3,619.68777079743,780.31222920257,619.68777079743,419.68777079743,980.31222920257,780.31222920257,980.31222920257,419.68777079743,619.68777079743,419.68777079743,619.68777079743,780.31222920257,0,0,0,4,horizontal,vertical,vertical,horizontal
2a,17,100277,2,16,48,21,F,NA,variable,homogeneous,4,present,0.924422025680542,0,horizontal,vertical,1,2,red,3,1,619.68777079743,419.68777079743,980.31222920257,780.31222920257,980.31222920257,780.31222920257,980.31222920257,419.68777079743,619.68777079743,419.68777079743,619.68777079743,780.31222920257,0,0,4,0,vertical,vertical,horizontal,vertical
2a,17,100277,2,17,49,21,F,NA,variable,homogeneous,4,absent,0.939348220825195,1,vertical,vertical,1,2,red,4,NaN,619.68777079743,780.31222920257,NaN,NaN,980.31222920257,780.31222920257,980.31222920257,419.68777079743,619.68777079743,419.68777079743,619.68777079743,780.31222920257,0,0,0,4,horizontal,horizontal,vertical,vertical
2a,17,100277,2,18,50,21,F,NA,variable,homogeneous,4,absent,0.509965181350708,1,horizontal,horizontal,1,2,red,4,NaN,619.68777079743,780.31222920257,NaN,NaN,980.31222920257,780.31222920257,980.31222920257,419.68777079743,619.68777079743,419.68777079743,619.68777079743,780.31222920257,0,0,0,4,vertical,vertical,horizontal,horizontal
2a,17,100277,2,19,51,21,F,NA,variable,homogeneous,4,absent,0.728300094604492,1,horizontal,horizontal,1,2,red,3,NaN,619.68777079743,419.68777079743,NaN,NaN,980.31222920257,780.31222920257,980.31222920257,419.68777079743,619.68777079743,419.68777079743,619.68777079743,780.31222920257,0,0,4,0,vertical,vertical,horizontal,horizontal
2a,17,100277,2,20,52,21,F,NA,variable,homogeneous,4,present,0.739310026168823,1,vertical,vertical,1,2,green,1,2,980.31222920257,780.31222920257,980.31222920257,419.68777079743,980.31222920257,780.31222920257,980.31222920257,419.68777079743,619.68777079743,419.68777079743,619.68777079743,780.31222920257,4,0,0,0,vertical,horizontal,vertical,horizontal
2a,17,100277,2,21,53,21,F,NA,variable,homogeneous,4,absent,0.894338846206665,1,vertical,vertical,1,2,red,2,NaN,980.31222920257,419.68777079743,NaN,NaN,980.31222920257,780.31222920257,980.31222920257,419.68777079743,619.68777079743,419.68777079743,619.68777079743,780.31222920257,0,4,0,0,horizontal,vertical,horizontal,vertical
2a,17,100277,2,22,54,21,F,NA,variable,homogeneous,4,present,0.580271005630493,1,vertical,vertical,1,2,red,4,3,619.68777079743,780.31222920257,619.68777079743,419.68777079743,980.31222920257,780.31222920257,980.31222920257,419.68777079743,619.68777079743,419.68777079743,619.68777079743,780.31222920257,0,0,0,4,vertical,vertical,vertical,vertical
2a,17,100277,2,23,55,21,F,NA,variable,homogeneous,4,present,0.600061178207397,1,horizontal,horizontal,1,2,red,2,1,980.31222920257,419.68777079743,980.31222920257,780.31222920257,980.31222920257,780.31222920257,980.31222920257,419.68777079743,619.68777079743,419.68777079743,619.68777079743,780.31222920257,0,4,0,0,vertical,horizontal,vertical,vertical
2a,17,100277,2,24,56,21,F,NA,variable,homogeneous,4,absent,0.628340005874634,1,horizontal,horizontal,1,2,green,2,NaN,980.31222920257,419.68777079743,NaN,NaN,980.31222920257,780.31222920257,980.31222920257,419.68777079743,619.68777079743,419.68777079743,619.68777079743,780.31222920257,0,4,0,0,vertical,horizontal,horizontal,horizontal
2a,17,100277,2,25,57,21,F,NA,variable,homogeneous,4,absent,0.873256921768188,1,horizontal,horizontal,1,2,red,1,NaN,980.31222920257,780.31222920257,NaN,NaN,980.31222920257,780.31222920257,980.31222920257,419.68777079743,619.68777079743,419.68777079743,619.68777079743,780.31222920257,4,0,0,0,horizontal,horizontal,horizontal,horizontal
2a,17,100277,2,26,58,21,F,NA,variable,homogeneous,4,present,0.967020034790039,1,horizontal,horizontal,1,2,red,3,4,619.68777079743,419.68777079743,619.68777079743,780.31222920257,980.31222920257,780.31222920257,980.31222920257,419.68777079743,619.68777079743,419.68777079743,619.68777079743,780.31222920257,0,0,4,0,horizontal,horizontal,horizontal,vertical
2a,17,100277,2,27,59,21,F,NA,variable,homogeneous,4,present,0.66257381439209,1,vertical,vertical,1,2,green,4,1,619.68777079743,780.31222920257,980.31222920257,780.31222920257,980.31222920257,780.31222920257,980.31222920257,419.68777079743,619.68777079743,419.68777079743,619.68777079743,780.31222920257,0,0,0,4,vertical,horizontal,vertical,vertical
2a,17,100277,2,28,60,21,F,NA,variable,homogeneous,4,absent,0.887782096862793,1,vertical,vertical,1,2,red,4,NaN,619.68777079743,780.31222920257,NaN,NaN,980.31222920257,780.31222920257,980.31222920257,419.68777079743,619.68777079743,419.68777079743,619.68777079743,780.31222920257,0,0,0,4,horizontal,horizontal,vertical,vertical
2a,17,100277,2,29,61,21,F,NA,variable,homogeneous,4,absent,0.665915966033936,1,vertical,vertical,1,2,green,3,NaN,619.68777079743,419.68777079743,NaN,NaN,980.31222920257,780.31222920257,980.31222920257,419.68777079743,619.68777079743,419.68777079743,619.68777079743,780.31222920257,0,0,4,0,vertical,vertical,vertical,vertical
2a,17,100277,2,30,62,21,F,NA,variable,homogeneous,4,absent,0.667427062988281,1,horizontal,horizontal,1,2,green,2,NaN,980.31222920257,419.68777079743,NaN,NaN,980.31222920257,780.31222920257,980.31222920257,419.68777079743,619.68777079743,419.68777079743,619.68777079743,780.31222920257,0,4,0,0,horizontal,horizontal,horizontal,horizontal
2a,17,100277,2,31,63,21,F,NA,variable,homogeneous,4,present,0.860877990722656,1,vertical,vertical,1,2,red,3,2,619.68777079743,419.68777079743,980.31222920257,419.68777079743,980.31222920257,780.31222920257,980.31222920257,419.68777079743,619.68777079743,419.68777079743,619.68777079743,780.31222920257,0,0,4,0,vertical,vertical,vertical,horizontal
2a,17,100277,2,32,64,21,F,NA,variable,homogeneous,4,present,0.56600284576416,1,horizontal,horizontal,1,2,red,4,3,619.68777079743,780.31222920257,619.68777079743,419.68777079743,980.31222920257,780.31222920257,980.31222920257,419.68777079743,619.68777079743,419.68777079743,619.68777079743,780.31222920257,0,0,0,4,vertical,vertical,horizontal,horizontal
2a,17,100277,3,1,65,21,F,NA,variable,homogeneous,4,absent,0.876965999603271,1,horizontal,horizontal,1,2,green,3,NaN,619.68777079743,419.68777079743,NaN,NaN,980.31222920257,780.31222920257,980.31222920257,419.68777079743,619.68777079743,419.68777079743,619.68777079743,780.31222920257,0,0,4,0,horizontal,vertical,horizontal,vertical
2a,17,100277,3,2,66,21,F,NA,variable,homogeneous,4,present,1.17870688438416,1,vertical,vertical,1,2,red,1,4,980.31222920257,780.31222920257,619.68777079743,780.31222920257,980.31222920257,780.31222920257,980.31222920257,419.68777079743,619.68777079743,419.68777079743,619.68777079743,780.31222920257,4,0,0,0,vertical,horizontal,horizontal,vertical
2a,17,100277,3,3,67,21,F,NA,variable,homogeneous,4,present,0.678478956222534,1,horizontal,horizontal,1,2,green,4,3,619.68777079743,780.31222920257,619.68777079743,419.68777079743,980.31222920257,780.31222920257,980.31222920257,419.68777079743,619.68777079743,419.68777079743,619.68777079743,780.31222920257,0,0,0,4,vertical,vertical,vertical,horizontal
2a,17,100277,3,4,68,21,F,NA,variable,homogeneous,4,absent,1.16402006149292,1,horizontal,horizontal,1,2,red,1,NaN,980.31222920257,780.31222920257,NaN,NaN,980.31222920257,780.31222920257,980.31222920257,419.68777079743,619.68777079743,419.68777079743,619.68777079743,780.31222920257,4,0,0,0,horizontal,horizontal,horizontal,vertical
2a,17,100277,3,5,69,21,F,NA,variable,homogeneous,4,absent,0.707819938659668,1,vertical,vertical,1,2,green,2,NaN,980.31222920257,419.68777079743,NaN,NaN,980.31222920257,780.31222920257,980.31222920257,419.68777079743,619.68777079743,419.68777079743,619.68777079743,780.31222920257,0,4,0,0,vertical,vertical,horizontal,vertical
2a,17,100277,3,6,70,21,F,NA,variable,homogeneous,4,absent,0.774176836013794,1,horizontal,horizontal,1,2,green,3,NaN,619.68777079743,419.68777079743,NaN,NaN,980.31222920257,780.31222920257,980.31222920257,419.68777079743,619.68777079743,419.68777079743,619.68777079743,780.31222920257,0,0,4,0,vertical,horizontal,horizontal,horizontal
2a,17,100277,3,7,71,21,F,NA,variable,homogeneous,4,present,0.749484062194824,0,horizontal,vertical,1,2,red,1,4,980.31222920257,780.31222920257,619.68777079743,780.31222920257,980.31222920257,780.31222920257,980.31222920257,419.68777079743,619.68777079743,419.68777079743,619.68777079743,780.31222920257,4,0,0,0,horizontal,horizontal,horizontal,vertical
2a,17,100277,3,8,72,21,F,NA,variable,homogeneous,4,absent,0.764963865280151,1,vertical,vertical,1,2,red,4,NaN,619.68777079743,780.31222920257,NaN,NaN,980.31222920257,780.31222920257,980.31222920257,419.68777079743,619.68777079743,419.68777079743,619.68777079743,780.31222920257,0,0,0,4,horizontal,horizontal,horizontal,vertical
2a,17,100277,3,9,73,21,F,NA,variable,homogeneous,4,absent,0.708513021469116,1,vertical,vertical,1,2,red,4,NaN,619.68777079743,780.31222920257,NaN,NaN,980.31222920257,780.31222920257,980.31222920257,419.68777079743,619.68777079743,419.68777079743,619.68777079743,780.31222920257,0,0,0,4,horizontal,vertical,vertical,vertical
2a,17,100277,3,10,74,21,F,NA,variable,homogeneous,4,absent,0.742837905883789,1,vertical,vertical,1,2,red,4,NaN,619.68777079743,780.31222920257,NaN,NaN,980.31222920257,780.31222920257,980.31222920257,419.68777079743,619.68777079743,419.68777079743,619.68777079743,780.31222920257,0,0,0,4,vertical,horizontal,horizontal,vertical
2a,17,100277,3,11,75,21,F,NA,variable,homogeneous,4,present,0.901587963104248,1,vertical,vertical,1,2,green,2,1,980.31222920257,419.68777079743,980.31222920257,780.31222920257,980.31222920257,780.31222920257,980.31222920257,419.68777079743,619.68777079743,419.68777079743,619.68777079743,780.31222920257,0,4,0,0,horizontal,vertical,vertical,horizontal
2a,17,100277,3,12,76,21,F,NA,variable,homogeneous,4,present,0.700286149978638,1,horizontal,horizontal,1,2,red,2,1,980.31222920257,419.68777079743,980.31222920257,780.31222920257,980.31222920257,780.31222920257,980.31222920257,419.68777079743,619.68777079743,419.68777079743,619.68777079743,780.31222920257,0,4,0,0,horizontal,horizontal,horizontal,horizontal
2a,17,100277,3,13,77,21,F,NA,variable,homogeneous,4,present,0.617910861968994,1,vertical,vertical,1,2,green,4,3,619.68777079743,780.31222920257,619.68777079743,419.68777079743,980.31222920257,780.31222920257,980.31222920257,419.68777079743,619.68777079743,419.68777079743,619.68777079743,780.31222920257,0,0,0,4,horizontal,vertical,horizontal,vertical
2a,17,100277,3,14,78,21,F,NA,variable,homogeneous,4,absent,0.778691053390503,1,vertical,vertical,1,2,green,4,NaN,619.68777079743,780.31222920257,NaN,NaN,980.31222920257,780.31222920257,980.31222920257,419.68777079743,619.68777079743,419.68777079743,619.68777079743,780.31222920257,0,0,0,4,vertical,horizontal,horizontal,vertical
2a,17,100277,3,15,79,21,F,NA,variable,homogeneous,4,absent,0.598616123199463,1,horizontal,horizontal,1,2,red,2,NaN,980.31222920257,419.68777079743,NaN,NaN,980.31222920257,780.31222920257,980.31222920257,419.68777079743,619.68777079743,419.68777079743,619.68777079743,780.31222920257,0,4,0,0,horizontal,horizontal,vertical,vertical
2a,17,100277,3,16,80,21,F,NA,variable,homogeneous,4,present,0.690846920013428,1,horizontal,horizontal,1,2,green,2,3,980.31222920257,419.68777079743,619.68777079743,419.68777079743,980.31222920257,780.31222920257,980.31222920257,419.68777079743,619.68777079743,419.68777079743,619.68777079743,780.31222920257,0,4,0,0,vertical,horizontal,horizontal,horizontal
2a,17,100277,3,17,81,21,F,NA,variable,homogeneous,4,absent,0.620429039001465,1,horizontal,horizontal,1,2,green,3,NaN,619.68777079743,419.68777079743,NaN,NaN,980.31222920257,780.31222920257,980.31222920257,419.68777079743,619.68777079743,419.68777079743,619.68777079743,780.31222920257,0,0,4,0,vertical,vertical,horizontal,vertical
2a,17,100277,3,18,82,21,F,NA,variable,homogeneous,4,present,0.717039108276367,1,vertical,vertical,1,2,green,3,1,619.68777079743,419.68777079743,980.31222920257,780.31222920257,980.31222920257,780.31222920257,980.31222920257,419.68777079743,619.68777079743,419.68777079743,619.68777079743,780.31222920257,0,0,4,0,horizontal,vertical,vertical,horizontal
2a,17,100277,3,19,83,21,F,NA,variable,homogeneous,4,absent,1.66772890090942,1,vertical,vertical,1,2,green,1,NaN,980.31222920257,780.31222920257,NaN,NaN,980.31222920257,780.31222920257,980.31222920257,419.68777079743,619.68777079743,419.68777079743,619.68777079743,780.31222920257,4,0,0,0,vertical,vertical,horizontal,horizontal
2a,17,100277,3,20,84,21,F,NA,variable,homogeneous,4,absent,0.541056156158447,1,vertical,vertical,1,2,green,3,NaN,619.68777079743,419.68777079743,NaN,NaN,980.31222920257,780.31222920257,980.31222920257,419.68777079743,619.68777079743,419.68777079743,619.68777079743,780.31222920257,0,0,4,0,vertical,vertical,vertical,vertical
2a,17,100277,3,21,85,21,F,NA,variable,homogeneous,4,present,0.708371877670288,1,vertical,vertical,1,2,green,4,3,619.68777079743,780.31222920257,619.68777079743,419.68777079743,980.31222920257,780.31222920257,980.31222920257,419.68777079743,619.68777079743,419.68777079743,619.68777079743,780.31222920257,0,0,0,4,vertical,horizontal,horizontal,vertical
2a,17,100277,3,22,86,21,F,NA,variable,homogeneous,4,present,0.902928829193115,1,horizontal,horizontal,1,2,red,4,2,619.68777079743,780.31222920257,980.31222920257,419.68777079743,980.31222920257,780.31222920257,980.31222920257,419.68777079743,619.68777079743,419.68777079743,619.68777079743,780.31222920257,0,0,0,4,vertical,horizontal,vertical,horizontal
2a,17,100277,3,23,87,21,F,NA,variable,homogeneous,4,absent,0.781003952026367,1,horizontal,horizontal,1,2,green,1,NaN,980.31222920257,780.31222920257,NaN,NaN,980.31222920257,780.31222920257,980.31222920257,419.68777079743,619.68777079743,419.68777079743,619.68777079743,780.31222920257,4,0,0,0,horizontal,horizontal,horizontal,horizontal
2a,17,100277,3,24,88,21,F,NA,variable,homogeneous,4,present,0.79249382019043,1,horizontal,horizontal,1,2,red,2,4,980.31222920257,419.68777079743,619.68777079743,780.31222920257,980.31222920257,780.31222920257,980.31222920257,419.68777079743,619.68777079743,419.68777079743,619.68777079743,780.31222920257,0,4,0,0,vertical,horizontal,horizontal,horizontal
2a,17,100277,3,25,89,21,F,NA,variable,homogeneous,4,present,0.569066047668457,1,horizontal,horizontal,1,2,green,4,1,619.68777079743,780.31222920257,980.31222920257,780.31222920257,980.31222920257,780.31222920257,980.31222920257,419.68777079743,619.68777079743,419.68777079743,619.68777079743,780.31222920257,0,0,0,4,vertical,vertical,vertical,horizontal
2a,17,100277,3,26,90,21,F,NA,variable,homogeneous,4,present,0.936210870742798,1,vertical,vertical,1,2,red,3,4,619.68777079743,419.68777079743,619.68777079743,780.31222920257,980.31222920257,780.31222920257,980.31222920257,419.68777079743,619.68777079743,419.68777079743,619.68777079743,780.31222920257,0,0,4,0,vertical,vertical,vertical,vertical
2a,17,100277,3,27,91,21,F,NA,variable,homogeneous,4,present,0.763302087783813,1,vertical,vertical,1,2,red,3,1,619.68777079743,419.68777079743,980.31222920257,780.31222920257,980.31222920257,780.31222920257,980.31222920257,419.68777079743,619.68777079743,419.68777079743,619.68777079743,780.31222920257,0,0,4,0,horizontal,horizontal,vertical,vertical
2a,17,100277,3,28,92,21,F,NA,variable,homogeneous,4,absent,0.787045955657959,1,vertical,vertical,1,2,red,2,NaN,980.31222920257,419.68777079743,NaN,NaN,980.31222920257,780.31222920257,980.31222920257,419.68777079743,619.68777079743,419.68777079743,619.68777079743,780.31222920257,0,4,0,0,vertical,vertical,vertical,horizontal
2a,17,100277,3,29,93,21,F,NA,variable,homogeneous,4,present,0.594671010971069,1,vertical,vertical,1,2,green,2,4,980.31222920257,419.68777079743,619.68777079743,780.31222920257,980.31222920257,780.31222920257,980.31222920257,419.68777079743,619.68777079743,419.68777079743,619.68777079743,780.31222920257,0,4,0,0,horizontal,vertical,vertical,vertical
2a,17,100277,3,30,94,21,F,NA,variable,homogeneous,4,absent,0.730966091156006,1,horizontal,horizontal,1,2,red,2,NaN,980.31222920257,419.68777079743,NaN,NaN,980.31222920257,780.31222920257,980.31222920257,419.68777079743,619.68777079743,419.68777079743,619.68777079743,780.31222920257,0,4,0,0,horizontal,horizontal,vertical,horizontal
2a,17,100277,3,31,95,21,F,NA,variable,homogeneous,4,absent,0.549717903137207,1,horizontal,horizontal,1,2,red,2,NaN,980.31222920257,419.68777079743,NaN,NaN,980.31222920257,780.31222920257,980.31222920257,419.68777079743,619.68777079743,419.68777079743,619.68777079743,780.31222920257,0,4,0,0,vertical,horizontal,vertical,vertical
2a,17,100277,3,32,96,21,F,NA,variable,homogeneous,4,present,0.940603971481323,1,horizontal,horizontal,1,2,green,1,3,980.31222920257,780.31222920257,619.68777079743,419.68777079743,980.31222920257,780.31222920257,980.31222920257,419.68777079743,619.68777079743,419.68777079743,619.68777079743,780.31222920257,4,0,0,0,horizontal,horizontal,vertical,vertical
2a,17,100277,4,1,97,21,F,NA,variable,homogeneous,4,present,1.59455490112305,1,vertical,vertical,1,2,green,3,2,619.68777079743,419.68777079743,980.31222920257,419.68777079743,980.31222920257,780.31222920257,980.31222920257,419.68777079743,619.68777079743,419.68777079743,619.68777079743,780.31222920257,0,0,4,0,horizontal,vertical,vertical,horizontal
2a,17,100277,4,2,98,21,F,NA,variable,homogeneous,4,absent,0.730890035629272,1,vertical,vertical,1,2,red,3,NaN,619.68777079743,419.68777079743,NaN,NaN,980.31222920257,780.31222920257,980.31222920257,419.68777079743,619.68777079743,419.68777079743,619.68777079743,780.31222920257,0,0,4,0,horizontal,horizontal,vertical,vertical
2a,17,100277,4,3,99,21,F,NA,variable,homogeneous,4,absent,0.965379953384399,0,vertical,horizontal,1,2,red,2,NaN,980.31222920257,419.68777079743,NaN,NaN,980.31222920257,780.31222920257,980.31222920257,419.68777079743,619.68777079743,419.68777079743,619.68777079743,780.31222920257,0,4,0,0,vertical,vertical,horizontal,horizontal
2a,17,100277,4,4,100,21,F,NA,variable,homogeneous,4,present,0.900846004486084,1,vertical,vertical,1,2,red,3,4,619.68777079743,419.68777079743,619.68777079743,780.31222920257,980.31222920257,780.31222920257,980.31222920257,419.68777079743,619.68777079743,419.68777079743,619.68777079743,780.31222920257,0,0,4,0,horizontal,vertical,vertical,vertical
2a,17,100277,4,5,101,21,F,NA,variable,homogeneous,4,present,0.523148059844971,1,vertical,vertical,1,2,red,3,4,619.68777079743,419.68777079743,619.68777079743,780.31222920257,980.31222920257,780.31222920257,980.31222920257,419.68777079743,619.68777079743,419.68777079743,619.68777079743,780.31222920257,0,0,4,0,horizontal,vertical,vertical,horizontal
2a,17,100277,4,6,102,21,F,NA,variable,homogeneous,4,absent,0.601766109466553,1,vertical,vertical,1,2,green,3,NaN,619.68777079743,419.68777079743,NaN,NaN,980.31222920257,780.31222920257,980.31222920257,419.68777079743,619.68777079743,419.68777079743,619.68777079743,780.31222920257,0,0,4,0,vertical,vertical,vertical,vertical
2a,17,100277,4,7,103,21,F,NA,variable,homogeneous,4,absent,0.613893985748291,1,horizontal,horizontal,1,2,red,3,NaN,619.68777079743,419.68777079743,NaN,NaN,980.31222920257,780.31222920257,980.31222920257,419.68777079743,619.68777079743,419.68777079743,619.68777079743,780.31222920257,0,0,4,0,vertical,vertical,horizontal,vertical
2a,17,100277,4,8,104,21,F,NA,variable,homogeneous,4,present,0.790699005126953,1,horizontal,horizontal,1,2,red,2,1,980.31222920257,419.68777079743,980.31222920257,780.31222920257,980.31222920257,780.31222920257,980.31222920257,419.68777079743,619.68777079743,419.68777079743,619.68777079743,780.31222920257,0,4,0,0,vertical,horizontal,horizontal,vertical
2a,17,100277,4,9,105,21,F,NA,variable,homogeneous,4,absent,0.646614074707031,1,horizontal,horizontal,1,2,red,1,NaN,980.31222920257,780.31222920257,NaN,NaN,980.31222920257,780.31222920257,980.31222920257,419.68777079743,619.68777079743,419.68777079743,619.68777079743,780.31222920257,4,0,0,0,horizontal,vertical,horizontal,horizontal
2a,17,100277,4,10,106,21,F,NA,variable,homogeneous,4,absent,0.739894866943359,1,horizontal,horizontal,1,2,green,2,NaN,980.31222920257,419.68777079743,NaN,NaN,980.31222920257,780.31222920257,980.31222920257,419.68777079743,619.68777079743,419.68777079743,619.68777079743,780.31222920257,0,4,0,0,horizontal,horizontal,horizontal,horizontal
2a,17,100277,4,11,107,21,F,NA,variable,homogeneous,4,absent,0.787145137786865,1,vertical,vertical,1,2,red,2,NaN,980.31222920257,419.68777079743,NaN,NaN,980.31222920257,780.31222920257,980.31222920257,419.68777079743,619.68777079743,419.68777079743,619.68777079743,780.31222920257,0,4,0,0,vertical,vertical,vertical,horizontal
2a,17,100277,4,12,108,21,F,NA,variable,homogeneous,4,present,0.707190990447998,1,vertical,vertical,1,2,green,3,1,619.68777079743,419.68777079743,980.31222920257,780.31222920257,980.31222920257,780.31222920257,980.31222920257,419.68777079743,619.68777079743,419.68777079743,619.68777079743,780.31222920257,0,0,4,0,horizontal,vertical,vertical,horizontal
2a,17,100277,4,13,109,21,F,NA,variable,homogeneous,4,present,0.997454881668091,1,vertical,vertical,1,2,red,4,3,619.68777079743,780.31222920257,619.68777079743,419.68777079743,980.31222920257,780.31222920257,980.31222920257,419.68777079743,619.68777079743,419.68777079743,619.68777079743,780.31222920257,0,0,0,4,horizontal,horizontal,vertical,vertical
2a,17,100277,4,14,110,21,F,NA,variable,homogeneous,4,absent,0.877416133880615,1,vertical,vertical,1,2,red,3,NaN,619.68777079743,419.68777079743,NaN,NaN,980.31222920257,780.31222920257,980.31222920257,419.68777079743,619.68777079743,419.68777079743,619.68777079743,780.31222920257,0,0,4,0,horizontal,horizontal,vertical,horizontal
2a,17,100277,4,15,111,21,F,NA,variable,homogeneous,4,present,0.651187181472778,1,horizontal,horizontal,1,2,green,2,3,980.31222920257,419.68777079743,619.68777079743,419.68777079743,980.31222920257,780.31222920257,980.31222920257,419.68777079743,619.68777079743,419.68777079743,619.68777079743,780.31222920257,0,4,0,0,horizontal,horizontal,vertical,vertical
2a,17,100277,4,16,112,21,F,NA,variable,homogeneous,4,present,0.808306217193604,0,vertical,horizontal,1,2,green,2,1,980.31222920257,419.68777079743,980.31222920257,780.31222920257,980.31222920257,780.31222920257,980.31222920257,419.68777079743,619.68777079743,419.68777079743,619.68777079743,780.31222920257,0,4,0,0,vertical,vertical,vertical,vertical
2a,17,100277,4,17,113,21,F,NA,variable,homogeneous,4,absent,0.924582004547119,1,horizontal,horizontal,1,2,red,3,NaN,619.68777079743,419.68777079743,NaN,NaN,980.31222920257,780.31222920257,980.31222920257,419.68777079743,619.68777079743,419.68777079743,619.68777079743,780.31222920257,0,0,4,0,horizontal,horizontal,horizontal,vertical
2a,17,100277,4,18,114,21,F,NA,variable,homogeneous,4,present,0.907585859298706,1,vertical,vertical,1,2,red,1,2,980.31222920257,780.31222920257,980.31222920257,419.68777079743,980.31222920257,780.31222920257,980.31222920257,419.68777079743,619.68777079743,419.68777079743,619.68777079743,780.31222920257,4,0,0,0,vertical,horizontal,vertical,vertical
2a,17,100277,4,19,115,21,F,NA,variable,homogeneous,4,present,0.677973031997681,1,horizontal,horizontal,1,2,green,3,4,619.68777079743,419.68777079743,619.68777079743,780.31222920257,980.31222920257,780.31222920257,980.31222920257,419.68777079743,619.68777079743,419.68777079743,619.68777079743,780.31222920257,0,0,4,0,horizontal,vertical,horizontal,horizontal
2a,17,100277,4,20,116,21,F,NA,variable,homogeneous,4,absent,0.715317010879517,1,horizontal,horizontal,1,2,green,4,NaN,619.68777079743,780.31222920257,NaN,NaN,980.31222920257,780.31222920257,980.31222920257,419.68777079743,619.68777079743,419.68777079743,619.68777079743,780.31222920257,0,0,0,4,horizontal,horizontal,horizontal,horizontal
2a,17,100277,4,21,117,21,F,NA,variable,homogeneous,4,absent,0.861922979354858,1,vertical,vertical,1,2,red,4,NaN,619.68777079743,780.31222920257,NaN,NaN,980.31222920257,780.31222920257,980.31222920257,419.68777079743,619.68777079743,419.68777079743,619.68777079743,780.31222920257,0,0,0,4,vertical,horizontal,horizontal,vertical
2a,17,100277,4,22,118,21,F,NA,variable,homogeneous,4,absent,0.743376016616821,1,horizontal,horizontal,1,2,green,2,NaN,980.31222920257,419.68777079743,NaN,NaN,980.31222920257,780.31222920257,980.31222920257,419.68777079743,619.68777079743,419.68777079743,619.68777079743,780.31222920257,0,4,0,0,horizontal,horizontal,vertical,horizontal
2a,17,100277,4,23,119,21,F,NA,variable,homogeneous,4,absent,0.93449592590332,0,vertical,horizontal,1,2,red,1,NaN,980.31222920257,780.31222920257,NaN,NaN,980.31222920257,780.31222920257,980.31222920257,419.68777079743,619.68777079743,419.68777079743,619.68777079743,780.31222920257,4,0,0,0,vertical,horizontal,horizontal,horizontal
2a,17,100277,4,24,120,21,F,NA,variable,homogeneous,4,present,0.585462093353271,1,horizontal,horizontal,1,2,green,3,1,619.68777079743,419.68777079743,980.31222920257,780.31222920257,980.31222920257,780.31222920257,980.31222920257,419.68777079743,619.68777079743,419.68777079743,619.68777079743,780.31222920257,0,0,4,0,horizontal,horizontal,horizontal,horizontal
2a,17,100277,4,25,121,21,F,NA,variable,homogeneous,4,present,0.796875953674316,1,horizontal,horizontal,1,2,red,1,4,980.31222920257,780.31222920257,619.68777079743,780.31222920257,980.31222920257,780.31222920257,980.31222920257,419.68777079743,619.68777079743,419.68777079743,619.68777079743,780.31222920257,4,0,0,0,horizontal,horizontal,horizontal,horizontal
2a,17,100277,4,26,122,21,F,NA,variable,homogeneous,4,absent,0.829047918319702,1,vertical,vertical,1,2,red,4,NaN,619.68777079743,780.31222920257,NaN,NaN,980.31222920257,780.31222920257,980.31222920257,419.68777079743,619.68777079743,419.68777079743,619.68777079743,780.31222920257,0,0,0,4,horizontal,vertical,vertical,vertical
2a,17,100277,4,27,123,21,F,NA,variable,homogeneous,4,absent,0.649694919586182,1,horizontal,horizontal,1,2,red,1,NaN,980.31222920257,780.31222920257,NaN,NaN,980.31222920257,780.31222920257,980.31222920257,419.68777079743,619.68777079743,419.68777079743,619.68777079743,780.31222920257,4,0,0,0,horizontal,horizontal,vertical,horizontal
2a,17,100277,4,28,124,21,F,NA,variable,homogeneous,4,present,0.775202989578247,1,horizontal,horizontal,1,2,green,1,2,980.31222920257,780.31222920257,980.31222920257,419.68777079743,980.31222920257,780.31222920257,980.31222920257,419.68777079743,619.68777079743,419.68777079743,619.68777079743,780.31222920257,4,0,0,0,horizontal,vertical,horizontal,vertical
2a,17,100277,4,29,125,21,F,NA,variable,homogeneous,4,present,0.995038986206055,1,horizontal,horizontal,1,2,red,4,1,619.68777079743,780.31222920257,980.31222920257,780.31222920257,980.31222920257,780.31222920257,980.31222920257,419.68777079743,619.68777079743,419.68777079743,619.68777079743,780.31222920257,0,0,0,4,horizontal,horizontal,vertical,horizontal
2a,17,100277,4,30,126,21,F,NA,variable,homogeneous,4,present,0.666943073272705,1,vertical,vertical,1,2,green,4,2,619.68777079743,780.31222920257,980.31222920257,419.68777079743,980.31222920257,780.31222920257,980.31222920257,419.68777079743,619.68777079743,419.68777079743,619.68777079743,780.31222920257,0,0,0,4,vertical,vertical,vertical,vertical
2a,17,100277,4,31,127,21,F,NA,variable,homogeneous,4,present,0.636495113372803,1,horizontal,horizontal,1,2,red,4,3,619.68777079743,780.31222920257,619.68777079743,419.68777079743,980.31222920257,780.31222920257,980.31222920257,419.68777079743,619.68777079743,419.68777079743,619.68777079743,780.31222920257,0,0,0,4,horizontal,horizontal,horizontal,horizontal
2a,17,100277,4,32,128,21,F,NA,variable,homogeneous,4,absent,1.22149085998535,1,horizontal,horizontal,1,2,red,1,NaN,980.31222920257,780.31222920257,NaN,NaN,980.31222920257,780.31222920257,980.31222920257,419.68777079743,619.68777079743,419.68777079743,619.68777079743,780.31222920257,4,0,0,0,horizontal,horizontal,horizontal,horizontal
2a,17,100277,5,1,129,21,F,NA,variable,homogeneous,4,absent,0.633350133895874,1,horizontal,horizontal,1,2,red,4,NaN,619.68777079743,780.31222920257,NaN,NaN,980.31222920257,780.31222920257,980.31222920257,419.68777079743,619.68777079743,419.68777079743,619.68777079743,780.31222920257,0,0,0,4,horizontal,horizontal,vertical,horizontal
2a,17,100277,5,2,130,21,F,NA,variable,homogeneous,4,present,0.621917009353638,1,horizontal,horizontal,1,2,red,3,1,619.68777079743,419.68777079743,980.31222920257,780.31222920257,980.31222920257,780.31222920257,980.31222920257,419.68777079743,619.68777079743,419.68777079743,619.68777079743,780.31222920257,0,0,4,0,horizontal,horizontal,horizontal,horizontal
2a,17,100277,5,3,131,21,F,NA,variable,homogeneous,4,present,0.706870079040527,1,horizontal,horizontal,1,2,green,3,2,619.68777079743,419.68777079743,980.31222920257,419.68777079743,980.31222920257,780.31222920257,980.31222920257,419.68777079743,619.68777079743,419.68777079743,619.68777079743,780.31222920257,0,0,4,0,horizontal,vertical,horizontal,vertical
2a,17,100277,5,4,132,21,F,NA,variable,homogeneous,4,absent,0.580958127975464,1,vertical,vertical,1,2,green,3,NaN,619.68777079743,419.68777079743,NaN,NaN,980.31222920257,780.31222920257,980.31222920257,419.68777079743,619.68777079743,419.68777079743,619.68777079743,780.31222920257,0,0,4,0,horizontal,horizontal,vertical,horizontal
2a,17,100277,5,5,133,21,F,NA,variable,homogeneous,4,present,1.09671211242676,0,horizontal,vertical,1,2,red,2,1,980.31222920257,419.68777079743,980.31222920257,780.31222920257,980.31222920257,780.31222920257,980.31222920257,419.68777079743,619.68777079743,419.68777079743,619.68777079743,780.31222920257,0,4,0,0,horizontal,horizontal,vertical,vertical
2a,17,100277,5,6,134,21,F,NA,variable,homogeneous,4,present,0.77505087852478,1,horizontal,horizontal,1,2,red,2,1,980.31222920257,419.68777079743,980.31222920257,780.31222920257,980.31222920257,780.31222920257,980.31222920257,419.68777079743,619.68777079743,419.68777079743,619.68777079743,780.31222920257,0,4,0,0,horizontal,horizontal,horizontal,vertical
2a,17,100277,5,7,135,21,F,NA,variable,homogeneous,4,present,0.819042205810547,1,vertical,vertical,1,2,red,1,3,980.31222920257,780.31222920257,619.68777079743,419.68777079743,980.31222920257,780.31222920257,980.31222920257,419.68777079743,619.68777079743,419.68777079743,619.68777079743,780.31222920257,4,0,0,0,vertical,vertical,horizontal,vertical
2a,17,100277,5,8,136,21,F,NA,variable,homogeneous,4,absent,0.843346118927002,1,vertical,vertical,1,2,green,2,NaN,980.31222920257,419.68777079743,NaN,NaN,980.31222920257,780.31222920257,980.31222920257,419.68777079743,619.68777079743,419.68777079743,619.68777079743,780.31222920257,0,4,0,0,vertical,vertical,horizontal,vertical
2a,17,100277,5,9,137,21,F,NA,variable,homogeneous,4,absent,1.13223791122437,1,horizontal,horizontal,1,2,green,3,NaN,619.68777079743,419.68777079743,NaN,NaN,980.31222920257,780.31222920257,980.31222920257,419.68777079743,619.68777079743,419.68777079743,619.68777079743,780.31222920257,0,0,4,0,vertical,horizontal,horizontal,horizontal
2a,17,100277,5,10,138,21,F,NA,variable,homogeneous,4,absent,1.11104202270508,1,vertical,vertical,1,2,red,4,NaN,619.68777079743,780.31222920257,NaN,NaN,980.31222920257,780.31222920257,980.31222920257,419.68777079743,619.68777079743,419.68777079743,619.68777079743,780.31222920257,0,0,0,4,vertical,horizontal,vertical,vertical
2a,17,100277,5,11,139,21,F,NA,variable,homogeneous,4,absent,1.09776902198792,1,horizontal,horizontal,1,2,red,1,NaN,980.31222920257,780.31222920257,NaN,NaN,980.31222920257,780.31222920257,980.31222920257,419.68777079743,619.68777079743,419.68777079743,619.68777079743,780.31222920257,4,0,0,0,horizontal,horizontal,horizontal,vertical
2a,17,100277,5,12,140,21,F,NA,variable,homogeneous,4,present,1.15995693206787,1,vertical,vertical,1,2,green,3,1,619.68777079743,419.68777079743,980.31222920257,780.31222920257,980.31222920257,780.31222920257,980.31222920257,419.68777079743,619.68777079743,419.68777079743,619.68777079743,780.31222920257,0,0,4,0,horizontal,horizontal,vertical,horizontal
2a,17,100277,5,13,141,21,F,NA,variable,homogeneous,4,present,0.875222206115723,1,horizontal,horizontal,1,2,green,3,1,619.68777079743,419.68777079743,980.31222920257,780.31222920257,980.31222920257,780.31222920257,980.31222920257,419.68777079743,619.68777079743,419.68777079743,619.68777079743,780.31222920257,0,0,4,0,horizontal,horizontal,horizontal,horizontal
2a,17,100277,5,14,142,21,F,NA,variable,homogeneous,4,present,0.856826782226562,1,horizontal,horizontal,1,2,red,2,1,980.31222920257,419.68777079743,980.31222920257,780.31222920257,980.31222920257,780.31222920257,980.31222920257,419.68777079743,619.68777079743,419.68777079743,619.68777079743,780.31222920257,0,4,0,0,vertical,horizontal,vertical,vertical
2a,17,100277,5,15,143,21,F,NA,variable,homogeneous,4,absent,0.526045799255371,1,horizontal,horizontal,1,2,red,3,NaN,619.68777079743,419.68777079743,NaN,NaN,980.31222920257,780.31222920257,980.31222920257,419.68777079743,619.68777079743,419.68777079743,619.68777079743,780.31222920257,0,0,4,0,vertical,horizontal,horizontal,vertical
2a,17,100277,5,16,144,21,F,NA,variable,homogeneous,4,absent,0.652914047241211,1,vertical,vertical,1,2,red,1,NaN,980.31222920257,780.31222920257,NaN,NaN,980.31222920257,780.31222920257,980.31222920257,419.68777079743,619.68777079743,419.68777079743,619.68777079743,780.31222920257,4,0,0,0,vertical,horizontal,horizontal,horizontal
2a,17,100277,5,17,145,21,F,NA,variable,homogeneous,4,present,0.93796181678772,1,vertical,vertical,1,2,red,1,3,980.31222920257,780.31222920257,619.68777079743,419.68777079743,980.31222920257,780.31222920257,980.31222920257,419.68777079743,619.68777079743,419.68777079743,619.68777079743,780.31222920257,4,0,0,0,vertical,vertical,horizontal,horizontal
2a,17,100277,5,18,146,21,F,NA,variable,homogeneous,4,absent,0.796983003616333,1,vertical,vertical,1,2,green,1,NaN,980.31222920257,780.31222920257,NaN,NaN,980.31222920257,780.31222920257,980.31222920257,419.68777079743,619.68777079743,419.68777079743,619.68777079743,780.31222920257,4,0,0,0,vertical,horizontal,vertical,horizontal
2a,17,100277,5,19,147,21,F,NA,variable,homogeneous,4,present,0.636687994003296,1,horizontal,horizontal,1,2,green,3,4,619.68777079743,419.68777079743,619.68777079743,780.31222920257,980.31222920257,780.31222920257,980.31222920257,419.68777079743,619.68777079743,419.68777079743,619.68777079743,780.31222920257,0,0,4,0,horizontal,horizontal,horizontal,horizontal
2a,17,100277,5,20,148,21,F,NA,variable,homogeneous,4,present,0.806073904037476,1,vertical,vertical,1,2,red,1,2,980.31222920257,780.31222920257,980.31222920257,419.68777079743,980.31222920257,780.31222920257,980.31222920257,419.68777079743,619.68777079743,419.68777079743,619.68777079743,780.31222920257,4,0,0,0,vertical,horizontal,horizontal,horizontal
2a,17,100277,5,21,149,21,F,NA,variable,homogeneous,4,present,0.778240919113159,1,vertical,vertical,1,2,green,4,3,619.68777079743,780.31222920257,619.68777079743,419.68777079743,980.31222920257,780.31222920257,980.31222920257,419.68777079743,619.68777079743,419.68777079743,619.68777079743,780.31222920257,0,0,0,4,horizontal,horizontal,horizontal,vertical
2a,17,100277,5,22,150,21,F,NA,variable,homogeneous,4,present,0.565857172012329,1,vertical,vertical,1,2,green,3,1,619.68777079743,419.68777079743,980.31222920257,780.31222920257,980.31222920257,780.31222920257,980.31222920257,419.68777079743,619.68777079743,419.68777079743,619.68777079743,780.31222920257,0,0,4,0,horizontal,vertical,vertical,vertical
2a,17,100277,5,23,151,21,F,NA,variable,homogeneous,4,present,0.613339185714722,1,vertical,vertical,1,2,red,4,1,619.68777079743,780.31222920257,980.31222920257,780.31222920257,980.31222920257,780.31222920257,980.31222920257,419.68777079743,619.68777079743,419.68777079743,619.68777079743,780.31222920257,0,0,0,4,vertical,horizontal,vertical,vertical
2a,17,100277,5,24,152,21,F,NA,variable,homogeneous,4,absent,0.549942016601562,1,vertical,vertical,1,2,green,1,NaN,980.31222920257,780.31222920257,NaN,NaN,980.31222920257,780.31222920257,980.31222920257,419.68777079743,619.68777079743,419.68777079743,619.68777079743,780.31222920257,4,0,0,0,vertical,horizontal,vertical,vertical
2a,17,100277,5,25,153,21,F,NA,variable,homogeneous,4,absent,0.509185075759888,1,vertical,vertical,1,2,green,3,NaN,619.68777079743,419.68777079743,NaN,NaN,980.31222920257,780.31222920257,980.31222920257,419.68777079743,619.68777079743,419.68777079743,619.68777079743,780.31222920257,0,0,4,0,vertical,vertical,vertical,vertical
2a,17,100277,5,26,154,21,F,NA,variable,homogeneous,4,present,0.983566045761108,1,vertical,vertical,1,2,red,3,1,619.68777079743,419.68777079743,980.31222920257,780.31222920257,980.31222920257,780.31222920257,980.31222920257,419.68777079743,619.68777079743,419.68777079743,619.68777079743,780.31222920257,0,0,4,0,horizontal,horizontal,vertical,horizontal
2a,17,100277,5,27,155,21,F,NA,variable,homogeneous,4,absent,0.939328908920288,1,horizontal,horizontal,1,2,green,2,NaN,980.31222920257,419.68777079743,NaN,NaN,980.31222920257,780.31222920257,980.31222920257,419.68777079743,619.68777079743,419.68777079743,619.68777079743,780.31222920257,0,4,0,0,vertical,horizontal,horizontal,horizontal
2a,17,100277,5,28,156,21,F,NA,variable,homogeneous,4,present,0.638386964797974,1,horizontal,horizontal,1,2,red,2,1,980.31222920257,419.68777079743,980.31222920257,780.31222920257,980.31222920257,780.31222920257,980.31222920257,419.68777079743,619.68777079743,419.68777079743,619.68777079743,780.31222920257,0,4,0,0,vertical,horizontal,vertical,horizontal
2a,17,100277,5,29,157,21,F,NA,variable,homogeneous,4,absent,0.535310029983521,1,horizontal,horizontal,1,2,red,3,NaN,619.68777079743,419.68777079743,NaN,NaN,980.31222920257,780.31222920257,980.31222920257,419.68777079743,619.68777079743,419.68777079743,619.68777079743,780.31222920257,0,0,4,0,vertical,vertical,horizontal,horizontal
2a,17,100277,5,30,158,21,F,NA,variable,homogeneous,4,absent,0.890240907669067,1,horizontal,horizontal,1,2,green,4,NaN,619.68777079743,780.31222920257,NaN,NaN,980.31222920257,780.31222920257,980.31222920257,419.68777079743,619.68777079743,419.68777079743,619.68777079743,780.31222920257,0,0,0,4,vertical,vertical,horizontal,horizontal
2a,17,100277,5,31,159,21,F,NA,variable,homogeneous,4,absent,0.555896043777466,1,horizontal,horizontal,1,2,green,4,NaN,619.68777079743,780.31222920257,NaN,NaN,980.31222920257,780.31222920257,980.31222920257,419.68777079743,619.68777079743,419.68777079743,619.68777079743,780.31222920257,0,0,0,4,horizontal,horizontal,vertical,horizontal
2a,17,100277,5,32,160,21,F,NA,variable,homogeneous,4,absent,0.69535493850708,1,vertical,vertical,1,2,green,3,NaN,619.68777079743,419.68777079743,NaN,NaN,980.31222920257,780.31222920257,980.31222920257,419.68777079743,619.68777079743,419.68777079743,619.68777079743,780.31222920257,0,0,4,0,horizontal,horizontal,vertical,horizontal
2a,17,100277,6,1,161,21,F,NA,variable,homogeneous,4,present,0.843366146087646,1,vertical,vertical,1,2,green,2,1,980.31222920257,419.68777079743,980.31222920257,780.31222920257,980.31222920257,780.31222920257,980.31222920257,419.68777079743,619.68777079743,419.68777079743,619.68777079743,780.31222920257,0,4,0,0,horizontal,vertical,horizontal,vertical
2a,17,100277,6,2,162,21,F,NA,variable,homogeneous,4,absent,1.132169008255,1,vertical,vertical,1,2,green,4,NaN,619.68777079743,780.31222920257,NaN,NaN,980.31222920257,780.31222920257,980.31222920257,419.68777079743,619.68777079743,419.68777079743,619.68777079743,780.31222920257,0,0,0,4,vertical,horizontal,horizontal,vertical
2a,17,100277,6,3,163,21,F,NA,variable,homogeneous,4,present,0.87102198600769,1,vertical,vertical,1,2,red,1,2,980.31222920257,780.31222920257,980.31222920257,419.68777079743,980.31222920257,780.31222920257,980.31222920257,419.68777079743,619.68777079743,419.68777079743,619.68777079743,780.31222920257,4,0,0,0,vertical,horizontal,horizontal,horizontal
2a,17,100277,6,4,164,21,F,NA,variable,homogeneous,4,present,0.612987995147705,1,horizontal,horizontal,1,2,red,3,2,619.68777079743,419.68777079743,980.31222920257,419.68777079743,980.31222920257,780.31222920257,980.31222920257,419.68777079743,619.68777079743,419.68777079743,619.68777079743,780.31222920257,0,0,4,0,horizontal,vertical,horizontal,vertical
2a,17,100277,6,5,165,21,F,NA,variable,homogeneous,4,present,0.629396915435791,1,vertical,vertical,1,2,red,2,3,980.31222920257,419.68777079743,619.68777079743,419.68777079743,980.31222920257,780.31222920257,980.31222920257,419.68777079743,619.68777079743,419.68777079743,619.68777079743,780.31222920257,0,4,0,0,horizontal,vertical,vertical,vertical
2a,17,100277,6,6,166,21,F,NA,variable,homogeneous,4,present,0.698170900344849,1,horizontal,horizontal,1,2,green,1,2,980.31222920257,780.31222920257,980.31222920257,419.68777079743,980.31222920257,780.31222920257,980.31222920257,419.68777079743,619.68777079743,419.68777079743,619.68777079743,780.31222920257,4,0,0,0,horizontal,horizontal,vertical,vertical
2a,17,100277,6,7,167,21,F,NA,variable,homogeneous,4,absent,0.744096994400024,1,horizontal,horizontal,1,2,red,4,NaN,619.68777079743,780.31222920257,NaN,NaN,980.31222920257,780.31222920257,980.31222920257,419.68777079743,619.68777079743,419.68777079743,619.68777079743,780.31222920257,0,0,0,4,vertical,vertical,horizontal,horizontal
2a,17,100277,6,8,168,21,F,NA,variable,homogeneous,4,absent,0.551361083984375,1,horizontal,horizontal,1,2,red,3,NaN,619.68777079743,419.68777079743,NaN,NaN,980.31222920257,780.31222920257,980.31222920257,419.68777079743,619.68777079743,419.68777079743,619.68777079743,780.31222920257,0,0,4,0,vertical,horizontal,horizontal,horizontal
2a,17,100277,6,9,169,21,F,NA,variable,homogeneous,4,present,0.542306900024414,1,horizontal,horizontal,1,2,green,4,1,619.68777079743,780.31222920257,980.31222920257,780.31222920257,980.31222920257,780.31222920257,980.31222920257,419.68777079743,619.68777079743,419.68777079743,619.68777079743,780.31222920257,0,0,0,4,vertical,vertical,horizontal,horizontal
2a,17,100277,6,10,170,21,F,NA,variable,homogeneous,4,absent,0.629470109939575,1,horizontal,horizontal,1,2,red,2,NaN,980.31222920257,419.68777079743,NaN,NaN,980.31222920257,780.31222920257,980.31222920257,419.68777079743,619.68777079743,419.68777079743,619.68777079743,780.31222920257,0,4,0,0,vertical,horizontal,vertical,vertical
2a,17,100277,6,11,171,21,F,NA,variable,homogeneous,4,present,0.618353128433228,1,horizontal,horizontal,1,2,green,4,1,619.68777079743,780.31222920257,980.31222920257,780.31222920257,980.31222920257,780.31222920257,980.31222920257,419.68777079743,619.68777079743,419.68777079743,619.68777079743,780.31222920257,0,0,0,4,vertical,vertical,vertical,horizontal
2a,17,100277,6,12,172,21,F,NA,variable,homogeneous,4,present,1.05076289176941,1,horizontal,horizontal,1,2,red,4,3,619.68777079743,780.31222920257,619.68777079743,419.68777079743,980.31222920257,780.31222920257,980.31222920257,419.68777079743,619.68777079743,419.68777079743,619.68777079743,780.31222920257,0,0,0,4,horizontal,horizontal,vertical,horizontal
2a,17,100277,6,13,173,21,F,NA,variable,homogeneous,4,absent,0.584198951721191,1,vertical,vertical,1,2,red,3,NaN,619.68777079743,419.68777079743,NaN,NaN,980.31222920257,780.31222920257,980.31222920257,419.68777079743,619.68777079743,419.68777079743,619.68777079743,780.31222920257,0,0,4,0,vertical,horizontal,vertical,vertical
2a,17,100277,6,14,174,21,F,NA,variable,homogeneous,4,absent,0.635951042175293,1,vertical,vertical,1,2,green,4,NaN,619.68777079743,780.31222920257,NaN,NaN,980.31222920257,780.31222920257,980.31222920257,419.68777079743,619.68777079743,419.68777079743,619.68777079743,780.31222920257,0,0,0,4,vertical,vertical,vertical,vertical
2a,17,100277,6,15,175,21,F,NA,variable,homogeneous,4,absent,0.500739097595215,1,vertical,vertical,1,2,red,2,NaN,980.31222920257,419.68777079743,NaN,NaN,980.31222920257,780.31222920257,980.31222920257,419.68777079743,619.68777079743,419.68777079743,619.68777079743,780.31222920257,0,4,0,0,vertical,vertical,vertical,vertical
2a,17,100277,6,16,176,21,F,NA,variable,homogeneous,4,absent,0.683013200759888,1,horizontal,horizontal,1,2,green,2,NaN,980.31222920257,419.68777079743,NaN,NaN,980.31222920257,780.31222920257,980.31222920257,419.68777079743,619.68777079743,419.68777079743,619.68777079743,780.31222920257,0,4,0,0,horizontal,horizontal,horizontal,vertical
2a,17,100277,6,17,177,21,F,NA,variable,homogeneous,4,absent,0.596918106079102,1,vertical,vertical,1,2,green,3,NaN,619.68777079743,419.68777079743,NaN,NaN,980.31222920257,780.31222920257,980.31222920257,419.68777079743,619.68777079743,419.68777079743,619.68777079743,780.31222920257,0,0,4,0,vertical,horizontal,vertical,vertical
2a,17,100277,6,18,178,21,F,NA,variable,homogeneous,4,absent,0.556900978088379,1,horizontal,horizontal,1,2,green,2,NaN,980.31222920257,419.68777079743,NaN,NaN,980.31222920257,780.31222920257,980.31222920257,419.68777079743,619.68777079743,419.68777079743,619.68777079743,780.31222920257,0,4,0,0,horizontal,horizontal,horizontal,vertical
2a,17,100277,6,19,179,21,F,NA,variable,homogeneous,4,present,0.856175899505615,1,vertical,vertical,1,2,green,4,2,619.68777079743,780.31222920257,980.31222920257,419.68777079743,980.31222920257,780.31222920257,980.31222920257,419.68777079743,619.68777079743,419.68777079743,619.68777079743,780.31222920257,0,0,0,4,vertical,vertical,horizontal,vertical
2a,17,100277,6,20,180,21,F,NA,variable,homogeneous,4,absent,0.653280973434448,1,vertical,vertical,1,2,green,3,NaN,619.68777079743,419.68777079743,NaN,NaN,980.31222920257,780.31222920257,980.31222920257,419.68777079743,619.68777079743,419.68777079743,619.68777079743,780.31222920257,0,0,4,0,vertical,horizontal,vertical,horizontal
2a,17,100277,6,21,181,21,F,NA,variable,homogeneous,4,absent,0.538893938064575,1,vertical,vertical,1,2,green,2,NaN,980.31222920257,419.68777079743,NaN,NaN,980.31222920257,780.31222920257,980.31222920257,419.68777079743,619.68777079743,419.68777079743,619.68777079743,780.31222920257,0,4,0,0,vertical,vertical,horizontal,vertical
2a,17,100277,6,22,182,21,F,NA,variable,homogeneous,4,absent,0.605931043624878,1,vertical,vertical,1,2,red,1,NaN,980.31222920257,780.31222920257,NaN,NaN,980.31222920257,780.31222920257,980.31222920257,419.68777079743,619.68777079743,419.68777079743,619.68777079743,780.31222920257,4,0,0,0,vertical,vertical,horizontal,vertical
2a,17,100277,6,23,183,21,F,NA,variable,homogeneous,4,present,0.537828922271729,1,vertical,vertical,1,2,red,2,4,980.31222920257,419.68777079743,619.68777079743,780.31222920257,980.31222920257,780.31222920257,980.31222920257,419.68777079743,619.68777079743,419.68777079743,619.68777079743,780.31222920257,0,4,0,0,vertical,vertical,vertical,horizontal
2a,17,100277,6,24,184,21,F,NA,variable,homogeneous,4,absent,0.652880191802979,0,horizontal,vertical,1,2,green,1,NaN,980.31222920257,780.31222920257,NaN,NaN,980.31222920257,780.31222920257,980.31222920257,419.68777079743,619.68777079743,419.68777079743,619.68777079743,780.31222920257,4,0,0,0,horizontal,vertical,horizontal,horizontal
2a,17,100277,6,25,185,21,F,NA,variable,homogeneous,4,absent,0.874009847640991,1,horizontal,horizontal,1,2,red,2,NaN,980.31222920257,419.68777079743,NaN,NaN,980.31222920257,780.31222920257,980.31222920257,419.68777079743,619.68777079743,419.68777079743,619.68777079743,780.31222920257,0,4,0,0,vertical,horizontal,vertical,horizontal
2a,17,100277,6,26,186,21,F,NA,variable,homogeneous,4,present,0.599520921707153,1,horizontal,horizontal,1,2,green,2,1,980.31222920257,419.68777079743,980.31222920257,780.31222920257,980.31222920257,780.31222920257,980.31222920257,419.68777079743,619.68777079743,419.68777079743,619.68777079743,780.31222920257,0,4,0,0,vertical,horizontal,vertical,vertical
2a,17,100277,6,27,187,21,F,NA,variable,homogeneous,4,present,0.611828088760376,1,horizontal,horizontal,1,2,green,3,2,619.68777079743,419.68777079743,980.31222920257,419.68777079743,980.31222920257,780.31222920257,980.31222920257,419.68777079743,619.68777079743,419.68777079743,619.68777079743,780.31222920257,0,0,4,0,horizontal,vertical,horizontal,horizontal
2a,17,100277,6,28,188,21,F,NA,variable,homogeneous,4,present,0.644239902496338,1,vertical,vertical,1,2,green,4,3,619.68777079743,780.31222920257,619.68777079743,419.68777079743,980.31222920257,780.31222920257,980.31222920257,419.68777079743,619.68777079743,419.68777079743,619.68777079743,780.31222920257,0,0,0,4,vertical,vertical,vertical,vertical
2a,17,100277,6,29,189,21,F,NA,variable,homogeneous,4,present,0.893555879592896,1,horizontal,horizontal,1,2,red,3,4,619.68777079743,419.68777079743,619.68777079743,780.31222920257,980.31222920257,780.31222920257,980.31222920257,419.68777079743,619.68777079743,419.68777079743,619.68777079743,780.31222920257,0,0,4,0,vertical,vertical,horizontal,horizontal
2a,17,100277,6,30,190,21,F,NA,variable,homogeneous,4,present,0.771498918533325,1,vertical,vertical,1,2,green,2,3,980.31222920257,419.68777079743,619.68777079743,419.68777079743,980.31222920257,780.31222920257,980.31222920257,419.68777079743,619.68777079743,419.68777079743,619.68777079743,780.31222920257,0,4,0,0,vertical,vertical,horizontal,horizontal
2a,17,100277,6,31,191,21,F,NA,variable,homogeneous,4,present,0.779147148132324,1,vertical,vertical,1,2,green,2,1,980.31222920257,419.68777079743,980.31222920257,780.31222920257,980.31222920257,780.31222920257,980.31222920257,419.68777079743,619.68777079743,419.68777079743,619.68777079743,780.31222920257,0,4,0,0,vertical,vertical,vertical,vertical
2a,17,100277,6,32,192,21,F,NA,variable,homogeneous,4,absent,0.919169902801514,1,horizontal,horizontal,1,2,green,1,NaN,980.31222920257,780.31222920257,NaN,NaN,980.31222920257,780.31222920257,980.31222920257,419.68777079743,619.68777079743,419.68777079743,619.68777079743,780.31222920257,4,0,0,0,horizontal,horizontal,horizontal,horizontal
2a,17,100277,7,1,193,21,F,NA,variable,homogeneous,4,present,1.30630302429199,1,vertical,vertical,1,2,green,2,3,980.31222920257,419.68777079743,619.68777079743,419.68777079743,980.31222920257,780.31222920257,980.31222920257,419.68777079743,619.68777079743,419.68777079743,619.68777079743,780.31222920257,0,4,0,0,horizontal,vertical,vertical,vertical
2a,17,100277,7,2,194,21,F,NA,variable,homogeneous,4,present,0.596822023391724,1,horizontal,horizontal,1,2,red,2,3,980.31222920257,419.68777079743,619.68777079743,419.68777079743,980.31222920257,780.31222920257,980.31222920257,419.68777079743,619.68777079743,419.68777079743,619.68777079743,780.31222920257,0,4,0,0,vertical,horizontal,horizontal,horizontal
2a,17,100277,7,3,195,21,F,NA,variable,homogeneous,4,present,0.812971830368042,1,vertical,vertical,1,2,red,2,3,980.31222920257,419.68777079743,619.68777079743,419.68777079743,980.31222920257,780.31222920257,980.31222920257,419.68777079743,619.68777079743,419.68777079743,619.68777079743,780.31222920257,0,4,0,0,horizontal,vertical,horizontal,horizontal
2a,17,100277,7,4,196,21,F,NA,variable,homogeneous,4,absent,0.661478996276855,1,vertical,vertical,1,2,red,3,NaN,619.68777079743,419.68777079743,NaN,NaN,980.31222920257,780.31222920257,980.31222920257,419.68777079743,619.68777079743,419.68777079743,619.68777079743,780.31222920257,0,0,4,0,vertical,horizontal,vertical,vertical
2a,17,100277,7,5,197,21,F,NA,variable,homogeneous,4,present,0.582973957061768,1,vertical,vertical,1,2,red,2,1,980.31222920257,419.68777079743,980.31222920257,780.31222920257,980.31222920257,780.31222920257,980.31222920257,419.68777079743,619.68777079743,419.68777079743,619.68777079743,780.31222920257,0,4,0,0,horizontal,vertical,vertical,horizontal
2a,17,100277,7,6,198,21,F,NA,variable,homogeneous,4,present,0.586544036865234,1,vertical,vertical,1,2,green,2,3,980.31222920257,419.68777079743,619.68777079743,419.68777079743,980.31222920257,780.31222920257,980.31222920257,419.68777079743,619.68777079743,419.68777079743,619.68777079743,780.31222920257,0,4,0,0,horizontal,vertical,vertical,horizontal
2a,17,100277,7,7,199,21,F,NA,variable,homogeneous,4,present,0.718288898468018,1,horizontal,horizontal,1,2,red,1,4,980.31222920257,780.31222920257,619.68777079743,780.31222920257,980.31222920257,780.31222920257,980.31222920257,419.68777079743,619.68777079743,419.68777079743,619.68777079743,780.31222920257,4,0,0,0,horizontal,vertical,vertical,horizontal
2a,17,100277,7,8,200,21,F,NA,variable,homogeneous,4,absent,0.581108093261719,1,vertical,vertical,1,2,red,3,NaN,619.68777079743,419.68777079743,NaN,NaN,980.31222920257,780.31222920257,980.31222920257,419.68777079743,619.68777079743,419.68777079743,619.68777079743,780.31222920257,0,0,4,0,vertical,vertical,vertical,vertical
2a,17,100277,7,9,201,21,F,NA,variable,homogeneous,4,absent,1.40092897415161,1,vertical,vertical,1,2,green,4,NaN,619.68777079743,780.31222920257,NaN,NaN,980.31222920257,780.31222920257,980.31222920257,419.68777079743,619.68777079743,419.68777079743,619.68777079743,780.31222920257,0,0,0,4,horizontal,horizontal,vertical,vertical
2a,17,100277,7,10,202,21,F,NA,variable,homogeneous,4,present,0.645071983337402,1,horizontal,horizontal,1,2,green,2,1,980.31222920257,419.68777079743,980.31222920257,780.31222920257,980.31222920257,780.31222920257,980.31222920257,419.68777079743,619.68777079743,419.68777079743,619.68777079743,780.31222920257,0,4,0,0,vertical,horizontal,horizontal,horizontal
2a,17,100277,7,11,203,21,F,NA,variable,homogeneous,4,absent,0.654184103012085,1,vertical,vertical,1,2,green,2,NaN,980.31222920257,419.68777079743,NaN,NaN,980.31222920257,780.31222920257,980.31222920257,419.68777079743,619.68777079743,419.68777079743,619.68777079743,780.31222920257,0,4,0,0,vertical,vertical,vertical,vertical
2a,17,100277,7,12,204,21,F,NA,variable,homogeneous,4,absent,0.971441984176636,1,horizontal,horizontal,1,2,green,1,NaN,980.31222920257,780.31222920257,NaN,NaN,980.31222920257,780.31222920257,980.31222920257,419.68777079743,619.68777079743,419.68777079743,619.68777079743,780.31222920257,4,0,0,0,horizontal,horizontal,vertical,horizontal
2a,17,100277,7,13,205,21,F,NA,variable,homogeneous,4,absent,0.666881084442139,1,horizontal,horizontal,1,2,green,2,NaN,980.31222920257,419.68777079743,NaN,NaN,980.31222920257,780.31222920257,980.31222920257,419.68777079743,619.68777079743,419.68777079743,619.68777079743,780.31222920257,0,4,0,0,horizontal,horizontal,vertical,horizontal
2a,17,100277,7,14,206,21,F,NA,variable,homogeneous,4,absent,0.604607105255127,1,horizontal,horizontal,1,2,green,4,NaN,619.68777079743,780.31222920257,NaN,NaN,980.31222920257,780.31222920257,980.31222920257,419.68777079743,619.68777079743,419.68777079743,619.68777079743,780.31222920257,0,0,0,4,horizontal,horizontal,vertical,horizontal
2a,17,100277,7,15,207,21,F,NA,variable,homogeneous,4,present,0.904727935791016,1,horizontal,horizontal,1,2,red,1,2,980.31222920257,780.31222920257,980.31222920257,419.68777079743,980.31222920257,780.31222920257,980.31222920257,419.68777079743,619.68777079743,419.68777079743,619.68777079743,780.31222920257,4,0,0,0,horizontal,vertical,vertical,vertical
2a,17,100277,7,16,208,21,F,NA,variable,homogeneous,4,present,0.739189147949219,1,vertical,vertical,1,2,green,2,3,980.31222920257,419.68777079743,619.68777079743,419.68777079743,980.31222920257,780.31222920257,980.31222920257,419.68777079743,619.68777079743,419.68777079743,619.68777079743,780.31222920257,0,4,0,0,horizontal,vertical,horizontal,vertical
2a,17,100277,7,17,209,21,F,NA,variable,homogeneous,4,absent,0.782244205474854,1,horizontal,horizontal,1,2,red,2,NaN,980.31222920257,419.68777079743,NaN,NaN,980.31222920257,780.31222920257,980.31222920257,419.68777079743,619.68777079743,419.68777079743,619.68777079743,780.31222920257,0,4,0,0,horizontal,horizontal,horizontal,horizontal
2a,17,100277,7,18,210,21,F,NA,variable,homogeneous,4,absent,0.58568286895752,1,horizontal,horizontal,1,2,red,4,NaN,619.68777079743,780.31222920257,NaN,NaN,980.31222920257,780.31222920257,980.31222920257,419.68777079743,619.68777079743,419.68777079743,619.68777079743,780.31222920257,0,0,0,4,horizontal,vertical,horizontal,horizontal
2a,17,100277,7,19,211,21,F,NA,variable,homogeneous,4,absent,0.765432834625244,1,vertical,vertical,1,2,red,4,NaN,619.68777079743,780.31222920257,NaN,NaN,980.31222920257,780.31222920257,980.31222920257,419.68777079743,619.68777079743,419.68777079743,619.68777079743,780.31222920257,0,0,0,4,horizontal,horizontal,horizontal,vertical
2a,17,100277,7,20,212,21,F,NA,variable,homogeneous,4,absent,1.49313282966614,1,vertical,vertical,1,2,red,1,NaN,980.31222920257,780.31222920257,NaN,NaN,980.31222920257,780.31222920257,980.31222920257,419.68777079743,619.68777079743,419.68777079743,619.68777079743,780.31222920257,4,0,0,0,vertical,vertical,horizontal,horizontal
2a,17,100277,7,21,213,21,F,NA,variable,homogeneous,4,absent,0.739509105682373,1,vertical,vertical,1,2,green,3,NaN,619.68777079743,419.68777079743,NaN,NaN,980.31222920257,780.31222920257,980.31222920257,419.68777079743,619.68777079743,419.68777079743,619.68777079743,780.31222920257,0,0,4,0,horizontal,vertical,vertical,horizontal
2a,17,100277,7,22,214,21,F,NA,variable,homogeneous,4,present,0.910120010375977,1,horizontal,horizontal,1,2,green,2,4,980.31222920257,419.68777079743,619.68777079743,780.31222920257,980.31222920257,780.31222920257,980.31222920257,419.68777079743,619.68777079743,419.68777079743,619.68777079743,780.31222920257,0,4,0,0,horizontal,horizontal,vertical,vertical
2a,17,100277,7,23,215,21,F,NA,variable,homogeneous,4,absent,0.760489940643311,0,horizontal,vertical,1,2,red,1,NaN,980.31222920257,780.31222920257,NaN,NaN,980.31222920257,780.31222920257,980.31222920257,419.68777079743,619.68777079743,419.68777079743,619.68777079743,780.31222920257,4,0,0,0,horizontal,horizontal,horizontal,horizontal
2a,17,100277,7,24,216,21,F,NA,variable,homogeneous,4,absent,0.780158996582031,1,horizontal,horizontal,1,2,red,4,NaN,619.68777079743,780.31222920257,NaN,NaN,980.31222920257,780.31222920257,980.31222920257,419.68777079743,619.68777079743,419.68777079743,619.68777079743,780.31222920257,0,0,0,4,vertical,horizontal,horizontal,horizontal
2a,17,100277,7,25,217,21,F,NA,variable,homogeneous,4,present,0.839581966400146,1,vertical,vertical,1,2,red,4,3,619.68777079743,780.31222920257,619.68777079743,419.68777079743,980.31222920257,780.31222920257,980.31222920257,419.68777079743,619.68777079743,419.68777079743,619.68777079743,780.31222920257,0,0,0,4,horizontal,horizontal,horizontal,vertical
2a,17,100277,7,26,218,21,F,NA,variable,homogeneous,4,present,0.77676796913147,1,horizontal,horizontal,1,2,green,3,1,619.68777079743,419.68777079743,980.31222920257,780.31222920257,980.31222920257,780.31222920257,980.31222920257,419.68777079743,619.68777079743,419.68777079743,619.68777079743,780.31222920257,0,0,4,0,horizontal,horizontal,horizontal,horizontal
2a,17,100277,7,27,219,21,F,NA,variable,homogeneous,4,present,0.708607196807861,1,horizontal,horizontal,1,2,red,2,1,980.31222920257,419.68777079743,980.31222920257,780.31222920257,980.31222920257,780.31222920257,980.31222920257,419.68777079743,619.68777079743,419.68777079743,619.68777079743,780.31222920257,0,4,0,0,horizontal,horizontal,vertical,vertical
2a,17,100277,7,28,220,21,F,NA,variable,homogeneous,4,present,0.791068077087402,1,horizontal,horizontal,1,2,green,4,2,619.68777079743,780.31222920257,980.31222920257,419.68777079743,980.31222920257,780.31222920257,980.31222920257,419.68777079743,619.68777079743,419.68777079743,619.68777079743,780.31222920257,0,0,0,4,horizontal,vertical,vertical,horizontal
2a,17,100277,7,29,221,21,F,NA,variable,homogeneous,4,absent,0.663249015808105,1,horizontal,horizontal,1,2,green,3,NaN,619.68777079743,419.68777079743,NaN,NaN,980.31222920257,780.31222920257,980.31222920257,419.68777079743,619.68777079743,419.68777079743,619.68777079743,780.31222920257,0,0,4,0,horizontal,horizontal,horizontal,horizontal
2a,17,100277,7,30,222,21,F,NA,variable,homogeneous,4,absent,0.904525995254517,1,vertical,vertical,1,2,red,3,NaN,619.68777079743,419.68777079743,NaN,NaN,980.31222920257,780.31222920257,980.31222920257,419.68777079743,619.68777079743,419.68777079743,619.68777079743,780.31222920257,0,0,4,0,vertical,vertical,vertical,horizontal
2a,17,100277,7,31,223,21,F,NA,variable,homogeneous,4,present,0.626694917678833,1,vertical,vertical,1,2,red,3,4,619.68777079743,419.68777079743,619.68777079743,780.31222920257,980.31222920257,780.31222920257,980.31222920257,419.68777079743,619.68777079743,419.68777079743,619.68777079743,780.31222920257,0,0,4,0,vertical,vertical,vertical,vertical
2a,17,100277,7,32,224,21,F,NA,variable,homogeneous,4,present,1.41527986526489,1,vertical,vertical,1,2,red,4,3,619.68777079743,780.31222920257,619.68777079743,419.68777079743,980.31222920257,780.31222920257,980.31222920257,419.68777079743,619.68777079743,419.68777079743,619.68777079743,780.31222920257,0,0,0,4,horizontal,vertical,horizontal,vertical
2a,17,100277,8,1,225,21,F,NA,variable,homogeneous,4,absent,0.789867877960205,1,horizontal,horizontal,1,2,green,2,NaN,980.31222920257,419.68777079743,NaN,NaN,980.31222920257,780.31222920257,980.31222920257,419.68777079743,619.68777079743,419.68777079743,619.68777079743,780.31222920257,0,4,0,0,horizontal,horizontal,horizontal,horizontal
2a,17,100277,8,2,226,21,F,NA,variable,homogeneous,4,absent,0.645734786987305,1,vertical,vertical,1,2,red,4,NaN,619.68777079743,780.31222920257,NaN,NaN,980.31222920257,780.31222920257,980.31222920257,419.68777079743,619.68777079743,419.68777079743,619.68777079743,780.31222920257,0,0,0,4,vertical,vertical,horizontal,vertical
2a,17,100277,8,3,227,21,F,NA,variable,homogeneous,4,absent,0.675086975097656,1,horizontal,horizontal,1,2,red,3,NaN,619.68777079743,419.68777079743,NaN,NaN,980.31222920257,780.31222920257,980.31222920257,419.68777079743,619.68777079743,419.68777079743,619.68777079743,780.31222920257,0,0,4,0,vertical,horizontal,horizontal,vertical
2a,17,100277,8,4,228,21,F,NA,variable,homogeneous,4,absent,0.808796882629395,1,vertical,vertical,1,2,red,2,NaN,980.31222920257,419.68777079743,NaN,NaN,980.31222920257,780.31222920257,980.31222920257,419.68777079743,619.68777079743,419.68777079743,619.68777079743,780.31222920257,0,4,0,0,vertical,vertical,horizontal,vertical
2a,17,100277,8,5,229,21,F,NA,variable,homogeneous,4,present,0.589213132858276,1,horizontal,horizontal,1,2,red,3,2,619.68777079743,419.68777079743,980.31222920257,419.68777079743,980.31222920257,780.31222920257,980.31222920257,419.68777079743,619.68777079743,419.68777079743,619.68777079743,780.31222920257,0,0,4,0,horizontal,horizontal,horizontal,vertical
2a,17,100277,8,6,230,21,F,NA,variable,homogeneous,4,present,0.8052659034729,1,vertical,vertical,1,2,red,2,1,980.31222920257,419.68777079743,980.31222920257,780.31222920257,980.31222920257,780.31222920257,980.31222920257,419.68777079743,619.68777079743,419.68777079743,619.68777079743,780.31222920257,0,4,0,0,vertical,vertical,vertical,horizontal
2a,17,100277,8,7,231,21,F,NA,variable,homogeneous,4,absent,0.713422060012817,1,vertical,vertical,1,2,green,4,NaN,619.68777079743,780.31222920257,NaN,NaN,980.31222920257,780.31222920257,980.31222920257,419.68777079743,619.68777079743,419.68777079743,619.68777079743,780.31222920257,0,0,0,4,vertical,horizontal,vertical,vertical
2a,17,100277,8,8,232,21,F,NA,variable,homogeneous,4,absent,0.61994194984436,1,horizontal,horizontal,1,2,red,1,NaN,980.31222920257,780.31222920257,NaN,NaN,980.31222920257,780.31222920257,980.31222920257,419.68777079743,619.68777079743,419.68777079743,619.68777079743,780.31222920257,4,0,0,0,horizontal,vertical,vertical,horizontal
2a,17,100277,8,9,233,21,F,NA,variable,homogeneous,4,absent,0.636008024215698,1,horizontal,horizontal,1,2,green,3,NaN,619.68777079743,419.68777079743,NaN,NaN,980.31222920257,780.31222920257,980.31222920257,419.68777079743,619.68777079743,419.68777079743,619.68777079743,780.31222920257,0,0,4,0,horizontal,horizontal,horizontal,vertical
2a,17,100277,8,10,234,21,F,NA,variable,homogeneous,4,absent,0.56528902053833,1,horizontal,horizontal,1,2,red,4,NaN,619.68777079743,780.31222920257,NaN,NaN,980.31222920257,780.31222920257,980.31222920257,419.68777079743,619.68777079743,419.68777079743,619.68777079743,780.31222920257,0,0,0,4,vertical,horizontal,horizontal,horizontal
2a,17,100277,8,11,235,21,F,NA,variable,homogeneous,4,present,0.756769180297852,1,horizontal,horizontal,1,2,red,1,4,980.31222920257,780.31222920257,619.68777079743,780.31222920257,980.31222920257,780.31222920257,980.31222920257,419.68777079743,619.68777079743,419.68777079743,619.68777079743,780.31222920257,4,0,0,0,horizontal,horizontal,vertical,horizontal
2a,17,100277,8,12,236,21,F,NA,variable,homogeneous,4,present,0.680237054824829,1,vertical,vertical,1,2,red,3,4,619.68777079743,419.68777079743,619.68777079743,780.31222920257,980.31222920257,780.31222920257,980.31222920257,419.68777079743,619.68777079743,419.68777079743,619.68777079743,780.31222920257,0,0,4,0,vertical,horizontal,vertical,vertical
2a,17,100277,8,13,237,21,F,NA,variable,homogeneous,4,present,0.557723999023438,1,horizontal,horizontal,1,2,red,2,1,980.31222920257,419.68777079743,980.31222920257,780.31222920257,980.31222920257,780.31222920257,980.31222920257,419.68777079743,619.68777079743,419.68777079743,619.68777079743,780.31222920257,0,4,0,0,horizontal,horizontal,horizontal,horizontal
2a,17,100277,8,14,238,21,F,NA,variable,homogeneous,4,present,0.6650550365448,1,vertical,vertical,1,2,red,3,4,619.68777079743,419.68777079743,619.68777079743,780.31222920257,980.31222920257,780.31222920257,980.31222920257,419.68777079743,619.68777079743,419.68777079743,619.68777079743,780.31222920257,0,0,4,0,vertical,vertical,vertical,vertical
2a,17,100277,8,15,239,21,F,NA,variable,homogeneous,4,absent,0.698597192764282,1,vertical,vertical,1,2,green,4,NaN,619.68777079743,780.31222920257,NaN,NaN,980.31222920257,780.31222920257,980.31222920257,419.68777079743,619.68777079743,419.68777079743,619.68777079743,780.31222920257,0,0,0,4,vertical,vertical,vertical,vertical
2a,17,100277,8,16,240,21,F,NA,variable,homogeneous,4,present,0.520900964736938,1,vertical,vertical,1,2,green,3,2,619.68777079743,419.68777079743,980.31222920257,419.68777079743,980.31222920257,780.31222920257,980.31222920257,419.68777079743,619.68777079743,419.68777079743,619.68777079743,780.31222920257,0,0,4,0,vertical,vertical,vertical,vertical
2a,17,100277,8,17,241,21,F,NA,variable,homogeneous,4,present,1.07938599586487,1,vertical,vertical,1,2,green,2,4,980.31222920257,419.68777079743,619.68777079743,780.31222920257,980.31222920257,780.31222920257,980.31222920257,419.68777079743,619.68777079743,419.68777079743,619.68777079743,780.31222920257,0,4,0,0,vertical,vertical,horizontal,vertical
2a,17,100277,8,18,242,21,F,NA,variable,homogeneous,4,absent,0.748933076858521,1,horizontal,horizontal,1,2,green,3,NaN,619.68777079743,419.68777079743,NaN,NaN,980.31222920257,780.31222920257,980.31222920257,419.68777079743,619.68777079743,419.68777079743,619.68777079743,780.31222920257,0,0,4,0,vertical,horizontal,horizontal,vertical
2a,17,100277,8,19,243,21,F,NA,variable,homogeneous,4,absent,0.700191020965576,1,horizontal,horizontal,1,2,green,1,NaN,980.31222920257,780.31222920257,NaN,NaN,980.31222920257,780.31222920257,980.31222920257,419.68777079743,619.68777079743,419.68777079743,619.68777079743,780.31222920257,4,0,0,0,horizontal,vertical,horizontal,horizontal
2a,17,100277,8,20,244,21,F,NA,variable,homogeneous,4,absent,0.666491031646729,0,vertical,horizontal,1,2,green,1,NaN,980.31222920257,780.31222920257,NaN,NaN,980.31222920257,780.31222920257,980.31222920257,419.68777079743,619.68777079743,419.68777079743,619.68777079743,780.31222920257,4,0,0,0,vertical,horizontal,vertical,horizontal
2a,17,100277,8,21,245,21,F,NA,variable,homogeneous,4,present,0.699991941452026,1,vertical,vertical,1,2,green,2,3,980.31222920257,419.68777079743,619.68777079743,419.68777079743,980.31222920257,780.31222920257,980.31222920257,419.68777079743,619.68777079743,419.68777079743,619.68777079743,780.31222920257,0,4,0,0,vertical,vertical,vertical,vertical
2a,17,100277,8,22,246,21,F,NA,variable,homogeneous,4,present,0.65027904510498,1,horizontal,horizontal,1,2,green,4,1,619.68777079743,780.31222920257,980.31222920257,780.31222920257,980.31222920257,780.31222920257,980.31222920257,419.68777079743,619.68777079743,419.68777079743,619.68777079743,780.31222920257,0,0,0,4,horizontal,horizontal,vertical,horizontal
2a,17,100277,8,23,247,21,F,NA,variable,homogeneous,4,present,0.80739688873291,1,horizontal,horizontal,1,2,red,2,4,980.31222920257,419.68777079743,619.68777079743,780.31222920257,980.31222920257,780.31222920257,980.31222920257,419.68777079743,619.68777079743,419.68777079743,619.68777079743,780.31222920257,0,4,0,0,vertical,horizontal,horizontal,horizontal
2a,17,100277,8,24,248,21,F,NA,variable,homogeneous,4,present,0.907559156417847,1,vertical,vertical,1,2,red,4,3,619.68777079743,780.31222920257,619.68777079743,419.68777079743,980.31222920257,780.31222920257,980.31222920257,419.68777079743,619.68777079743,419.68777079743,619.68777079743,780.31222920257,0,0,0,4,vertical,horizontal,vertical,vertical
2a,17,100277,8,25,249,21,F,NA,variable,homogeneous,4,absent,0.614010810852051,1,vertical,vertical,1,2,red,2,NaN,980.31222920257,419.68777079743,NaN,NaN,980.31222920257,780.31222920257,980.31222920257,419.68777079743,619.68777079743,419.68777079743,619.68777079743,780.31222920257,0,4,0,0,horizontal,vertical,vertical,vertical
2a,17,100277,8,26,250,21,F,NA,variable,homogeneous,4,absent,0.614537000656128,1,horizontal,horizontal,1,2,red,1,NaN,980.31222920257,780.31222920257,NaN,NaN,980.31222920257,780.31222920257,980.31222920257,419.68777079743,619.68777079743,419.68777079743,619.68777079743,780.31222920257,4,0,0,0,horizontal,vertical,horizontal,vertical
2a,17,100277,8,27,251,21,F,NA,variable,homogeneous,4,present,0.551069974899292,1,horizontal,horizontal,1,2,red,1,3,980.31222920257,780.31222920257,619.68777079743,419.68777079743,980.31222920257,780.31222920257,980.31222920257,419.68777079743,619.68777079743,419.68777079743,619.68777079743,780.31222920257,4,0,0,0,horizontal,horizontal,horizontal,vertical
2a,17,100277,8,28,252,21,F,NA,variable,homogeneous,4,absent,0.654173851013184,1,vertical,vertical,1,2,green,1,NaN,980.31222920257,780.31222920257,NaN,NaN,980.31222920257,780.31222920257,980.31222920257,419.68777079743,619.68777079743,419.68777079743,619.68777079743,780.31222920257,4,0,0,0,vertical,horizontal,vertical,horizontal
2a,17,100277,8,29,253,21,F,NA,variable,homogeneous,4,present,0.539463996887207,1,horizontal,horizontal,1,2,green,3,4,619.68777079743,419.68777079743,619.68777079743,780.31222920257,980.31222920257,780.31222920257,980.31222920257,419.68777079743,619.68777079743,419.68777079743,619.68777079743,780.31222920257,0,0,4,0,horizontal,horizontal,horizontal,horizontal
2a,17,100277,8,30,254,21,F,NA,variable,homogeneous,4,present,0.974172830581665,1,horizontal,horizontal,1,2,red,4,3,619.68777079743,780.31222920257,619.68777079743,419.68777079743,980.31222920257,780.31222920257,980.31222920257,419.68777079743,619.68777079743,419.68777079743,619.68777079743,780.31222920257,0,0,0,4,horizontal,vertical,horizontal,horizontal
2a,17,100277,8,31,255,21,F,NA,variable,homogeneous,4,present,0.765655994415283,1,vertical,vertical,1,2,green,4,3,619.68777079743,780.31222920257,619.68777079743,419.68777079743,980.31222920257,780.31222920257,980.31222920257,419.68777079743,619.68777079743,419.68777079743,619.68777079743,780.31222920257,0,0,0,4,horizontal,horizontal,horizontal,vertical
2a,17,100277,8,32,256,21,F,NA,variable,homogeneous,4,absent,0.597413063049316,1,vertical,vertical,1,2,green,1,NaN,980.31222920257,780.31222920257,NaN,NaN,980.31222920257,780.31222920257,980.31222920257,419.68777079743,619.68777079743,419.68777079743,619.68777079743,780.31222920257,4,0,0,0,vertical,horizontal,vertical,vertical
2a,17,100277,9,1,257,21,F,NA,variable,homogeneous,4,absent,1.03069400787354,1,vertical,vertical,1,2,red,3,NaN,619.68777079743,419.68777079743,NaN,NaN,980.31222920257,780.31222920257,980.31222920257,419.68777079743,619.68777079743,419.68777079743,619.68777079743,780.31222920257,0,0,4,0,vertical,horizontal,vertical,horizontal
2a,17,100277,9,2,258,21,F,NA,variable,homogeneous,4,absent,0.635581970214844,1,vertical,vertical,1,2,green,2,NaN,980.31222920257,419.68777079743,NaN,NaN,980.31222920257,780.31222920257,980.31222920257,419.68777079743,619.68777079743,419.68777079743,619.68777079743,780.31222920257,0,4,0,0,vertical,vertical,horizontal,horizontal
2a,17,100277,9,3,259,21,F,NA,variable,homogeneous,4,present,0.644343137741089,1,horizontal,horizontal,1,2,green,2,3,980.31222920257,419.68777079743,619.68777079743,419.68777079743,980.31222920257,780.31222920257,980.31222920257,419.68777079743,619.68777079743,419.68777079743,619.68777079743,780.31222920257,0,4,0,0,horizontal,horizontal,horizontal,horizontal
2a,17,100277,9,4,260,21,F,NA,variable,homogeneous,4,present,0.845355987548828,1,vertical,vertical,1,2,red,3,4,619.68777079743,419.68777079743,619.68777079743,780.31222920257,980.31222920257,780.31222920257,980.31222920257,419.68777079743,619.68777079743,419.68777079743,619.68777079743,780.31222920257,0,0,4,0,vertical,vertical,vertical,horizontal
2a,17,100277,9,5,261,21,F,NA,variable,homogeneous,4,present,0.718603134155273,1,horizontal,horizontal,1,2,red,4,2,619.68777079743,780.31222920257,980.31222920257,419.68777079743,980.31222920257,780.31222920257,980.31222920257,419.68777079743,619.68777079743,419.68777079743,619.68777079743,780.31222920257,0,0,0,4,vertical,vertical,vertical,horizontal
2a,17,100277,9,6,262,21,F,NA,variable,homogeneous,4,absent,0.645078182220459,1,vertical,vertical,1,2,red,4,NaN,619.68777079743,780.31222920257,NaN,NaN,980.31222920257,780.31222920257,980.31222920257,419.68777079743,619.68777079743,419.68777079743,619.68777079743,780.31222920257,0,0,0,4,vertical,vertical,vertical,vertical
2a,17,100277,9,7,263,21,F,NA,variable,homogeneous,4,present,0.621950149536133,1,horizontal,horizontal,1,2,red,4,1,619.68777079743,780.31222920257,980.31222920257,780.31222920257,980.31222920257,780.31222920257,980.31222920257,419.68777079743,619.68777079743,419.68777079743,619.68777079743,780.31222920257,0,0,0,4,vertical,vertical,vertical,horizontal
2a,17,100277,9,8,264,21,F,NA,variable,homogeneous,4,absent,0.659034967422485,1,horizontal,horizontal,1,2,red,1,NaN,980.31222920257,780.31222920257,NaN,NaN,980.31222920257,780.31222920257,980.31222920257,419.68777079743,619.68777079743,419.68777079743,619.68777079743,780.31222920257,4,0,0,0,horizontal,vertical,horizontal,horizontal
2a,17,100277,9,9,265,21,F,NA,variable,homogeneous,4,absent,0.500132083892822,1,horizontal,horizontal,1,2,green,1,NaN,980.31222920257,780.31222920257,NaN,NaN,980.31222920257,780.31222920257,980.31222920257,419.68777079743,619.68777079743,419.68777079743,619.68777079743,780.31222920257,4,0,0,0,horizontal,horizontal,vertical,vertical
2a,17,100277,9,10,266,21,F,NA,variable,homogeneous,4,present,0.538538932800293,1,vertical,vertical,1,2,green,4,3,619.68777079743,780.31222920257,619.68777079743,419.68777079743,980.31222920257,780.31222920257,980.31222920257,419.68777079743,619.68777079743,419.68777079743,619.68777079743,780.31222920257,0,0,0,4,vertical,vertical,vertical,vertical
2a,17,100277,9,11,267,21,F,NA,variable,homogeneous,4,absent,0.589343070983887,1,horizontal,horizontal,1,2,green,2,NaN,980.31222920257,419.68777079743,NaN,NaN,980.31222920257,780.31222920257,980.31222920257,419.68777079743,619.68777079743,419.68777079743,619.68777079743,780.31222920257,0,4,0,0,vertical,horizontal,vertical,vertical
2a,17,100277,9,12,268,21,F,NA,variable,homogeneous,4,absent,1.65326595306396,1,vertical,vertical,1,2,red,3,NaN,619.68777079743,419.68777079743,NaN,NaN,980.31222920257,780.31222920257,980.31222920257,419.68777079743,619.68777079743,419.68777079743,619.68777079743,780.31222920257,0,0,4,0,vertical,horizontal,vertical,horizontal
2a,17,100277,9,13,269,21,F,NA,variable,homogeneous,4,absent,0.938642978668213,1,vertical,vertical,1,2,red,4,NaN,619.68777079743,780.31222920257,NaN,NaN,980.31222920257,780.31222920257,980.31222920257,419.68777079743,619.68777079743,419.68777079743,619.68777079743,780.31222920257,0,0,0,4,horizontal,vertical,horizontal,vertical
2a,17,100277,9,14,270,21,F,NA,variable,homogeneous,4,absent,0.653639793395996,1,horizontal,horizontal,1,2,red,3,NaN,619.68777079743,419.68777079743,NaN,NaN,980.31222920257,780.31222920257,980.31222920257,419.68777079743,619.68777079743,419.68777079743,619.68777079743,780.31222920257,0,0,4,0,vertical,horizontal,horizontal,horizontal
2a,17,100277,9,15,271,21,F,NA,variable,homogeneous,4,present,0.7308509349823,1,vertical,vertical,1,2,green,4,2,619.68777079743,780.31222920257,980.31222920257,419.68777079743,980.31222920257,780.31222920257,980.31222920257,419.68777079743,619.68777079743,419.68777079743,619.68777079743,780.31222920257,0,0,0,4,vertical,vertical,vertical,vertical
2a,17,100277,9,16,272,21,F,NA,variable,homogeneous,4,present,0.709391832351685,1,vertical,vertical,1,2,red,2,3,980.31222920257,419.68777079743,619.68777079743,419.68777079743,980.31222920257,780.31222920257,980.31222920257,419.68777079743,619.68777079743,419.68777079743,619.68777079743,780.31222920257,0,4,0,0,horizontal,vertical,horizontal,horizontal
2a,17,100277,9,17,273,21,F,NA,variable,homogeneous,4,present,0.664060831069946,1,horizontal,horizontal,1,2,red,2,4,980.31222920257,419.68777079743,619.68777079743,780.31222920257,980.31222920257,780.31222920257,980.31222920257,419.68777079743,619.68777079743,419.68777079743,619.68777079743,780.31222920257,0,4,0,0,horizontal,horizontal,vertical,horizontal
2a,17,100277,9,18,274,21,F,NA,variable,homogeneous,4,absent,0.777587890625,1,vertical,vertical,1,2,green,2,NaN,980.31222920257,419.68777079743,NaN,NaN,980.31222920257,780.31222920257,980.31222920257,419.68777079743,619.68777079743,419.68777079743,619.68777079743,780.31222920257,0,4,0,0,horizontal,vertical,vertical,vertical
2a,17,100277,9,19,275,21,F,NA,variable,homogeneous,4,absent,0.725378036499023,1,horizontal,horizontal,1,2,green,1,NaN,980.31222920257,780.31222920257,NaN,NaN,980.31222920257,780.31222920257,980.31222920257,419.68777079743,619.68777079743,419.68777079743,619.68777079743,780.31222920257,4,0,0,0,horizontal,vertical,horizontal,horizontal
2a,17,100277,9,20,276,21,F,NA,variable,homogeneous,4,absent,0.636022090911865,1,vertical,vertical,1,2,red,1,NaN,980.31222920257,780.31222920257,NaN,NaN,980.31222920257,780.31222920257,980.31222920257,419.68777079743,619.68777079743,419.68777079743,619.68777079743,780.31222920257,4,0,0,0,vertical,vertical,horizontal,vertical
2a,17,100277,9,21,277,21,F,NA,variable,homogeneous,4,present,0.660961151123047,1,vertical,vertical,1,2,green,3,4,619.68777079743,419.68777079743,619.68777079743,780.31222920257,980.31222920257,780.31222920257,980.31222920257,419.68777079743,619.68777079743,419.68777079743,619.68777079743,780.31222920257,0,0,4,0,vertical,horizontal,vertical,horizontal
2a,17,100277,9,22,278,21,F,NA,variable,homogeneous,4,present,0.646155118942261,1,horizontal,horizontal,1,2,green,2,3,980.31222920257,419.68777079743,619.68777079743,419.68777079743,980.31222920257,780.31222920257,980.31222920257,419.68777079743,619.68777079743,419.68777079743,619.68777079743,780.31222920257,0,4,0,0,vertical,horizontal,horizontal,horizontal
2a,17,100277,9,23,279,21,F,NA,variable,homogeneous,4,present,0.65952205657959,1,vertical,vertical,1,2,green,4,2,619.68777079743,780.31222920257,980.31222920257,419.68777079743,980.31222920257,780.31222920257,980.31222920257,419.68777079743,619.68777079743,419.68777079743,619.68777079743,780.31222920257,0,0,0,4,vertical,horizontal,horizontal,vertical
2a,17,100277,9,24,280,21,F,NA,variable,homogeneous,4,absent,0.772999048233032,1,horizontal,horizontal,1,2,green,1,NaN,980.31222920257,780.31222920257,NaN,NaN,980.31222920257,780.31222920257,980.31222920257,419.68777079743,619.68777079743,419.68777079743,619.68777079743,780.31222920257,4,0,0,0,horizontal,horizontal,horizontal,horizontal
2a,17,100277,9,25,281,21,F,NA,variable,homogeneous,4,absent,0.556657791137695,1,horizontal,horizontal,1,2,green,3,NaN,619.68777079743,419.68777079743,NaN,NaN,980.31222920257,780.31222920257,980.31222920257,419.68777079743,619.68777079743,419.68777079743,619.68777079743,780.31222920257,0,0,4,0,vertical,vertical,horizontal,horizontal
2a,17,100277,9,26,282,21,F,NA,variable,homogeneous,4,present,1.20800399780273,1,vertical,vertical,1,2,red,4,3,619.68777079743,780.31222920257,619.68777079743,419.68777079743,980.31222920257,780.31222920257,980.31222920257,419.68777079743,619.68777079743,419.68777079743,619.68777079743,780.31222920257,0,0,0,4,horizontal,vertical,vertical,vertical
2a,17,100277,9,27,283,21,F,NA,variable,homogeneous,4,present,0.668061971664429,1,horizontal,horizontal,1,2,green,3,4,619.68777079743,419.68777079743,619.68777079743,780.31222920257,980.31222920257,780.31222920257,980.31222920257,419.68777079743,619.68777079743,419.68777079743,619.68777079743,780.31222920257,0,0,4,0,vertical,horizontal,horizontal,horizontal
2a,17,100277,9,28,284,21,F,NA,variable,homogeneous,4,absent,0.653711080551147,1,horizontal,horizontal,1,2,red,3,NaN,619.68777079743,419.68777079743,NaN,NaN,980.31222920257,780.31222920257,980.31222920257,419.68777079743,619.68777079743,419.68777079743,619.68777079743,780.31222920257,0,0,4,0,vertical,horizontal,horizontal,horizontal
2a,17,100277,9,29,285,21,F,NA,variable,homogeneous,4,present,0.698662042617798,1,horizontal,horizontal,1,2,green,2,4,980.31222920257,419.68777079743,619.68777079743,780.31222920257,980.31222920257,780.31222920257,980.31222920257,419.68777079743,619.68777079743,419.68777079743,619.68777079743,780.31222920257,0,4,0,0,vertical,horizontal,horizontal,vertical
2a,17,100277,9,30,286,21,F,NA,variable,homogeneous,4,present,0.728960037231445,1,horizontal,horizontal,1,2,red,2,1,980.31222920257,419.68777079743,980.31222920257,780.31222920257,980.31222920257,780.31222920257,980.31222920257,419.68777079743,619.68777079743,419.68777079743,619.68777079743,780.31222920257,0,4,0,0,horizontal,horizontal,horizontal,vertical
2a,17,100277,9,31,287,21,F,NA,variable,homogeneous,4,present,0.580082178115845,1,vertical,vertical,1,2,green,4,3,619.68777079743,780.31222920257,619.68777079743,419.68777079743,980.31222920257,780.31222920257,980.31222920257,419.68777079743,619.68777079743,419.68777079743,619.68777079743,780.31222920257,0,0,0,4,horizontal,horizontal,vertical,vertical
2a,17,100277,9,32,288,21,F,NA,variable,homogeneous,4,absent,0.599928140640259,1,vertical,vertical,1,2,green,1,NaN,980.31222920257,780.31222920257,NaN,NaN,980.31222920257,780.31222920257,980.31222920257,419.68777079743,619.68777079743,419.68777079743,619.68777079743,780.31222920257,4,0,0,0,vertical,vertical,vertical,vertical
2a,17,100277,10,1,289,21,F,NA,variable,homogeneous,4,absent,1.25162386894226,1,vertical,vertical,1,2,red,3,NaN,619.68777079743,419.68777079743,NaN,NaN,980.31222920257,780.31222920257,980.31222920257,419.68777079743,619.68777079743,419.68777079743,619.68777079743,780.31222920257,0,0,4,0,vertical,horizontal,vertical,vertical
2a,17,100277,10,2,290,21,F,NA,variable,homogeneous,4,absent,0.568804025650024,1,horizontal,horizontal,1,2,red,2,NaN,980.31222920257,419.68777079743,NaN,NaN,980.31222920257,780.31222920257,980.31222920257,419.68777079743,619.68777079743,419.68777079743,619.68777079743,780.31222920257,0,4,0,0,vertical,horizontal,horizontal,horizontal
2a,17,100277,10,3,291,21,F,NA,variable,homogeneous,4,present,0.664448976516724,1,vertical,vertical,1,2,green,1,4,980.31222920257,780.31222920257,619.68777079743,780.31222920257,980.31222920257,780.31222920257,980.31222920257,419.68777079743,619.68777079743,419.68777079743,619.68777079743,780.31222920257,4,0,0,0,vertical,horizontal,vertical,vertical
