experiment,subject,uniqueID,block,trial,trial_cumulative,age,gender,color_cond_blocking,color_history,shape_type,set_size,distractor,rt,acc,target_orient,response_key,response_made,iti,target_color,target_item,distractor_item,target_X,target_Y,distractor_X,distractor_Y,item1_X,item1_Y,item2_X,item2_Y,item3_X,item3_Y,item4_X,item4_Y,item1_shape,item2_shape,item3_shape,item4_shape,item1_line,item2_line,item3_line,item4_line
2a,18,100279,1,1,1,19,M,NA,variable,heterogeneous,4,absent,NaN,0,horizontal,none,0,8,red,4,NaN,619.68777079743,780.31222920257,NaN,NaN,980.31222920257,780.31222920257,980.31222920257,419.68777079743,619.68777079743,419.68777079743,619.68777079743,780.31222920257,3,6,5,4,horizontal,horizontal,horizontal,horizontal
2a,18,100279,1,2,2,19,M,NA,variable,heterogeneous,4,present,1.35790991783142,1,vertical,vertical,1,8,green,1,4,980.31222920257,780.31222920257,619.68777079743,780.31222920257,980.31222920257,780.31222920257,980.31222920257,419.68777079743,619.68777079743,419.68777079743,619.68777079743,780.31222920257,4,3,0,5,vertical,vertical,horizontal,horizontal
2a,18,100279,1,3,3,19,M,NA,variable,heterogeneous,4,present,1.15328502655029,1,horizontal,horizontal,1,3,red,4,2,619.68777079743,780.31222920257,980.31222920257,419.68777079743,980.31222920257,780.31222920257,980.31222920257,419.68777079743,619.68777079743,419.68777079743,619.68777079743,780.31222920257,3,5,0,4,horizontal,vertical,vertical,horizontal
2a,18,100279,1,4,4,19,M,NA,variable,heterogeneous,4,absent,1.34850406646729,0,horizontal,vertical,1,2,red,2,NaN,980.31222920257,419.68777079743,NaN,NaN,980.31222920257,780.31222920257,980.31222920257,419.68777079743,619.68777079743,419.68777079743,619.68777079743,780.31222920257,3,4,5,6,vertical,horizontal,vertical,vertical
2a,18,100279,1,5,5,19,M,NA,variable,heterogeneous,4,present,1.17174983024597,1,horizontal,horizontal,1,3,green,3,1,619.68777079743,419.68777079743,980.31222920257,780.31222920257,980.31222920257,780.31222920257,980.31222920257,419.68777079743,619.68777079743,419.68777079743,619.68777079743,780.31222920257,0,5,4,6,vertical,horizontal,horizontal,vertical
2a,18,100279,1,6,6,19,M,NA,variable,heterogeneous,4,absent,0.979084014892578,1,horizontal,horizontal,1,5,green,3,NaN,619.68777079743,419.68777079743,NaN,NaN,980.31222920257,780.31222920257,980.31222920257,419.68777079743,619.68777079743,419.68777079743,619.68777079743,780.31222920257,0,5,4,6,horizontal,vertical,horizontal,vertical
2a,18,100279,1,7,7,19,M,NA,variable,heterogeneous,4,present,1.66317892074585,1,vertical,vertical,1,5,red,4,3,619.68777079743,780.31222920257,619.68777079743,419.68777079743,980.31222920257,780.31222920257,980.31222920257,419.68777079743,619.68777079743,419.68777079743,619.68777079743,780.31222920257,3,0,5,4,vertical,horizontal,vertical,vertical
2a,18,100279,1,8,8,19,M,NA,variable,heterogeneous,4,present,1.31285500526428,0,horizontal,vertical,1,5,red,1,2,980.31222920257,780.31222920257,980.31222920257,419.68777079743,980.31222920257,780.31222920257,980.31222920257,419.68777079743,619.68777079743,419.68777079743,619.68777079743,780.31222920257,4,5,6,0,horizontal,horizontal,vertical,horizontal
2a,18,100279,1,9,9,19,M,NA,variable,heterogeneous,4,absent,1.13089609146118,1,vertical,vertical,1,2,green,3,NaN,619.68777079743,419.68777079743,NaN,NaN,980.31222920257,780.31222920257,980.31222920257,419.68777079743,619.68777079743,419.68777079743,619.68777079743,780.31222920257,5,0,4,6,vertical,horizontal,vertical,horizontal
2a,18,100279,1,10,10,19,M,NA,variable,heterogeneous,4,absent,1.0941698551178,1,horizontal,horizontal,1,2,red,4,NaN,619.68777079743,780.31222920257,NaN,NaN,980.31222920257,780.31222920257,980.31222920257,419.68777079743,619.68777079743,419.68777079743,619.68777079743,780.31222920257,6,0,5,4,vertical,horizontal,horizontal,horizontal
2a,18,100279,1,11,11,19,M,NA,variable,heterogeneous,4,absent,1.11622285842896,1,horizontal,horizontal,1,3,green,4,NaN,619.68777079743,780.31222920257,NaN,NaN,980.31222920257,780.31222920257,980.31222920257,419.68777079743,619.68777079743,419.68777079743,619.68777079743,780.31222920257,0,6,5,4,horizontal,horizontal,horizontal,horizontal
2a,18,100279,1,12,12,19,M,NA,variable,heterogeneous,4,present,0.810671091079712,1,vertical,vertical,1,5,green,3,4,619.68777079743,419.68777079743,619.68777079743,780.31222920257,980.31222920257,780.31222920257,980.31222920257,419.68777079743,619.68777079743,419.68777079743,619.68777079743,780.31222920257,5,6,4,0,horizontal,vertical,vertical,vertical
2a,18,100279,1,13,13,19,M,NA,variable,heterogeneous,4,absent,1.81116080284119,1,horizontal,horizontal,1,2,green,1,NaN,980.31222920257,780.31222920257,NaN,NaN,980.31222920257,780.31222920257,980.31222920257,419.68777079743,619.68777079743,419.68777079743,619.68777079743,780.31222920257,4,3,0,5,horizontal,vertical,horizontal,horizontal
2a,18,100279,1,14,14,19,M,NA,variable,heterogeneous,4,absent,0.827853202819824,1,vertical,vertical,1,3,red,3,NaN,619.68777079743,419.68777079743,NaN,NaN,980.31222920257,780.31222920257,980.31222920257,419.68777079743,619.68777079743,419.68777079743,619.68777079743,780.31222920257,0,6,4,3,vertical,vertical,vertical,vertical
2a,18,100279,1,15,15,19,M,NA,variable,heterogeneous,4,present,1.76841902732849,0,vertical,horizontal,1,2,green,4,3,619.68777079743,780.31222920257,619.68777079743,419.68777079743,980.31222920257,780.31222920257,980.31222920257,419.68777079743,619.68777079743,419.68777079743,619.68777079743,780.31222920257,6,3,5,4,horizontal,horizontal,vertical,vertical
2a,18,100279,1,16,16,19,M,NA,variable,heterogeneous,4,present,1.34408497810364,1,horizontal,horizontal,1,5,red,2,4,980.31222920257,419.68777079743,619.68777079743,780.31222920257,980.31222920257,780.31222920257,980.31222920257,419.68777079743,619.68777079743,419.68777079743,619.68777079743,780.31222920257,6,4,3,0,horizontal,horizontal,horizontal,horizontal
2a,18,100279,1,17,17,19,M,NA,variable,heterogeneous,4,present,1.91126608848572,1,horizontal,horizontal,1,8,red,1,4,980.31222920257,780.31222920257,619.68777079743,780.31222920257,980.31222920257,780.31222920257,980.31222920257,419.68777079743,619.68777079743,419.68777079743,619.68777079743,780.31222920257,4,3,6,5,horizontal,horizontal,vertical,vertical
2a,18,100279,1,18,18,19,M,NA,variable,heterogeneous,4,present,1.4179048538208,1,vertical,vertical,1,2,red,1,4,980.31222920257,780.31222920257,619.68777079743,780.31222920257,980.31222920257,780.31222920257,980.31222920257,419.68777079743,619.68777079743,419.68777079743,619.68777079743,780.31222920257,4,3,6,0,vertical,vertical,horizontal,vertical
2a,18,100279,1,19,19,19,M,NA,variable,heterogeneous,4,present,1.2904679775238,1,horizontal,horizontal,1,2,red,1,2,980.31222920257,780.31222920257,980.31222920257,419.68777079743,980.31222920257,780.31222920257,980.31222920257,419.68777079743,619.68777079743,419.68777079743,619.68777079743,780.31222920257,4,0,5,3,horizontal,vertical,vertical,vertical
2a,18,100279,1,20,20,19,M,NA,variable,heterogeneous,4,absent,1.1004490852356,1,vertical,vertical,1,2,red,4,NaN,619.68777079743,780.31222920257,NaN,NaN,980.31222920257,780.31222920257,980.31222920257,419.68777079743,619.68777079743,419.68777079743,619.68777079743,780.31222920257,3,0,5,4,horizontal,horizontal,vertical,vertical
2a,18,100279,1,21,21,19,M,NA,variable,heterogeneous,4,present,1.39437818527222,1,vertical,vertical,1,3,green,3,4,619.68777079743,419.68777079743,619.68777079743,780.31222920257,980.31222920257,780.31222920257,980.31222920257,419.68777079743,619.68777079743,419.68777079743,619.68777079743,780.31222920257,0,5,4,3,horizontal,horizontal,vertical,horizontal
2a,18,100279,1,22,22,19,M,NA,variable,heterogeneous,4,present,1.35472106933594,1,horizontal,horizontal,1,2,green,1,2,980.31222920257,780.31222920257,980.31222920257,419.68777079743,980.31222920257,780.31222920257,980.31222920257,419.68777079743,619.68777079743,419.68777079743,619.68777079743,780.31222920257,4,3,0,5,horizontal,horizontal,vertical,vertical
2a,18,100279,1,23,23,19,M,NA,variable,heterogeneous,4,absent,1.3738169670105,1,vertical,vertical,1,5,red,4,NaN,619.68777079743,780.31222920257,NaN,NaN,980.31222920257,780.31222920257,980.31222920257,419.68777079743,619.68777079743,419.68777079743,619.68777079743,780.31222920257,6,5,0,4,vertical,vertical,horizontal,vertical
2a,18,100279,1,24,24,19,M,NA,variable,heterogeneous,4,absent,1.92579102516174,1,horizontal,horizontal,1,5,red,2,NaN,980.31222920257,419.68777079743,NaN,NaN,980.31222920257,780.31222920257,980.31222920257,419.68777079743,619.68777079743,419.68777079743,619.68777079743,780.31222920257,5,4,3,0,vertical,horizontal,horizontal,horizontal
2a,18,100279,1,25,25,19,M,NA,variable,heterogeneous,4,absent,1.30030989646912,1,vertical,vertical,1,3,green,4,NaN,619.68777079743,780.31222920257,NaN,NaN,980.31222920257,780.31222920257,980.31222920257,419.68777079743,619.68777079743,419.68777079743,619.68777079743,780.31222920257,6,0,5,4,vertical,horizontal,vertical,vertical
2a,18,100279,1,26,26,19,M,NA,variable,heterogeneous,4,present,1.30655193328857,1,vertical,vertical,1,2,red,2,4,980.31222920257,419.68777079743,619.68777079743,780.31222920257,980.31222920257,780.31222920257,980.31222920257,419.68777079743,619.68777079743,419.68777079743,619.68777079743,780.31222920257,6,4,3,0,horizontal,vertical,vertical,vertical
2a,18,100279,1,27,27,19,M,NA,variable,heterogeneous,4,present,1.02084183692932,1,vertical,vertical,1,3,green,3,4,619.68777079743,419.68777079743,619.68777079743,780.31222920257,980.31222920257,780.31222920257,980.31222920257,419.68777079743,619.68777079743,419.68777079743,619.68777079743,780.31222920257,5,6,4,0,vertical,horizontal,vertical,horizontal
2a,18,100279,1,28,28,19,M,NA,variable,heterogeneous,4,present,1.3255569934845,1,horizontal,horizontal,1,2,green,1,3,980.31222920257,780.31222920257,619.68777079743,419.68777079743,980.31222920257,780.31222920257,980.31222920257,419.68777079743,619.68777079743,419.68777079743,619.68777079743,780.31222920257,4,3,6,0,horizontal,vertical,vertical,horizontal
2a,18,100279,1,29,29,19,M,NA,variable,heterogeneous,4,absent,1.69208288192749,1,vertical,vertical,1,2,green,4,NaN,619.68777079743,780.31222920257,NaN,NaN,980.31222920257,780.31222920257,980.31222920257,419.68777079743,619.68777079743,419.68777079743,619.68777079743,780.31222920257,5,6,3,4,vertical,vertical,horizontal,vertical
2a,18,100279,1,30,30,19,M,NA,variable,heterogeneous,4,absent,1.23824286460876,1,horizontal,horizontal,1,3,red,2,NaN,980.31222920257,419.68777079743,NaN,NaN,980.31222920257,780.31222920257,980.31222920257,419.68777079743,619.68777079743,419.68777079743,619.68777079743,780.31222920257,6,4,3,5,horizontal,horizontal,horizontal,horizontal
2a,18,100279,1,31,31,19,M,NA,variable,heterogeneous,4,absent,1.23111414909363,1,vertical,vertical,1,5,red,1,NaN,980.31222920257,780.31222920257,NaN,NaN,980.31222920257,780.31222920257,980.31222920257,419.68777079743,619.68777079743,419.68777079743,619.68777079743,780.31222920257,4,3,5,0,vertical,vertical,vertical,horizontal
2a,18,100279,1,32,32,19,M,NA,variable,heterogeneous,4,absent,1.75595593452454,1,vertical,vertical,1,8,red,4,NaN,619.68777079743,780.31222920257,NaN,NaN,980.31222920257,780.31222920257,980.31222920257,419.68777079743,619.68777079743,419.68777079743,619.68777079743,780.31222920257,6,0,5,4,horizontal,vertical,horizontal,vertical
2a,18,100279,2,1,33,19,M,NA,variable,heterogeneous,4,present,1.45844197273254,1,vertical,vertical,1,2,red,4,1,619.68777079743,780.31222920257,980.31222920257,780.31222920257,980.31222920257,780.31222920257,980.31222920257,419.68777079743,619.68777079743,419.68777079743,619.68777079743,780.31222920257,5,6,0,4,horizontal,horizontal,vertical,vertical
2a,18,100279,2,2,34,19,M,NA,variable,heterogeneous,4,absent,1.2673819065094,1,vertical,vertical,1,2,red,1,NaN,980.31222920257,780.31222920257,NaN,NaN,980.31222920257,780.31222920257,980.31222920257,419.68777079743,619.68777079743,419.68777079743,619.68777079743,780.31222920257,4,6,0,5,vertical,horizontal,horizontal,horizontal
2a,18,100279,2,3,35,19,M,NA,variable,heterogeneous,4,present,0.901026964187622,1,vertical,vertical,1,5,red,4,2,619.68777079743,780.31222920257,980.31222920257,419.68777079743,980.31222920257,780.31222920257,980.31222920257,419.68777079743,619.68777079743,419.68777079743,619.68777079743,780.31222920257,3,0,6,4,vertical,horizontal,horizontal,vertical
2a,18,100279,2,4,36,19,M,NA,variable,heterogeneous,4,absent,1.28341197967529,1,vertical,vertical,1,3,green,1,NaN,980.31222920257,780.31222920257,NaN,NaN,980.31222920257,780.31222920257,980.31222920257,419.68777079743,619.68777079743,419.68777079743,619.68777079743,780.31222920257,4,5,3,6,vertical,vertical,horizontal,vertical
2a,18,100279,2,5,37,19,M,NA,variable,heterogeneous,4,present,1.25330018997192,1,horizontal,horizontal,1,2,red,3,2,619.68777079743,419.68777079743,980.31222920257,419.68777079743,980.31222920257,780.31222920257,980.31222920257,419.68777079743,619.68777079743,419.68777079743,619.68777079743,780.31222920257,6,3,4,0,horizontal,vertical,horizontal,horizontal
2a,18,100279,2,6,38,19,M,NA,variable,heterogeneous,4,present,0.77052116394043,0,vertical,horizontal,1,5,red,3,2,619.68777079743,419.68777079743,980.31222920257,419.68777079743,980.31222920257,780.31222920257,980.31222920257,419.68777079743,619.68777079743,419.68777079743,619.68777079743,780.31222920257,3,6,4,5,horizontal,horizontal,vertical,horizontal
2a,18,100279,2,7,39,19,M,NA,variable,heterogeneous,4,present,1.33821201324463,1,vertical,vertical,1,2,red,4,3,619.68777079743,780.31222920257,619.68777079743,419.68777079743,980.31222920257,780.31222920257,980.31222920257,419.68777079743,619.68777079743,419.68777079743,619.68777079743,780.31222920257,5,6,3,4,horizontal,vertical,horizontal,vertical
2a,18,100279,2,8,40,19,M,NA,variable,heterogeneous,4,present,1.14876699447632,1,horizontal,horizontal,1,8,green,4,3,619.68777079743,780.31222920257,619.68777079743,419.68777079743,980.31222920257,780.31222920257,980.31222920257,419.68777079743,619.68777079743,419.68777079743,619.68777079743,780.31222920257,6,0,5,4,vertical,vertical,vertical,horizontal
2a,18,100279,2,9,41,19,M,NA,variable,heterogeneous,4,present,1.10815906524658,1,vertical,vertical,1,3,red,2,1,980.31222920257,419.68777079743,980.31222920257,780.31222920257,980.31222920257,780.31222920257,980.31222920257,419.68777079743,619.68777079743,419.68777079743,619.68777079743,780.31222920257,0,4,3,5,horizontal,vertical,vertical,vertical
2a,18,100279,2,10,42,19,M,NA,variable,heterogeneous,4,present,0.958653926849365,1,horizontal,horizontal,1,5,green,2,3,980.31222920257,419.68777079743,619.68777079743,419.68777079743,980.31222920257,780.31222920257,980.31222920257,419.68777079743,619.68777079743,419.68777079743,619.68777079743,780.31222920257,3,4,6,0,horizontal,horizontal,horizontal,vertical
2a,18,100279,2,11,43,19,M,NA,variable,heterogeneous,4,present,1.16997790336609,1,horizontal,horizontal,1,3,green,4,1,619.68777079743,780.31222920257,980.31222920257,780.31222920257,980.31222920257,780.31222920257,980.31222920257,419.68777079743,619.68777079743,419.68777079743,619.68777079743,780.31222920257,0,6,3,4,horizontal,horizontal,vertical,horizontal
2a,18,100279,2,12,44,19,M,NA,variable,heterogeneous,4,absent,1.01753997802734,1,vertical,vertical,1,8,green,2,NaN,980.31222920257,419.68777079743,NaN,NaN,980.31222920257,780.31222920257,980.31222920257,419.68777079743,619.68777079743,419.68777079743,619.68777079743,780.31222920257,5,4,3,6,vertical,vertical,vertical,horizontal
2a,18,100279,2,13,45,19,M,NA,variable,heterogeneous,4,absent,1.1381299495697,1,horizontal,horizontal,1,5,green,4,NaN,619.68777079743,780.31222920257,NaN,NaN,980.31222920257,780.31222920257,980.31222920257,419.68777079743,619.68777079743,419.68777079743,619.68777079743,780.31222920257,6,5,0,4,horizontal,horizontal,vertical,horizontal
2a,18,100279,2,14,46,19,M,NA,variable,heterogeneous,4,absent,0.964893102645874,1,horizontal,horizontal,1,5,red,2,NaN,980.31222920257,419.68777079743,NaN,NaN,980.31222920257,780.31222920257,980.31222920257,419.68777079743,619.68777079743,419.68777079743,619.68777079743,780.31222920257,0,4,5,6,vertical,horizontal,vertical,vertical
2a,18,100279,2,15,47,19,M,NA,variable,heterogeneous,4,absent,1.24477696418762,1,vertical,vertical,1,5,red,4,NaN,619.68777079743,780.31222920257,NaN,NaN,980.31222920257,780.31222920257,980.31222920257,419.68777079743,619.68777079743,419.68777079743,619.68777079743,780.31222920257,0,6,3,4,vertical,horizontal,vertical,vertical
2a,18,100279,2,16,48,19,M,NA,variable,heterogeneous,4,absent,0.7815101146698,1,vertical,vertical,1,2,red,2,NaN,980.31222920257,419.68777079743,NaN,NaN,980.31222920257,780.31222920257,980.31222920257,419.68777079743,619.68777079743,419.68777079743,619.68777079743,780.31222920257,5,4,6,0,vertical,vertical,vertical,horizontal
2a,18,100279,2,17,49,19,M,NA,variable,heterogeneous,4,absent,0.849445819854736,1,horizontal,horizontal,1,3,red,1,NaN,980.31222920257,780.31222920257,NaN,NaN,980.31222920257,780.31222920257,980.31222920257,419.68777079743,619.68777079743,419.68777079743,619.68777079743,780.31222920257,4,6,3,0,horizontal,vertical,vertical,horizontal
2a,18,100279,2,18,50,19,M,NA,variable,heterogeneous,4,absent,0.894698143005371,1,vertical,vertical,1,3,green,2,NaN,980.31222920257,419.68777079743,NaN,NaN,980.31222920257,780.31222920257,980.31222920257,419.68777079743,619.68777079743,419.68777079743,619.68777079743,780.31222920257,6,4,3,5,horizontal,vertical,horizontal,horizontal
2a,18,100279,2,19,51,19,M,NA,variable,heterogeneous,4,absent,1.02896213531494,1,horizontal,horizontal,1,2,green,3,NaN,619.68777079743,419.68777079743,NaN,NaN,980.31222920257,780.31222920257,980.31222920257,419.68777079743,619.68777079743,419.68777079743,619.68777079743,780.31222920257,3,6,4,5,horizontal,horizontal,horizontal,vertical
2a,18,100279,2,20,52,19,M,NA,variable,heterogeneous,4,present,1.56985592842102,1,horizontal,horizontal,1,5,green,4,3,619.68777079743,780.31222920257,619.68777079743,419.68777079743,980.31222920257,780.31222920257,980.31222920257,419.68777079743,619.68777079743,419.68777079743,619.68777079743,780.31222920257,5,6,3,4,vertical,horizontal,horizontal,horizontal
2a,18,100279,2,21,53,19,M,NA,variable,heterogeneous,4,absent,1.27342414855957,1,vertical,vertical,1,2,red,4,NaN,619.68777079743,780.31222920257,NaN,NaN,980.31222920257,780.31222920257,980.31222920257,419.68777079743,619.68777079743,419.68777079743,619.68777079743,780.31222920257,3,6,0,4,horizontal,vertical,horizontal,vertical
2a,18,100279,2,22,54,19,M,NA,variable,heterogeneous,4,present,1.36719083786011,1,horizontal,horizontal,1,2,red,4,3,619.68777079743,780.31222920257,619.68777079743,419.68777079743,980.31222920257,780.31222920257,980.31222920257,419.68777079743,619.68777079743,419.68777079743,619.68777079743,780.31222920257,6,0,5,4,horizontal,horizontal,vertical,horizontal
2a,18,100279,2,23,55,19,M,NA,variable,heterogeneous,4,present,1.30288100242615,1,vertical,vertical,1,2,green,2,4,980.31222920257,419.68777079743,619.68777079743,780.31222920257,980.31222920257,780.31222920257,980.31222920257,419.68777079743,619.68777079743,419.68777079743,619.68777079743,780.31222920257,0,4,5,6,vertical,vertical,horizontal,vertical
2a,18,100279,2,24,56,19,M,NA,variable,heterogeneous,4,present,1.54079484939575,1,horizontal,horizontal,1,3,green,2,3,980.31222920257,419.68777079743,619.68777079743,419.68777079743,980.31222920257,780.31222920257,980.31222920257,419.68777079743,619.68777079743,419.68777079743,619.68777079743,780.31222920257,3,4,0,5,horizontal,horizontal,vertical,vertical
2a,18,100279,2,25,57,19,M,NA,variable,heterogeneous,4,absent,1.8281090259552,1,horizontal,horizontal,1,2,green,2,NaN,980.31222920257,419.68777079743,NaN,NaN,980.31222920257,780.31222920257,980.31222920257,419.68777079743,619.68777079743,419.68777079743,619.68777079743,780.31222920257,0,4,3,5,horizontal,horizontal,horizontal,vertical
2a,18,100279,2,26,58,19,M,NA,variable,heterogeneous,4,absent,1.57691216468811,1,horizontal,horizontal,1,2,red,3,NaN,619.68777079743,419.68777079743,NaN,NaN,980.31222920257,780.31222920257,980.31222920257,419.68777079743,619.68777079743,419.68777079743,619.68777079743,780.31222920257,6,3,4,0,vertical,horizontal,horizontal,vertical
2a,18,100279,2,27,59,19,M,NA,variable,heterogeneous,4,present,1.47656416893005,1,horizontal,horizontal,1,2,green,3,4,619.68777079743,419.68777079743,619.68777079743,780.31222920257,980.31222920257,780.31222920257,980.31222920257,419.68777079743,619.68777079743,419.68777079743,619.68777079743,780.31222920257,6,3,4,5,vertical,horizontal,horizontal,vertical
2a,18,100279,2,28,60,19,M,NA,variable,heterogeneous,4,present,1.25834012031555,1,vertical,vertical,1,8,red,3,1,619.68777079743,419.68777079743,980.31222920257,780.31222920257,980.31222920257,780.31222920257,980.31222920257,419.68777079743,619.68777079743,419.68777079743,619.68777079743,780.31222920257,3,0,4,6,vertical,horizontal,vertical,horizontal
2a,18,100279,2,29,61,19,M,NA,variable,heterogeneous,4,absent,0.996017932891846,1,horizontal,horizontal,1,8,green,3,NaN,619.68777079743,419.68777079743,NaN,NaN,980.31222920257,780.31222920257,980.31222920257,419.68777079743,619.68777079743,419.68777079743,619.68777079743,780.31222920257,3,5,4,6,horizontal,vertical,horizontal,vertical
2a,18,100279,2,30,62,19,M,NA,variable,heterogeneous,4,absent,0.691793203353882,1,vertical,vertical,1,5,red,3,NaN,619.68777079743,419.68777079743,NaN,NaN,980.31222920257,780.31222920257,980.31222920257,419.68777079743,619.68777079743,419.68777079743,619.68777079743,780.31222920257,3,6,4,0,vertical,horizontal,vertical,horizontal
2a,18,100279,2,31,63,19,M,NA,variable,heterogeneous,4,absent,1.39786195755005,1,horizontal,horizontal,1,3,red,1,NaN,980.31222920257,780.31222920257,NaN,NaN,980.31222920257,780.31222920257,980.31222920257,419.68777079743,619.68777079743,419.68777079743,619.68777079743,780.31222920257,4,3,0,5,horizontal,horizontal,horizontal,vertical
2a,18,100279,2,32,64,19,M,NA,variable,heterogeneous,4,present,1.04593420028687,1,vertical,vertical,1,3,green,3,4,619.68777079743,419.68777079743,619.68777079743,780.31222920257,980.31222920257,780.31222920257,980.31222920257,419.68777079743,619.68777079743,419.68777079743,619.68777079743,780.31222920257,6,3,4,5,vertical,vertical,vertical,vertical
2a,18,100279,3,1,65,19,M,NA,variable,heterogeneous,4,absent,1.73855400085449,1,vertical,vertical,1,2,green,3,NaN,619.68777079743,419.68777079743,NaN,NaN,980.31222920257,780.31222920257,980.31222920257,419.68777079743,619.68777079743,419.68777079743,619.68777079743,780.31222920257,6,5,4,3,vertical,vertical,vertical,vertical
2a,18,100279,3,2,66,19,M,NA,variable,heterogeneous,4,absent,1.03734087944031,1,horizontal,horizontal,1,2,red,1,NaN,980.31222920257,780.31222920257,NaN,NaN,980.31222920257,780.31222920257,980.31222920257,419.68777079743,619.68777079743,419.68777079743,619.68777079743,780.31222920257,4,0,5,6,horizontal,horizontal,horizontal,horizontal
2a,18,100279,3,3,67,19,M,NA,variable,heterogeneous,4,present,1.19040107727051,1,vertical,vertical,1,2,red,2,4,980.31222920257,419.68777079743,619.68777079743,780.31222920257,980.31222920257,780.31222920257,980.31222920257,419.68777079743,619.68777079743,419.68777079743,619.68777079743,780.31222920257,5,4,3,0,horizontal,vertical,horizontal,horizontal
2a,18,100279,3,4,68,19,M,NA,variable,heterogeneous,4,present,0.862226963043213,1,vertical,vertical,1,5,red,3,2,619.68777079743,419.68777079743,980.31222920257,419.68777079743,980.31222920257,780.31222920257,980.31222920257,419.68777079743,619.68777079743,419.68777079743,619.68777079743,780.31222920257,0,6,4,3,vertical,vertical,vertical,vertical
2a,18,100279,3,5,69,19,M,NA,variable,heterogeneous,4,absent,0.719840049743652,1,horizontal,horizontal,1,5,red,3,NaN,619.68777079743,419.68777079743,NaN,NaN,980.31222920257,780.31222920257,980.31222920257,419.68777079743,619.68777079743,419.68777079743,619.68777079743,780.31222920257,0,5,4,6,vertical,horizontal,horizontal,horizontal
2a,18,100279,3,6,70,19,M,NA,variable,heterogeneous,4,absent,0.878679037094116,1,vertical,vertical,1,5,red,3,NaN,619.68777079743,419.68777079743,NaN,NaN,980.31222920257,780.31222920257,980.31222920257,419.68777079743,619.68777079743,419.68777079743,619.68777079743,780.31222920257,6,3,4,0,horizontal,vertical,vertical,vertical
2a,18,100279,3,7,71,19,M,NA,variable,heterogeneous,4,present,1.36436295509338,1,horizontal,horizontal,1,3,green,2,3,980.31222920257,419.68777079743,619.68777079743,419.68777079743,980.31222920257,780.31222920257,980.31222920257,419.68777079743,619.68777079743,419.68777079743,619.68777079743,780.31222920257,5,4,0,6,horizontal,horizontal,vertical,vertical
2a,18,100279,3,8,72,19,M,NA,variable,heterogeneous,4,present,1.66798901557922,1,horizontal,horizontal,1,2,red,4,1,619.68777079743,780.31222920257,980.31222920257,780.31222920257,980.31222920257,780.31222920257,980.31222920257,419.68777079743,619.68777079743,419.68777079743,619.68777079743,780.31222920257,0,6,3,4,horizontal,horizontal,horizontal,horizontal
2a,18,100279,3,9,73,19,M,NA,variable,heterogeneous,4,present,1.58160805702209,1,horizontal,horizontal,1,2,green,2,1,980.31222920257,419.68777079743,980.31222920257,780.31222920257,980.31222920257,780.31222920257,980.31222920257,419.68777079743,619.68777079743,419.68777079743,619.68777079743,780.31222920257,3,4,0,6,vertical,horizontal,vertical,horizontal
2a,18,100279,3,10,74,19,M,NA,variable,heterogeneous,4,present,1.52117800712585,1,vertical,vertical,1,5,red,2,4,980.31222920257,419.68777079743,619.68777079743,780.31222920257,980.31222920257,780.31222920257,980.31222920257,419.68777079743,619.68777079743,419.68777079743,619.68777079743,780.31222920257,3,4,6,0,vertical,vertical,horizontal,vertical
2a,18,100279,3,11,75,19,M,NA,variable,heterogeneous,4,absent,0.992005109786987,1,horizontal,horizontal,1,3,red,4,NaN,619.68777079743,780.31222920257,NaN,NaN,980.31222920257,780.31222920257,980.31222920257,419.68777079743,619.68777079743,419.68777079743,619.68777079743,780.31222920257,5,6,3,4,horizontal,horizontal,horizontal,horizontal
2a,18,100279,3,12,76,19,M,NA,variable,heterogeneous,4,present,1.119793176651,1,vertical,vertical,1,3,green,1,2,980.31222920257,780.31222920257,980.31222920257,419.68777079743,980.31222920257,780.31222920257,980.31222920257,419.68777079743,619.68777079743,419.68777079743,619.68777079743,780.31222920257,4,3,5,0,vertical,vertical,vertical,vertical
2a,18,100279,3,13,77,19,M,NA,variable,heterogeneous,4,absent,1.44641995429993,1,horizontal,horizontal,1,2,green,1,NaN,980.31222920257,780.31222920257,NaN,NaN,980.31222920257,780.31222920257,980.31222920257,419.68777079743,619.68777079743,419.68777079743,619.68777079743,780.31222920257,4,5,6,3,horizontal,horizontal,horizontal,vertical
2a,18,100279,3,14,78,19,M,NA,variable,heterogeneous,4,present,1.39581799507141,0,horizontal,vertical,1,8,red,2,4,980.31222920257,419.68777079743,619.68777079743,780.31222920257,980.31222920257,780.31222920257,980.31222920257,419.68777079743,619.68777079743,419.68777079743,619.68777079743,780.31222920257,6,4,0,3,horizontal,horizontal,horizontal,vertical
2a,18,100279,3,15,79,19,M,NA,variable,heterogeneous,4,absent,1.87589693069458,0,vertical,horizontal,1,3,green,4,NaN,619.68777079743,780.31222920257,NaN,NaN,980.31222920257,780.31222920257,980.31222920257,419.68777079743,619.68777079743,419.68777079743,619.68777079743,780.31222920257,3,6,5,4,horizontal,vertical,horizontal,vertical
2a,18,100279,3,16,80,19,M,NA,variable,heterogeneous,4,present,1.70586013793945,1,horizontal,horizontal,1,2,green,3,1,619.68777079743,419.68777079743,980.31222920257,780.31222920257,980.31222920257,780.31222920257,980.31222920257,419.68777079743,619.68777079743,419.68777079743,619.68777079743,780.31222920257,5,3,4,0,vertical,horizontal,horizontal,horizontal
2a,18,100279,3,17,81,19,M,NA,variable,heterogeneous,4,present,1.18013501167297,1,horizontal,horizontal,1,5,green,4,3,619.68777079743,780.31222920257,619.68777079743,419.68777079743,980.31222920257,780.31222920257,980.31222920257,419.68777079743,619.68777079743,419.68777079743,619.68777079743,780.31222920257,6,0,5,4,vertical,vertical,horizontal,horizontal
2a,18,100279,3,18,82,19,M,NA,variable,heterogeneous,4,present,1.18410801887512,0,horizontal,vertical,1,5,red,1,2,980.31222920257,780.31222920257,980.31222920257,419.68777079743,980.31222920257,780.31222920257,980.31222920257,419.68777079743,619.68777079743,419.68777079743,619.68777079743,780.31222920257,4,0,6,3,horizontal,vertical,horizontal,horizontal
2a,18,100279,3,19,83,19,M,NA,variable,heterogeneous,4,absent,1.5159649848938,1,vertical,vertical,1,2,red,1,NaN,980.31222920257,780.31222920257,NaN,NaN,980.31222920257,780.31222920257,980.31222920257,419.68777079743,619.68777079743,419.68777079743,619.68777079743,780.31222920257,4,0,5,3,vertical,vertical,horizontal,vertical
2a,18,100279,3,20,84,19,M,NA,variable,heterogeneous,4,absent,1.2143030166626,0,horizontal,vertical,1,8,green,3,NaN,619.68777079743,419.68777079743,NaN,NaN,980.31222920257,780.31222920257,980.31222920257,419.68777079743,619.68777079743,419.68777079743,619.68777079743,780.31222920257,0,5,4,6,horizontal,vertical,horizontal,horizontal
2a,18,100279,3,21,85,19,M,NA,variable,heterogeneous,4,absent,1.03904104232788,0,horizontal,vertical,1,5,green,1,NaN,980.31222920257,780.31222920257,NaN,NaN,980.31222920257,780.31222920257,980.31222920257,419.68777079743,619.68777079743,419.68777079743,619.68777079743,780.31222920257,4,5,0,6,horizontal,horizontal,horizontal,horizontal
2a,18,100279,3,22,86,19,M,NA,variable,heterogeneous,4,absent,1.38388419151306,1,horizontal,horizontal,1,2,red,2,NaN,980.31222920257,419.68777079743,NaN,NaN,980.31222920257,780.31222920257,980.31222920257,419.68777079743,619.68777079743,419.68777079743,619.68777079743,780.31222920257,3,4,6,5,horizontal,horizontal,horizontal,vertical
2a,18,100279,3,23,87,19,M,NA,variable,heterogeneous,4,absent,1.73147583007812,1,horizontal,horizontal,1,3,green,4,NaN,619.68777079743,780.31222920257,NaN,NaN,980.31222920257,780.31222920257,980.31222920257,419.68777079743,619.68777079743,419.68777079743,619.68777079743,780.31222920257,0,6,3,4,vertical,vertical,vertical,horizontal
2a,18,100279,3,24,88,19,M,NA,variable,heterogeneous,4,absent,NaN,0,vertical,none,0,3,green,4,NaN,619.68777079743,780.31222920257,NaN,NaN,980.31222920257,780.31222920257,980.31222920257,419.68777079743,619.68777079743,419.68777079743,619.68777079743,780.31222920257,6,5,0,4,vertical,horizontal,vertical,vertical
2a,18,100279,3,25,89,19,M,NA,variable,heterogeneous,4,present,1.40308713912964,1,vertical,vertical,1,3,red,2,3,980.31222920257,419.68777079743,619.68777079743,419.68777079743,980.31222920257,780.31222920257,980.31222920257,419.68777079743,619.68777079743,419.68777079743,619.68777079743,780.31222920257,5,4,0,6,vertical,vertical,vertical,horizontal
2a,18,100279,3,26,90,19,M,NA,variable,heterogeneous,4,present,1.2152259349823,1,horizontal,horizontal,1,3,green,3,4,619.68777079743,419.68777079743,619.68777079743,780.31222920257,980.31222920257,780.31222920257,980.31222920257,419.68777079743,619.68777079743,419.68777079743,619.68777079743,780.31222920257,0,5,4,3,vertical,vertical,horizontal,horizontal
2a,18,100279,3,27,91,19,M,NA,variable,heterogeneous,4,present,1.46377301216125,1,vertical,vertical,1,8,red,3,2,619.68777079743,419.68777079743,980.31222920257,419.68777079743,980.31222920257,780.31222920257,980.31222920257,419.68777079743,619.68777079743,419.68777079743,619.68777079743,780.31222920257,0,5,4,3,vertical,vertical,vertical,vertical
2a,18,100279,3,28,92,19,M,NA,variable,heterogeneous,4,present,1.22548413276672,1,vertical,vertical,1,2,red,4,3,619.68777079743,780.31222920257,619.68777079743,419.68777079743,980.31222920257,780.31222920257,980.31222920257,419.68777079743,619.68777079743,419.68777079743,619.68777079743,780.31222920257,3,0,5,4,horizontal,vertical,horizontal,vertical
2a,18,100279,3,29,93,19,M,NA,variable,heterogeneous,4,absent,1.58996319770813,1,vertical,vertical,1,2,green,4,NaN,619.68777079743,780.31222920257,NaN,NaN,980.31222920257,780.31222920257,980.31222920257,419.68777079743,619.68777079743,419.68777079743,619.68777079743,780.31222920257,6,5,0,4,horizontal,vertical,horizontal,vertical
2a,18,100279,3,30,94,19,M,NA,variable,heterogeneous,4,absent,1.11806106567383,1,vertical,vertical,1,5,red,1,NaN,980.31222920257,780.31222920257,NaN,NaN,980.31222920257,780.31222920257,980.31222920257,419.68777079743,619.68777079743,419.68777079743,619.68777079743,780.31222920257,4,5,0,3,vertical,horizontal,horizontal,horizontal
2a,18,100279,3,31,95,19,M,NA,variable,heterogeneous,4,absent,0.980896949768066,1,vertical,vertical,1,8,red,2,NaN,980.31222920257,419.68777079743,NaN,NaN,980.31222920257,780.31222920257,980.31222920257,419.68777079743,619.68777079743,419.68777079743,619.68777079743,780.31222920257,3,4,5,0,vertical,vertical,horizontal,vertical
2a,18,100279,3,32,96,19,M,NA,variable,heterogeneous,4,present,1.30492186546326,1,vertical,vertical,1,2,green,1,3,980.31222920257,780.31222920257,619.68777079743,419.68777079743,980.31222920257,780.31222920257,980.31222920257,419.68777079743,619.68777079743,419.68777079743,619.68777079743,780.31222920257,4,3,6,5,vertical,horizontal,vertical,vertical
2a,18,100279,4,1,97,19,M,NA,variable,heterogeneous,4,absent,NaN,0,vertical,none,0,3,red,3,NaN,619.68777079743,419.68777079743,NaN,NaN,980.31222920257,780.31222920257,980.31222920257,419.68777079743,619.68777079743,419.68777079743,619.68777079743,780.31222920257,0,6,4,5,vertical,horizontal,vertical,horizontal
2a,18,100279,4,2,98,19,M,NA,variable,heterogeneous,4,absent,0.994461059570312,1,horizontal,horizontal,1,8,red,3,NaN,619.68777079743,419.68777079743,NaN,NaN,980.31222920257,780.31222920257,980.31222920257,419.68777079743,619.68777079743,419.68777079743,619.68777079743,780.31222920257,6,3,4,5,vertical,vertical,horizontal,horizontal
2a,18,100279,4,3,99,19,M,NA,variable,heterogeneous,4,present,1.46654915809631,1,vertical,vertical,1,8,red,4,3,619.68777079743,780.31222920257,619.68777079743,419.68777079743,980.31222920257,780.31222920257,980.31222920257,419.68777079743,619.68777079743,419.68777079743,619.68777079743,780.31222920257,5,6,3,4,horizontal,horizontal,horizontal,vertical
2a,18,100279,4,4,100,19,M,NA,variable,heterogeneous,4,present,1.07587003707886,1,vertical,vertical,1,3,red,1,3,980.31222920257,780.31222920257,619.68777079743,419.68777079743,980.31222920257,780.31222920257,980.31222920257,419.68777079743,619.68777079743,419.68777079743,619.68777079743,780.31222920257,4,0,6,5,vertical,horizontal,vertical,vertical
2a,18,100279,4,5,101,19,M,NA,variable,heterogeneous,4,present,1.72987580299377,1,horizontal,horizontal,1,3,red,2,4,980.31222920257,419.68777079743,619.68777079743,780.31222920257,980.31222920257,780.31222920257,980.31222920257,419.68777079743,619.68777079743,419.68777079743,619.68777079743,780.31222920257,6,4,3,5,horizontal,horizontal,vertical,horizontal
2a,18,100279,4,6,102,19,M,NA,variable,heterogeneous,4,present,1.18078589439392,1,horizontal,horizontal,1,3,red,4,1,619.68777079743,780.31222920257,980.31222920257,780.31222920257,980.31222920257,780.31222920257,980.31222920257,419.68777079743,619.68777079743,419.68777079743,619.68777079743,780.31222920257,3,5,0,4,vertical,vertical,horizontal,horizontal
2a,18,100279,4,7,103,19,M,NA,variable,heterogeneous,4,absent,1.80865788459778,1,horizontal,horizontal,1,3,red,2,NaN,980.31222920257,419.68777079743,NaN,NaN,980.31222920257,780.31222920257,980.31222920257,419.68777079743,619.68777079743,419.68777079743,619.68777079743,780.31222920257,3,4,5,0,horizontal,horizontal,vertical,vertical
2a,18,100279,4,8,104,19,M,NA,variable,heterogeneous,4,present,1.90880990028381,0,vertical,horizontal,1,5,green,4,2,619.68777079743,780.31222920257,980.31222920257,419.68777079743,980.31222920257,780.31222920257,980.31222920257,419.68777079743,619.68777079743,419.68777079743,619.68777079743,780.31222920257,3,5,6,4,vertical,vertical,horizontal,vertical
2a,18,100279,4,9,105,19,M,NA,variable,heterogeneous,4,absent,1.119145154953,1,vertical,vertical,1,3,green,4,NaN,619.68777079743,780.31222920257,NaN,NaN,980.31222920257,780.31222920257,980.31222920257,419.68777079743,619.68777079743,419.68777079743,619.68777079743,780.31222920257,5,3,6,4,horizontal,vertical,vertical,vertical
2a,18,100279,4,10,106,19,M,NA,variable,heterogeneous,4,present,1.51800894737244,1,vertical,vertical,1,3,green,3,2,619.68777079743,419.68777079743,980.31222920257,419.68777079743,980.31222920257,780.31222920257,980.31222920257,419.68777079743,619.68777079743,419.68777079743,619.68777079743,780.31222920257,5,0,4,6,horizontal,horizontal,vertical,horizontal
2a,18,100279,4,11,107,19,M,NA,variable,heterogeneous,4,absent,1.25283908843994,1,horizontal,horizontal,1,2,red,2,NaN,980.31222920257,419.68777079743,NaN,NaN,980.31222920257,780.31222920257,980.31222920257,419.68777079743,619.68777079743,419.68777079743,619.68777079743,780.31222920257,5,4,0,3,horizontal,horizontal,vertical,horizontal
2a,18,100279,4,12,108,19,M,NA,variable,heterogeneous,4,absent,1.58575391769409,1,vertical,vertical,1,5,green,3,NaN,619.68777079743,419.68777079743,NaN,NaN,980.31222920257,780.31222920257,980.31222920257,419.68777079743,619.68777079743,419.68777079743,619.68777079743,780.31222920257,5,3,4,6,vertical,horizontal,vertical,vertical
2a,18,100279,4,13,109,19,M,NA,variable,heterogeneous,4,present,1.79760694503784,1,vertical,vertical,1,5,red,3,4,619.68777079743,419.68777079743,619.68777079743,780.31222920257,980.31222920257,780.31222920257,980.31222920257,419.68777079743,619.68777079743,419.68777079743,619.68777079743,780.31222920257,0,3,4,6,vertical,vertical,vertical,horizontal
2a,18,100279,4,14,110,19,M,NA,variable,heterogeneous,4,absent,1.30182099342346,1,horizontal,horizontal,1,3,red,4,NaN,619.68777079743,780.31222920257,NaN,NaN,980.31222920257,780.31222920257,980.31222920257,419.68777079743,619.68777079743,419.68777079743,619.68777079743,780.31222920257,6,3,0,4,horizontal,horizontal,vertical,horizontal
2a,18,100279,4,15,111,19,M,NA,variable,heterogeneous,4,present,NaN,0,vertical,none,0,2,green,3,2,619.68777079743,419.68777079743,980.31222920257,419.68777079743,980.31222920257,780.31222920257,980.31222920257,419.68777079743,619.68777079743,419.68777079743,619.68777079743,780.31222920257,6,3,4,0,horizontal,horizontal,vertical,vertical
2a,18,100279,4,16,112,19,M,NA,variable,heterogeneous,4,present,1.488520860672,1,horizontal,horizontal,1,2,red,1,4,980.31222920257,780.31222920257,619.68777079743,780.31222920257,980.31222920257,780.31222920257,980.31222920257,419.68777079743,619.68777079743,419.68777079743,619.68777079743,780.31222920257,4,3,6,5,horizontal,horizontal,horizontal,horizontal
2a,18,100279,4,17,113,19,M,NA,variable,heterogeneous,4,absent,1.67439198493958,1,horizontal,horizontal,1,2,red,2,NaN,980.31222920257,419.68777079743,NaN,NaN,980.31222920257,780.31222920257,980.31222920257,419.68777079743,619.68777079743,419.68777079743,619.68777079743,780.31222920257,3,4,5,0,vertical,horizontal,vertical,horizontal
2a,18,100279,4,18,114,19,M,NA,variable,heterogeneous,4,present,1.33600091934204,1,horizontal,horizontal,1,2,red,1,2,980.31222920257,780.31222920257,980.31222920257,419.68777079743,980.31222920257,780.31222920257,980.31222920257,419.68777079743,619.68777079743,419.68777079743,619.68777079743,780.31222920257,4,6,3,5,horizontal,vertical,vertical,vertical
2a,18,100279,4,19,115,19,M,NA,variable,heterogeneous,4,present,1.11483097076416,1,vertical,vertical,1,2,red,2,4,980.31222920257,419.68777079743,619.68777079743,780.31222920257,980.31222920257,780.31222920257,980.31222920257,419.68777079743,619.68777079743,419.68777079743,619.68777079743,780.31222920257,0,4,3,5,horizontal,vertical,vertical,horizontal
2a,18,100279,4,20,116,19,M,NA,variable,heterogeneous,4,present,1.55736899375916,1,horizontal,horizontal,1,5,red,1,4,980.31222920257,780.31222920257,619.68777079743,780.31222920257,980.31222920257,780.31222920257,980.31222920257,419.68777079743,619.68777079743,419.68777079743,619.68777079743,780.31222920257,4,6,3,0,horizontal,vertical,vertical,horizontal
2a,18,100279,4,21,117,19,M,NA,variable,heterogeneous,4,absent,1.20103907585144,1,vertical,vertical,1,5,red,3,NaN,619.68777079743,419.68777079743,NaN,NaN,980.31222920257,780.31222920257,980.31222920257,419.68777079743,619.68777079743,419.68777079743,619.68777079743,780.31222920257,6,3,4,5,horizontal,vertical,vertical,horizontal
2a,18,100279,4,22,118,19,M,NA,variable,heterogeneous,4,present,NaN,0,vertical,none,0,2,green,2,3,980.31222920257,419.68777079743,619.68777079743,419.68777079743,980.31222920257,780.31222920257,980.31222920257,419.68777079743,619.68777079743,419.68777079743,619.68777079743,780.31222920257,0,4,6,3,horizontal,vertical,horizontal,horizontal
2a,18,100279,4,23,119,19,M,NA,variable,heterogeneous,4,absent,1.72132706642151,1,horizontal,horizontal,1,2,green,3,NaN,619.68777079743,419.68777079743,NaN,NaN,980.31222920257,780.31222920257,980.31222920257,419.68777079743,619.68777079743,419.68777079743,619.68777079743,780.31222920257,6,5,4,0,horizontal,vertical,horizontal,vertical
2a,18,100279,4,24,120,19,M,NA,variable,heterogeneous,4,absent,1.29585695266724,1,horizontal,horizontal,1,5,green,1,NaN,980.31222920257,780.31222920257,NaN,NaN,980.31222920257,780.31222920257,980.31222920257,419.68777079743,619.68777079743,419.68777079743,619.68777079743,780.31222920257,4,5,6,3,horizontal,horizontal,horizontal,horizontal
2a,18,100279,4,25,121,19,M,NA,variable,heterogeneous,4,present,1.23816895484924,0,horizontal,vertical,1,2,green,4,3,619.68777079743,780.31222920257,619.68777079743,419.68777079743,980.31222920257,780.31222920257,980.31222920257,419.68777079743,619.68777079743,419.68777079743,619.68777079743,780.31222920257,5,6,0,4,horizontal,vertical,vertical,horizontal
2a,18,100279,4,26,122,19,M,NA,variable,heterogeneous,4,absent,1.4390721321106,1,horizontal,horizontal,1,5,green,2,NaN,980.31222920257,419.68777079743,NaN,NaN,980.31222920257,780.31222920257,980.31222920257,419.68777079743,619.68777079743,419.68777079743,619.68777079743,780.31222920257,6,4,0,5,vertical,horizontal,horizontal,vertical
2a,18,100279,4,27,123,19,M,NA,variable,heterogeneous,4,absent,0.69595193862915,1,vertical,vertical,1,2,green,2,NaN,980.31222920257,419.68777079743,NaN,NaN,980.31222920257,780.31222920257,980.31222920257,419.68777079743,619.68777079743,419.68777079743,619.68777079743,780.31222920257,0,4,5,6,horizontal,vertical,vertical,horizontal
2a,18,100279,4,28,124,19,M,NA,variable,heterogeneous,4,absent,1.23850011825562,1,vertical,vertical,1,2,green,4,NaN,619.68777079743,780.31222920257,NaN,NaN,980.31222920257,780.31222920257,980.31222920257,419.68777079743,619.68777079743,419.68777079743,619.68777079743,780.31222920257,0,3,5,4,horizontal,horizontal,horizontal,vertical
2a,18,100279,4,29,125,19,M,NA,variable,heterogeneous,4,absent,0.967467784881592,1,vertical,vertical,1,2,red,2,NaN,980.31222920257,419.68777079743,NaN,NaN,980.31222920257,780.31222920257,980.31222920257,419.68777079743,619.68777079743,419.68777079743,619.68777079743,780.31222920257,0,4,5,6,vertical,vertical,vertical,horizontal
2a,18,100279,4,30,126,19,M,NA,variable,heterogeneous,4,present,0.831016063690186,1,horizontal,horizontal,1,5,green,4,3,619.68777079743,780.31222920257,619.68777079743,419.68777079743,980.31222920257,780.31222920257,980.31222920257,419.68777079743,619.68777079743,419.68777079743,619.68777079743,780.31222920257,0,6,5,4,horizontal,horizontal,horizontal,horizontal
2a,18,100279,4,31,127,19,M,NA,variable,heterogeneous,4,present,1.05189514160156,1,horizontal,horizontal,1,8,green,2,4,980.31222920257,419.68777079743,619.68777079743,780.31222920257,980.31222920257,780.31222920257,980.31222920257,419.68777079743,619.68777079743,419.68777079743,619.68777079743,780.31222920257,5,4,0,6,horizontal,horizontal,vertical,horizontal
2a,18,100279,4,32,128,19,M,NA,variable,heterogeneous,4,absent,1.00140881538391,0,vertical,horizontal,1,8,green,2,NaN,980.31222920257,419.68777079743,NaN,NaN,980.31222920257,780.31222920257,980.31222920257,419.68777079743,619.68777079743,419.68777079743,619.68777079743,780.31222920257,6,4,3,5,horizontal,vertical,vertical,vertical
2a,18,100279,5,1,129,19,M,NA,variable,heterogeneous,4,absent,1.32199811935425,1,vertical,vertical,1,2,green,3,NaN,619.68777079743,419.68777079743,NaN,NaN,980.31222920257,780.31222920257,980.31222920257,419.68777079743,619.68777079743,419.68777079743,619.68777079743,780.31222920257,3,5,4,6,horizontal,vertical,vertical,horizontal
2a,18,100279,5,2,130,19,M,NA,variable,heterogeneous,4,absent,1.15245795249939,1,horizontal,horizontal,1,5,green,2,NaN,980.31222920257,419.68777079743,NaN,NaN,980.31222920257,780.31222920257,980.31222920257,419.68777079743,619.68777079743,419.68777079743,619.68777079743,780.31222920257,6,4,0,5,vertical,horizontal,vertical,horizontal
2a,18,100279,5,3,131,19,M,NA,variable,heterogeneous,4,present,1.11593103408813,1,vertical,vertical,1,5,green,3,1,619.68777079743,419.68777079743,980.31222920257,780.31222920257,980.31222920257,780.31222920257,980.31222920257,419.68777079743,619.68777079743,419.68777079743,619.68777079743,780.31222920257,0,3,4,6,vertical,horizontal,vertical,vertical
2a,18,100279,5,4,132,19,M,NA,variable,heterogeneous,4,absent,0.750209093093872,1,horizontal,horizontal,1,2,red,3,NaN,619.68777079743,419.68777079743,NaN,NaN,980.31222920257,780.31222920257,980.31222920257,419.68777079743,619.68777079743,419.68777079743,619.68777079743,780.31222920257,6,0,4,5,vertical,vertical,horizontal,vertical
2a,18,100279,5,5,133,19,M,NA,variable,heterogeneous,4,present,1.35741901397705,1,vertical,vertical,1,2,green,1,3,980.31222920257,780.31222920257,619.68777079743,419.68777079743,980.31222920257,780.31222920257,980.31222920257,419.68777079743,619.68777079743,419.68777079743,619.68777079743,780.31222920257,4,3,0,5,vertical,horizontal,horizontal,horizontal
2a,18,100279,5,6,134,19,M,NA,variable,heterogeneous,4,present,1.00874495506287,1,vertical,vertical,1,5,green,1,4,980.31222920257,780.31222920257,619.68777079743,780.31222920257,980.31222920257,780.31222920257,980.31222920257,419.68777079743,619.68777079743,419.68777079743,619.68777079743,780.31222920257,4,0,3,5,vertical,vertical,vertical,horizontal
2a,18,100279,5,7,135,19,M,NA,variable,heterogeneous,4,absent,1.54108190536499,1,vertical,vertical,1,5,green,2,NaN,980.31222920257,419.68777079743,NaN,NaN,980.31222920257,780.31222920257,980.31222920257,419.68777079743,619.68777079743,419.68777079743,619.68777079743,780.31222920257,3,4,0,5,horizontal,vertical,vertical,horizontal
2a,18,100279,5,8,136,19,M,NA,variable,heterogeneous,4,present,1.46833395957947,1,horizontal,horizontal,1,5,red,4,3,619.68777079743,780.31222920257,619.68777079743,419.68777079743,980.31222920257,780.31222920257,980.31222920257,419.68777079743,619.68777079743,419.68777079743,619.68777079743,780.31222920257,0,6,3,4,vertical,vertical,horizontal,horizontal
2a,18,100279,5,9,137,19,M,NA,variable,heterogeneous,4,absent,1.57375597953796,1,horizontal,horizontal,1,5,green,4,NaN,619.68777079743,780.31222920257,NaN,NaN,980.31222920257,780.31222920257,980.31222920257,419.68777079743,619.68777079743,419.68777079743,619.68777079743,780.31222920257,3,0,5,4,vertical,vertical,horizontal,horizontal
2a,18,100279,5,10,138,19,M,NA,variable,heterogeneous,4,present,1.82953190803528,1,horizontal,horizontal,1,3,green,2,3,980.31222920257,419.68777079743,619.68777079743,419.68777079743,980.31222920257,780.31222920257,980.31222920257,419.68777079743,619.68777079743,419.68777079743,619.68777079743,780.31222920257,5,4,0,3,horizontal,horizontal,horizontal,horizontal
2a,18,100279,5,11,139,19,M,NA,variable,heterogeneous,4,absent,1.29058694839478,1,horizontal,horizontal,1,8,red,1,NaN,980.31222920257,780.31222920257,NaN,NaN,980.31222920257,780.31222920257,980.31222920257,419.68777079743,619.68777079743,419.68777079743,619.68777079743,780.31222920257,4,0,6,5,horizontal,horizontal,vertical,horizontal
2a,18,100279,5,12,140,19,M,NA,variable,heterogeneous,4,absent,1.1722559928894,1,vertical,vertical,1,3,green,3,NaN,619.68777079743,419.68777079743,NaN,NaN,980.31222920257,780.31222920257,980.31222920257,419.68777079743,619.68777079743,419.68777079743,619.68777079743,780.31222920257,5,6,4,0,vertical,horizontal,vertical,horizontal
2a,18,100279,5,13,141,19,M,NA,variable,heterogeneous,4,absent,1.7637140750885,1,horizontal,horizontal,1,3,red,4,NaN,619.68777079743,780.31222920257,NaN,NaN,980.31222920257,780.31222920257,980.31222920257,419.68777079743,619.68777079743,419.68777079743,619.68777079743,780.31222920257,3,0,6,4,vertical,vertical,horizontal,horizontal
2a,18,100279,5,14,142,19,M,NA,variable,heterogeneous,4,present,1.17155885696411,1,vertical,vertical,1,2,green,4,2,619.68777079743,780.31222920257,980.31222920257,419.68777079743,980.31222920257,780.31222920257,980.31222920257,419.68777079743,619.68777079743,419.68777079743,619.68777079743,780.31222920257,0,3,5,4,horizontal,horizontal,horizontal,vertical
2a,18,100279,5,15,143,19,M,NA,variable,heterogeneous,4,absent,1.19503808021545,1,vertical,vertical,1,2,green,1,NaN,980.31222920257,780.31222920257,NaN,NaN,980.31222920257,780.31222920257,980.31222920257,419.68777079743,619.68777079743,419.68777079743,619.68777079743,780.31222920257,4,0,5,3,vertical,vertical,vertical,vertical
2a,18,100279,5,16,144,19,M,NA,variable,heterogeneous,4,absent,1.97134900093079,1,horizontal,horizontal,1,3,red,3,NaN,619.68777079743,419.68777079743,NaN,NaN,980.31222920257,780.31222920257,980.31222920257,419.68777079743,619.68777079743,419.68777079743,619.68777079743,780.31222920257,3,6,4,5,vertical,horizontal,horizontal,vertical
2a,18,100279,5,17,145,19,M,NA,variable,heterogeneous,4,absent,1.12267398834229,1,vertical,vertical,1,3,red,4,NaN,619.68777079743,780.31222920257,NaN,NaN,980.31222920257,780.31222920257,980.31222920257,419.68777079743,619.68777079743,419.68777079743,619.68777079743,780.31222920257,5,6,3,4,horizontal,horizontal,horizontal,vertical
2a,18,100279,5,18,146,19,M,NA,variable,heterogeneous,4,present,1.28140997886658,1,vertical,vertical,1,3,red,1,3,980.31222920257,780.31222920257,619.68777079743,419.68777079743,980.31222920257,780.31222920257,980.31222920257,419.68777079743,619.68777079743,419.68777079743,619.68777079743,780.31222920257,4,6,0,5,vertical,horizontal,horizontal,vertical
2a,18,100279,5,19,147,19,M,NA,variable,heterogeneous,4,present,NaN,0,vertical,none,0,3,green,1,4,980.31222920257,780.31222920257,619.68777079743,780.31222920257,980.31222920257,780.31222920257,980.31222920257,419.68777079743,619.68777079743,419.68777079743,619.68777079743,780.31222920257,4,6,0,5,vertical,vertical,vertical,horizontal
2a,18,100279,5,20,148,19,M,NA,variable,heterogeneous,4,present,1.11176490783691,1,horizontal,horizontal,1,5,red,3,2,619.68777079743,419.68777079743,980.31222920257,419.68777079743,980.31222920257,780.31222920257,980.31222920257,419.68777079743,619.68777079743,419.68777079743,619.68777079743,780.31222920257,5,3,4,0,vertical,horizontal,horizontal,horizontal
2a,18,100279,5,21,149,19,M,NA,variable,heterogeneous,4,absent,1.2660858631134,1,vertical,vertical,1,5,red,4,NaN,619.68777079743,780.31222920257,NaN,NaN,980.31222920257,780.31222920257,980.31222920257,419.68777079743,619.68777079743,419.68777079743,619.68777079743,780.31222920257,5,3,0,4,horizontal,vertical,horizontal,vertical
2a,18,100279,5,22,150,19,M,NA,variable,heterogeneous,4,absent,1.0835919380188,1,vertical,vertical,1,2,red,3,NaN,619.68777079743,419.68777079743,NaN,NaN,980.31222920257,780.31222920257,980.31222920257,419.68777079743,619.68777079743,419.68777079743,619.68777079743,780.31222920257,5,3,4,6,vertical,horizontal,vertical,horizontal
2a,18,100279,5,23,151,19,M,NA,variable,heterogeneous,4,absent,0.981441974639893,1,horizontal,horizontal,1,2,red,1,NaN,980.31222920257,780.31222920257,NaN,NaN,980.31222920257,780.31222920257,980.31222920257,419.68777079743,619.68777079743,419.68777079743,619.68777079743,780.31222920257,4,3,0,6,horizontal,horizontal,vertical,horizontal
2a,18,100279,5,24,152,19,M,NA,variable,heterogeneous,4,absent,1.5135509967804,0,vertical,horizontal,1,8,red,2,NaN,980.31222920257,419.68777079743,NaN,NaN,980.31222920257,780.31222920257,980.31222920257,419.68777079743,619.68777079743,419.68777079743,619.68777079743,780.31222920257,3,4,0,6,vertical,vertical,horizontal,horizontal
2a,18,100279,5,25,153,19,M,NA,variable,heterogeneous,4,present,1.08392715454102,0,horizontal,vertical,1,8,red,3,2,619.68777079743,419.68777079743,980.31222920257,419.68777079743,980.31222920257,780.31222920257,980.31222920257,419.68777079743,619.68777079743,419.68777079743,619.68777079743,780.31222920257,6,3,4,0,vertical,horizontal,horizontal,vertical
2a,18,100279,5,26,154,19,M,NA,variable,heterogeneous,4,present,0.997863054275513,1,horizontal,horizontal,1,2,green,3,4,619.68777079743,419.68777079743,619.68777079743,780.31222920257,980.31222920257,780.31222920257,980.31222920257,419.68777079743,619.68777079743,419.68777079743,619.68777079743,780.31222920257,6,0,4,5,horizontal,vertical,horizontal,horizontal
2a,18,100279,5,27,155,19,M,NA,variable,heterogeneous,4,present,1.63007402420044,1,vertical,vertical,1,8,red,2,4,980.31222920257,419.68777079743,619.68777079743,780.31222920257,980.31222920257,780.31222920257,980.31222920257,419.68777079743,619.68777079743,419.68777079743,619.68777079743,780.31222920257,5,4,0,3,horizontal,vertical,horizontal,horizontal
2a,18,100279,5,28,156,19,M,NA,variable,heterogeneous,4,present,1.13879299163818,1,horizontal,horizontal,1,3,green,2,3,980.31222920257,419.68777079743,619.68777079743,419.68777079743,980.31222920257,780.31222920257,980.31222920257,419.68777079743,619.68777079743,419.68777079743,619.68777079743,780.31222920257,5,4,3,6,horizontal,horizontal,horizontal,horizontal
2a,18,100279,5,29,157,19,M,NA,variable,heterogeneous,4,present,1.64583706855774,1,horizontal,horizontal,1,2,green,4,1,619.68777079743,780.31222920257,980.31222920257,780.31222920257,980.31222920257,780.31222920257,980.31222920257,419.68777079743,619.68777079743,419.68777079743,619.68777079743,780.31222920257,0,3,5,4,horizontal,vertical,horizontal,horizontal
2a,18,100279,5,30,158,19,M,NA,variable,heterogeneous,4,absent,1.55499601364136,1,horizontal,horizontal,1,2,green,1,NaN,980.31222920257,780.31222920257,NaN,NaN,980.31222920257,780.31222920257,980.31222920257,419.68777079743,619.68777079743,419.68777079743,619.68777079743,780.31222920257,4,3,5,0,horizontal,vertical,horizontal,vertical
2a,18,100279,5,31,159,19,M,NA,variable,heterogeneous,4,present,1.03055095672607,1,horizontal,horizontal,1,2,green,3,1,619.68777079743,419.68777079743,980.31222920257,780.31222920257,980.31222920257,780.31222920257,980.31222920257,419.68777079743,619.68777079743,419.68777079743,619.68777079743,780.31222920257,3,6,4,5,horizontal,vertical,horizontal,horizontal
2a,18,100279,5,32,160,19,M,NA,variable,heterogeneous,4,present,1.05109000205994,1,vertical,vertical,1,2,red,3,2,619.68777079743,419.68777079743,980.31222920257,419.68777079743,980.31222920257,780.31222920257,980.31222920257,419.68777079743,619.68777079743,419.68777079743,619.68777079743,780.31222920257,0,5,4,6,horizontal,horizontal,vertical,horizontal
2a,18,100279,6,1,161,19,M,NA,variable,heterogeneous,4,present,0.984973907470703,1,vertical,vertical,1,8,red,2,3,980.31222920257,419.68777079743,619.68777079743,419.68777079743,980.31222920257,780.31222920257,980.31222920257,419.68777079743,619.68777079743,419.68777079743,619.68777079743,780.31222920257,5,4,3,6,horizontal,vertical,vertical,horizontal
2a,18,100279,6,2,162,19,M,NA,variable,heterogeneous,4,present,1.06884002685547,1,horizontal,horizontal,1,2,green,3,1,619.68777079743,419.68777079743,980.31222920257,780.31222920257,980.31222920257,780.31222920257,980.31222920257,419.68777079743,619.68777079743,419.68777079743,619.68777079743,780.31222920257,0,6,4,3,vertical,horizontal,horizontal,vertical
2a,18,100279,6,3,163,19,M,NA,variable,heterogeneous,4,absent,1.06246304512024,1,vertical,vertical,1,5,green,3,NaN,619.68777079743,419.68777079743,NaN,NaN,980.31222920257,780.31222920257,980.31222920257,419.68777079743,619.68777079743,419.68777079743,619.68777079743,780.31222920257,0,6,4,3,horizontal,vertical,vertical,horizontal
2a,18,100279,6,4,164,19,M,NA,variable,heterogeneous,4,absent,1.62391901016235,1,vertical,vertical,1,8,red,4,NaN,619.68777079743,780.31222920257,NaN,NaN,980.31222920257,780.31222920257,980.31222920257,419.68777079743,619.68777079743,419.68777079743,619.68777079743,780.31222920257,6,0,5,4,vertical,vertical,vertical,vertical
2a,18,100279,6,5,165,19,M,NA,variable,heterogeneous,4,present,0.812685966491699,1,horizontal,horizontal,1,5,green,3,2,619.68777079743,419.68777079743,980.31222920257,419.68777079743,980.31222920257,780.31222920257,980.31222920257,419.68777079743,619.68777079743,419.68777079743,619.68777079743,780.31222920257,3,5,4,6,vertical,vertical,horizontal,vertical
2a,18,100279,6,6,166,19,M,NA,variable,heterogeneous,4,absent,1.01321196556091,1,vertical,vertical,1,2,red,4,NaN,619.68777079743,780.31222920257,NaN,NaN,980.31222920257,780.31222920257,980.31222920257,419.68777079743,619.68777079743,419.68777079743,619.68777079743,780.31222920257,5,0,6,4,horizontal,horizontal,vertical,vertical
2a,18,100279,6,7,167,19,M,NA,variable,heterogeneous,4,absent,1.23770999908447,1,horizontal,horizontal,1,2,red,2,NaN,980.31222920257,419.68777079743,NaN,NaN,980.31222920257,780.31222920257,980.31222920257,419.68777079743,619.68777079743,419.68777079743,619.68777079743,780.31222920257,5,4,0,3,vertical,horizontal,horizontal,vertical
2a,18,100279,6,8,168,19,M,NA,variable,heterogeneous,4,absent,1.63879609107971,1,horizontal,horizontal,1,2,red,4,NaN,619.68777079743,780.31222920257,NaN,NaN,980.31222920257,780.31222920257,980.31222920257,419.68777079743,619.68777079743,419.68777079743,619.68777079743,780.31222920257,3,6,5,4,vertical,horizontal,horizontal,horizontal
2a,18,100279,6,9,169,19,M,NA,variable,heterogeneous,4,absent,1.31976199150085,1,horizontal,horizontal,1,8,green,2,NaN,980.31222920257,419.68777079743,NaN,NaN,980.31222920257,780.31222920257,980.31222920257,419.68777079743,619.68777079743,419.68777079743,619.68777079743,780.31222920257,6,4,3,5,horizontal,horizontal,vertical,vertical
2a,18,100279,6,10,170,19,M,NA,variable,heterogeneous,4,absent,1.36638402938843,1,vertical,vertical,1,2,red,4,NaN,619.68777079743,780.31222920257,NaN,NaN,980.31222920257,780.31222920257,980.31222920257,419.68777079743,619.68777079743,419.68777079743,619.68777079743,780.31222920257,3,5,0,4,vertical,vertical,horizontal,vertical
2a,18,100279,6,11,171,19,M,NA,variable,heterogeneous,4,absent,1.23008608818054,1,vertical,vertical,1,3,red,3,NaN,619.68777079743,419.68777079743,NaN,NaN,980.31222920257,780.31222920257,980.31222920257,419.68777079743,619.68777079743,419.68777079743,619.68777079743,780.31222920257,3,5,4,0,vertical,horizontal,vertical,vertical
2a,18,100279,6,12,172,19,M,NA,variable,heterogeneous,4,present,1.01893186569214,1,vertical,vertical,1,2,red,1,3,980.31222920257,780.31222920257,619.68777079743,419.68777079743,980.31222920257,780.31222920257,980.31222920257,419.68777079743,619.68777079743,419.68777079743,619.68777079743,780.31222920257,4,6,5,0,vertical,horizontal,horizontal,vertical
2a,18,100279,6,13,173,19,M,NA,variable,heterogeneous,4,absent,1.09163117408752,1,vertical,vertical,1,3,green,4,NaN,619.68777079743,780.31222920257,NaN,NaN,980.31222920257,780.31222920257,980.31222920257,419.68777079743,619.68777079743,419.68777079743,619.68777079743,780.31222920257,5,3,0,4,horizontal,vertical,vertical,vertical
2a,18,100279,6,14,174,19,M,NA,variable,heterogeneous,4,absent,1.33314514160156,1,horizontal,horizontal,1,3,green,4,NaN,619.68777079743,780.31222920257,NaN,NaN,980.31222920257,780.31222920257,980.31222920257,419.68777079743,619.68777079743,419.68777079743,619.68777079743,780.31222920257,5,0,3,4,horizontal,vertical,horizontal,horizontal
2a,18,100279,6,15,175,19,M,NA,variable,heterogeneous,4,present,1.72813415527344,1,vertical,vertical,1,5,green,1,3,980.31222920257,780.31222920257,619.68777079743,419.68777079743,980.31222920257,780.31222920257,980.31222920257,419.68777079743,619.68777079743,419.68777079743,619.68777079743,780.31222920257,4,3,6,0,vertical,vertical,vertical,vertical
2a,18,100279,6,16,176,19,M,NA,variable,heterogeneous,4,present,1.17920684814453,1,vertical,vertical,1,3,red,4,2,619.68777079743,780.31222920257,980.31222920257,419.68777079743,980.31222920257,780.31222920257,980.31222920257,419.68777079743,619.68777079743,419.68777079743,619.68777079743,780.31222920257,6,5,0,4,horizontal,horizontal,horizontal,vertical
2a,18,100279,6,17,177,19,M,NA,variable,heterogeneous,4,absent,1.3271279335022,1,horizontal,horizontal,1,5,green,2,NaN,980.31222920257,419.68777079743,NaN,NaN,980.31222920257,780.31222920257,980.31222920257,419.68777079743,619.68777079743,419.68777079743,619.68777079743,780.31222920257,6,4,3,0,horizontal,horizontal,vertical,horizontal
2a,18,100279,6,18,178,19,M,NA,variable,heterogeneous,4,absent,1.05376696586609,1,vertical,vertical,1,2,green,3,NaN,619.68777079743,419.68777079743,NaN,NaN,980.31222920257,780.31222920257,980.31222920257,419.68777079743,619.68777079743,419.68777079743,619.68777079743,780.31222920257,3,0,4,6,vertical,vertical,vertical,vertical
2a,18,100279,6,19,179,19,M,NA,variable,heterogeneous,4,present,1.81080079078674,1,horizontal,horizontal,1,3,green,2,3,980.31222920257,419.68777079743,619.68777079743,419.68777079743,980.31222920257,780.31222920257,980.31222920257,419.68777079743,619.68777079743,419.68777079743,619.68777079743,780.31222920257,3,4,0,5,horizontal,horizontal,vertical,vertical
2a,18,100279,6,20,180,19,M,NA,variable,heterogeneous,4,present,0.947491884231567,1,horizontal,horizontal,1,2,red,2,4,980.31222920257,419.68777079743,619.68777079743,780.31222920257,980.31222920257,780.31222920257,980.31222920257,419.68777079743,619.68777079743,419.68777079743,619.68777079743,780.31222920257,5,4,0,6,horizontal,horizontal,vertical,horizontal
2a,18,100279,6,21,181,19,M,NA,variable,heterogeneous,4,absent,1.83454298973083,1,horizontal,horizontal,1,2,green,4,NaN,619.68777079743,780.31222920257,NaN,NaN,980.31222920257,780.31222920257,980.31222920257,419.68777079743,619.68777079743,419.68777079743,619.68777079743,780.31222920257,0,6,3,4,vertical,vertical,horizontal,horizontal
2a,18,100279,6,22,182,19,M,NA,variable,heterogeneous,4,present,1.73959994316101,1,horizontal,horizontal,1,3,red,1,4,980.31222920257,780.31222920257,619.68777079743,780.31222920257,980.31222920257,780.31222920257,980.31222920257,419.68777079743,619.68777079743,419.68777079743,619.68777079743,780.31222920257,4,3,0,6,horizontal,horizontal,horizontal,vertical
2a,18,100279,6,23,183,19,M,NA,variable,heterogeneous,4,present,1.1344940662384,1,vertical,vertical,1,2,red,3,1,619.68777079743,419.68777079743,980.31222920257,780.31222920257,980.31222920257,780.31222920257,980.31222920257,419.68777079743,619.68777079743,419.68777079743,619.68777079743,780.31222920257,5,3,4,0,horizontal,horizontal,vertical,vertical
2a,18,100279,6,24,184,19,M,NA,variable,heterogeneous,4,present,1.08917903900146,1,horizontal,horizontal,1,5,red,1,4,980.31222920257,780.31222920257,619.68777079743,780.31222920257,980.31222920257,780.31222920257,980.31222920257,419.68777079743,619.68777079743,419.68777079743,619.68777079743,780.31222920257,4,3,0,6,horizontal,vertical,vertical,horizontal
2a,18,100279,6,25,185,19,M,NA,variable,heterogeneous,4,present,1.50728321075439,1,vertical,vertical,1,5,green,4,2,619.68777079743,780.31222920257,980.31222920257,419.68777079743,980.31222920257,780.31222920257,980.31222920257,419.68777079743,619.68777079743,419.68777079743,619.68777079743,780.31222920257,6,3,5,4,horizontal,horizontal,vertical,vertical
2a,18,100279,6,26,186,19,M,NA,variable,heterogeneous,4,present,1.49391603469849,1,horizontal,horizontal,1,8,green,4,1,619.68777079743,780.31222920257,980.31222920257,780.31222920257,980.31222920257,780.31222920257,980.31222920257,419.68777079743,619.68777079743,419.68777079743,619.68777079743,780.31222920257,3,6,0,4,vertical,horizontal,vertical,horizontal
2a,18,100279,6,27,187,19,M,NA,variable,heterogeneous,4,present,NaN,0,vertical,none,0,3,red,2,4,980.31222920257,419.68777079743,619.68777079743,780.31222920257,980.31222920257,780.31222920257,980.31222920257,419.68777079743,619.68777079743,419.68777079743,619.68777079743,780.31222920257,5,4,3,0,horizontal,vertical,vertical,vertical
2a,18,100279,6,28,188,19,M,NA,variable,heterogeneous,4,present,0.864490985870361,1,vertical,vertical,1,2,red,3,2,619.68777079743,419.68777079743,980.31222920257,419.68777079743,980.31222920257,780.31222920257,980.31222920257,419.68777079743,619.68777079743,419.68777079743,619.68777079743,780.31222920257,3,5,4,6,horizontal,horizontal,vertical,vertical
2a,18,100279,6,29,189,19,M,NA,variable,heterogeneous,4,absent,1.18603587150574,1,vertical,vertical,1,5,green,1,NaN,980.31222920257,780.31222920257,NaN,NaN,980.31222920257,780.31222920257,980.31222920257,419.68777079743,619.68777079743,419.68777079743,619.68777079743,780.31222920257,4,3,6,0,vertical,vertical,horizontal,vertical
2a,18,100279,6,30,190,19,M,NA,variable,heterogeneous,4,present,1.30978202819824,1,horizontal,horizontal,1,2,green,2,4,980.31222920257,419.68777079743,619.68777079743,780.31222920257,980.31222920257,780.31222920257,980.31222920257,419.68777079743,619.68777079743,419.68777079743,619.68777079743,780.31222920257,0,4,3,6,horizontal,horizontal,vertical,horizontal
2a,18,100279,6,31,191,19,M,NA,variable,heterogeneous,4,absent,1.28030705451965,1,horizontal,horizontal,1,5,red,3,NaN,619.68777079743,419.68777079743,NaN,NaN,980.31222920257,780.31222920257,980.31222920257,419.68777079743,619.68777079743,419.68777079743,619.68777079743,780.31222920257,3,5,4,0,vertical,vertical,horizontal,vertical
2a,18,100279,6,32,192,19,M,NA,variable,heterogeneous,4,absent,1.47802209854126,1,horizontal,horizontal,1,3,red,2,NaN,980.31222920257,419.68777079743,NaN,NaN,980.31222920257,780.31222920257,980.31222920257,419.68777079743,619.68777079743,419.68777079743,619.68777079743,780.31222920257,5,4,3,0,vertical,horizontal,vertical,vertical
2a,18,100279,7,1,193,19,M,NA,variable,heterogeneous,4,absent,NaN,0,horizontal,none,0,2,red,4,NaN,619.68777079743,780.31222920257,NaN,NaN,980.31222920257,780.31222920257,980.31222920257,419.68777079743,619.68777079743,419.68777079743,619.68777079743,780.31222920257,6,5,0,4,vertical,horizontal,vertical,horizontal
2a,18,100279,7,2,194,19,M,NA,variable,heterogeneous,4,present,1.48709487915039,1,vertical,vertical,1,3,red,1,2,980.31222920257,780.31222920257,980.31222920257,419.68777079743,980.31222920257,780.31222920257,980.31222920257,419.68777079743,619.68777079743,419.68777079743,619.68777079743,780.31222920257,4,6,5,0,vertical,horizontal,vertical,horizontal
2a,18,100279,7,3,195,19,M,NA,variable,heterogeneous,4,absent,0.729294061660767,1,horizontal,horizontal,1,2,red,3,NaN,619.68777079743,419.68777079743,NaN,NaN,980.31222920257,780.31222920257,980.31222920257,419.68777079743,619.68777079743,419.68777079743,619.68777079743,780.31222920257,6,5,4,3,vertical,horizontal,horizontal,horizontal
2a,18,100279,7,4,196,19,M,NA,variable,heterogeneous,4,absent,0.876193046569824,1,horizontal,horizontal,1,5,green,2,NaN,980.31222920257,419.68777079743,NaN,NaN,980.31222920257,780.31222920257,980.31222920257,419.68777079743,619.68777079743,419.68777079743,619.68777079743,780.31222920257,0,4,3,6,horizontal,horizontal,vertical,horizontal
2a,18,100279,7,5,197,19,M,NA,variable,heterogeneous,4,absent,1.39368915557861,1,vertical,vertical,1,3,green,3,NaN,619.68777079743,419.68777079743,NaN,NaN,980.31222920257,780.31222920257,980.31222920257,419.68777079743,619.68777079743,419.68777079743,619.68777079743,780.31222920257,6,3,4,0,vertical,horizontal,vertical,vertical
2a,18,100279,7,6,198,19,M,NA,variable,heterogeneous,4,present,1.05775904655457,1,vertical,vertical,1,5,green,1,4,980.31222920257,780.31222920257,619.68777079743,780.31222920257,980.31222920257,780.31222920257,980.31222920257,419.68777079743,619.68777079743,419.68777079743,619.68777079743,780.31222920257,4,6,0,3,vertical,horizontal,vertical,horizontal
2a,18,100279,7,7,199,19,M,NA,variable,heterogeneous,4,absent,0.979178190231323,1,horizontal,horizontal,1,8,green,2,NaN,980.31222920257,419.68777079743,NaN,NaN,980.31222920257,780.31222920257,980.31222920257,419.68777079743,619.68777079743,419.68777079743,619.68777079743,780.31222920257,5,4,0,6,horizontal,horizontal,horizontal,horizontal
2a,18,100279,7,8,200,19,M,NA,variable,heterogeneous,4,present,1.16708517074585,1,horizontal,horizontal,1,3,green,2,4,980.31222920257,419.68777079743,619.68777079743,780.31222920257,980.31222920257,780.31222920257,980.31222920257,419.68777079743,619.68777079743,419.68777079743,619.68777079743,780.31222920257,3,4,5,0,horizontal,horizontal,horizontal,vertical
2a,18,100279,7,9,201,19,M,NA,variable,heterogeneous,4,absent,1.56691408157349,1,horizontal,horizontal,1,5,green,3,NaN,619.68777079743,419.68777079743,NaN,NaN,980.31222920257,780.31222920257,980.31222920257,419.68777079743,619.68777079743,419.68777079743,619.68777079743,780.31222920257,5,0,4,3,horizontal,vertical,horizontal,vertical
2a,18,100279,7,10,202,19,M,NA,variable,heterogeneous,4,absent,0.85434103012085,1,vertical,vertical,1,2,green,2,NaN,980.31222920257,419.68777079743,NaN,NaN,980.31222920257,780.31222920257,980.31222920257,419.68777079743,619.68777079743,419.68777079743,619.68777079743,780.31222920257,5,4,3,6,horizontal,vertical,horizontal,vertical
2a,18,100279,7,11,203,19,M,NA,variable,heterogeneous,4,present,1.11535692214966,1,vertical,vertical,1,2,green,4,3,619.68777079743,780.31222920257,619.68777079743,419.68777079743,980.31222920257,780.31222920257,980.31222920257,419.68777079743,619.68777079743,419.68777079743,619.68777079743,780.31222920257,6,0,5,4,horizontal,vertical,vertical,vertical
2a,18,100279,7,12,204,19,M,NA,variable,heterogeneous,4,present,0.854042053222656,1,horizontal,horizontal,1,5,red,3,1,619.68777079743,419.68777079743,980.31222920257,780.31222920257,980.31222920257,780.31222920257,980.31222920257,419.68777079743,619.68777079743,419.68777079743,619.68777079743,780.31222920257,5,0,4,6,horizontal,vertical,horizontal,horizontal
2a,18,100279,7,13,205,19,M,NA,variable,heterogeneous,4,absent,1.64317202568054,1,vertical,vertical,1,2,green,4,NaN,619.68777079743,780.31222920257,NaN,NaN,980.31222920257,780.31222920257,980.31222920257,419.68777079743,619.68777079743,419.68777079743,619.68777079743,780.31222920257,6,5,3,4,vertical,vertical,vertical,vertical
2a,18,100279,7,14,206,19,M,NA,variable,heterogeneous,4,present,1.99637484550476,1,horizontal,horizontal,1,2,green,1,4,980.31222920257,780.31222920257,619.68777079743,780.31222920257,980.31222920257,780.31222920257,980.31222920257,419.68777079743,619.68777079743,419.68777079743,619.68777079743,780.31222920257,4,6,5,3,horizontal,vertical,horizontal,vertical
2a,18,100279,7,15,207,19,M,NA,variable,heterogeneous,4,present,1.16446614265442,1,horizontal,horizontal,1,8,green,4,2,619.68777079743,780.31222920257,980.31222920257,419.68777079743,980.31222920257,780.31222920257,980.31222920257,419.68777079743,619.68777079743,419.68777079743,619.68777079743,780.31222920257,5,6,0,4,horizontal,vertical,vertical,horizontal
2a,18,100279,7,16,208,19,M,NA,variable,heterogeneous,4,present,1.63622713088989,1,horizontal,horizontal,1,2,green,2,4,980.31222920257,419.68777079743,619.68777079743,780.31222920257,980.31222920257,780.31222920257,980.31222920257,419.68777079743,619.68777079743,419.68777079743,619.68777079743,780.31222920257,3,4,5,6,horizontal,horizontal,vertical,vertical
2a,18,100279,7,17,209,19,M,NA,variable,heterogeneous,4,absent,1.2050609588623,1,vertical,vertical,1,8,green,2,NaN,980.31222920257,419.68777079743,NaN,NaN,980.31222920257,780.31222920257,980.31222920257,419.68777079743,619.68777079743,419.68777079743,619.68777079743,780.31222920257,5,4,0,6,horizontal,vertical,horizontal,vertical
2a,18,100279,7,18,210,19,M,NA,variable,heterogeneous,4,absent,1.21737694740295,1,horizontal,horizontal,1,3,green,1,NaN,980.31222920257,780.31222920257,NaN,NaN,980.31222920257,780.31222920257,980.31222920257,419.68777079743,619.68777079743,419.68777079743,619.68777079743,780.31222920257,4,6,0,5,horizontal,vertical,horizontal,horizontal
2a,18,100279,7,19,211,19,M,NA,variable,heterogeneous,4,present,0.954317808151245,1,vertical,vertical,1,2,green,2,4,980.31222920257,419.68777079743,619.68777079743,780.31222920257,980.31222920257,780.31222920257,980.31222920257,419.68777079743,619.68777079743,419.68777079743,619.68777079743,780.31222920257,5,4,6,0,horizontal,vertical,vertical,vertical
2a,18,100279,7,20,212,19,M,NA,variable,heterogeneous,4,absent,1.86943697929382,1,vertical,vertical,1,5,red,2,NaN,980.31222920257,419.68777079743,NaN,NaN,980.31222920257,780.31222920257,980.31222920257,419.68777079743,619.68777079743,419.68777079743,619.68777079743,780.31222920257,0,4,6,3,horizontal,vertical,horizontal,horizontal
2a,18,100279,7,21,213,19,M,NA,variable,heterogeneous,4,absent,1.03510093688965,1,horizontal,horizontal,1,3,green,4,NaN,619.68777079743,780.31222920257,NaN,NaN,980.31222920257,780.31222920257,980.31222920257,419.68777079743,619.68777079743,419.68777079743,619.68777079743,780.31222920257,5,0,6,4,vertical,horizontal,vertical,horizontal
2a,18,100279,7,22,214,19,M,NA,variable,heterogeneous,4,present,0.940080165863037,1,vertical,vertical,1,3,green,2,3,980.31222920257,419.68777079743,619.68777079743,419.68777079743,980.31222920257,780.31222920257,980.31222920257,419.68777079743,619.68777079743,419.68777079743,619.68777079743,780.31222920257,3,4,0,5,horizontal,vertical,horizontal,horizontal
2a,18,100279,7,23,215,19,M,NA,variable,heterogeneous,4,present,1.57124495506287,1,horizontal,horizontal,1,2,red,1,3,980.31222920257,780.31222920257,619.68777079743,419.68777079743,980.31222920257,780.31222920257,980.31222920257,419.68777079743,619.68777079743,419.68777079743,619.68777079743,780.31222920257,4,5,0,3,horizontal,vertical,horizontal,vertical
2a,18,100279,7,24,216,19,M,NA,variable,heterogeneous,4,present,1.23477697372437,1,horizontal,horizontal,1,3,green,3,1,619.68777079743,419.68777079743,980.31222920257,780.31222920257,980.31222920257,780.31222920257,980.31222920257,419.68777079743,619.68777079743,419.68777079743,619.68777079743,780.31222920257,0,5,4,3,vertical,vertical,horizontal,vertical
2a,18,100279,7,25,217,19,M,NA,variable,heterogeneous,4,present,1.44396591186523,1,vertical,vertical,1,2,green,2,3,980.31222920257,419.68777079743,619.68777079743,419.68777079743,980.31222920257,780.31222920257,980.31222920257,419.68777079743,619.68777079743,419.68777079743,619.68777079743,780.31222920257,6,4,3,0,horizontal,vertical,horizontal,vertical
2a,18,100279,7,26,218,19,M,NA,variable,heterogeneous,4,absent,1.80498695373535,1,horizontal,horizontal,1,2,red,4,NaN,619.68777079743,780.31222920257,NaN,NaN,980.31222920257,780.31222920257,980.31222920257,419.68777079743,619.68777079743,419.68777079743,619.68777079743,780.31222920257,3,5,6,4,vertical,horizontal,vertical,horizontal
2a,18,100279,7,27,219,19,M,NA,variable,heterogeneous,4,present,1.0010998249054,1,vertical,vertical,1,8,green,2,1,980.31222920257,419.68777079743,980.31222920257,780.31222920257,980.31222920257,780.31222920257,980.31222920257,419.68777079743,619.68777079743,419.68777079743,619.68777079743,780.31222920257,5,4,6,0,horizontal,vertical,horizontal,horizontal
2a,18,100279,7,28,220,19,M,NA,variable,heterogeneous,4,present,1.51743507385254,1,vertical,vertical,1,5,red,1,4,980.31222920257,780.31222920257,619.68777079743,780.31222920257,980.31222920257,780.31222920257,980.31222920257,419.68777079743,619.68777079743,419.68777079743,619.68777079743,780.31222920257,4,6,0,5,vertical,vertical,horizontal,horizontal
2a,18,100279,7,29,221,19,M,NA,variable,heterogeneous,4,absent,1.72446489334106,1,vertical,vertical,1,5,green,2,NaN,980.31222920257,419.68777079743,NaN,NaN,980.31222920257,780.31222920257,980.31222920257,419.68777079743,619.68777079743,419.68777079743,619.68777079743,780.31222920257,3,4,0,6,horizontal,vertical,vertical,vertical
2a,18,100279,7,30,222,19,M,NA,variable,heterogeneous,4,present,1.09081602096558,0,horizontal,vertical,1,5,green,2,1,980.31222920257,419.68777079743,980.31222920257,780.31222920257,980.31222920257,780.31222920257,980.31222920257,419.68777079743,619.68777079743,419.68777079743,619.68777079743,780.31222920257,3,4,6,5,vertical,horizontal,horizontal,horizontal
2a,18,100279,7,31,223,19,M,NA,variable,heterogeneous,4,absent,0.853021860122681,1,vertical,vertical,1,3,green,3,NaN,619.68777079743,419.68777079743,NaN,NaN,980.31222920257,780.31222920257,980.31222920257,419.68777079743,619.68777079743,419.68777079743,619.68777079743,780.31222920257,5,0,4,6,vertical,vertical,vertical,vertical
2a,18,100279,7,32,224,19,M,NA,variable,heterogeneous,4,absent,0.906183958053589,1,vertical,vertical,1,2,green,2,NaN,980.31222920257,419.68777079743,NaN,NaN,980.31222920257,780.31222920257,980.31222920257,419.68777079743,619.68777079743,419.68777079743,619.68777079743,780.31222920257,6,4,0,5,vertical,vertical,horizontal,horizontal
2a,18,100279,8,1,225,19,M,NA,variable,heterogeneous,4,present,1.06865906715393,1,horizontal,horizontal,1,3,red,2,3,980.31222920257,419.68777079743,619.68777079743,419.68777079743,980.31222920257,780.31222920257,980.31222920257,419.68777079743,619.68777079743,419.68777079743,619.68777079743,780.31222920257,6,4,3,5,vertical,horizontal,vertical,horizontal
2a,18,100279,8,2,226,19,M,NA,variable,heterogeneous,4,present,1.00617909431458,1,vertical,vertical,1,8,green,1,3,980.31222920257,780.31222920257,619.68777079743,419.68777079743,980.31222920257,780.31222920257,980.31222920257,419.68777079743,619.68777079743,419.68777079743,619.68777079743,780.31222920257,4,0,5,6,vertical,horizontal,vertical,vertical
2a,18,100279,8,3,227,19,M,NA,variable,heterogeneous,4,absent,1.43463492393494,1,horizontal,horizontal,1,2,red,4,NaN,619.68777079743,780.31222920257,NaN,NaN,980.31222920257,780.31222920257,980.31222920257,419.68777079743,619.68777079743,419.68777079743,619.68777079743,780.31222920257,5,0,6,4,horizontal,horizontal,vertical,horizontal
2a,18,100279,8,4,228,19,M,NA,variable,heterogeneous,4,present,0.715481996536255,0,horizontal,vertical,1,5,red,3,1,619.68777079743,419.68777079743,980.31222920257,780.31222920257,980.31222920257,780.31222920257,980.31222920257,419.68777079743,619.68777079743,419.68777079743,619.68777079743,780.31222920257,0,3,4,5,horizontal,vertical,horizontal,vertical
2a,18,100279,8,5,229,19,M,NA,variable,heterogeneous,4,absent,1.23816704750061,1,horizontal,horizontal,1,3,green,3,NaN,619.68777079743,419.68777079743,NaN,NaN,980.31222920257,780.31222920257,980.31222920257,419.68777079743,619.68777079743,419.68777079743,619.68777079743,780.31222920257,5,3,4,6,vertical,horizontal,horizontal,horizontal
2a,18,100279,8,6,230,19,M,NA,variable,heterogeneous,4,present,1.08705711364746,1,horizontal,horizontal,1,3,green,4,1,619.68777079743,780.31222920257,980.31222920257,780.31222920257,980.31222920257,780.31222920257,980.31222920257,419.68777079743,619.68777079743,419.68777079743,619.68777079743,780.31222920257,3,6,5,4,vertical,horizontal,vertical,horizontal
2a,18,100279,8,7,231,19,M,NA,variable,heterogeneous,4,present,1.02483201026917,1,vertical,vertical,1,3,green,4,3,619.68777079743,780.31222920257,619.68777079743,419.68777079743,980.31222920257,780.31222920257,980.31222920257,419.68777079743,619.68777079743,419.68777079743,619.68777079743,780.31222920257,3,0,5,4,vertical,horizontal,vertical,vertical
2a,18,100279,8,8,232,19,M,NA,variable,heterogeneous,4,absent,0.725831031799316,1,vertical,vertical,1,2,red,2,NaN,980.31222920257,419.68777079743,NaN,NaN,980.31222920257,780.31222920257,980.31222920257,419.68777079743,619.68777079743,419.68777079743,619.68777079743,780.31222920257,0,4,5,3,horizontal,vertical,horizontal,vertical
2a,18,100279,8,9,233,19,M,NA,variable,heterogeneous,4,present,1.22814583778381,0,vertical,horizontal,1,2,green,1,2,980.31222920257,780.31222920257,980.31222920257,419.68777079743,980.31222920257,780.31222920257,980.31222920257,419.68777079743,619.68777079743,419.68777079743,619.68777079743,780.31222920257,4,5,6,3,vertical,horizontal,horizontal,horizontal
2a,18,100279,8,10,234,19,M,NA,variable,heterogeneous,4,absent,0.961149930953979,1,horizontal,horizontal,1,3,green,2,NaN,980.31222920257,419.68777079743,NaN,NaN,980.31222920257,780.31222920257,980.31222920257,419.68777079743,619.68777079743,419.68777079743,619.68777079743,780.31222920257,0,4,3,6,vertical,horizontal,horizontal,horizontal
2a,18,100279,8,11,235,19,M,NA,variable,heterogeneous,4,absent,1.36444091796875,1,vertical,vertical,1,3,red,1,NaN,980.31222920257,780.31222920257,NaN,NaN,980.31222920257,780.31222920257,980.31222920257,419.68777079743,619.68777079743,419.68777079743,619.68777079743,780.31222920257,4,6,5,0,vertical,horizontal,vertical,vertical
2a,18,100279,8,12,236,19,M,NA,variable,heterogeneous,4,present,1.16411089897156,1,horizontal,horizontal,1,5,green,1,3,980.31222920257,780.31222920257,619.68777079743,419.68777079743,980.31222920257,780.31222920257,980.31222920257,419.68777079743,619.68777079743,419.68777079743,619.68777079743,780.31222920257,4,5,3,0,horizontal,horizontal,horizontal,horizontal
2a,18,100279,8,13,237,19,M,NA,variable,heterogeneous,4,present,0.771624803543091,1,vertical,vertical,1,2,red,1,3,980.31222920257,780.31222920257,619.68777079743,419.68777079743,980.31222920257,780.31222920257,980.31222920257,419.68777079743,619.68777079743,419.68777079743,619.68777079743,780.31222920257,4,0,5,3,vertical,vertical,vertical,horizontal
2a,18,100279,8,14,238,19,M,NA,variable,heterogeneous,4,present,0.939337968826294,1,horizontal,horizontal,1,2,green,1,3,980.31222920257,780.31222920257,619.68777079743,419.68777079743,980.31222920257,780.31222920257,980.31222920257,419.68777079743,619.68777079743,419.68777079743,619.68777079743,780.31222920257,4,6,3,0,horizontal,vertical,vertical,horizontal
2a,18,100279,8,15,239,19,M,NA,variable,heterogeneous,4,absent,1.14996004104614,1,vertical,vertical,1,2,green,1,NaN,980.31222920257,780.31222920257,NaN,NaN,980.31222920257,780.31222920257,980.31222920257,419.68777079743,619.68777079743,419.68777079743,619.68777079743,780.31222920257,4,3,0,6,vertical,horizontal,vertical,vertical
2a,18,100279,8,16,240,19,M,NA,variable,heterogeneous,4,present,1.34927296638489,1,vertical,vertical,1,3,green,4,1,619.68777079743,780.31222920257,980.31222920257,780.31222920257,980.31222920257,780.31222920257,980.31222920257,419.68777079743,619.68777079743,419.68777079743,619.68777079743,780.31222920257,5,3,6,4,vertical,vertical,horizontal,vertical
2a,18,100279,8,17,241,19,M,NA,variable,heterogeneous,4,present,1.24423599243164,1,vertical,vertical,1,2,green,1,3,980.31222920257,780.31222920257,619.68777079743,419.68777079743,980.31222920257,780.31222920257,980.31222920257,419.68777079743,619.68777079743,419.68777079743,619.68777079743,780.31222920257,4,5,6,0,vertical,horizontal,horizontal,horizontal
2a,18,100279,8,18,242,19,M,NA,variable,heterogeneous,4,absent,0.997452974319458,1,vertical,vertical,1,5,green,3,NaN,619.68777079743,419.68777079743,NaN,NaN,980.31222920257,780.31222920257,980.31222920257,419.68777079743,619.68777079743,419.68777079743,619.68777079743,780.31222920257,3,5,4,6,vertical,vertical,vertical,vertical
2a,18,100279,8,19,243,19,M,NA,variable,heterogeneous,4,absent,1.03792905807495,1,horizontal,horizontal,1,8,red,1,NaN,980.31222920257,780.31222920257,NaN,NaN,980.31222920257,780.31222920257,980.31222920257,419.68777079743,619.68777079743,419.68777079743,619.68777079743,780.31222920257,4,0,6,5,horizontal,vertical,horizontal,vertical
2a,18,100279,8,20,244,19,M,NA,variable,heterogeneous,4,absent,1.80671095848083,1,horizontal,horizontal,1,5,red,3,NaN,619.68777079743,419.68777079743,NaN,NaN,980.31222920257,780.31222920257,980.31222920257,419.68777079743,619.68777079743,419.68777079743,619.68777079743,780.31222920257,5,6,4,0,horizontal,vertical,horizontal,vertical
2a,18,100279,8,21,245,19,M,NA,variable,heterogeneous,4,absent,1.36272287368774,1,horizontal,horizontal,1,5,green,1,NaN,980.31222920257,780.31222920257,NaN,NaN,980.31222920257,780.31222920257,980.31222920257,419.68777079743,619.68777079743,419.68777079743,619.68777079743,780.31222920257,4,3,0,6,horizontal,vertical,vertical,horizontal
2a,18,100279,8,22,246,19,M,NA,variable,heterogeneous,4,absent,1.30227899551392,1,vertical,vertical,1,3,green,2,NaN,980.31222920257,419.68777079743,NaN,NaN,980.31222920257,780.31222920257,980.31222920257,419.68777079743,619.68777079743,419.68777079743,619.68777079743,780.31222920257,5,4,3,6,horizontal,vertical,horizontal,horizontal
2a,18,100279,8,23,247,19,M,NA,variable,heterogeneous,4,present,1.49226021766663,1,vertical,vertical,1,5,red,1,3,980.31222920257,780.31222920257,619.68777079743,419.68777079743,980.31222920257,780.31222920257,980.31222920257,419.68777079743,619.68777079743,419.68777079743,619.68777079743,780.31222920257,4,6,5,0,vertical,horizontal,vertical,horizontal
2a,18,100279,8,24,248,19,M,NA,variable,heterogeneous,4,present,1.03072094917297,1,vertical,vertical,1,5,green,2,4,980.31222920257,419.68777079743,619.68777079743,780.31222920257,980.31222920257,780.31222920257,980.31222920257,419.68777079743,619.68777079743,419.68777079743,619.68777079743,780.31222920257,5,4,6,3,horizontal,vertical,horizontal,horizontal
2a,18,100279,8,25,249,19,M,NA,variable,heterogeneous,4,present,1.51539897918701,1,horizontal,horizontal,1,8,red,1,2,980.31222920257,780.31222920257,980.31222920257,419.68777079743,980.31222920257,780.31222920257,980.31222920257,419.68777079743,619.68777079743,419.68777079743,619.68777079743,780.31222920257,4,6,5,0,horizontal,horizontal,horizontal,vertical
2a,18,100279,8,26,250,19,M,NA,variable,heterogeneous,4,absent,1.56605291366577,1,horizontal,horizontal,1,2,red,3,NaN,619.68777079743,419.68777079743,NaN,NaN,980.31222920257,780.31222920257,980.31222920257,419.68777079743,619.68777079743,419.68777079743,619.68777079743,780.31222920257,5,3,4,0,horizontal,vertical,horizontal,horizontal
2a,18,100279,8,27,251,19,M,NA,variable,heterogeneous,4,absent,1.68560314178467,1,vertical,vertical,1,8,green,1,NaN,980.31222920257,780.31222920257,NaN,NaN,980.31222920257,780.31222920257,980.31222920257,419.68777079743,619.68777079743,419.68777079743,619.68777079743,780.31222920257,4,3,0,5,vertical,vertical,horizontal,vertical
2a,18,100279,8,28,252,19,M,NA,variable,heterogeneous,4,present,0.74349308013916,1,horizontal,horizontal,1,2,green,3,2,619.68777079743,419.68777079743,980.31222920257,419.68777079743,980.31222920257,780.31222920257,980.31222920257,419.68777079743,619.68777079743,419.68777079743,619.68777079743,780.31222920257,3,5,4,0,horizontal,horizontal,horizontal,vertical
2a,18,100279,8,29,253,19,M,NA,variable,heterogeneous,4,present,1.38260984420776,1,horizontal,horizontal,1,2,green,4,2,619.68777079743,780.31222920257,980.31222920257,419.68777079743,980.31222920257,780.31222920257,980.31222920257,419.68777079743,619.68777079743,419.68777079743,619.68777079743,780.31222920257,6,3,5,4,horizontal,vertical,horizontal,horizontal
2a,18,100279,8,30,254,19,M,NA,variable,heterogeneous,4,absent,1.12237000465393,1,vertical,vertical,1,5,red,2,NaN,980.31222920257,419.68777079743,NaN,NaN,980.31222920257,780.31222920257,980.31222920257,419.68777079743,619.68777079743,419.68777079743,619.68777079743,780.31222920257,6,4,3,5,vertical,vertical,vertical,horizontal
2a,18,100279,8,31,255,19,M,NA,variable,heterogeneous,4,absent,1.24110102653503,1,horizontal,horizontal,1,2,red,3,NaN,619.68777079743,419.68777079743,NaN,NaN,980.31222920257,780.31222920257,980.31222920257,419.68777079743,619.68777079743,419.68777079743,619.68777079743,780.31222920257,0,3,4,5,vertical,vertical,horizontal,horizontal
2a,18,100279,8,32,256,19,M,NA,variable,heterogeneous,4,absent,0.730074167251587,1,vertical,vertical,1,2,red,3,NaN,619.68777079743,419.68777079743,NaN,NaN,980.31222920257,780.31222920257,980.31222920257,419.68777079743,619.68777079743,419.68777079743,619.68777079743,780.31222920257,6,3,4,0,vertical,vertical,vertical,horizontal
2a,18,100279,9,1,257,19,M,NA,variable,heterogeneous,4,absent,1.74231386184692,1,vertical,vertical,1,3,green,1,NaN,980.31222920257,780.31222920257,NaN,NaN,980.31222920257,780.31222920257,980.31222920257,419.68777079743,619.68777079743,419.68777079743,619.68777079743,780.31222920257,4,0,5,6,vertical,vertical,horizontal,horizontal
2a,18,100279,9,2,258,19,M,NA,variable,heterogeneous,4,absent,1.26967716217041,1,vertical,vertical,1,2,green,2,NaN,980.31222920257,419.68777079743,NaN,NaN,980.31222920257,780.31222920257,980.31222920257,419.68777079743,619.68777079743,419.68777079743,619.68777079743,780.31222920257,3,4,0,6,vertical,vertical,vertical,horizontal
2a,18,100279,9,3,259,19,M,NA,variable,heterogeneous,4,absent,0.635301828384399,1,horizontal,horizontal,1,5,red,3,NaN,619.68777079743,419.68777079743,NaN,NaN,980.31222920257,780.31222920257,980.31222920257,419.68777079743,619.68777079743,419.68777079743,619.68777079743,780.31222920257,3,6,4,0,horizontal,vertical,horizontal,horizontal
2a,18,100279,9,4,260,19,M,NA,variable,heterogeneous,4,absent,1.18819499015808,1,horizontal,horizontal,1,2,red,4,NaN,619.68777079743,780.31222920257,NaN,NaN,980.31222920257,780.31222920257,980.31222920257,419.68777079743,619.68777079743,419.68777079743,619.68777079743,780.31222920257,3,5,6,4,horizontal,horizontal,horizontal,horizontal
2a,18,100279,9,5,261,19,M,NA,variable,heterogeneous,4,absent,0.844430208206177,1,vertical,vertical,1,5,green,4,NaN,619.68777079743,780.31222920257,NaN,NaN,980.31222920257,780.31222920257,980.31222920257,419.68777079743,619.68777079743,419.68777079743,619.68777079743,780.31222920257,5,3,0,4,vertical,horizontal,horizontal,vertical
2a,18,100279,9,6,262,19,M,NA,variable,heterogeneous,4,present,1.94915795326233,1,horizontal,horizontal,1,2,red,3,1,619.68777079743,419.68777079743,980.31222920257,780.31222920257,980.31222920257,780.31222920257,980.31222920257,419.68777079743,619.68777079743,419.68777079743,619.68777079743,780.31222920257,6,0,4,3,vertical,vertical,horizontal,vertical
2a,18,100279,9,7,263,19,M,NA,variable,heterogeneous,4,present,1.4044930934906,1,vertical,vertical,1,2,red,2,3,980.31222920257,419.68777079743,619.68777079743,419.68777079743,980.31222920257,780.31222920257,980.31222920257,419.68777079743,619.68777079743,419.68777079743,619.68777079743,780.31222920257,0,4,5,6,vertical,vertical,horizontal,horizontal
2a,18,100279,9,8,264,19,M,NA,variable,heterogeneous,4,present,1.18479514122009,1,horizontal,horizontal,1,3,green,4,3,619.68777079743,780.31222920257,619.68777079743,419.68777079743,980.31222920257,780.31222920257,980.31222920257,419.68777079743,619.68777079743,419.68777079743,619.68777079743,780.31222920257,5,6,3,4,horizontal,vertical,vertical,horizontal
2a,18,100279,9,9,265,19,M,NA,variable,heterogeneous,4,absent,1.61260104179382,1,horizontal,horizontal,1,2,green,1,NaN,980.31222920257,780.31222920257,NaN,NaN,980.31222920257,780.31222920257,980.31222920257,419.68777079743,619.68777079743,419.68777079743,619.68777079743,780.31222920257,4,6,3,0,horizontal,vertical,horizontal,vertical
2a,18,100279,9,10,266,19,M,NA,variable,heterogeneous,4,present,1.67730689048767,1,horizontal,horizontal,1,5,red,1,2,980.31222920257,780.31222920257,980.31222920257,419.68777079743,980.31222920257,780.31222920257,980.31222920257,419.68777079743,619.68777079743,419.68777079743,619.68777079743,780.31222920257,4,0,3,6,horizontal,vertical,vertical,horizontal
2a,18,100279,9,11,267,19,M,NA,variable,heterogeneous,4,absent,1.09097003936768,1,vertical,vertical,1,5,green,1,NaN,980.31222920257,780.31222920257,NaN,NaN,980.31222920257,780.31222920257,980.31222920257,419.68777079743,619.68777079743,419.68777079743,619.68777079743,780.31222920257,4,6,3,0,vertical,horizontal,horizontal,vertical
2a,18,100279,9,12,268,19,M,NA,variable,heterogeneous,4,present,1.09311985969543,1,vertical,vertical,1,5,green,4,3,619.68777079743,780.31222920257,619.68777079743,419.68777079743,980.31222920257,780.31222920257,980.31222920257,419.68777079743,619.68777079743,419.68777079743,619.68777079743,780.31222920257,5,0,6,4,horizontal,vertical,vertical,vertical
2a,18,100279,9,13,269,19,M,NA,variable,heterogeneous,4,present,1.0191969871521,1,horizontal,horizontal,1,3,red,4,2,619.68777079743,780.31222920257,980.31222920257,419.68777079743,980.31222920257,780.31222920257,980.31222920257,419.68777079743,619.68777079743,419.68777079743,619.68777079743,780.31222920257,6,0,5,4,vertical,horizontal,vertical,horizontal
2a,18,100279,9,14,270,19,M,NA,variable,heterogeneous,4,present,0.971688032150269,1,vertical,vertical,1,2,green,2,4,980.31222920257,419.68777079743,619.68777079743,780.31222920257,980.31222920257,780.31222920257,980.31222920257,419.68777079743,619.68777079743,419.68777079743,619.68777079743,780.31222920257,0,4,3,5,vertical,vertical,vertical,vertical
2a,18,100279,9,15,271,19,M,NA,variable,heterogeneous,4,absent,1.26742601394653,1,horizontal,horizontal,1,3,green,2,NaN,980.31222920257,419.68777079743,NaN,NaN,980.31222920257,780.31222920257,980.31222920257,419.68777079743,619.68777079743,419.68777079743,619.68777079743,780.31222920257,6,4,3,0,vertical,horizontal,horizontal,vertical
2a,18,100279,9,16,272,19,M,NA,variable,heterogeneous,4,present,1.07652282714844,1,horizontal,horizontal,1,5,red,3,1,619.68777079743,419.68777079743,980.31222920257,780.31222920257,980.31222920257,780.31222920257,980.31222920257,419.68777079743,619.68777079743,419.68777079743,619.68777079743,780.31222920257,0,6,4,5,horizontal,vertical,horizontal,horizontal
2a,18,100279,9,17,273,19,M,NA,variable,heterogeneous,4,present,1.07455897331238,1,vertical,vertical,1,3,red,2,3,980.31222920257,419.68777079743,619.68777079743,419.68777079743,980.31222920257,780.31222920257,980.31222920257,419.68777079743,619.68777079743,419.68777079743,619.68777079743,780.31222920257,6,4,0,3,horizontal,vertical,vertical,vertical
2a,18,100279,9,18,274,19,M,NA,variable,heterogeneous,4,absent,1.62429904937744,0,vertical,horizontal,1,2,green,1,NaN,980.31222920257,780.31222920257,NaN,NaN,980.31222920257,780.31222920257,980.31222920257,419.68777079743,619.68777079743,419.68777079743,619.68777079743,780.31222920257,4,6,5,3,vertical,vertical,horizontal,horizontal
2a,18,100279,9,19,275,19,M,NA,variable,heterogeneous,4,absent,1.78895902633667,1,horizontal,horizontal,1,3,green,3,NaN,619.68777079743,419.68777079743,NaN,NaN,980.31222920257,780.31222920257,980.31222920257,419.68777079743,619.68777079743,419.68777079743,619.68777079743,780.31222920257,5,3,4,0,horizontal,horizontal,horizontal,vertical
2a,18,100279,9,20,276,19,M,NA,variable,heterogeneous,4,present,0.813010931015015,1,vertical,vertical,1,5,green,3,2,619.68777079743,419.68777079743,980.31222920257,419.68777079743,980.31222920257,780.31222920257,980.31222920257,419.68777079743,619.68777079743,419.68777079743,619.68777079743,780.31222920257,5,6,4,0,vertical,vertical,vertical,vertical
2a,18,100279,9,21,277,19,M,NA,variable,heterogeneous,4,present,1.81360006332397,1,vertical,vertical,1,8,red,2,1,980.31222920257,419.68777079743,980.31222920257,780.31222920257,980.31222920257,780.31222920257,980.31222920257,419.68777079743,619.68777079743,419.68777079743,619.68777079743,780.31222920257,6,4,5,3,vertical,vertical,vertical,vertical
2a,18,100279,9,22,278,19,M,NA,variable,heterogeneous,4,absent,1.27011299133301,1,vertical,vertical,1,2,green,1,NaN,980.31222920257,780.31222920257,NaN,NaN,980.31222920257,780.31222920257,980.31222920257,419.68777079743,619.68777079743,419.68777079743,619.68777079743,780.31222920257,4,6,5,0,vertical,horizontal,horizontal,horizontal
2a,18,100279,9,23,279,19,M,NA,variable,heterogeneous,4,absent,0.939876079559326,1,vertical,vertical,1,3,green,1,NaN,980.31222920257,780.31222920257,NaN,NaN,980.31222920257,780.31222920257,980.31222920257,419.68777079743,619.68777079743,419.68777079743,619.68777079743,780.31222920257,4,0,6,5,vertical,vertical,vertical,vertical
2a,18,100279,9,24,280,19,M,NA,variable,heterogeneous,4,absent,1.29896211624146,1,vertical,vertical,1,8,red,2,NaN,980.31222920257,419.68777079743,NaN,NaN,980.31222920257,780.31222920257,980.31222920257,419.68777079743,619.68777079743,419.68777079743,619.68777079743,780.31222920257,6,4,3,5,vertical,vertical,vertical,vertical
2a,18,100279,9,25,281,19,M,NA,variable,heterogeneous,4,present,1.56101298332214,1,vertical,vertical,1,2,red,3,2,619.68777079743,419.68777079743,980.31222920257,419.68777079743,980.31222920257,780.31222920257,980.31222920257,419.68777079743,619.68777079743,419.68777079743,619.68777079743,780.31222920257,5,3,4,6,horizontal,vertical,vertical,vertical
2a,18,100279,9,26,282,19,M,NA,variable,heterogeneous,4,present,0.948621034622192,1,vertical,vertical,1,3,red,2,3,980.31222920257,419.68777079743,619.68777079743,419.68777079743,980.31222920257,780.31222920257,980.31222920257,419.68777079743,619.68777079743,419.68777079743,619.68777079743,780.31222920257,3,4,0,5,vertical,vertical,vertical,vertical
2a,18,100279,9,27,283,19,M,NA,variable,heterogeneous,4,present,1.46779608726501,1,horizontal,horizontal,1,2,red,2,1,980.31222920257,419.68777079743,980.31222920257,780.31222920257,980.31222920257,780.31222920257,980.31222920257,419.68777079743,619.68777079743,419.68777079743,619.68777079743,780.31222920257,5,4,6,3,vertical,horizontal,horizontal,horizontal
2a,18,100279,9,28,284,19,M,NA,variable,heterogeneous,4,absent,1.13310480117798,1,horizontal,horizontal,1,8,green,3,NaN,619.68777079743,419.68777079743,NaN,NaN,980.31222920257,780.31222920257,980.31222920257,419.68777079743,619.68777079743,419.68777079743,619.68777079743,780.31222920257,0,5,4,3,vertical,vertical,horizontal,horizontal
2a,18,100279,9,29,285,19,M,NA,variable,heterogeneous,4,absent,1.36049389839172,1,horizontal,horizontal,1,5,red,1,NaN,980.31222920257,780.31222920257,NaN,NaN,980.31222920257,780.31222920257,980.31222920257,419.68777079743,619.68777079743,419.68777079743,619.68777079743,780.31222920257,4,0,5,3,horizontal,horizontal,vertical,vertical
2a,18,100279,9,30,286,19,M,NA,variable,heterogeneous,4,absent,1.35548496246338,1,horizontal,horizontal,1,2,green,4,NaN,619.68777079743,780.31222920257,NaN,NaN,980.31222920257,780.31222920257,980.31222920257,419.68777079743,619.68777079743,419.68777079743,619.68777079743,780.31222920257,6,3,0,4,horizontal,vertical,vertical,horizontal
2a,18,100279,9,31,287,19,M,NA,variable,heterogeneous,4,present,1.30298209190369,1,horizontal,horizontal,1,8,green,1,3,980.31222920257,780.31222920257,619.68777079743,419.68777079743,980.31222920257,780.31222920257,980.31222920257,419.68777079743,619.68777079743,419.68777079743,619.68777079743,780.31222920257,4,5,3,6,horizontal,vertical,horizontal,vertical
2a,18,100279,9,32,288,19,M,NA,variable,heterogeneous,4,present,1.08517289161682,1,horizontal,horizontal,1,2,green,2,4,980.31222920257,419.68777079743,619.68777079743,780.31222920257,980.31222920257,780.31222920257,980.31222920257,419.68777079743,619.68777079743,419.68777079743,619.68777079743,780.31222920257,3,4,6,5,vertical,horizontal,horizontal,horizontal
2a,18,100279,10,1,289,19,M,NA,variable,heterogeneous,4,absent,1.89497399330139,0,horizontal,vertical,1,8,green,4,NaN,619.68777079743,780.31222920257,NaN,NaN,980.31222920257,780.31222920257,980.31222920257,419.68777079743,619.68777079743,419.68777079743,619.68777079743,780.31222920257,6,0,3,4,vertical,vertical,horizontal,horizontal
2a,18,100279,10,2,290,19,M,NA,variable,heterogeneous,4,present,1.5650520324707,1,horizontal,horizontal,1,5,green,4,3,619.68777079743,780.31222920257,619.68777079743,419.68777079743,980.31222920257,780.31222920257,980.31222920257,419.68777079743,619.68777079743,419.68777079743,619.68777079743,780.31222920257,5,6,3,4,vertical,horizontal,vertical,horizontal
