experiment,subject,uniqueID,block,trial,trial_cumulative,age,gender,color_cond_blocking,color_history,shape_type,set_size,distractor,rt,acc,target_orient,response_key,response_made,iti,target_color,target_item,distractor_item,target_X,target_Y,distractor_X,distractor_Y,item1_X,item1_Y,item2_X,item2_Y,item3_X,item3_Y,item4_X,item4_Y,item1_shape,item2_shape,item3_shape,item4_shape,item1_line,item2_line,item3_line,item4_line
2a,20,100283,1,1,1,21,F,NA,variable,heterogeneous,4,absent,NaN,0,horizontal,none,0,3,red,4,NaN,619.68777079743,780.31222920257,NaN,NaN,980.31222920257,780.31222920257,980.31222920257,419.68777079743,619.68777079743,419.68777079743,619.68777079743,780.31222920257,0,3,5,4,horizontal,vertical,vertical,horizontal
2a,20,100283,1,2,2,21,F,NA,variable,heterogeneous,4,absent,1.60636806488037,1,horizontal,horizontal,1,5,green,4,NaN,619.68777079743,780.31222920257,NaN,NaN,980.31222920257,780.31222920257,980.31222920257,419.68777079743,619.68777079743,419.68777079743,619.68777079743,780.31222920257,3,6,0,4,horizontal,horizontal,horizontal,horizontal
2a,20,100283,1,3,3,21,F,NA,variable,heterogeneous,4,present,NaN,0,horizontal,none,0,2,red,2,1,980.31222920257,419.68777079743,980.31222920257,780.31222920257,980.31222920257,780.31222920257,980.31222920257,419.68777079743,619.68777079743,419.68777079743,619.68777079743,780.31222920257,3,4,5,0,vertical,horizontal,vertical,vertical
2a,20,100283,1,4,4,21,F,NA,variable,heterogeneous,4,absent,1.16693997383118,1,vertical,vertical,1,8,red,3,NaN,619.68777079743,419.68777079743,NaN,NaN,980.31222920257,780.31222920257,980.31222920257,419.68777079743,619.68777079743,419.68777079743,619.68777079743,780.31222920257,6,5,4,3,horizontal,horizontal,vertical,horizontal
2a,20,100283,1,5,5,21,F,NA,variable,heterogeneous,4,present,1.34232997894287,1,horizontal,horizontal,1,5,red,2,4,980.31222920257,419.68777079743,619.68777079743,780.31222920257,980.31222920257,780.31222920257,980.31222920257,419.68777079743,619.68777079743,419.68777079743,619.68777079743,780.31222920257,6,4,3,0,horizontal,horizontal,horizontal,vertical
2a,20,100283,1,6,6,21,F,NA,variable,heterogeneous,4,absent,0.925562858581543,1,vertical,vertical,1,3,green,3,NaN,619.68777079743,419.68777079743,NaN,NaN,980.31222920257,780.31222920257,980.31222920257,419.68777079743,619.68777079743,419.68777079743,619.68777079743,780.31222920257,0,6,4,3,vertical,horizontal,vertical,horizontal
2a,20,100283,1,7,7,21,F,NA,variable,heterogeneous,4,absent,1.3880889415741,1,horizontal,horizontal,1,2,red,2,NaN,980.31222920257,419.68777079743,NaN,NaN,980.31222920257,780.31222920257,980.31222920257,419.68777079743,619.68777079743,419.68777079743,619.68777079743,780.31222920257,3,4,5,6,vertical,horizontal,vertical,horizontal
2a,20,100283,1,8,8,21,F,NA,variable,heterogeneous,4,present,1.0925281047821,1,horizontal,horizontal,1,2,green,4,2,619.68777079743,780.31222920257,980.31222920257,419.68777079743,980.31222920257,780.31222920257,980.31222920257,419.68777079743,619.68777079743,419.68777079743,619.68777079743,780.31222920257,3,6,5,4,horizontal,horizontal,horizontal,horizontal
2a,20,100283,1,9,9,21,F,NA,variable,heterogeneous,4,present,1.27808094024658,1,vertical,vertical,1,2,green,1,2,980.31222920257,780.31222920257,980.31222920257,419.68777079743,980.31222920257,780.31222920257,980.31222920257,419.68777079743,619.68777079743,419.68777079743,619.68777079743,780.31222920257,4,3,5,0,vertical,vertical,horizontal,horizontal
2a,20,100283,1,10,10,21,F,NA,variable,heterogeneous,4,present,1.33197808265686,1,vertical,vertical,1,5,green,2,3,980.31222920257,419.68777079743,619.68777079743,419.68777079743,980.31222920257,780.31222920257,980.31222920257,419.68777079743,619.68777079743,419.68777079743,619.68777079743,780.31222920257,3,4,0,6,vertical,vertical,horizontal,vertical
2a,20,100283,1,11,11,21,F,NA,variable,heterogeneous,4,present,1.64687204360962,1,horizontal,horizontal,1,5,red,3,4,619.68777079743,419.68777079743,619.68777079743,780.31222920257,980.31222920257,780.31222920257,980.31222920257,419.68777079743,619.68777079743,419.68777079743,619.68777079743,780.31222920257,3,5,4,6,vertical,vertical,horizontal,horizontal
2a,20,100283,1,12,12,21,F,NA,variable,heterogeneous,4,present,1.28420400619507,1,vertical,vertical,1,8,red,1,3,980.31222920257,780.31222920257,619.68777079743,419.68777079743,980.31222920257,780.31222920257,980.31222920257,419.68777079743,619.68777079743,419.68777079743,619.68777079743,780.31222920257,4,3,0,5,vertical,vertical,horizontal,vertical
2a,20,100283,1,13,13,21,F,NA,variable,heterogeneous,4,absent,0.894143104553223,1,horizontal,horizontal,1,5,green,4,NaN,619.68777079743,780.31222920257,NaN,NaN,980.31222920257,780.31222920257,980.31222920257,419.68777079743,619.68777079743,419.68777079743,619.68777079743,780.31222920257,0,3,6,4,horizontal,vertical,horizontal,horizontal
2a,20,100283,1,14,14,21,F,NA,variable,heterogeneous,4,absent,0.812417030334473,1,vertical,vertical,1,5,red,1,NaN,980.31222920257,780.31222920257,NaN,NaN,980.31222920257,780.31222920257,980.31222920257,419.68777079743,619.68777079743,419.68777079743,619.68777079743,780.31222920257,4,0,5,3,vertical,horizontal,vertical,vertical
2a,20,100283,1,15,15,21,F,NA,variable,heterogeneous,4,absent,1.24491596221924,1,vertical,vertical,1,5,green,4,NaN,619.68777079743,780.31222920257,NaN,NaN,980.31222920257,780.31222920257,980.31222920257,419.68777079743,619.68777079743,419.68777079743,619.68777079743,780.31222920257,5,0,3,4,vertical,horizontal,vertical,vertical
2a,20,100283,1,16,16,21,F,NA,variable,heterogeneous,4,absent,0.94195294380188,1,horizontal,horizontal,1,2,red,1,NaN,980.31222920257,780.31222920257,NaN,NaN,980.31222920257,780.31222920257,980.31222920257,419.68777079743,619.68777079743,419.68777079743,619.68777079743,780.31222920257,4,0,3,5,horizontal,vertical,vertical,vertical
2a,20,100283,1,17,17,21,F,NA,variable,heterogeneous,4,present,1.20497012138367,1,vertical,vertical,1,2,red,3,4,619.68777079743,419.68777079743,619.68777079743,780.31222920257,980.31222920257,780.31222920257,980.31222920257,419.68777079743,619.68777079743,419.68777079743,619.68777079743,780.31222920257,0,6,4,5,horizontal,vertical,vertical,horizontal
2a,20,100283,1,18,18,21,F,NA,variable,heterogeneous,4,absent,NaN,0,vertical,none,0,3,red,2,NaN,980.31222920257,419.68777079743,NaN,NaN,980.31222920257,780.31222920257,980.31222920257,419.68777079743,619.68777079743,419.68777079743,619.68777079743,780.31222920257,0,4,3,5,vertical,vertical,vertical,vertical
2a,20,100283,1,19,19,21,F,NA,variable,heterogeneous,4,absent,0.677695989608765,1,horizontal,horizontal,1,8,red,4,NaN,619.68777079743,780.31222920257,NaN,NaN,980.31222920257,780.31222920257,980.31222920257,419.68777079743,619.68777079743,419.68777079743,619.68777079743,780.31222920257,0,5,6,4,vertical,vertical,horizontal,horizontal
2a,20,100283,1,20,20,21,F,NA,variable,heterogeneous,4,absent,1.46737909317017,1,horizontal,horizontal,1,2,green,1,NaN,980.31222920257,780.31222920257,NaN,NaN,980.31222920257,780.31222920257,980.31222920257,419.68777079743,619.68777079743,419.68777079743,619.68777079743,780.31222920257,4,0,3,6,horizontal,vertical,horizontal,vertical
2a,20,100283,1,21,21,21,F,NA,variable,heterogeneous,4,present,1.46078300476074,1,horizontal,horizontal,1,3,red,1,2,980.31222920257,780.31222920257,980.31222920257,419.68777079743,980.31222920257,780.31222920257,980.31222920257,419.68777079743,619.68777079743,419.68777079743,619.68777079743,780.31222920257,4,5,0,3,horizontal,horizontal,horizontal,horizontal
2a,20,100283,1,22,22,21,F,NA,variable,heterogeneous,4,absent,0.766550064086914,0,horizontal,vertical,1,3,red,2,NaN,980.31222920257,419.68777079743,NaN,NaN,980.31222920257,780.31222920257,980.31222920257,419.68777079743,619.68777079743,419.68777079743,619.68777079743,780.31222920257,5,4,0,3,vertical,horizontal,vertical,vertical
2a,20,100283,1,23,23,21,F,NA,variable,heterogeneous,4,present,1.30988097190857,1,vertical,vertical,1,3,green,4,2,619.68777079743,780.31222920257,980.31222920257,419.68777079743,980.31222920257,780.31222920257,980.31222920257,419.68777079743,619.68777079743,419.68777079743,619.68777079743,780.31222920257,6,0,3,4,horizontal,vertical,horizontal,vertical
2a,20,100283,1,24,24,21,F,NA,variable,heterogeneous,4,present,1.30420207977295,1,horizontal,horizontal,1,2,red,4,1,619.68777079743,780.31222920257,980.31222920257,780.31222920257,980.31222920257,780.31222920257,980.31222920257,419.68777079743,619.68777079743,419.68777079743,619.68777079743,780.31222920257,3,6,0,4,horizontal,vertical,vertical,horizontal
2a,20,100283,1,25,25,21,F,NA,variable,heterogeneous,4,present,1.27481913566589,1,vertical,vertical,1,3,green,1,4,980.31222920257,780.31222920257,619.68777079743,780.31222920257,980.31222920257,780.31222920257,980.31222920257,419.68777079743,619.68777079743,419.68777079743,619.68777079743,780.31222920257,4,0,6,5,vertical,horizontal,vertical,horizontal
2a,20,100283,1,26,26,21,F,NA,variable,heterogeneous,4,present,1.1205461025238,1,horizontal,horizontal,1,3,green,4,3,619.68777079743,780.31222920257,619.68777079743,419.68777079743,980.31222920257,780.31222920257,980.31222920257,419.68777079743,619.68777079743,419.68777079743,619.68777079743,780.31222920257,5,3,6,4,vertical,vertical,vertical,horizontal
2a,20,100283,1,27,27,21,F,NA,variable,heterogeneous,4,present,0.887242794036865,1,horizontal,horizontal,1,8,green,4,2,619.68777079743,780.31222920257,980.31222920257,419.68777079743,980.31222920257,780.31222920257,980.31222920257,419.68777079743,619.68777079743,419.68777079743,619.68777079743,780.31222920257,0,5,3,4,vertical,horizontal,vertical,horizontal
2a,20,100283,1,28,28,21,F,NA,variable,heterogeneous,4,absent,0.793308019638062,1,vertical,vertical,1,2,green,4,NaN,619.68777079743,780.31222920257,NaN,NaN,980.31222920257,780.31222920257,980.31222920257,419.68777079743,619.68777079743,419.68777079743,619.68777079743,780.31222920257,5,6,3,4,horizontal,vertical,horizontal,vertical
2a,20,100283,1,29,29,21,F,NA,variable,heterogeneous,4,present,NaN,0,vertical,none,0,2,red,4,1,619.68777079743,780.31222920257,980.31222920257,780.31222920257,980.31222920257,780.31222920257,980.31222920257,419.68777079743,619.68777079743,419.68777079743,619.68777079743,780.31222920257,3,5,6,4,horizontal,vertical,horizontal,vertical
2a,20,100283,1,30,30,21,F,NA,variable,heterogeneous,4,present,1.58970403671265,1,vertical,vertical,1,5,green,2,1,980.31222920257,419.68777079743,980.31222920257,780.31222920257,980.31222920257,780.31222920257,980.31222920257,419.68777079743,619.68777079743,419.68777079743,619.68777079743,780.31222920257,5,4,3,6,horizontal,vertical,horizontal,vertical
2a,20,100283,1,31,31,21,F,NA,variable,heterogeneous,4,absent,1.54179501533508,1,vertical,vertical,1,2,green,3,NaN,619.68777079743,419.68777079743,NaN,NaN,980.31222920257,780.31222920257,980.31222920257,419.68777079743,619.68777079743,419.68777079743,619.68777079743,780.31222920257,5,0,4,6,horizontal,horizontal,vertical,horizontal
2a,20,100283,1,32,32,21,F,NA,variable,heterogeneous,4,absent,1.78088212013245,1,vertical,vertical,1,2,red,4,NaN,619.68777079743,780.31222920257,NaN,NaN,980.31222920257,780.31222920257,980.31222920257,419.68777079743,619.68777079743,419.68777079743,619.68777079743,780.31222920257,5,3,6,4,vertical,vertical,horizontal,vertical
2a,20,100283,2,1,33,21,F,NA,variable,heterogeneous,4,absent,1.43841791152954,1,horizontal,horizontal,1,5,red,4,NaN,619.68777079743,780.31222920257,NaN,NaN,980.31222920257,780.31222920257,980.31222920257,419.68777079743,619.68777079743,419.68777079743,619.68777079743,780.31222920257,3,6,5,4,vertical,horizontal,vertical,horizontal
2a,20,100283,2,2,34,21,F,NA,variable,heterogeneous,4,present,1.27157187461853,1,vertical,vertical,1,2,green,1,2,980.31222920257,780.31222920257,980.31222920257,419.68777079743,980.31222920257,780.31222920257,980.31222920257,419.68777079743,619.68777079743,419.68777079743,619.68777079743,780.31222920257,4,0,3,6,vertical,vertical,vertical,horizontal
2a,20,100283,2,3,35,21,F,NA,variable,heterogeneous,4,present,1.7809739112854,1,horizontal,horizontal,1,2,green,3,4,619.68777079743,419.68777079743,619.68777079743,780.31222920257,980.31222920257,780.31222920257,980.31222920257,419.68777079743,619.68777079743,419.68777079743,619.68777079743,780.31222920257,0,3,4,5,horizontal,vertical,horizontal,horizontal
2a,20,100283,2,4,36,21,F,NA,variable,heterogeneous,4,present,1.7129909992218,1,vertical,vertical,1,3,red,3,2,619.68777079743,419.68777079743,980.31222920257,419.68777079743,980.31222920257,780.31222920257,980.31222920257,419.68777079743,619.68777079743,419.68777079743,619.68777079743,780.31222920257,3,5,4,6,horizontal,horizontal,vertical,horizontal
2a,20,100283,2,5,37,21,F,NA,variable,heterogeneous,4,present,1.2113139629364,1,horizontal,horizontal,1,2,green,2,3,980.31222920257,419.68777079743,619.68777079743,419.68777079743,980.31222920257,780.31222920257,980.31222920257,419.68777079743,619.68777079743,419.68777079743,619.68777079743,780.31222920257,0,4,6,5,horizontal,horizontal,vertical,vertical
2a,20,100283,2,6,38,21,F,NA,variable,heterogeneous,4,present,1.49992704391479,1,horizontal,horizontal,1,5,green,2,4,980.31222920257,419.68777079743,619.68777079743,780.31222920257,980.31222920257,780.31222920257,980.31222920257,419.68777079743,619.68777079743,419.68777079743,619.68777079743,780.31222920257,5,4,0,6,vertical,horizontal,vertical,horizontal
2a,20,100283,2,7,39,21,F,NA,variable,heterogeneous,4,absent,1.33833599090576,1,vertical,vertical,1,2,green,1,NaN,980.31222920257,780.31222920257,NaN,NaN,980.31222920257,780.31222920257,980.31222920257,419.68777079743,619.68777079743,419.68777079743,619.68777079743,780.31222920257,4,3,5,6,vertical,vertical,horizontal,vertical
2a,20,100283,2,8,40,21,F,NA,variable,heterogeneous,4,absent,1.45288801193237,1,horizontal,horizontal,1,2,green,2,NaN,980.31222920257,419.68777079743,NaN,NaN,980.31222920257,780.31222920257,980.31222920257,419.68777079743,619.68777079743,419.68777079743,619.68777079743,780.31222920257,3,4,0,5,horizontal,horizontal,horizontal,vertical
2a,20,100283,2,9,41,21,F,NA,variable,heterogeneous,4,present,1.75414896011353,1,horizontal,horizontal,1,8,red,1,4,980.31222920257,780.31222920257,619.68777079743,780.31222920257,980.31222920257,780.31222920257,980.31222920257,419.68777079743,619.68777079743,419.68777079743,619.68777079743,780.31222920257,4,3,6,0,horizontal,horizontal,vertical,horizontal
2a,20,100283,2,10,42,21,F,NA,variable,heterogeneous,4,absent,0.91777491569519,1,horizontal,horizontal,1,8,red,4,NaN,619.68777079743,780.31222920257,NaN,NaN,980.31222920257,780.31222920257,980.31222920257,419.68777079743,619.68777079743,419.68777079743,619.68777079743,780.31222920257,6,0,5,4,vertical,vertical,horizontal,horizontal
2a,20,100283,2,11,43,21,F,NA,variable,heterogeneous,4,absent,1.38835501670837,1,horizontal,horizontal,1,3,green,1,NaN,980.31222920257,780.31222920257,NaN,NaN,980.31222920257,780.31222920257,980.31222920257,419.68777079743,619.68777079743,419.68777079743,619.68777079743,780.31222920257,4,3,0,5,horizontal,horizontal,horizontal,vertical
2a,20,100283,2,12,44,21,F,NA,variable,heterogeneous,4,absent,1.02041816711426,1,vertical,vertical,1,3,green,3,NaN,619.68777079743,419.68777079743,NaN,NaN,980.31222920257,780.31222920257,980.31222920257,419.68777079743,619.68777079743,419.68777079743,619.68777079743,780.31222920257,6,5,4,0,horizontal,vertical,vertical,horizontal
2a,20,100283,2,13,45,21,F,NA,variable,heterogeneous,4,present,1.62911105155945,1,vertical,vertical,1,2,red,2,1,980.31222920257,419.68777079743,980.31222920257,780.31222920257,980.31222920257,780.31222920257,980.31222920257,419.68777079743,619.68777079743,419.68777079743,619.68777079743,780.31222920257,3,4,0,6,vertical,vertical,horizontal,vertical
2a,20,100283,2,14,46,21,F,NA,variable,heterogeneous,4,present,1.32993412017822,1,horizontal,horizontal,1,3,red,1,2,980.31222920257,780.31222920257,980.31222920257,419.68777079743,980.31222920257,780.31222920257,980.31222920257,419.68777079743,619.68777079743,419.68777079743,619.68777079743,780.31222920257,4,5,3,6,horizontal,horizontal,vertical,vertical
2a,20,100283,2,15,47,21,F,NA,variable,heterogeneous,4,present,1.23637700080872,1,vertical,vertical,1,2,green,1,2,980.31222920257,780.31222920257,980.31222920257,419.68777079743,980.31222920257,780.31222920257,980.31222920257,419.68777079743,619.68777079743,419.68777079743,619.68777079743,780.31222920257,4,5,3,6,vertical,vertical,vertical,vertical
2a,20,100283,2,16,48,21,F,NA,variable,heterogeneous,4,present,1.38967490196228,1,horizontal,horizontal,1,3,green,2,3,980.31222920257,419.68777079743,619.68777079743,419.68777079743,980.31222920257,780.31222920257,980.31222920257,419.68777079743,619.68777079743,419.68777079743,619.68777079743,780.31222920257,0,4,3,5,vertical,horizontal,vertical,vertical
2a,20,100283,2,17,49,21,F,NA,variable,heterogeneous,4,present,1.32565402984619,1,horizontal,horizontal,1,5,red,2,3,980.31222920257,419.68777079743,619.68777079743,419.68777079743,980.31222920257,780.31222920257,980.31222920257,419.68777079743,619.68777079743,419.68777079743,619.68777079743,780.31222920257,6,4,0,3,horizontal,horizontal,horizontal,vertical
2a,20,100283,2,18,50,21,F,NA,variable,heterogeneous,4,present,NaN,0,vertical,none,0,8,red,3,2,619.68777079743,419.68777079743,980.31222920257,419.68777079743,980.31222920257,780.31222920257,980.31222920257,419.68777079743,619.68777079743,419.68777079743,619.68777079743,780.31222920257,3,0,4,5,horizontal,horizontal,vertical,vertical
2a,20,100283,2,19,51,21,F,NA,variable,heterogeneous,4,absent,0.984611034393311,1,vertical,vertical,1,5,green,2,NaN,980.31222920257,419.68777079743,NaN,NaN,980.31222920257,780.31222920257,980.31222920257,419.68777079743,619.68777079743,419.68777079743,619.68777079743,780.31222920257,6,4,5,0,vertical,vertical,vertical,vertical
2a,20,100283,2,20,52,21,F,NA,variable,heterogeneous,4,present,1.04456305503845,1,vertical,vertical,1,3,green,4,2,619.68777079743,780.31222920257,980.31222920257,419.68777079743,980.31222920257,780.31222920257,980.31222920257,419.68777079743,619.68777079743,419.68777079743,619.68777079743,780.31222920257,0,5,6,4,horizontal,vertical,vertical,vertical
2a,20,100283,2,21,53,21,F,NA,variable,heterogeneous,4,absent,1.02966499328613,1,vertical,vertical,1,5,green,1,NaN,980.31222920257,780.31222920257,NaN,NaN,980.31222920257,780.31222920257,980.31222920257,419.68777079743,619.68777079743,419.68777079743,619.68777079743,780.31222920257,4,0,3,5,vertical,vertical,vertical,horizontal
2a,20,100283,2,22,54,21,F,NA,variable,heterogeneous,4,present,1.11462306976318,1,horizontal,horizontal,1,2,green,3,4,619.68777079743,419.68777079743,619.68777079743,780.31222920257,980.31222920257,780.31222920257,980.31222920257,419.68777079743,619.68777079743,419.68777079743,619.68777079743,780.31222920257,3,0,4,5,horizontal,horizontal,horizontal,horizontal
2a,20,100283,2,23,55,21,F,NA,variable,heterogeneous,4,absent,1.0286750793457,1,vertical,vertical,1,3,red,1,NaN,980.31222920257,780.31222920257,NaN,NaN,980.31222920257,780.31222920257,980.31222920257,419.68777079743,619.68777079743,419.68777079743,619.68777079743,780.31222920257,4,5,0,6,vertical,horizontal,vertical,vertical
2a,20,100283,2,24,56,21,F,NA,variable,heterogeneous,4,absent,1.37776613235474,1,horizontal,horizontal,1,5,green,4,NaN,619.68777079743,780.31222920257,NaN,NaN,980.31222920257,780.31222920257,980.31222920257,419.68777079743,619.68777079743,419.68777079743,619.68777079743,780.31222920257,5,3,6,4,horizontal,vertical,horizontal,horizontal
2a,20,100283,2,25,57,21,F,NA,variable,heterogeneous,4,absent,1.98961210250854,1,horizontal,horizontal,1,2,green,1,NaN,980.31222920257,780.31222920257,NaN,NaN,980.31222920257,780.31222920257,980.31222920257,419.68777079743,619.68777079743,419.68777079743,619.68777079743,780.31222920257,4,0,5,6,horizontal,horizontal,horizontal,horizontal
2a,20,100283,2,26,58,21,F,NA,variable,heterogeneous,4,absent,0.853423118591309,1,vertical,vertical,1,2,green,4,NaN,619.68777079743,780.31222920257,NaN,NaN,980.31222920257,780.31222920257,980.31222920257,419.68777079743,619.68777079743,419.68777079743,619.68777079743,780.31222920257,0,3,5,4,horizontal,vertical,vertical,vertical
2a,20,100283,2,27,59,21,F,NA,variable,heterogeneous,4,absent,1.2268340587616,1,vertical,vertical,1,8,green,4,NaN,619.68777079743,780.31222920257,NaN,NaN,980.31222920257,780.31222920257,980.31222920257,419.68777079743,619.68777079743,419.68777079743,619.68777079743,780.31222920257,0,3,5,4,vertical,vertical,vertical,vertical
2a,20,100283,2,28,60,21,F,NA,variable,heterogeneous,4,present,1.61562705039978,1,vertical,vertical,1,5,red,2,4,980.31222920257,419.68777079743,619.68777079743,780.31222920257,980.31222920257,780.31222920257,980.31222920257,419.68777079743,619.68777079743,419.68777079743,619.68777079743,780.31222920257,0,4,5,6,horizontal,vertical,vertical,horizontal
2a,20,100283,2,29,61,21,F,NA,variable,heterogeneous,4,absent,NaN,0,horizontal,none,0,2,red,3,NaN,619.68777079743,419.68777079743,NaN,NaN,980.31222920257,780.31222920257,980.31222920257,419.68777079743,619.68777079743,419.68777079743,619.68777079743,780.31222920257,6,3,4,5,vertical,vertical,horizontal,vertical
2a,20,100283,2,30,62,21,F,NA,variable,heterogeneous,4,absent,NaN,0,horizontal,none,0,3,red,2,NaN,980.31222920257,419.68777079743,NaN,NaN,980.31222920257,780.31222920257,980.31222920257,419.68777079743,619.68777079743,419.68777079743,619.68777079743,780.31222920257,5,4,6,3,horizontal,horizontal,vertical,vertical
2a,20,100283,2,31,63,21,F,NA,variable,heterogeneous,4,absent,1.73690891265869,1,vertical,vertical,1,2,red,1,NaN,980.31222920257,780.31222920257,NaN,NaN,980.31222920257,780.31222920257,980.31222920257,419.68777079743,619.68777079743,419.68777079743,619.68777079743,780.31222920257,4,5,3,0,vertical,vertical,horizontal,vertical
2a,20,100283,2,32,64,21,F,NA,variable,heterogeneous,4,present,1.28382205963135,1,vertical,vertical,1,5,red,1,3,980.31222920257,780.31222920257,619.68777079743,419.68777079743,980.31222920257,780.31222920257,980.31222920257,419.68777079743,619.68777079743,419.68777079743,619.68777079743,780.31222920257,4,3,0,6,vertical,vertical,vertical,vertical
2a,20,100283,3,1,65,21,F,NA,variable,heterogeneous,4,present,1.30161380767822,1,vertical,vertical,1,3,red,1,2,980.31222920257,780.31222920257,980.31222920257,419.68777079743,980.31222920257,780.31222920257,980.31222920257,419.68777079743,619.68777079743,419.68777079743,619.68777079743,780.31222920257,4,6,0,5,vertical,horizontal,vertical,horizontal
2a,20,100283,3,2,66,21,F,NA,variable,heterogeneous,4,absent,1.6677610874176,1,vertical,vertical,1,5,red,4,NaN,619.68777079743,780.31222920257,NaN,NaN,980.31222920257,780.31222920257,980.31222920257,419.68777079743,619.68777079743,419.68777079743,619.68777079743,780.31222920257,3,0,5,4,vertical,vertical,horizontal,vertical
2a,20,100283,3,3,67,21,F,NA,variable,heterogeneous,4,absent,1.37324500083923,1,horizontal,horizontal,1,2,red,2,NaN,980.31222920257,419.68777079743,NaN,NaN,980.31222920257,780.31222920257,980.31222920257,419.68777079743,619.68777079743,419.68777079743,619.68777079743,780.31222920257,3,4,0,6,horizontal,horizontal,vertical,vertical
2a,20,100283,3,4,68,21,F,NA,variable,heterogeneous,4,present,1.43671703338623,1,horizontal,horizontal,1,8,green,3,4,619.68777079743,419.68777079743,619.68777079743,780.31222920257,980.31222920257,780.31222920257,980.31222920257,419.68777079743,619.68777079743,419.68777079743,619.68777079743,780.31222920257,5,3,4,6,horizontal,horizontal,horizontal,horizontal
2a,20,100283,3,5,69,21,F,NA,variable,heterogeneous,4,absent,1.341952085495,1,horizontal,horizontal,1,3,green,4,NaN,619.68777079743,780.31222920257,NaN,NaN,980.31222920257,780.31222920257,980.31222920257,419.68777079743,619.68777079743,419.68777079743,619.68777079743,780.31222920257,3,0,6,4,vertical,horizontal,vertical,horizontal
2a,20,100283,3,6,70,21,F,NA,variable,heterogeneous,4,absent,1.28523302078247,1,vertical,vertical,1,2,green,2,NaN,980.31222920257,419.68777079743,NaN,NaN,980.31222920257,780.31222920257,980.31222920257,419.68777079743,619.68777079743,419.68777079743,619.68777079743,780.31222920257,3,4,6,0,horizontal,vertical,vertical,horizontal
2a,20,100283,3,7,71,21,F,NA,variable,heterogeneous,4,present,1.22295498847961,1,vertical,vertical,1,2,green,1,3,980.31222920257,780.31222920257,619.68777079743,419.68777079743,980.31222920257,780.31222920257,980.31222920257,419.68777079743,619.68777079743,419.68777079743,619.68777079743,780.31222920257,4,3,5,0,vertical,vertical,vertical,horizontal
2a,20,100283,3,8,72,21,F,NA,variable,heterogeneous,4,present,0.867643117904663,1,horizontal,horizontal,1,2,red,1,2,980.31222920257,780.31222920257,980.31222920257,419.68777079743,980.31222920257,780.31222920257,980.31222920257,419.68777079743,619.68777079743,419.68777079743,619.68777079743,780.31222920257,4,3,5,0,horizontal,vertical,horizontal,vertical
2a,20,100283,3,9,73,21,F,NA,variable,heterogeneous,4,absent,1.08497405052185,1,vertical,vertical,1,2,red,4,NaN,619.68777079743,780.31222920257,NaN,NaN,980.31222920257,780.31222920257,980.31222920257,419.68777079743,619.68777079743,419.68777079743,619.68777079743,780.31222920257,6,3,0,4,vertical,vertical,horizontal,vertical
2a,20,100283,3,10,74,21,F,NA,variable,heterogeneous,4,absent,0.71091103553772,1,horizontal,horizontal,1,2,red,4,NaN,619.68777079743,780.31222920257,NaN,NaN,980.31222920257,780.31222920257,980.31222920257,419.68777079743,619.68777079743,419.68777079743,619.68777079743,780.31222920257,3,5,0,4,vertical,horizontal,vertical,horizontal
2a,20,100283,3,11,75,21,F,NA,variable,heterogeneous,4,absent,0.673402070999146,0,horizontal,vertical,1,5,green,1,NaN,980.31222920257,780.31222920257,NaN,NaN,980.31222920257,780.31222920257,980.31222920257,419.68777079743,619.68777079743,419.68777079743,619.68777079743,780.31222920257,4,0,5,3,horizontal,horizontal,horizontal,horizontal
2a,20,100283,3,12,76,21,F,NA,variable,heterogeneous,4,absent,1.50300288200378,1,horizontal,horizontal,1,3,green,3,NaN,619.68777079743,419.68777079743,NaN,NaN,980.31222920257,780.31222920257,980.31222920257,419.68777079743,619.68777079743,419.68777079743,619.68777079743,780.31222920257,3,6,4,5,vertical,vertical,horizontal,vertical
2a,20,100283,3,13,77,21,F,NA,variable,heterogeneous,4,present,0.99746298789978,1,vertical,vertical,1,3,green,3,1,619.68777079743,419.68777079743,980.31222920257,780.31222920257,980.31222920257,780.31222920257,980.31222920257,419.68777079743,619.68777079743,419.68777079743,619.68777079743,780.31222920257,0,5,4,6,horizontal,horizontal,vertical,horizontal
2a,20,100283,3,14,78,21,F,NA,variable,heterogeneous,4,absent,1.43751692771912,1,horizontal,horizontal,1,8,red,2,NaN,980.31222920257,419.68777079743,NaN,NaN,980.31222920257,780.31222920257,980.31222920257,419.68777079743,619.68777079743,419.68777079743,619.68777079743,780.31222920257,6,4,0,3,horizontal,horizontal,horizontal,horizontal
2a,20,100283,3,15,79,21,F,NA,variable,heterogeneous,4,present,1.76683211326599,1,vertical,vertical,1,8,red,1,2,980.31222920257,780.31222920257,980.31222920257,419.68777079743,980.31222920257,780.31222920257,980.31222920257,419.68777079743,619.68777079743,419.68777079743,619.68777079743,780.31222920257,4,3,5,6,vertical,vertical,vertical,vertical
2a,20,100283,3,16,80,21,F,NA,variable,heterogeneous,4,present,0.798108100891113,1,horizontal,horizontal,1,3,red,4,2,619.68777079743,780.31222920257,980.31222920257,419.68777079743,980.31222920257,780.31222920257,980.31222920257,419.68777079743,619.68777079743,419.68777079743,619.68777079743,780.31222920257,0,3,6,4,horizontal,vertical,horizontal,horizontal
2a,20,100283,3,17,81,21,F,NA,variable,heterogeneous,4,present,1.2223949432373,1,horizontal,horizontal,1,5,red,1,3,980.31222920257,780.31222920257,619.68777079743,419.68777079743,980.31222920257,780.31222920257,980.31222920257,419.68777079743,619.68777079743,419.68777079743,619.68777079743,780.31222920257,4,0,5,3,horizontal,horizontal,horizontal,horizontal
2a,20,100283,3,18,82,21,F,NA,variable,heterogeneous,4,present,0.866906881332397,1,horizontal,horizontal,1,2,green,2,3,980.31222920257,419.68777079743,619.68777079743,419.68777079743,980.31222920257,780.31222920257,980.31222920257,419.68777079743,619.68777079743,419.68777079743,619.68777079743,780.31222920257,0,4,5,6,horizontal,horizontal,horizontal,horizontal
2a,20,100283,3,19,83,21,F,NA,variable,heterogeneous,4,absent,1.1724648475647,1,vertical,vertical,1,3,red,1,NaN,980.31222920257,780.31222920257,NaN,NaN,980.31222920257,780.31222920257,980.31222920257,419.68777079743,619.68777079743,419.68777079743,619.68777079743,780.31222920257,4,6,3,0,vertical,vertical,horizontal,horizontal
2a,20,100283,3,20,84,21,F,NA,variable,heterogeneous,4,present,1.57221913337708,1,vertical,vertical,1,5,green,2,1,980.31222920257,419.68777079743,980.31222920257,780.31222920257,980.31222920257,780.31222920257,980.31222920257,419.68777079743,619.68777079743,419.68777079743,619.68777079743,780.31222920257,3,4,0,6,horizontal,vertical,horizontal,vertical
2a,20,100283,3,21,85,21,F,NA,variable,heterogeneous,4,absent,1.63574194908142,1,horizontal,horizontal,1,5,red,3,NaN,619.68777079743,419.68777079743,NaN,NaN,980.31222920257,780.31222920257,980.31222920257,419.68777079743,619.68777079743,419.68777079743,619.68777079743,780.31222920257,5,6,4,0,vertical,vertical,horizontal,horizontal
2a,20,100283,3,22,86,21,F,NA,variable,heterogeneous,4,present,1.3084819316864,1,horizontal,horizontal,1,3,green,1,2,980.31222920257,780.31222920257,980.31222920257,419.68777079743,980.31222920257,780.31222920257,980.31222920257,419.68777079743,619.68777079743,419.68777079743,619.68777079743,780.31222920257,4,0,5,6,horizontal,vertical,horizontal,vertical
2a,20,100283,3,23,87,21,F,NA,variable,heterogeneous,4,absent,0.999194145202637,1,vertical,vertical,1,8,green,1,NaN,980.31222920257,780.31222920257,NaN,NaN,980.31222920257,780.31222920257,980.31222920257,419.68777079743,619.68777079743,419.68777079743,619.68777079743,780.31222920257,4,3,6,0,vertical,horizontal,horizontal,horizontal
2a,20,100283,3,24,88,21,F,NA,variable,heterogeneous,4,absent,1.45145583152771,1,vertical,vertical,1,3,green,2,NaN,980.31222920257,419.68777079743,NaN,NaN,980.31222920257,780.31222920257,980.31222920257,419.68777079743,619.68777079743,419.68777079743,619.68777079743,780.31222920257,0,4,6,3,vertical,vertical,horizontal,horizontal
2a,20,100283,3,25,89,21,F,NA,variable,heterogeneous,4,present,0.888727903366089,1,vertical,vertical,1,2,green,4,3,619.68777079743,780.31222920257,619.68777079743,419.68777079743,980.31222920257,780.31222920257,980.31222920257,419.68777079743,619.68777079743,419.68777079743,619.68777079743,780.31222920257,6,0,3,4,horizontal,vertical,vertical,vertical
2a,20,100283,3,26,90,21,F,NA,variable,heterogeneous,4,present,0.962638854980469,1,vertical,vertical,1,5,red,2,1,980.31222920257,419.68777079743,980.31222920257,780.31222920257,980.31222920257,780.31222920257,980.31222920257,419.68777079743,619.68777079743,419.68777079743,619.68777079743,780.31222920257,6,4,5,0,horizontal,vertical,horizontal,horizontal
2a,20,100283,3,27,91,21,F,NA,variable,heterogeneous,4,present,1.35821509361267,1,horizontal,horizontal,1,2,green,1,4,980.31222920257,780.31222920257,619.68777079743,780.31222920257,980.31222920257,780.31222920257,980.31222920257,419.68777079743,619.68777079743,419.68777079743,619.68777079743,780.31222920257,4,6,3,0,horizontal,horizontal,vertical,horizontal
2a,20,100283,3,28,92,21,F,NA,variable,heterogeneous,4,absent,1.01759099960327,1,vertical,vertical,1,2,green,4,NaN,619.68777079743,780.31222920257,NaN,NaN,980.31222920257,780.31222920257,980.31222920257,419.68777079743,619.68777079743,419.68777079743,619.68777079743,780.31222920257,0,3,6,4,horizontal,vertical,vertical,vertical
2a,20,100283,3,29,93,21,F,NA,variable,heterogeneous,4,absent,1.29805111885071,1,vertical,vertical,1,5,green,1,NaN,980.31222920257,780.31222920257,NaN,NaN,980.31222920257,780.31222920257,980.31222920257,419.68777079743,619.68777079743,419.68777079743,619.68777079743,780.31222920257,4,3,0,6,vertical,vertical,vertical,horizontal
2a,20,100283,3,30,94,21,F,NA,variable,heterogeneous,4,present,1.13656806945801,1,horizontal,horizontal,1,5,green,2,1,980.31222920257,419.68777079743,980.31222920257,780.31222920257,980.31222920257,780.31222920257,980.31222920257,419.68777079743,619.68777079743,419.68777079743,619.68777079743,780.31222920257,6,4,3,5,vertical,horizontal,vertical,horizontal
2a,20,100283,3,31,95,21,F,NA,variable,heterogeneous,4,absent,1.77131986618042,1,horizontal,horizontal,1,2,red,1,NaN,980.31222920257,780.31222920257,NaN,NaN,980.31222920257,780.31222920257,980.31222920257,419.68777079743,619.68777079743,419.68777079743,619.68777079743,780.31222920257,4,0,6,3,horizontal,vertical,vertical,horizontal
2a,20,100283,3,32,96,21,F,NA,variable,heterogeneous,4,present,1.16284394264221,1,vertical,vertical,1,2,green,3,2,619.68777079743,419.68777079743,980.31222920257,419.68777079743,980.31222920257,780.31222920257,980.31222920257,419.68777079743,619.68777079743,419.68777079743,619.68777079743,780.31222920257,0,3,4,5,vertical,horizontal,vertical,horizontal
2a,20,100283,4,1,97,21,F,NA,variable,heterogeneous,4,present,1.03574705123901,1,horizontal,horizontal,1,5,green,1,2,980.31222920257,780.31222920257,980.31222920257,419.68777079743,980.31222920257,780.31222920257,980.31222920257,419.68777079743,619.68777079743,419.68777079743,619.68777079743,780.31222920257,4,6,0,3,horizontal,vertical,vertical,vertical
2a,20,100283,4,2,98,21,F,NA,variable,heterogeneous,4,present,0.820703983306885,1,vertical,vertical,1,2,green,1,3,980.31222920257,780.31222920257,619.68777079743,419.68777079743,980.31222920257,780.31222920257,980.31222920257,419.68777079743,619.68777079743,419.68777079743,619.68777079743,780.31222920257,4,6,0,3,vertical,vertical,vertical,horizontal
2a,20,100283,4,3,99,21,F,NA,variable,heterogeneous,4,present,0.741328001022339,1,horizontal,horizontal,1,3,green,1,3,980.31222920257,780.31222920257,619.68777079743,419.68777079743,980.31222920257,780.31222920257,980.31222920257,419.68777079743,619.68777079743,419.68777079743,619.68777079743,780.31222920257,4,6,0,3,horizontal,horizontal,vertical,vertical
2a,20,100283,4,4,100,21,F,NA,variable,heterogeneous,4,absent,0.860584020614624,1,horizontal,horizontal,1,5,red,3,NaN,619.68777079743,419.68777079743,NaN,NaN,980.31222920257,780.31222920257,980.31222920257,419.68777079743,619.68777079743,419.68777079743,619.68777079743,780.31222920257,5,3,4,0,horizontal,horizontal,horizontal,horizontal
2a,20,100283,4,5,101,21,F,NA,variable,heterogeneous,4,absent,1.11802792549133,1,horizontal,horizontal,1,3,green,4,NaN,619.68777079743,780.31222920257,NaN,NaN,980.31222920257,780.31222920257,980.31222920257,419.68777079743,619.68777079743,419.68777079743,619.68777079743,780.31222920257,0,6,5,4,horizontal,horizontal,horizontal,horizontal
2a,20,100283,4,6,102,21,F,NA,variable,heterogeneous,4,absent,1.13272213935852,1,vertical,vertical,1,3,green,4,NaN,619.68777079743,780.31222920257,NaN,NaN,980.31222920257,780.31222920257,980.31222920257,419.68777079743,619.68777079743,419.68777079743,619.68777079743,780.31222920257,5,3,6,4,vertical,vertical,horizontal,vertical
2a,20,100283,4,7,103,21,F,NA,variable,heterogeneous,4,absent,0.927382946014404,1,vertical,vertical,1,3,green,4,NaN,619.68777079743,780.31222920257,NaN,NaN,980.31222920257,780.31222920257,980.31222920257,419.68777079743,619.68777079743,419.68777079743,619.68777079743,780.31222920257,0,5,6,4,vertical,horizontal,vertical,vertical
2a,20,100283,4,8,104,21,F,NA,variable,heterogeneous,4,absent,0.67023491859436,1,horizontal,horizontal,1,2,green,4,NaN,619.68777079743,780.31222920257,NaN,NaN,980.31222920257,780.31222920257,980.31222920257,419.68777079743,619.68777079743,419.68777079743,619.68777079743,780.31222920257,6,0,3,4,horizontal,horizontal,vertical,horizontal
2a,20,100283,4,9,105,21,F,NA,variable,heterogeneous,4,absent,1.09981203079224,1,horizontal,horizontal,1,5,red,1,NaN,980.31222920257,780.31222920257,NaN,NaN,980.31222920257,780.31222920257,980.31222920257,419.68777079743,619.68777079743,419.68777079743,619.68777079743,780.31222920257,4,0,6,5,horizontal,vertical,horizontal,vertical
2a,20,100283,4,10,106,21,F,NA,variable,heterogeneous,4,present,0.906275987625122,1,horizontal,horizontal,1,2,red,3,1,619.68777079743,419.68777079743,980.31222920257,780.31222920257,980.31222920257,780.31222920257,980.31222920257,419.68777079743,619.68777079743,419.68777079743,619.68777079743,780.31222920257,5,6,4,0,horizontal,horizontal,horizontal,vertical
2a,20,100283,4,11,107,21,F,NA,variable,heterogeneous,4,absent,1.29243302345276,1,vertical,vertical,1,5,green,3,NaN,619.68777079743,419.68777079743,NaN,NaN,980.31222920257,780.31222920257,980.31222920257,419.68777079743,619.68777079743,419.68777079743,619.68777079743,780.31222920257,0,6,4,3,horizontal,vertical,vertical,horizontal
2a,20,100283,4,12,108,21,F,NA,variable,heterogeneous,4,present,1.12274599075317,1,horizontal,horizontal,1,2,green,3,2,619.68777079743,419.68777079743,980.31222920257,419.68777079743,980.31222920257,780.31222920257,980.31222920257,419.68777079743,619.68777079743,419.68777079743,619.68777079743,780.31222920257,3,0,4,5,vertical,vertical,horizontal,horizontal
2a,20,100283,4,13,109,21,F,NA,variable,heterogeneous,4,present,1.12140417098999,1,vertical,vertical,1,3,red,3,2,619.68777079743,419.68777079743,980.31222920257,419.68777079743,980.31222920257,780.31222920257,980.31222920257,419.68777079743,619.68777079743,419.68777079743,619.68777079743,780.31222920257,6,0,4,3,vertical,vertical,vertical,horizontal
2a,20,100283,4,14,110,21,F,NA,variable,heterogeneous,4,present,0.935821056365967,1,vertical,vertical,1,2,red,3,4,619.68777079743,419.68777079743,619.68777079743,780.31222920257,980.31222920257,780.31222920257,980.31222920257,419.68777079743,619.68777079743,419.68777079743,619.68777079743,780.31222920257,0,6,4,5,vertical,vertical,vertical,horizontal
2a,20,100283,4,15,111,21,F,NA,variable,heterogeneous,4,absent,1.48293304443359,1,horizontal,horizontal,1,8,green,4,NaN,619.68777079743,780.31222920257,NaN,NaN,980.31222920257,780.31222920257,980.31222920257,419.68777079743,619.68777079743,419.68777079743,619.68777079743,780.31222920257,3,6,0,4,vertical,horizontal,horizontal,horizontal
2a,20,100283,4,16,112,21,F,NA,variable,heterogeneous,4,present,1.48495697975159,1,vertical,vertical,1,3,red,2,1,980.31222920257,419.68777079743,980.31222920257,780.31222920257,980.31222920257,780.31222920257,980.31222920257,419.68777079743,619.68777079743,419.68777079743,619.68777079743,780.31222920257,6,4,0,5,vertical,vertical,horizontal,horizontal
2a,20,100283,4,17,113,21,F,NA,variable,heterogeneous,4,present,1.36710715293884,1,vertical,vertical,1,2,red,2,4,980.31222920257,419.68777079743,619.68777079743,780.31222920257,980.31222920257,780.31222920257,980.31222920257,419.68777079743,619.68777079743,419.68777079743,619.68777079743,780.31222920257,3,4,6,5,vertical,vertical,horizontal,horizontal
2a,20,100283,4,18,114,21,F,NA,variable,heterogeneous,4,present,1.25438904762268,1,vertical,vertical,1,8,green,2,4,980.31222920257,419.68777079743,619.68777079743,780.31222920257,980.31222920257,780.31222920257,980.31222920257,419.68777079743,619.68777079743,419.68777079743,619.68777079743,780.31222920257,5,4,0,6,horizontal,vertical,horizontal,vertical
2a,20,100283,4,19,115,21,F,NA,variable,heterogeneous,4,absent,1.06783008575439,1,vertical,vertical,1,8,green,2,NaN,980.31222920257,419.68777079743,NaN,NaN,980.31222920257,780.31222920257,980.31222920257,419.68777079743,619.68777079743,419.68777079743,619.68777079743,780.31222920257,6,4,5,0,horizontal,vertical,vertical,horizontal
2a,20,100283,4,20,116,21,F,NA,variable,heterogeneous,4,absent,1.26161694526672,1,horizontal,horizontal,1,2,green,3,NaN,619.68777079743,419.68777079743,NaN,NaN,980.31222920257,780.31222920257,980.31222920257,419.68777079743,619.68777079743,419.68777079743,619.68777079743,780.31222920257,0,5,4,3,vertical,vertical,horizontal,horizontal
2a,20,100283,4,21,117,21,F,NA,variable,heterogeneous,4,absent,1.12694787979126,1,horizontal,horizontal,1,2,red,2,NaN,980.31222920257,419.68777079743,NaN,NaN,980.31222920257,780.31222920257,980.31222920257,419.68777079743,619.68777079743,419.68777079743,619.68777079743,780.31222920257,5,4,0,6,vertical,horizontal,horizontal,vertical
2a,20,100283,4,22,118,21,F,NA,variable,heterogeneous,4,present,1.02941417694092,1,vertical,vertical,1,5,green,3,1,619.68777079743,419.68777079743,980.31222920257,780.31222920257,980.31222920257,780.31222920257,980.31222920257,419.68777079743,619.68777079743,419.68777079743,619.68777079743,780.31222920257,0,6,4,5,horizontal,vertical,vertical,horizontal
2a,20,100283,4,23,119,21,F,NA,variable,heterogeneous,4,present,0.938552856445312,1,horizontal,horizontal,1,8,green,2,1,980.31222920257,419.68777079743,980.31222920257,780.31222920257,980.31222920257,780.31222920257,980.31222920257,419.68777079743,619.68777079743,419.68777079743,619.68777079743,780.31222920257,0,4,3,5,horizontal,horizontal,horizontal,horizontal
2a,20,100283,4,24,120,21,F,NA,variable,heterogeneous,4,absent,0.733130931854248,1,vertical,vertical,1,2,red,1,NaN,980.31222920257,780.31222920257,NaN,NaN,980.31222920257,780.31222920257,980.31222920257,419.68777079743,619.68777079743,419.68777079743,619.68777079743,780.31222920257,4,6,0,3,vertical,horizontal,vertical,vertical
2a,20,100283,4,25,121,21,F,NA,variable,heterogeneous,4,absent,1.14422512054443,1,vertical,vertical,1,2,green,2,NaN,980.31222920257,419.68777079743,NaN,NaN,980.31222920257,780.31222920257,980.31222920257,419.68777079743,619.68777079743,419.68777079743,619.68777079743,780.31222920257,3,4,5,0,horizontal,vertical,horizontal,vertical
2a,20,100283,4,26,122,21,F,NA,variable,heterogeneous,4,present,0.735167026519775,1,vertical,vertical,1,5,green,2,3,980.31222920257,419.68777079743,619.68777079743,419.68777079743,980.31222920257,780.31222920257,980.31222920257,419.68777079743,619.68777079743,419.68777079743,619.68777079743,780.31222920257,3,4,6,0,vertical,vertical,vertical,vertical
2a,20,100283,4,27,123,21,F,NA,variable,heterogeneous,4,present,0.914268970489502,1,horizontal,horizontal,1,3,red,1,4,980.31222920257,780.31222920257,619.68777079743,780.31222920257,980.31222920257,780.31222920257,980.31222920257,419.68777079743,619.68777079743,419.68777079743,619.68777079743,780.31222920257,4,5,6,0,horizontal,vertical,horizontal,vertical
2a,20,100283,4,28,124,21,F,NA,variable,heterogeneous,4,absent,1.34868407249451,1,vertical,vertical,1,5,red,2,NaN,980.31222920257,419.68777079743,NaN,NaN,980.31222920257,780.31222920257,980.31222920257,419.68777079743,619.68777079743,419.68777079743,619.68777079743,780.31222920257,5,4,6,3,horizontal,vertical,vertical,horizontal
2a,20,100283,4,29,125,21,F,NA,variable,heterogeneous,4,absent,0.803865909576416,1,horizontal,horizontal,1,3,green,3,NaN,619.68777079743,419.68777079743,NaN,NaN,980.31222920257,780.31222920257,980.31222920257,419.68777079743,619.68777079743,419.68777079743,619.68777079743,780.31222920257,5,0,4,6,horizontal,vertical,horizontal,horizontal
2a,20,100283,4,30,126,21,F,NA,variable,heterogeneous,4,present,1.04782009124756,1,horizontal,horizontal,1,2,green,4,3,619.68777079743,780.31222920257,619.68777079743,419.68777079743,980.31222920257,780.31222920257,980.31222920257,419.68777079743,619.68777079743,419.68777079743,619.68777079743,780.31222920257,0,6,5,4,vertical,horizontal,horizontal,horizontal
2a,20,100283,4,31,127,21,F,NA,variable,heterogeneous,4,present,1.42112612724304,1,horizontal,horizontal,1,5,green,2,4,980.31222920257,419.68777079743,619.68777079743,780.31222920257,980.31222920257,780.31222920257,980.31222920257,419.68777079743,619.68777079743,419.68777079743,619.68777079743,780.31222920257,5,4,6,3,horizontal,horizontal,horizontal,vertical
2a,20,100283,4,32,128,21,F,NA,variable,heterogeneous,4,absent,1.22992992401123,1,vertical,vertical,1,2,red,4,NaN,619.68777079743,780.31222920257,NaN,NaN,980.31222920257,780.31222920257,980.31222920257,419.68777079743,619.68777079743,419.68777079743,619.68777079743,780.31222920257,3,6,5,4,horizontal,vertical,horizontal,vertical
2a,20,100283,5,1,129,21,F,NA,variable,heterogeneous,4,present,1.3559730052948,1,vertical,vertical,1,8,green,2,1,980.31222920257,419.68777079743,980.31222920257,780.31222920257,980.31222920257,780.31222920257,980.31222920257,419.68777079743,619.68777079743,419.68777079743,619.68777079743,780.31222920257,0,4,3,5,vertical,vertical,horizontal,vertical
2a,20,100283,5,2,130,21,F,NA,variable,heterogeneous,4,present,0.902858018875122,1,horizontal,horizontal,1,2,red,1,2,980.31222920257,780.31222920257,980.31222920257,419.68777079743,980.31222920257,780.31222920257,980.31222920257,419.68777079743,619.68777079743,419.68777079743,619.68777079743,780.31222920257,4,3,5,0,horizontal,vertical,horizontal,vertical
2a,20,100283,5,3,131,21,F,NA,variable,heterogeneous,4,absent,1.32535314559937,1,vertical,vertical,1,2,green,3,NaN,619.68777079743,419.68777079743,NaN,NaN,980.31222920257,780.31222920257,980.31222920257,419.68777079743,619.68777079743,419.68777079743,619.68777079743,780.31222920257,0,6,4,3,horizontal,horizontal,vertical,horizontal
2a,20,100283,5,4,132,21,F,NA,variable,heterogeneous,4,absent,0.972010135650635,1,horizontal,horizontal,1,2,red,2,NaN,980.31222920257,419.68777079743,NaN,NaN,980.31222920257,780.31222920257,980.31222920257,419.68777079743,619.68777079743,419.68777079743,619.68777079743,780.31222920257,0,4,3,5,horizontal,horizontal,vertical,vertical
2a,20,100283,5,5,133,21,F,NA,variable,heterogeneous,4,absent,1.17949795722961,1,horizontal,horizontal,1,8,green,4,NaN,619.68777079743,780.31222920257,NaN,NaN,980.31222920257,780.31222920257,980.31222920257,419.68777079743,619.68777079743,419.68777079743,619.68777079743,780.31222920257,0,6,5,4,horizontal,horizontal,vertical,horizontal
2a,20,100283,5,6,134,21,F,NA,variable,heterogeneous,4,absent,0.967298984527588,1,vertical,vertical,1,2,green,2,NaN,980.31222920257,419.68777079743,NaN,NaN,980.31222920257,780.31222920257,980.31222920257,419.68777079743,619.68777079743,419.68777079743,619.68777079743,780.31222920257,6,4,0,3,horizontal,vertical,horizontal,horizontal
2a,20,100283,5,7,135,21,F,NA,variable,heterogeneous,4,present,0.926922082901001,1,vertical,vertical,1,3,red,1,2,980.31222920257,780.31222920257,980.31222920257,419.68777079743,980.31222920257,780.31222920257,980.31222920257,419.68777079743,619.68777079743,419.68777079743,619.68777079743,780.31222920257,4,6,0,5,vertical,vertical,horizontal,horizontal
2a,20,100283,5,8,136,21,F,NA,variable,heterogeneous,4,present,1.34956097602844,1,horizontal,horizontal,1,3,green,3,1,619.68777079743,419.68777079743,980.31222920257,780.31222920257,980.31222920257,780.31222920257,980.31222920257,419.68777079743,619.68777079743,419.68777079743,619.68777079743,780.31222920257,5,0,4,3,vertical,vertical,horizontal,vertical
2a,20,100283,5,9,137,21,F,NA,variable,heterogeneous,4,absent,0.836879968643188,1,vertical,vertical,1,3,green,3,NaN,619.68777079743,419.68777079743,NaN,NaN,980.31222920257,780.31222920257,980.31222920257,419.68777079743,619.68777079743,419.68777079743,619.68777079743,780.31222920257,6,3,4,5,horizontal,horizontal,vertical,vertical
2a,20,100283,5,10,138,21,F,NA,variable,heterogeneous,4,absent,0.845683097839355,1,horizontal,horizontal,1,5,red,4,NaN,619.68777079743,780.31222920257,NaN,NaN,980.31222920257,780.31222920257,980.31222920257,419.68777079743,619.68777079743,419.68777079743,619.68777079743,780.31222920257,3,5,6,4,horizontal,horizontal,horizontal,horizontal
2a,20,100283,5,11,139,21,F,NA,variable,heterogeneous,4,present,1.18685698509216,1,vertical,vertical,1,2,red,3,4,619.68777079743,419.68777079743,619.68777079743,780.31222920257,980.31222920257,780.31222920257,980.31222920257,419.68777079743,619.68777079743,419.68777079743,619.68777079743,780.31222920257,6,3,4,0,vertical,vertical,vertical,horizontal
2a,20,100283,5,12,140,21,F,NA,variable,heterogeneous,4,absent,1.17903113365173,1,vertical,vertical,1,5,green,1,NaN,980.31222920257,780.31222920257,NaN,NaN,980.31222920257,780.31222920257,980.31222920257,419.68777079743,619.68777079743,419.68777079743,619.68777079743,780.31222920257,4,3,5,6,vertical,vertical,vertical,vertical
2a,20,100283,5,13,141,21,F,NA,variable,heterogeneous,4,present,1.2549102306366,1,vertical,vertical,1,2,red,3,2,619.68777079743,419.68777079743,980.31222920257,419.68777079743,980.31222920257,780.31222920257,980.31222920257,419.68777079743,619.68777079743,419.68777079743,619.68777079743,780.31222920257,3,6,4,0,horizontal,horizontal,vertical,horizontal
2a,20,100283,5,14,142,21,F,NA,variable,heterogeneous,4,absent,1.28404307365417,1,vertical,vertical,1,5,red,1,NaN,980.31222920257,780.31222920257,NaN,NaN,980.31222920257,780.31222920257,980.31222920257,419.68777079743,619.68777079743,419.68777079743,619.68777079743,780.31222920257,4,0,3,5,vertical,vertical,horizontal,horizontal
2a,20,100283,5,15,143,21,F,NA,variable,heterogeneous,4,absent,1.11828804016113,1,vertical,vertical,1,3,green,1,NaN,980.31222920257,780.31222920257,NaN,NaN,980.31222920257,780.31222920257,980.31222920257,419.68777079743,619.68777079743,419.68777079743,619.68777079743,780.31222920257,4,3,5,6,vertical,vertical,vertical,horizontal
2a,20,100283,5,16,144,21,F,NA,variable,heterogeneous,4,absent,1.33285403251648,1,vertical,vertical,1,2,red,4,NaN,619.68777079743,780.31222920257,NaN,NaN,980.31222920257,780.31222920257,980.31222920257,419.68777079743,619.68777079743,419.68777079743,619.68777079743,780.31222920257,0,3,5,4,horizontal,vertical,horizontal,vertical
2a,20,100283,5,17,145,21,F,NA,variable,heterogeneous,4,present,1.21565008163452,1,vertical,vertical,1,5,green,2,4,980.31222920257,419.68777079743,619.68777079743,780.31222920257,980.31222920257,780.31222920257,980.31222920257,419.68777079743,619.68777079743,419.68777079743,619.68777079743,780.31222920257,5,4,0,6,vertical,vertical,vertical,vertical
2a,20,100283,5,18,146,21,F,NA,variable,heterogeneous,4,absent,0.840291023254395,1,vertical,vertical,1,8,green,1,NaN,980.31222920257,780.31222920257,NaN,NaN,980.31222920257,780.31222920257,980.31222920257,419.68777079743,619.68777079743,419.68777079743,619.68777079743,780.31222920257,4,3,6,5,vertical,horizontal,horizontal,vertical
2a,20,100283,5,19,147,21,F,NA,variable,heterogeneous,4,present,0.753319978713989,1,vertical,vertical,1,5,red,1,4,980.31222920257,780.31222920257,619.68777079743,780.31222920257,980.31222920257,780.31222920257,980.31222920257,419.68777079743,619.68777079743,419.68777079743,619.68777079743,780.31222920257,4,0,3,5,vertical,vertical,horizontal,vertical
2a,20,100283,5,20,148,21,F,NA,variable,heterogeneous,4,present,1.22873711585999,1,horizontal,horizontal,1,3,green,2,1,980.31222920257,419.68777079743,980.31222920257,780.31222920257,980.31222920257,780.31222920257,980.31222920257,419.68777079743,619.68777079743,419.68777079743,619.68777079743,780.31222920257,0,4,6,5,horizontal,horizontal,vertical,horizontal
2a,20,100283,5,21,149,21,F,NA,variable,heterogeneous,4,absent,1.12131714820862,1,horizontal,horizontal,1,3,red,1,NaN,980.31222920257,780.31222920257,NaN,NaN,980.31222920257,780.31222920257,980.31222920257,419.68777079743,619.68777079743,419.68777079743,619.68777079743,780.31222920257,4,3,5,6,horizontal,vertical,vertical,vertical
2a,20,100283,5,22,150,21,F,NA,variable,heterogeneous,4,absent,0.78410792350769,1,horizontal,horizontal,1,3,green,4,NaN,619.68777079743,780.31222920257,NaN,NaN,980.31222920257,780.31222920257,980.31222920257,419.68777079743,619.68777079743,419.68777079743,619.68777079743,780.31222920257,0,5,6,4,horizontal,horizontal,vertical,horizontal
2a,20,100283,5,23,151,21,F,NA,variable,heterogeneous,4,present,1.29182314872742,1,vertical,vertical,1,2,red,4,2,619.68777079743,780.31222920257,980.31222920257,419.68777079743,980.31222920257,780.31222920257,980.31222920257,419.68777079743,619.68777079743,419.68777079743,619.68777079743,780.31222920257,3,6,5,4,horizontal,vertical,horizontal,vertical
2a,20,100283,5,24,152,21,F,NA,variable,heterogeneous,4,absent,1.05383205413818,1,horizontal,horizontal,1,2,red,2,NaN,980.31222920257,419.68777079743,NaN,NaN,980.31222920257,780.31222920257,980.31222920257,419.68777079743,619.68777079743,419.68777079743,619.68777079743,780.31222920257,6,4,3,5,vertical,horizontal,vertical,horizontal
2a,20,100283,5,25,153,21,F,NA,variable,heterogeneous,4,present,1.37125706672668,1,horizontal,horizontal,1,8,green,3,4,619.68777079743,419.68777079743,619.68777079743,780.31222920257,980.31222920257,780.31222920257,980.31222920257,419.68777079743,619.68777079743,419.68777079743,619.68777079743,780.31222920257,5,6,4,3,horizontal,vertical,horizontal,vertical
2a,20,100283,5,26,154,21,F,NA,variable,heterogeneous,4,absent,0.762905120849609,1,horizontal,horizontal,1,2,green,2,NaN,980.31222920257,419.68777079743,NaN,NaN,980.31222920257,780.31222920257,980.31222920257,419.68777079743,619.68777079743,419.68777079743,619.68777079743,780.31222920257,5,4,6,0,vertical,horizontal,vertical,vertical
2a,20,100283,5,27,155,21,F,NA,variable,heterogeneous,4,present,0.806020021438599,1,vertical,vertical,1,3,red,4,2,619.68777079743,780.31222920257,980.31222920257,419.68777079743,980.31222920257,780.31222920257,980.31222920257,419.68777079743,619.68777079743,419.68777079743,619.68777079743,780.31222920257,3,0,6,4,vertical,vertical,vertical,vertical
2a,20,100283,5,28,156,21,F,NA,variable,heterogeneous,4,absent,1.1066370010376,1,horizontal,horizontal,1,5,green,2,NaN,980.31222920257,419.68777079743,NaN,NaN,980.31222920257,780.31222920257,980.31222920257,419.68777079743,619.68777079743,419.68777079743,619.68777079743,780.31222920257,6,4,5,3,vertical,horizontal,horizontal,vertical
2a,20,100283,5,29,157,21,F,NA,variable,heterogeneous,4,present,0.733008861541748,1,horizontal,horizontal,1,5,red,4,3,619.68777079743,780.31222920257,619.68777079743,419.68777079743,980.31222920257,780.31222920257,980.31222920257,419.68777079743,619.68777079743,419.68777079743,619.68777079743,780.31222920257,6,0,3,4,vertical,horizontal,horizontal,horizontal
2a,20,100283,5,30,158,21,F,NA,variable,heterogeneous,4,present,1.36765313148499,1,horizontal,horizontal,1,2,green,3,4,619.68777079743,419.68777079743,619.68777079743,780.31222920257,980.31222920257,780.31222920257,980.31222920257,419.68777079743,619.68777079743,419.68777079743,619.68777079743,780.31222920257,6,5,4,0,vertical,horizontal,horizontal,vertical
2a,20,100283,5,31,159,21,F,NA,variable,heterogeneous,4,present,1.01534509658813,1,horizontal,horizontal,1,2,green,2,3,980.31222920257,419.68777079743,619.68777079743,419.68777079743,980.31222920257,780.31222920257,980.31222920257,419.68777079743,619.68777079743,419.68777079743,619.68777079743,780.31222920257,5,4,3,0,vertical,horizontal,vertical,horizontal
2a,20,100283,5,32,160,21,F,NA,variable,heterogeneous,4,present,1.13595008850098,1,horizontal,horizontal,1,5,red,2,4,980.31222920257,419.68777079743,619.68777079743,780.31222920257,980.31222920257,780.31222920257,980.31222920257,419.68777079743,619.68777079743,419.68777079743,619.68777079743,780.31222920257,6,4,5,3,vertical,horizontal,horizontal,horizontal
2a,20,100283,6,1,161,21,F,NA,variable,heterogeneous,4,present,1.14030385017395,1,horizontal,horizontal,1,3,red,4,1,619.68777079743,780.31222920257,980.31222920257,780.31222920257,980.31222920257,780.31222920257,980.31222920257,419.68777079743,619.68777079743,419.68777079743,619.68777079743,780.31222920257,3,6,5,4,vertical,vertical,vertical,horizontal
2a,20,100283,6,2,162,21,F,NA,variable,heterogeneous,4,absent,0.811486005783081,1,horizontal,horizontal,1,5,red,2,NaN,980.31222920257,419.68777079743,NaN,NaN,980.31222920257,780.31222920257,980.31222920257,419.68777079743,619.68777079743,419.68777079743,619.68777079743,780.31222920257,0,4,6,3,horizontal,horizontal,vertical,vertical
2a,20,100283,6,3,163,21,F,NA,variable,heterogeneous,4,absent,1.38811588287354,1,vertical,vertical,1,3,red,4,NaN,619.68777079743,780.31222920257,NaN,NaN,980.31222920257,780.31222920257,980.31222920257,419.68777079743,619.68777079743,419.68777079743,619.68777079743,780.31222920257,5,6,3,4,horizontal,horizontal,vertical,vertical
2a,20,100283,6,4,164,21,F,NA,variable,heterogeneous,4,absent,1.35606789588928,1,horizontal,horizontal,1,3,red,3,NaN,619.68777079743,419.68777079743,NaN,NaN,980.31222920257,780.31222920257,980.31222920257,419.68777079743,619.68777079743,419.68777079743,619.68777079743,780.31222920257,6,0,4,3,horizontal,vertical,horizontal,vertical
2a,20,100283,6,5,165,21,F,NA,variable,heterogeneous,4,present,1.31940984725952,1,horizontal,horizontal,1,2,green,3,1,619.68777079743,419.68777079743,980.31222920257,780.31222920257,980.31222920257,780.31222920257,980.31222920257,419.68777079743,619.68777079743,419.68777079743,619.68777079743,780.31222920257,0,3,4,6,horizontal,horizontal,horizontal,horizontal
2a,20,100283,6,6,166,21,F,NA,variable,heterogeneous,4,absent,1.7822790145874,1,horizontal,horizontal,1,2,red,2,NaN,980.31222920257,419.68777079743,NaN,NaN,980.31222920257,780.31222920257,980.31222920257,419.68777079743,619.68777079743,419.68777079743,619.68777079743,780.31222920257,5,4,0,6,vertical,horizontal,horizontal,vertical
2a,20,100283,6,7,167,21,F,NA,variable,heterogeneous,4,present,1.41789293289185,1,horizontal,horizontal,1,8,red,3,2,619.68777079743,419.68777079743,980.31222920257,419.68777079743,980.31222920257,780.31222920257,980.31222920257,419.68777079743,619.68777079743,419.68777079743,619.68777079743,780.31222920257,5,6,4,0,horizontal,horizontal,horizontal,horizontal
2a,20,100283,6,8,168,21,F,NA,variable,heterogeneous,4,present,1.13053798675537,1,horizontal,horizontal,1,2,green,4,3,619.68777079743,780.31222920257,619.68777079743,419.68777079743,980.31222920257,780.31222920257,980.31222920257,419.68777079743,619.68777079743,419.68777079743,619.68777079743,780.31222920257,5,0,3,4,horizontal,vertical,horizontal,horizontal
2a,20,100283,6,9,169,21,F,NA,variable,heterogeneous,4,present,0.965557098388672,1,vertical,vertical,1,8,green,2,1,980.31222920257,419.68777079743,980.31222920257,780.31222920257,980.31222920257,780.31222920257,980.31222920257,419.68777079743,619.68777079743,419.68777079743,619.68777079743,780.31222920257,6,4,5,3,horizontal,vertical,horizontal,horizontal
2a,20,100283,6,10,170,21,F,NA,variable,heterogeneous,4,present,1.03710794448853,1,vertical,vertical,1,5,red,4,3,619.68777079743,780.31222920257,619.68777079743,419.68777079743,980.31222920257,780.31222920257,980.31222920257,419.68777079743,619.68777079743,419.68777079743,619.68777079743,780.31222920257,0,3,5,4,horizontal,horizontal,horizontal,vertical
2a,20,100283,6,11,171,21,F,NA,variable,heterogeneous,4,present,0.950361967086792,1,vertical,vertical,1,2,red,4,1,619.68777079743,780.31222920257,980.31222920257,780.31222920257,980.31222920257,780.31222920257,980.31222920257,419.68777079743,619.68777079743,419.68777079743,619.68777079743,780.31222920257,5,0,6,4,vertical,horizontal,horizontal,vertical
2a,20,100283,6,12,172,21,F,NA,variable,heterogeneous,4,absent,1.50931191444397,1,vertical,vertical,1,5,green,3,NaN,619.68777079743,419.68777079743,NaN,NaN,980.31222920257,780.31222920257,980.31222920257,419.68777079743,619.68777079743,419.68777079743,619.68777079743,780.31222920257,6,3,4,5,horizontal,horizontal,vertical,horizontal
2a,20,100283,6,13,173,21,F,NA,variable,heterogeneous,4,absent,1.06400299072266,1,vertical,vertical,1,2,red,4,NaN,619.68777079743,780.31222920257,NaN,NaN,980.31222920257,780.31222920257,980.31222920257,419.68777079743,619.68777079743,419.68777079743,619.68777079743,780.31222920257,0,6,5,4,vertical,horizontal,horizontal,vertical
2a,20,100283,6,14,174,21,F,NA,variable,heterogeneous,4,absent,1.29718589782715,1,horizontal,horizontal,1,3,green,1,NaN,980.31222920257,780.31222920257,NaN,NaN,980.31222920257,780.31222920257,980.31222920257,419.68777079743,619.68777079743,419.68777079743,619.68777079743,780.31222920257,4,3,5,6,horizontal,vertical,vertical,horizontal
2a,20,100283,6,15,175,21,F,NA,variable,heterogeneous,4,present,0.951522827148438,1,vertical,vertical,1,2,red,4,2,619.68777079743,780.31222920257,980.31222920257,419.68777079743,980.31222920257,780.31222920257,980.31222920257,419.68777079743,619.68777079743,419.68777079743,619.68777079743,780.31222920257,3,0,6,4,horizontal,vertical,horizontal,vertical
2a,20,100283,6,16,176,21,F,NA,variable,heterogeneous,4,present,1.29099702835083,1,horizontal,horizontal,1,5,green,1,4,980.31222920257,780.31222920257,619.68777079743,780.31222920257,980.31222920257,780.31222920257,980.31222920257,419.68777079743,619.68777079743,419.68777079743,619.68777079743,780.31222920257,4,3,5,0,horizontal,horizontal,horizontal,horizontal
2a,20,100283,6,17,177,21,F,NA,variable,heterogeneous,4,absent,0.94086480140686,1,horizontal,horizontal,1,2,green,4,NaN,619.68777079743,780.31222920257,NaN,NaN,980.31222920257,780.31222920257,980.31222920257,419.68777079743,619.68777079743,419.68777079743,619.68777079743,780.31222920257,6,0,3,4,vertical,horizontal,vertical,horizontal
2a,20,100283,6,18,178,21,F,NA,variable,heterogeneous,4,absent,1.1558690071106,1,horizontal,horizontal,1,2,green,3,NaN,619.68777079743,419.68777079743,NaN,NaN,980.31222920257,780.31222920257,980.31222920257,419.68777079743,619.68777079743,419.68777079743,619.68777079743,780.31222920257,6,0,4,3,vertical,vertical,horizontal,vertical
2a,20,100283,6,19,179,21,F,NA,variable,heterogeneous,4,present,1.21514487266541,1,horizontal,horizontal,1,5,red,1,4,980.31222920257,780.31222920257,619.68777079743,780.31222920257,980.31222920257,780.31222920257,980.31222920257,419.68777079743,619.68777079743,419.68777079743,619.68777079743,780.31222920257,4,5,6,3,horizontal,horizontal,horizontal,vertical
2a,20,100283,6,20,180,21,F,NA,variable,heterogeneous,4,absent,0.959688901901245,1,vertical,vertical,1,3,red,4,NaN,619.68777079743,780.31222920257,NaN,NaN,980.31222920257,780.31222920257,980.31222920257,419.68777079743,619.68777079743,419.68777079743,619.68777079743,780.31222920257,3,5,6,4,vertical,horizontal,vertical,vertical
2a,20,100283,6,21,181,21,F,NA,variable,heterogeneous,4,absent,0.899019956588745,1,vertical,vertical,1,5,green,1,NaN,980.31222920257,780.31222920257,NaN,NaN,980.31222920257,780.31222920257,980.31222920257,419.68777079743,619.68777079743,419.68777079743,619.68777079743,780.31222920257,4,0,3,5,vertical,horizontal,vertical,horizontal
2a,20,100283,6,22,182,21,F,NA,variable,heterogeneous,4,absent,1.30519008636475,1,vertical,vertical,1,2,green,2,NaN,980.31222920257,419.68777079743,NaN,NaN,980.31222920257,780.31222920257,980.31222920257,419.68777079743,619.68777079743,419.68777079743,619.68777079743,780.31222920257,6,4,5,0,vertical,vertical,vertical,horizontal
2a,20,100283,6,23,183,21,F,NA,variable,heterogeneous,4,absent,0.835980892181396,1,horizontal,horizontal,1,8,green,1,NaN,980.31222920257,780.31222920257,NaN,NaN,980.31222920257,780.31222920257,980.31222920257,419.68777079743,619.68777079743,419.68777079743,619.68777079743,780.31222920257,4,0,3,5,horizontal,vertical,horizontal,horizontal
2a,20,100283,6,24,184,21,F,NA,variable,heterogeneous,4,absent,1.01284193992615,1,vertical,vertical,1,8,green,2,NaN,980.31222920257,419.68777079743,NaN,NaN,980.31222920257,780.31222920257,980.31222920257,419.68777079743,619.68777079743,419.68777079743,619.68777079743,780.31222920257,6,4,3,0,horizontal,vertical,horizontal,horizontal
2a,20,100283,6,25,185,21,F,NA,variable,heterogeneous,4,absent,1.9735689163208,1,vertical,vertical,1,2,green,4,NaN,619.68777079743,780.31222920257,NaN,NaN,980.31222920257,780.31222920257,980.31222920257,419.68777079743,619.68777079743,419.68777079743,619.68777079743,780.31222920257,6,0,3,4,vertical,horizontal,vertical,vertical
2a,20,100283,6,26,186,21,F,NA,variable,heterogeneous,4,present,0.845156908035278,1,vertical,vertical,1,2,green,2,1,980.31222920257,419.68777079743,980.31222920257,780.31222920257,980.31222920257,780.31222920257,980.31222920257,419.68777079743,619.68777079743,419.68777079743,619.68777079743,780.31222920257,3,4,6,0,vertical,vertical,horizontal,horizontal
2a,20,100283,6,27,187,21,F,NA,variable,heterogeneous,4,present,0.630028963088989,1,vertical,vertical,1,3,green,4,3,619.68777079743,780.31222920257,619.68777079743,419.68777079743,980.31222920257,780.31222920257,980.31222920257,419.68777079743,619.68777079743,419.68777079743,619.68777079743,780.31222920257,6,0,3,4,vertical,vertical,vertical,vertical
2a,20,100283,6,28,188,21,F,NA,variable,heterogeneous,4,absent,1.07500696182251,1,horizontal,horizontal,1,5,red,3,NaN,619.68777079743,419.68777079743,NaN,NaN,980.31222920257,780.31222920257,980.31222920257,419.68777079743,619.68777079743,419.68777079743,619.68777079743,780.31222920257,3,6,4,0,horizontal,horizontal,horizontal,horizontal
2a,20,100283,6,29,189,21,F,NA,variable,heterogeneous,4,present,0.8644700050354,1,vertical,vertical,1,5,green,2,4,980.31222920257,419.68777079743,619.68777079743,780.31222920257,980.31222920257,780.31222920257,980.31222920257,419.68777079743,619.68777079743,419.68777079743,619.68777079743,780.31222920257,6,4,3,5,vertical,vertical,horizontal,horizontal
2a,20,100283,6,30,190,21,F,NA,variable,heterogeneous,4,present,1.0981011390686,1,horizontal,horizontal,1,2,green,1,2,980.31222920257,780.31222920257,980.31222920257,419.68777079743,980.31222920257,780.31222920257,980.31222920257,419.68777079743,619.68777079743,419.68777079743,619.68777079743,780.31222920257,4,6,3,5,horizontal,vertical,vertical,vertical
2a,20,100283,6,31,191,21,F,NA,variable,heterogeneous,4,present,1.56837701797485,1,vertical,vertical,1,3,red,4,1,619.68777079743,780.31222920257,980.31222920257,780.31222920257,980.31222920257,780.31222920257,980.31222920257,419.68777079743,619.68777079743,419.68777079743,619.68777079743,780.31222920257,3,0,5,4,vertical,horizontal,horizontal,vertical
2a,20,100283,6,32,192,21,F,NA,variable,heterogeneous,4,present,1.05599403381348,1,horizontal,horizontal,1,3,green,3,4,619.68777079743,419.68777079743,619.68777079743,780.31222920257,980.31222920257,780.31222920257,980.31222920257,419.68777079743,619.68777079743,419.68777079743,619.68777079743,780.31222920257,6,3,4,0,vertical,vertical,horizontal,horizontal
2a,20,100283,7,1,193,21,F,NA,variable,heterogeneous,4,present,0.967689990997314,1,horizontal,horizontal,1,2,green,4,2,619.68777079743,780.31222920257,980.31222920257,419.68777079743,980.31222920257,780.31222920257,980.31222920257,419.68777079743,619.68777079743,419.68777079743,619.68777079743,780.31222920257,6,0,5,4,horizontal,horizontal,vertical,horizontal
2a,20,100283,7,2,194,21,F,NA,variable,heterogeneous,4,absent,1.01515698432922,1,horizontal,horizontal,1,2,red,3,NaN,619.68777079743,419.68777079743,NaN,NaN,980.31222920257,780.31222920257,980.31222920257,419.68777079743,619.68777079743,419.68777079743,619.68777079743,780.31222920257,0,5,4,6,vertical,horizontal,horizontal,vertical
2a,20,100283,7,3,195,21,F,NA,variable,heterogeneous,4,present,0.775806903839111,1,horizontal,horizontal,1,8,red,4,3,619.68777079743,780.31222920257,619.68777079743,419.68777079743,980.31222920257,780.31222920257,980.31222920257,419.68777079743,619.68777079743,419.68777079743,619.68777079743,780.31222920257,0,6,5,4,horizontal,horizontal,vertical,horizontal
2a,20,100283,7,4,196,21,F,NA,variable,heterogeneous,4,present,0.659727096557617,1,vertical,vertical,1,8,green,2,1,980.31222920257,419.68777079743,980.31222920257,780.31222920257,980.31222920257,780.31222920257,980.31222920257,419.68777079743,619.68777079743,419.68777079743,619.68777079743,780.31222920257,0,4,3,5,horizontal,vertical,vertical,vertical
2a,20,100283,7,5,197,21,F,NA,variable,heterogeneous,4,absent,0.829129934310913,1,horizontal,horizontal,1,5,red,4,NaN,619.68777079743,780.31222920257,NaN,NaN,980.31222920257,780.31222920257,980.31222920257,419.68777079743,619.68777079743,419.68777079743,619.68777079743,780.31222920257,6,3,5,4,horizontal,horizontal,horizontal,horizontal
2a,20,100283,7,6,198,21,F,NA,variable,heterogeneous,4,present,1.15396618843079,1,horizontal,horizontal,1,5,green,4,2,619.68777079743,780.31222920257,980.31222920257,419.68777079743,980.31222920257,780.31222920257,980.31222920257,419.68777079743,619.68777079743,419.68777079743,619.68777079743,780.31222920257,6,5,3,4,horizontal,vertical,horizontal,horizontal
2a,20,100283,7,7,199,21,F,NA,variable,heterogeneous,4,present,0.789389848709106,1,vertical,vertical,1,2,green,4,1,619.68777079743,780.31222920257,980.31222920257,780.31222920257,980.31222920257,780.31222920257,980.31222920257,419.68777079743,619.68777079743,419.68777079743,619.68777079743,780.31222920257,3,5,6,4,horizontal,vertical,vertical,vertical
2a,20,100283,7,8,200,21,F,NA,variable,heterogeneous,4,absent,0.861353874206543,1,horizontal,horizontal,1,5,red,2,NaN,980.31222920257,419.68777079743,NaN,NaN,980.31222920257,780.31222920257,980.31222920257,419.68777079743,619.68777079743,419.68777079743,619.68777079743,780.31222920257,0,4,6,5,vertical,horizontal,vertical,horizontal
2a,20,100283,7,9,201,21,F,NA,variable,heterogeneous,4,present,1.32700204849243,1,horizontal,horizontal,1,3,red,2,4,980.31222920257,419.68777079743,619.68777079743,780.31222920257,980.31222920257,780.31222920257,980.31222920257,419.68777079743,619.68777079743,419.68777079743,619.68777079743,780.31222920257,3,4,5,6,vertical,horizontal,horizontal,horizontal
2a,20,100283,7,10,202,21,F,NA,variable,heterogeneous,4,absent,1.87752485275269,1,vertical,vertical,1,5,red,3,NaN,619.68777079743,419.68777079743,NaN,NaN,980.31222920257,780.31222920257,980.31222920257,419.68777079743,619.68777079743,419.68777079743,619.68777079743,780.31222920257,0,5,4,3,vertical,horizontal,vertical,horizontal
2a,20,100283,7,11,203,21,F,NA,variable,heterogeneous,4,present,0.739490032196045,1,vertical,vertical,1,5,green,3,1,619.68777079743,419.68777079743,980.31222920257,780.31222920257,980.31222920257,780.31222920257,980.31222920257,419.68777079743,619.68777079743,419.68777079743,619.68777079743,780.31222920257,5,3,4,0,vertical,vertical,vertical,vertical
2a,20,100283,7,12,204,21,F,NA,variable,heterogeneous,4,present,0.758372068405151,1,vertical,vertical,1,3,red,3,1,619.68777079743,419.68777079743,980.31222920257,780.31222920257,980.31222920257,780.31222920257,980.31222920257,419.68777079743,619.68777079743,419.68777079743,619.68777079743,780.31222920257,3,6,4,5,vertical,horizontal,vertical,horizontal
2a,20,100283,7,13,205,21,F,NA,variable,heterogeneous,4,absent,0.753720998764038,1,horizontal,horizontal,1,3,green,3,NaN,619.68777079743,419.68777079743,NaN,NaN,980.31222920257,780.31222920257,980.31222920257,419.68777079743,619.68777079743,419.68777079743,619.68777079743,780.31222920257,3,5,4,6,vertical,vertical,horizontal,vertical
2a,20,100283,7,14,206,21,F,NA,variable,heterogeneous,4,present,0.972985982894897,1,vertical,vertical,1,5,green,4,2,619.68777079743,780.31222920257,980.31222920257,419.68777079743,980.31222920257,780.31222920257,980.31222920257,419.68777079743,619.68777079743,419.68777079743,619.68777079743,780.31222920257,5,3,0,4,horizontal,vertical,vertical,vertical
2a,20,100283,7,15,207,21,F,NA,variable,heterogeneous,4,present,1.73245406150818,1,horizontal,horizontal,1,3,green,3,1,619.68777079743,419.68777079743,980.31222920257,780.31222920257,980.31222920257,780.31222920257,980.31222920257,419.68777079743,619.68777079743,419.68777079743,619.68777079743,780.31222920257,5,0,4,3,horizontal,vertical,horizontal,vertical
2a,20,100283,7,16,208,21,F,NA,variable,heterogeneous,4,absent,1.1596782207489,1,vertical,vertical,1,2,red,2,NaN,980.31222920257,419.68777079743,NaN,NaN,980.31222920257,780.31222920257,980.31222920257,419.68777079743,619.68777079743,419.68777079743,619.68777079743,780.31222920257,0,4,5,6,vertical,vertical,vertical,horizontal
2a,20,100283,7,17,209,21,F,NA,variable,heterogeneous,4,absent,1.13874578475952,1,vertical,vertical,1,3,green,2,NaN,980.31222920257,419.68777079743,NaN,NaN,980.31222920257,780.31222920257,980.31222920257,419.68777079743,619.68777079743,419.68777079743,619.68777079743,780.31222920257,5,4,6,3,vertical,vertical,horizontal,vertical
2a,20,100283,7,18,210,21,F,NA,variable,heterogeneous,4,absent,1.06159520149231,1,horizontal,horizontal,1,3,green,3,NaN,619.68777079743,419.68777079743,NaN,NaN,980.31222920257,780.31222920257,980.31222920257,419.68777079743,619.68777079743,419.68777079743,619.68777079743,780.31222920257,6,3,4,0,horizontal,horizontal,horizontal,horizontal
2a,20,100283,7,19,211,21,F,NA,variable,heterogeneous,4,present,1.67124795913696,1,horizontal,horizontal,1,2,red,1,4,980.31222920257,780.31222920257,619.68777079743,780.31222920257,980.31222920257,780.31222920257,980.31222920257,419.68777079743,619.68777079743,419.68777079743,619.68777079743,780.31222920257,4,0,6,5,horizontal,horizontal,vertical,horizontal
2a,20,100283,7,20,212,21,F,NA,variable,heterogeneous,4,present,0.797019004821777,1,vertical,vertical,1,3,red,4,1,619.68777079743,780.31222920257,980.31222920257,780.31222920257,980.31222920257,780.31222920257,980.31222920257,419.68777079743,619.68777079743,419.68777079743,619.68777079743,780.31222920257,6,3,5,4,horizontal,horizontal,vertical,vertical
2a,20,100283,7,21,213,21,F,NA,variable,heterogeneous,4,absent,NaN,0,vertical,none,0,2,red,3,NaN,619.68777079743,419.68777079743,NaN,NaN,980.31222920257,780.31222920257,980.31222920257,419.68777079743,619.68777079743,419.68777079743,619.68777079743,780.31222920257,3,0,4,6,vertical,horizontal,vertical,horizontal
2a,20,100283,7,22,214,21,F,NA,variable,heterogeneous,4,absent,1.52116107940674,1,horizontal,horizontal,1,2,green,3,NaN,619.68777079743,419.68777079743,NaN,NaN,980.31222920257,780.31222920257,980.31222920257,419.68777079743,619.68777079743,419.68777079743,619.68777079743,780.31222920257,6,0,4,5,vertical,vertical,horizontal,horizontal
2a,20,100283,7,23,215,21,F,NA,variable,heterogeneous,4,absent,0.879856824874878,1,vertical,vertical,1,5,green,3,NaN,619.68777079743,419.68777079743,NaN,NaN,980.31222920257,780.31222920257,980.31222920257,419.68777079743,619.68777079743,419.68777079743,619.68777079743,780.31222920257,3,6,4,5,horizontal,vertical,vertical,vertical
2a,20,100283,7,24,216,21,F,NA,variable,heterogeneous,4,present,1.37364506721497,1,vertical,vertical,1,2,green,1,2,980.31222920257,780.31222920257,980.31222920257,419.68777079743,980.31222920257,780.31222920257,980.31222920257,419.68777079743,619.68777079743,419.68777079743,619.68777079743,780.31222920257,4,0,3,5,vertical,horizontal,horizontal,vertical
2a,20,100283,7,25,217,21,F,NA,variable,heterogeneous,4,present,0.781388998031616,1,vertical,vertical,1,2,green,3,1,619.68777079743,419.68777079743,980.31222920257,780.31222920257,980.31222920257,780.31222920257,980.31222920257,419.68777079743,619.68777079743,419.68777079743,619.68777079743,780.31222920257,3,0,4,6,horizontal,vertical,vertical,horizontal
2a,20,100283,7,26,218,21,F,NA,variable,heterogeneous,4,present,1.32114505767822,1,horizontal,horizontal,1,2,red,2,3,980.31222920257,419.68777079743,619.68777079743,419.68777079743,980.31222920257,780.31222920257,980.31222920257,419.68777079743,619.68777079743,419.68777079743,619.68777079743,780.31222920257,0,4,6,3,horizontal,horizontal,vertical,vertical
2a,20,100283,7,27,219,21,F,NA,variable,heterogeneous,4,absent,1.46371102333069,1,vertical,vertical,1,2,green,1,NaN,980.31222920257,780.31222920257,NaN,NaN,980.31222920257,780.31222920257,980.31222920257,419.68777079743,619.68777079743,419.68777079743,619.68777079743,780.31222920257,4,3,6,5,vertical,vertical,vertical,vertical
2a,20,100283,7,28,220,21,F,NA,variable,heterogeneous,4,absent,1.28139805793762,1,vertical,vertical,1,3,red,4,NaN,619.68777079743,780.31222920257,NaN,NaN,980.31222920257,780.31222920257,980.31222920257,419.68777079743,619.68777079743,419.68777079743,619.68777079743,780.31222920257,3,0,5,4,horizontal,vertical,horizontal,vertical
2a,20,100283,7,29,221,21,F,NA,variable,heterogeneous,4,present,1.899090051651,1,horizontal,horizontal,1,5,red,2,3,980.31222920257,419.68777079743,619.68777079743,419.68777079743,980.31222920257,780.31222920257,980.31222920257,419.68777079743,619.68777079743,419.68777079743,619.68777079743,780.31222920257,6,4,3,5,vertical,horizontal,vertical,horizontal
2a,20,100283,7,30,222,21,F,NA,variable,heterogeneous,4,absent,1.68942499160767,1,horizontal,horizontal,1,8,green,3,NaN,619.68777079743,419.68777079743,NaN,NaN,980.31222920257,780.31222920257,980.31222920257,419.68777079743,619.68777079743,419.68777079743,619.68777079743,780.31222920257,6,5,4,0,vertical,horizontal,horizontal,vertical
2a,20,100283,7,31,223,21,F,NA,variable,heterogeneous,4,absent,1.35564017295837,1,vertical,vertical,1,8,red,2,NaN,980.31222920257,419.68777079743,NaN,NaN,980.31222920257,780.31222920257,980.31222920257,419.68777079743,619.68777079743,419.68777079743,619.68777079743,780.31222920257,5,4,6,0,horizontal,vertical,horizontal,horizontal
2a,20,100283,7,32,224,21,F,NA,variable,heterogeneous,4,absent,1.06299495697021,1,horizontal,horizontal,1,2,green,4,NaN,619.68777079743,780.31222920257,NaN,NaN,980.31222920257,780.31222920257,980.31222920257,419.68777079743,619.68777079743,419.68777079743,619.68777079743,780.31222920257,0,5,6,4,vertical,horizontal,vertical,horizontal
2a,20,100283,8,1,225,21,F,NA,variable,heterogeneous,4,absent,1.28529286384583,1,horizontal,horizontal,1,5,red,1,NaN,980.31222920257,780.31222920257,NaN,NaN,980.31222920257,780.31222920257,980.31222920257,419.68777079743,619.68777079743,419.68777079743,619.68777079743,780.31222920257,4,0,6,5,horizontal,horizontal,vertical,vertical
2a,20,100283,8,2,226,21,F,NA,variable,heterogeneous,4,present,1.52727198600769,1,horizontal,horizontal,1,2,red,3,2,619.68777079743,419.68777079743,980.31222920257,419.68777079743,980.31222920257,780.31222920257,980.31222920257,419.68777079743,619.68777079743,419.68777079743,619.68777079743,780.31222920257,5,6,4,3,vertical,vertical,horizontal,vertical
2a,20,100283,8,3,227,21,F,NA,variable,heterogeneous,4,present,1.59796190261841,1,vertical,vertical,1,8,red,4,3,619.68777079743,780.31222920257,619.68777079743,419.68777079743,980.31222920257,780.31222920257,980.31222920257,419.68777079743,619.68777079743,419.68777079743,619.68777079743,780.31222920257,5,3,6,4,vertical,vertical,vertical,vertical
2a,20,100283,8,4,228,21,F,NA,variable,heterogeneous,4,present,0.71789288520813,1,vertical,vertical,1,2,green,4,2,619.68777079743,780.31222920257,980.31222920257,419.68777079743,980.31222920257,780.31222920257,980.31222920257,419.68777079743,619.68777079743,419.68777079743,619.68777079743,780.31222920257,3,5,0,4,vertical,horizontal,horizontal,vertical
2a,20,100283,8,5,229,21,F,NA,variable,heterogeneous,4,absent,0.884597063064575,1,horizontal,horizontal,1,8,green,4,NaN,619.68777079743,780.31222920257,NaN,NaN,980.31222920257,780.31222920257,980.31222920257,419.68777079743,619.68777079743,419.68777079743,619.68777079743,780.31222920257,6,0,3,4,vertical,horizontal,vertical,horizontal
2a,20,100283,8,6,230,21,F,NA,variable,heterogeneous,4,present,1.00662302970886,1,horizontal,horizontal,1,3,red,1,2,980.31222920257,780.31222920257,980.31222920257,419.68777079743,980.31222920257,780.31222920257,980.31222920257,419.68777079743,619.68777079743,419.68777079743,619.68777079743,780.31222920257,4,3,5,0,horizontal,vertical,vertical,horizontal
2a,20,100283,8,7,231,21,F,NA,variable,heterogeneous,4,present,0.899013996124268,1,horizontal,horizontal,1,3,green,1,2,980.31222920257,780.31222920257,980.31222920257,419.68777079743,980.31222920257,780.31222920257,980.31222920257,419.68777079743,619.68777079743,419.68777079743,619.68777079743,780.31222920257,4,6,5,0,horizontal,vertical,vertical,horizontal
2a,20,100283,8,8,232,21,F,NA,variable,heterogeneous,4,absent,1.62541699409485,1,horizontal,horizontal,1,2,green,2,NaN,980.31222920257,419.68777079743,NaN,NaN,980.31222920257,780.31222920257,980.31222920257,419.68777079743,619.68777079743,419.68777079743,619.68777079743,780.31222920257,3,4,5,0,vertical,horizontal,vertical,vertical
2a,20,100283,8,9,233,21,F,NA,variable,heterogeneous,4,absent,0.990033149719238,1,vertical,vertical,1,5,red,4,NaN,619.68777079743,780.31222920257,NaN,NaN,980.31222920257,780.31222920257,980.31222920257,419.68777079743,619.68777079743,419.68777079743,619.68777079743,780.31222920257,0,6,3,4,vertical,vertical,horizontal,vertical
2a,20,100283,8,10,234,21,F,NA,variable,heterogeneous,4,absent,0.870204925537109,1,vertical,vertical,1,8,red,1,NaN,980.31222920257,780.31222920257,NaN,NaN,980.31222920257,780.31222920257,980.31222920257,419.68777079743,619.68777079743,419.68777079743,619.68777079743,780.31222920257,4,5,3,6,vertical,horizontal,vertical,horizontal
2a,20,100283,8,11,235,21,F,NA,variable,heterogeneous,4,absent,1.15588688850403,1,horizontal,horizontal,1,2,green,4,NaN,619.68777079743,780.31222920257,NaN,NaN,980.31222920257,780.31222920257,980.31222920257,419.68777079743,619.68777079743,419.68777079743,619.68777079743,780.31222920257,0,6,5,4,horizontal,vertical,vertical,horizontal
2a,20,100283,8,12,236,21,F,NA,variable,heterogeneous,4,present,1.31936001777649,1,horizontal,horizontal,1,2,red,2,3,980.31222920257,419.68777079743,619.68777079743,419.68777079743,980.31222920257,780.31222920257,980.31222920257,419.68777079743,619.68777079743,419.68777079743,619.68777079743,780.31222920257,6,4,5,0,horizontal,horizontal,vertical,vertical
2a,20,100283,8,13,237,21,F,NA,variable,heterogeneous,4,present,0.798118829727173,1,horizontal,horizontal,1,5,green,1,4,980.31222920257,780.31222920257,619.68777079743,780.31222920257,980.31222920257,780.31222920257,980.31222920257,419.68777079743,619.68777079743,419.68777079743,619.68777079743,780.31222920257,4,6,5,3,horizontal,vertical,vertical,vertical
2a,20,100283,8,14,238,21,F,NA,variable,heterogeneous,4,absent,1.11809492111206,1,vertical,vertical,1,2,green,3,NaN,619.68777079743,419.68777079743,NaN,NaN,980.31222920257,780.31222920257,980.31222920257,419.68777079743,619.68777079743,419.68777079743,619.68777079743,780.31222920257,3,0,4,5,horizontal,vertical,vertical,vertical
2a,20,100283,8,15,239,21,F,NA,variable,heterogeneous,4,present,1.12458992004395,1,vertical,vertical,1,2,red,2,1,980.31222920257,419.68777079743,980.31222920257,780.31222920257,980.31222920257,780.31222920257,980.31222920257,419.68777079743,619.68777079743,419.68777079743,619.68777079743,780.31222920257,5,4,3,0,vertical,vertical,horizontal,horizontal
2a,20,100283,8,16,240,21,F,NA,variable,heterogeneous,4,present,1.13942503929138,1,vertical,vertical,1,3,red,4,2,619.68777079743,780.31222920257,980.31222920257,419.68777079743,980.31222920257,780.31222920257,980.31222920257,419.68777079743,619.68777079743,419.68777079743,619.68777079743,780.31222920257,6,0,3,4,horizontal,vertical,vertical,vertical
2a,20,100283,8,17,241,21,F,NA,variable,heterogeneous,4,present,1.06224298477173,0,vertical,horizontal,1,5,green,3,2,619.68777079743,419.68777079743,980.31222920257,419.68777079743,980.31222920257,780.31222920257,980.31222920257,419.68777079743,619.68777079743,419.68777079743,619.68777079743,780.31222920257,3,5,4,0,horizontal,vertical,vertical,vertical
2a,20,100283,8,18,242,21,F,NA,variable,heterogeneous,4,present,0.847564935684204,1,horizontal,horizontal,1,5,red,2,3,980.31222920257,419.68777079743,619.68777079743,419.68777079743,980.31222920257,780.31222920257,980.31222920257,419.68777079743,619.68777079743,419.68777079743,619.68777079743,780.31222920257,5,4,6,3,vertical,horizontal,horizontal,horizontal
2a,20,100283,8,19,243,21,F,NA,variable,heterogeneous,4,absent,1.02913904190063,1,vertical,vertical,1,2,green,3,NaN,619.68777079743,419.68777079743,NaN,NaN,980.31222920257,780.31222920257,980.31222920257,419.68777079743,619.68777079743,419.68777079743,619.68777079743,780.31222920257,5,6,4,0,horizontal,horizontal,vertical,vertical
2a,20,100283,8,20,244,21,F,NA,variable,heterogeneous,4,absent,1.52179098129272,1,vertical,vertical,1,3,red,1,NaN,980.31222920257,780.31222920257,NaN,NaN,980.31222920257,780.31222920257,980.31222920257,419.68777079743,619.68777079743,419.68777079743,619.68777079743,780.31222920257,4,6,3,0,vertical,horizontal,vertical,vertical
2a,20,100283,8,21,245,21,F,NA,variable,heterogeneous,4,absent,1.20826101303101,1,vertical,vertical,1,2,red,1,NaN,980.31222920257,780.31222920257,NaN,NaN,980.31222920257,780.31222920257,980.31222920257,419.68777079743,619.68777079743,419.68777079743,619.68777079743,780.31222920257,4,6,5,3,vertical,horizontal,vertical,horizontal
2a,20,100283,8,22,246,21,F,NA,variable,heterogeneous,4,present,1.17264580726624,1,vertical,vertical,1,3,red,4,1,619.68777079743,780.31222920257,980.31222920257,780.31222920257,980.31222920257,780.31222920257,980.31222920257,419.68777079743,619.68777079743,419.68777079743,619.68777079743,780.31222920257,3,5,6,4,horizontal,horizontal,horizontal,vertical
2a,20,100283,8,23,247,21,F,NA,variable,heterogeneous,4,present,1.11629009246826,1,vertical,vertical,1,2,green,4,3,619.68777079743,780.31222920257,619.68777079743,419.68777079743,980.31222920257,780.31222920257,980.31222920257,419.68777079743,619.68777079743,419.68777079743,619.68777079743,780.31222920257,6,0,3,4,vertical,horizontal,horizontal,vertical
2a,20,100283,8,24,248,21,F,NA,variable,heterogeneous,4,absent,0.826875925064087,1,vertical,vertical,1,3,red,3,NaN,619.68777079743,419.68777079743,NaN,NaN,980.31222920257,780.31222920257,980.31222920257,419.68777079743,619.68777079743,419.68777079743,619.68777079743,780.31222920257,3,6,4,0,horizontal,horizontal,vertical,vertical
2a,20,100283,8,25,249,21,F,NA,variable,heterogeneous,4,absent,0.815722942352295,1,vertical,vertical,1,5,green,2,NaN,980.31222920257,419.68777079743,NaN,NaN,980.31222920257,780.31222920257,980.31222920257,419.68777079743,619.68777079743,419.68777079743,619.68777079743,780.31222920257,0,4,5,3,horizontal,vertical,horizontal,horizontal
2a,20,100283,8,26,250,21,F,NA,variable,heterogeneous,4,present,0.848536014556885,1,vertical,vertical,1,5,red,3,4,619.68777079743,419.68777079743,619.68777079743,780.31222920257,980.31222920257,780.31222920257,980.31222920257,419.68777079743,619.68777079743,419.68777079743,619.68777079743,780.31222920257,3,0,4,6,horizontal,vertical,vertical,horizontal
2a,20,100283,8,27,251,21,F,NA,variable,heterogeneous,4,present,0.86937689781189,1,horizontal,horizontal,1,2,green,3,2,619.68777079743,419.68777079743,980.31222920257,419.68777079743,980.31222920257,780.31222920257,980.31222920257,419.68777079743,619.68777079743,419.68777079743,619.68777079743,780.31222920257,6,0,4,5,horizontal,horizontal,horizontal,horizontal
2a,20,100283,8,28,252,21,F,NA,variable,heterogeneous,4,absent,0.835278987884521,1,horizontal,horizontal,1,2,green,3,NaN,619.68777079743,419.68777079743,NaN,NaN,980.31222920257,780.31222920257,980.31222920257,419.68777079743,619.68777079743,419.68777079743,619.68777079743,780.31222920257,6,5,4,0,vertical,horizontal,horizontal,horizontal
2a,20,100283,8,29,253,21,F,NA,variable,heterogeneous,4,absent,1.10004711151123,1,horizontal,horizontal,1,3,red,1,NaN,980.31222920257,780.31222920257,NaN,NaN,980.31222920257,780.31222920257,980.31222920257,419.68777079743,619.68777079743,419.68777079743,619.68777079743,780.31222920257,4,3,6,5,horizontal,vertical,vertical,horizontal
2a,20,100283,8,30,254,21,F,NA,variable,heterogeneous,4,absent,1.09035015106201,1,horizontal,horizontal,1,3,red,3,NaN,619.68777079743,419.68777079743,NaN,NaN,980.31222920257,780.31222920257,980.31222920257,419.68777079743,619.68777079743,419.68777079743,619.68777079743,780.31222920257,3,0,4,5,horizontal,vertical,horizontal,horizontal
2a,20,100283,8,31,255,21,F,NA,variable,heterogeneous,4,present,1.56420183181763,1,horizontal,horizontal,1,8,green,2,4,980.31222920257,419.68777079743,619.68777079743,780.31222920257,980.31222920257,780.31222920257,980.31222920257,419.68777079743,619.68777079743,419.68777079743,619.68777079743,780.31222920257,5,4,0,3,vertical,horizontal,horizontal,horizontal
2a,20,100283,8,32,256,21,F,NA,variable,heterogeneous,4,absent,0.827939987182617,1,horizontal,horizontal,1,5,green,4,NaN,619.68777079743,780.31222920257,NaN,NaN,980.31222920257,780.31222920257,980.31222920257,419.68777079743,619.68777079743,419.68777079743,619.68777079743,780.31222920257,5,0,3,4,vertical,vertical,horizontal,horizontal
2a,20,100283,9,1,257,21,F,NA,variable,heterogeneous,4,absent,1.35625004768372,1,vertical,vertical,1,5,green,1,NaN,980.31222920257,780.31222920257,NaN,NaN,980.31222920257,780.31222920257,980.31222920257,419.68777079743,619.68777079743,419.68777079743,619.68777079743,780.31222920257,4,6,3,5,vertical,horizontal,vertical,horizontal
2a,20,100283,9,2,258,21,F,NA,variable,heterogeneous,4,present,0.919573068618774,1,horizontal,horizontal,1,2,green,4,3,619.68777079743,780.31222920257,619.68777079743,419.68777079743,980.31222920257,780.31222920257,980.31222920257,419.68777079743,619.68777079743,419.68777079743,619.68777079743,780.31222920257,5,3,6,4,horizontal,horizontal,horizontal,horizontal
2a,20,100283,9,3,259,21,F,NA,variable,heterogeneous,4,present,1.7823281288147,1,horizontal,horizontal,1,2,green,1,3,980.31222920257,780.31222920257,619.68777079743,419.68777079743,980.31222920257,780.31222920257,980.31222920257,419.68777079743,619.68777079743,419.68777079743,619.68777079743,780.31222920257,4,6,0,5,horizontal,vertical,vertical,vertical
2a,20,100283,9,4,260,21,F,NA,variable,heterogeneous,4,present,1.17023086547852,1,horizontal,horizontal,1,5,green,1,2,980.31222920257,780.31222920257,980.31222920257,419.68777079743,980.31222920257,780.31222920257,980.31222920257,419.68777079743,619.68777079743,419.68777079743,619.68777079743,780.31222920257,4,3,6,5,horizontal,vertical,vertical,vertical
2a,20,100283,9,5,261,21,F,NA,variable,heterogeneous,4,absent,1.15363097190857,1,horizontal,horizontal,1,5,red,4,NaN,619.68777079743,780.31222920257,NaN,NaN,980.31222920257,780.31222920257,980.31222920257,419.68777079743,619.68777079743,419.68777079743,619.68777079743,780.31222920257,6,5,3,4,vertical,vertical,vertical,horizontal
2a,20,100283,9,6,262,21,F,NA,variable,heterogeneous,4,present,0.837312936782837,1,vertical,vertical,1,2,green,4,3,619.68777079743,780.31222920257,619.68777079743,419.68777079743,980.31222920257,780.31222920257,980.31222920257,419.68777079743,619.68777079743,419.68777079743,619.68777079743,780.31222920257,5,0,6,4,horizontal,horizontal,horizontal,vertical
2a,20,100283,9,7,263,21,F,NA,variable,heterogeneous,4,present,0.734365940093994,1,vertical,vertical,1,3,green,4,2,619.68777079743,780.31222920257,980.31222920257,419.68777079743,980.31222920257,780.31222920257,980.31222920257,419.68777079743,619.68777079743,419.68777079743,619.68777079743,780.31222920257,3,5,6,4,horizontal,horizontal,horizontal,vertical
2a,20,100283,9,8,264,21,F,NA,variable,heterogeneous,4,absent,1.113126039505,1,vertical,vertical,1,2,red,2,NaN,980.31222920257,419.68777079743,NaN,NaN,980.31222920257,780.31222920257,980.31222920257,419.68777079743,619.68777079743,419.68777079743,619.68777079743,780.31222920257,5,4,6,0,horizontal,vertical,horizontal,horizontal
2a,20,100283,9,9,265,21,F,NA,variable,heterogeneous,4,present,1.58743405342102,1,vertical,vertical,1,3,red,3,1,619.68777079743,419.68777079743,980.31222920257,780.31222920257,980.31222920257,780.31222920257,980.31222920257,419.68777079743,619.68777079743,419.68777079743,619.68777079743,780.31222920257,3,6,4,5,horizontal,vertical,vertical,vertical
2a,20,100283,9,10,266,21,F,NA,variable,heterogeneous,4,present,0.851791858673096,1,vertical,vertical,1,2,red,1,2,980.31222920257,780.31222920257,980.31222920257,419.68777079743,980.31222920257,780.31222920257,980.31222920257,419.68777079743,619.68777079743,419.68777079743,619.68777079743,780.31222920257,4,6,5,3,vertical,horizontal,vertical,horizontal
2a,20,100283,9,11,267,21,F,NA,variable,heterogeneous,4,present,0.84091591835022,1,horizontal,horizontal,1,8,green,4,2,619.68777079743,780.31222920257,980.31222920257,419.68777079743,980.31222920257,780.31222920257,980.31222920257,419.68777079743,619.68777079743,419.68777079743,619.68777079743,780.31222920257,3,5,0,4,horizontal,vertical,horizontal,horizontal
2a,20,100283,9,12,268,21,F,NA,variable,heterogeneous,4,absent,0.673943996429443,1,vertical,vertical,1,5,green,4,NaN,619.68777079743,780.31222920257,NaN,NaN,980.31222920257,780.31222920257,980.31222920257,419.68777079743,619.68777079743,419.68777079743,619.68777079743,780.31222920257,6,0,3,4,horizontal,vertical,vertical,vertical
2a,20,100283,9,13,269,21,F,NA,variable,heterogeneous,4,absent,1.29558992385864,1,vertical,vertical,1,3,red,2,NaN,980.31222920257,419.68777079743,NaN,NaN,980.31222920257,780.31222920257,980.31222920257,419.68777079743,619.68777079743,419.68777079743,619.68777079743,780.31222920257,6,4,0,3,horizontal,vertical,horizontal,vertical
2a,20,100283,9,14,270,21,F,NA,variable,heterogeneous,4,present,1.34175491333008,1,vertical,vertical,1,5,green,3,1,619.68777079743,419.68777079743,980.31222920257,780.31222920257,980.31222920257,780.31222920257,980.31222920257,419.68777079743,619.68777079743,419.68777079743,619.68777079743,780.31222920257,3,6,4,0,vertical,vertical,vertical,horizontal
2a,20,100283,9,15,271,21,F,NA,variable,heterogeneous,4,absent,0.893055200576782,1,horizontal,horizontal,1,3,red,3,NaN,619.68777079743,419.68777079743,NaN,NaN,980.31222920257,780.31222920257,980.31222920257,419.68777079743,619.68777079743,419.68777079743,619.68777079743,780.31222920257,3,6,4,5,horizontal,vertical,horizontal,horizontal
2a,20,100283,9,16,272,21,F,NA,variable,heterogeneous,4,absent,1.33125495910645,1,horizontal,horizontal,1,2,green,1,NaN,980.31222920257,780.31222920257,NaN,NaN,980.31222920257,780.31222920257,980.31222920257,419.68777079743,619.68777079743,419.68777079743,619.68777079743,780.31222920257,4,5,3,6,horizontal,vertical,horizontal,vertical
2a,20,100283,9,17,273,21,F,NA,variable,heterogeneous,4,present,1.00602293014526,1,vertical,vertical,1,5,green,3,4,619.68777079743,419.68777079743,619.68777079743,780.31222920257,980.31222920257,780.31222920257,980.31222920257,419.68777079743,619.68777079743,419.68777079743,619.68777079743,780.31222920257,0,6,4,5,horizontal,horizontal,vertical,vertical
2a,20,100283,9,18,274,21,F,NA,variable,heterogeneous,4,absent,1.06635594367981,1,horizontal,horizontal,1,2,green,4,NaN,619.68777079743,780.31222920257,NaN,NaN,980.31222920257,780.31222920257,980.31222920257,419.68777079743,619.68777079743,419.68777079743,619.68777079743,780.31222920257,5,0,3,4,horizontal,vertical,horizontal,horizontal
2a,20,100283,9,19,275,21,F,NA,variable,heterogeneous,4,present,0.84374213218689,1,vertical,vertical,1,8,green,3,2,619.68777079743,419.68777079743,980.31222920257,419.68777079743,980.31222920257,780.31222920257,980.31222920257,419.68777079743,619.68777079743,419.68777079743,619.68777079743,780.31222920257,3,6,4,0,vertical,horizontal,vertical,vertical
2a,20,100283,9,20,276,21,F,NA,variable,heterogeneous,4,absent,1.54871892929077,1,horizontal,horizontal,1,8,red,1,NaN,980.31222920257,780.31222920257,NaN,NaN,980.31222920257,780.31222920257,980.31222920257,419.68777079743,619.68777079743,419.68777079743,619.68777079743,780.31222920257,4,3,5,0,horizontal,horizontal,vertical,vertical
2a,20,100283,9,21,277,21,F,NA,variable,heterogeneous,4,present,1.60402798652649,1,horizontal,horizontal,1,3,red,3,1,619.68777079743,419.68777079743,980.31222920257,780.31222920257,980.31222920257,780.31222920257,980.31222920257,419.68777079743,619.68777079743,419.68777079743,619.68777079743,780.31222920257,3,6,4,5,horizontal,vertical,horizontal,vertical
2a,20,100283,9,22,278,21,F,NA,variable,heterogeneous,4,present,1.02436995506287,1,horizontal,horizontal,1,5,green,3,4,619.68777079743,419.68777079743,619.68777079743,780.31222920257,980.31222920257,780.31222920257,980.31222920257,419.68777079743,619.68777079743,419.68777079743,619.68777079743,780.31222920257,3,6,4,5,vertical,horizontal,horizontal,horizontal
2a,20,100283,9,23,279,21,F,NA,variable,heterogeneous,4,absent,1.2532320022583,1,vertical,vertical,1,8,red,3,NaN,619.68777079743,419.68777079743,NaN,NaN,980.31222920257,780.31222920257,980.31222920257,419.68777079743,619.68777079743,419.68777079743,619.68777079743,780.31222920257,3,0,4,6,vertical,horizontal,vertical,horizontal
2a,20,100283,9,24,280,21,F,NA,variable,heterogeneous,4,absent,0.79468297958374,1,horizontal,horizontal,1,2,red,3,NaN,619.68777079743,419.68777079743,NaN,NaN,980.31222920257,780.31222920257,980.31222920257,419.68777079743,619.68777079743,419.68777079743,619.68777079743,780.31222920257,6,3,4,0,vertical,vertical,horizontal,vertical
2a,20,100283,9,25,281,21,F,NA,variable,heterogeneous,4,absent,1.15461993217468,0,vertical,horizontal,1,3,green,4,NaN,619.68777079743,780.31222920257,NaN,NaN,980.31222920257,780.31222920257,980.31222920257,419.68777079743,619.68777079743,419.68777079743,619.68777079743,780.31222920257,6,3,5,4,horizontal,vertical,vertical,vertical
2a,20,100283,9,26,282,21,F,NA,variable,heterogeneous,4,absent,1.19012689590454,1,vertical,vertical,1,2,red,3,NaN,619.68777079743,419.68777079743,NaN,NaN,980.31222920257,780.31222920257,980.31222920257,419.68777079743,619.68777079743,419.68777079743,619.68777079743,780.31222920257,6,3,4,0,vertical,vertical,vertical,horizontal
2a,20,100283,9,27,283,21,F,NA,variable,heterogeneous,4,present,1.58979201316833,1,vertical,vertical,1,2,red,2,4,980.31222920257,419.68777079743,619.68777079743,780.31222920257,980.31222920257,780.31222920257,980.31222920257,419.68777079743,619.68777079743,419.68777079743,619.68777079743,780.31222920257,5,4,3,0,vertical,vertical,vertical,vertical
2a,20,100283,9,28,284,21,F,NA,variable,heterogeneous,4,absent,1.25421500205994,1,vertical,vertical,1,2,green,1,NaN,980.31222920257,780.31222920257,NaN,NaN,980.31222920257,780.31222920257,980.31222920257,419.68777079743,619.68777079743,419.68777079743,619.68777079743,780.31222920257,4,3,5,0,vertical,horizontal,vertical,horizontal
2a,20,100283,9,29,285,21,F,NA,variable,heterogeneous,4,present,1.01936006546021,1,horizontal,horizontal,1,2,red,3,1,619.68777079743,419.68777079743,980.31222920257,780.31222920257,980.31222920257,780.31222920257,980.31222920257,419.68777079743,619.68777079743,419.68777079743,619.68777079743,780.31222920257,5,3,4,0,horizontal,vertical,horizontal,horizontal
2a,20,100283,9,30,286,21,F,NA,variable,heterogeneous,4,present,1.18793296813965,1,horizontal,horizontal,1,3,green,2,3,980.31222920257,419.68777079743,619.68777079743,419.68777079743,980.31222920257,780.31222920257,980.31222920257,419.68777079743,619.68777079743,419.68777079743,619.68777079743,780.31222920257,0,4,5,3,vertical,horizontal,horizontal,vertical
2a,20,100283,9,31,287,21,F,NA,variable,heterogeneous,4,absent,1.10000205039978,1,horizontal,horizontal,1,5,green,3,NaN,619.68777079743,419.68777079743,NaN,NaN,980.31222920257,780.31222920257,980.31222920257,419.68777079743,619.68777079743,419.68777079743,619.68777079743,780.31222920257,3,5,4,0,horizontal,vertical,horizontal,horizontal
2a,20,100283,9,32,288,21,F,NA,variable,heterogeneous,4,absent,1.33009505271912,1,horizontal,horizontal,1,3,green,4,NaN,619.68777079743,780.31222920257,NaN,NaN,980.31222920257,780.31222920257,980.31222920257,419.68777079743,619.68777079743,419.68777079743,619.68777079743,780.31222920257,0,3,5,4,horizontal,vertical,horizontal,horizontal
2a,20,100283,10,1,289,21,F,NA,variable,heterogeneous,4,absent,1.70630717277527,1,horizontal,horizontal,1,2,red,2,NaN,980.31222920257,419.68777079743,NaN,NaN,980.31222920257,780.31222920257,980.31222920257,419.68777079743,619.68777079743,419.68777079743,619.68777079743,780.31222920257,3,4,0,5,vertical,horizontal,horizontal,horizontal
2a,20,100283,10,2,290,21,F,NA,variable,heterogeneous,4,absent,1.22878980636597,1,vertical,vertical,1,3,green,4,NaN,619.68777079743,780.31222920257,NaN,NaN,980.31222920257,780.31222920257,980.31222920257,419.68777079743,619.68777079743,419.68777079743,619.68777079743,780.31222920257,0,5,3,4,horizontal,horizontal,vertical,vertical
