experiment,subject,uniqueID,block,trial,trial_cumulative,age,gender,color_cond_blocking,color_history,shape_type,set_size,distractor,rt,acc,target_orient,response_key,response_made,iti,target_color,target_item,distractor_item,target_X,target_Y,distractor_X,distractor_Y,item1_X,item1_Y,item2_X,item2_Y,item3_X,item3_Y,item4_X,item4_Y,item1_shape,item2_shape,item3_shape,item4_shape,item1_line,item2_line,item3_line,item4_line
2a,21,100282,1,1,1,21,M,NA,variable,homogeneous,4,present,1.27183413505554,0,vertical,horizontal,1,2,red,1,2,980.31222920257,780.31222920257,980.31222920257,419.68777079743,980.31222920257,780.31222920257,980.31222920257,419.68777079743,619.68777079743,419.68777079743,619.68777079743,780.31222920257,4,0,0,0,vertical,vertical,horizontal,horizontal
2a,21,100282,1,2,2,21,M,NA,variable,homogeneous,4,present,NaN,0,vertical,none,0,2,red,3,1,619.68777079743,419.68777079743,980.31222920257,780.31222920257,980.31222920257,780.31222920257,980.31222920257,419.68777079743,619.68777079743,419.68777079743,619.68777079743,780.31222920257,0,0,4,0,vertical,vertical,vertical,horizontal
2a,21,100282,1,3,3,21,M,NA,variable,homogeneous,4,absent,1.0332019329071,1,horizontal,horizontal,1,2,red,3,NaN,619.68777079743,419.68777079743,NaN,NaN,980.31222920257,780.31222920257,980.31222920257,419.68777079743,619.68777079743,419.68777079743,619.68777079743,780.31222920257,0,0,4,0,vertical,horizontal,horizontal,vertical
2a,21,100282,1,4,4,21,M,NA,variable,homogeneous,4,present,1.33392405509949,0,vertical,horizontal,1,2,green,1,4,980.31222920257,780.31222920257,619.68777079743,780.31222920257,980.31222920257,780.31222920257,980.31222920257,419.68777079743,619.68777079743,419.68777079743,619.68777079743,780.31222920257,4,0,0,0,vertical,horizontal,horizontal,horizontal
2a,21,100282,1,5,5,21,M,NA,variable,homogeneous,4,present,1.13700819015503,0,horizontal,vertical,1,2,red,1,3,980.31222920257,780.31222920257,619.68777079743,419.68777079743,980.31222920257,780.31222920257,980.31222920257,419.68777079743,619.68777079743,419.68777079743,619.68777079743,780.31222920257,4,0,0,0,horizontal,horizontal,vertical,vertical
2a,21,100282,1,6,6,21,M,NA,variable,homogeneous,4,present,1.95583701133728,0,vertical,horizontal,1,2,green,4,1,619.68777079743,780.31222920257,980.31222920257,780.31222920257,980.31222920257,780.31222920257,980.31222920257,419.68777079743,619.68777079743,419.68777079743,619.68777079743,780.31222920257,0,0,0,4,vertical,vertical,vertical,vertical
2a,21,100282,1,7,7,21,M,NA,variable,homogeneous,4,absent,NaN,0,horizontal,none,0,2,red,2,NaN,980.31222920257,419.68777079743,NaN,NaN,980.31222920257,780.31222920257,980.31222920257,419.68777079743,619.68777079743,419.68777079743,619.68777079743,780.31222920257,0,4,0,0,horizontal,horizontal,horizontal,horizontal
2a,21,100282,1,8,8,21,M,NA,variable,homogeneous,4,absent,1.4511559009552,0,horizontal,vertical,1,2,red,3,NaN,619.68777079743,419.68777079743,NaN,NaN,980.31222920257,780.31222920257,980.31222920257,419.68777079743,619.68777079743,419.68777079743,619.68777079743,780.31222920257,0,0,4,0,horizontal,horizontal,horizontal,horizontal
2a,21,100282,1,9,9,21,M,NA,variable,homogeneous,4,present,NaN,0,horizontal,none,0,2,green,4,1,619.68777079743,780.31222920257,980.31222920257,780.31222920257,980.31222920257,780.31222920257,980.31222920257,419.68777079743,619.68777079743,419.68777079743,619.68777079743,780.31222920257,0,0,0,4,vertical,horizontal,horizontal,horizontal
2a,21,100282,1,10,10,21,M,NA,variable,homogeneous,4,absent,1.19671297073364,0,horizontal,vertical,1,2,red,2,NaN,980.31222920257,419.68777079743,NaN,NaN,980.31222920257,780.31222920257,980.31222920257,419.68777079743,619.68777079743,419.68777079743,619.68777079743,780.31222920257,0,4,0,0,horizontal,horizontal,vertical,vertical
2a,21,100282,1,11,11,21,M,NA,variable,homogeneous,4,present,1.19676995277405,0,vertical,horizontal,1,2,green,3,4,619.68777079743,419.68777079743,619.68777079743,780.31222920257,980.31222920257,780.31222920257,980.31222920257,419.68777079743,619.68777079743,419.68777079743,619.68777079743,780.31222920257,0,0,4,0,horizontal,horizontal,vertical,horizontal
2a,21,100282,1,12,12,21,M,NA,variable,homogeneous,4,present,0.676942110061646,0,vertical,horizontal,1,2,red,3,4,619.68777079743,419.68777079743,619.68777079743,780.31222920257,980.31222920257,780.31222920257,980.31222920257,419.68777079743,619.68777079743,419.68777079743,619.68777079743,780.31222920257,0,0,4,0,vertical,horizontal,vertical,vertical
2a,21,100282,1,13,13,21,M,NA,variable,homogeneous,4,absent,1.16267704963684,0,horizontal,vertical,1,2,green,3,NaN,619.68777079743,419.68777079743,NaN,NaN,980.31222920257,780.31222920257,980.31222920257,419.68777079743,619.68777079743,419.68777079743,619.68777079743,780.31222920257,0,0,4,0,vertical,horizontal,horizontal,horizontal
2a,21,100282,1,14,14,21,M,NA,variable,homogeneous,4,absent,0.949959993362427,1,vertical,vertical,1,2,red,3,NaN,619.68777079743,419.68777079743,NaN,NaN,980.31222920257,780.31222920257,980.31222920257,419.68777079743,619.68777079743,419.68777079743,619.68777079743,780.31222920257,0,0,4,0,vertical,horizontal,vertical,horizontal
2a,21,100282,1,15,15,21,M,NA,variable,homogeneous,4,absent,1.39709401130676,0,vertical,horizontal,1,2,green,4,NaN,619.68777079743,780.31222920257,NaN,NaN,980.31222920257,780.31222920257,980.31222920257,419.68777079743,619.68777079743,419.68777079743,619.68777079743,780.31222920257,0,0,0,4,horizontal,horizontal,horizontal,vertical
2a,21,100282,1,16,16,21,M,NA,variable,homogeneous,4,present,1.82925891876221,0,horizontal,vertical,1,2,red,1,4,980.31222920257,780.31222920257,619.68777079743,780.31222920257,980.31222920257,780.31222920257,980.31222920257,419.68777079743,619.68777079743,419.68777079743,619.68777079743,780.31222920257,4,0,0,0,horizontal,horizontal,horizontal,vertical
2a,21,100282,1,17,17,21,M,NA,variable,homogeneous,4,present,NaN,0,horizontal,none,0,2,red,4,1,619.68777079743,780.31222920257,980.31222920257,780.31222920257,980.31222920257,780.31222920257,980.31222920257,419.68777079743,619.68777079743,419.68777079743,619.68777079743,780.31222920257,0,0,0,4,vertical,horizontal,vertical,horizontal
2a,21,100282,1,18,18,21,M,NA,variable,homogeneous,4,absent,1.56611704826355,0,horizontal,vertical,1,2,green,4,NaN,619.68777079743,780.31222920257,NaN,NaN,980.31222920257,780.31222920257,980.31222920257,419.68777079743,619.68777079743,419.68777079743,619.68777079743,780.31222920257,0,0,0,4,vertical,horizontal,vertical,horizontal
2a,21,100282,1,19,19,21,M,NA,variable,homogeneous,4,present,NaN,0,horizontal,none,0,2,red,3,2,619.68777079743,419.68777079743,980.31222920257,419.68777079743,980.31222920257,780.31222920257,980.31222920257,419.68777079743,619.68777079743,419.68777079743,619.68777079743,780.31222920257,0,0,4,0,horizontal,horizontal,horizontal,horizontal
2a,21,100282,1,20,20,21,M,NA,variable,homogeneous,4,present,1.12230610847473,0,horizontal,vertical,1,2,red,2,3,980.31222920257,419.68777079743,619.68777079743,419.68777079743,980.31222920257,780.31222920257,980.31222920257,419.68777079743,619.68777079743,419.68777079743,619.68777079743,780.31222920257,0,4,0,0,vertical,horizontal,vertical,horizontal
2a,21,100282,1,21,21,21,M,NA,variable,homogeneous,4,absent,1.28099894523621,0,vertical,horizontal,1,2,green,2,NaN,980.31222920257,419.68777079743,NaN,NaN,980.31222920257,780.31222920257,980.31222920257,419.68777079743,619.68777079743,419.68777079743,619.68777079743,780.31222920257,0,4,0,0,vertical,vertical,horizontal,vertical
2a,21,100282,1,22,22,21,M,NA,variable,homogeneous,4,absent,1.23448705673218,0,vertical,horizontal,1,2,red,1,NaN,980.31222920257,780.31222920257,NaN,NaN,980.31222920257,780.31222920257,980.31222920257,419.68777079743,619.68777079743,419.68777079743,619.68777079743,780.31222920257,4,0,0,0,vertical,vertical,horizontal,horizontal
2a,21,100282,1,23,23,21,M,NA,variable,homogeneous,4,present,1.20341491699219,0,horizontal,vertical,1,2,green,2,3,980.31222920257,419.68777079743,619.68777079743,419.68777079743,980.31222920257,780.31222920257,980.31222920257,419.68777079743,619.68777079743,419.68777079743,619.68777079743,780.31222920257,0,4,0,0,vertical,horizontal,horizontal,vertical
2a,21,100282,1,24,24,21,M,NA,variable,homogeneous,4,present,NaN,0,horizontal,none,0,2,green,4,2,619.68777079743,780.31222920257,980.31222920257,419.68777079743,980.31222920257,780.31222920257,980.31222920257,419.68777079743,619.68777079743,419.68777079743,619.68777079743,780.31222920257,0,0,0,4,horizontal,horizontal,vertical,horizontal
2a,21,100282,1,25,25,21,M,NA,variable,homogeneous,4,absent,1.10045599937439,0,vertical,horizontal,1,2,red,1,NaN,980.31222920257,780.31222920257,NaN,NaN,980.31222920257,780.31222920257,980.31222920257,419.68777079743,619.68777079743,419.68777079743,619.68777079743,780.31222920257,4,0,0,0,vertical,vertical,vertical,horizontal
2a,21,100282,1,26,26,21,M,NA,variable,homogeneous,4,present,1.05849313735962,0,vertical,horizontal,1,2,green,4,2,619.68777079743,780.31222920257,980.31222920257,419.68777079743,980.31222920257,780.31222920257,980.31222920257,419.68777079743,619.68777079743,419.68777079743,619.68777079743,780.31222920257,0,0,0,4,horizontal,vertical,horizontal,vertical
2a,21,100282,1,27,27,21,M,NA,variable,homogeneous,4,present,1.15594291687012,0,vertical,horizontal,1,2,red,4,1,619.68777079743,780.31222920257,980.31222920257,780.31222920257,980.31222920257,780.31222920257,980.31222920257,419.68777079743,619.68777079743,419.68777079743,619.68777079743,780.31222920257,0,0,0,4,horizontal,horizontal,vertical,vertical
2a,21,100282,1,28,28,21,M,NA,variable,homogeneous,4,absent,0.823305130004883,0,vertical,horizontal,1,2,green,1,NaN,980.31222920257,780.31222920257,NaN,NaN,980.31222920257,780.31222920257,980.31222920257,419.68777079743,619.68777079743,419.68777079743,619.68777079743,780.31222920257,4,0,0,0,vertical,vertical,horizontal,horizontal
2a,21,100282,1,29,29,21,M,NA,variable,homogeneous,4,absent,0.819998979568481,0,horizontal,vertical,1,2,red,1,NaN,980.31222920257,780.31222920257,NaN,NaN,980.31222920257,780.31222920257,980.31222920257,419.68777079743,619.68777079743,419.68777079743,619.68777079743,780.31222920257,4,0,0,0,horizontal,vertical,horizontal,horizontal
2a,21,100282,1,30,30,21,M,NA,variable,homogeneous,4,absent,1.15668606758118,0,vertical,horizontal,1,2,red,4,NaN,619.68777079743,780.31222920257,NaN,NaN,980.31222920257,780.31222920257,980.31222920257,419.68777079743,619.68777079743,419.68777079743,619.68777079743,780.31222920257,0,0,0,4,horizontal,horizontal,horizontal,vertical
2a,21,100282,1,31,31,21,M,NA,variable,homogeneous,4,absent,1.27988505363464,0,horizontal,vertical,1,2,green,4,NaN,619.68777079743,780.31222920257,NaN,NaN,980.31222920257,780.31222920257,980.31222920257,419.68777079743,619.68777079743,419.68777079743,619.68777079743,780.31222920257,0,0,0,4,vertical,horizontal,vertical,horizontal
2a,21,100282,1,32,32,21,M,NA,variable,homogeneous,4,absent,1.1738600730896,0,vertical,horizontal,1,2,red,3,NaN,619.68777079743,419.68777079743,NaN,NaN,980.31222920257,780.31222920257,980.31222920257,419.68777079743,619.68777079743,419.68777079743,619.68777079743,780.31222920257,0,0,4,0,vertical,horizontal,vertical,horizontal
2a,21,100282,2,1,33,21,M,NA,variable,homogeneous,4,present,1.51260280609131,1,vertical,vertical,1,2,green,3,1,619.68777079743,419.68777079743,980.31222920257,780.31222920257,980.31222920257,780.31222920257,980.31222920257,419.68777079743,619.68777079743,419.68777079743,619.68777079743,780.31222920257,0,0,4,0,vertical,horizontal,vertical,horizontal
2a,21,100282,2,2,34,21,M,NA,variable,homogeneous,4,present,1.33088397979736,1,vertical,vertical,1,2,red,1,3,980.31222920257,780.31222920257,619.68777079743,419.68777079743,980.31222920257,780.31222920257,980.31222920257,419.68777079743,619.68777079743,419.68777079743,619.68777079743,780.31222920257,4,0,0,0,vertical,horizontal,horizontal,vertical
2a,21,100282,2,3,35,21,M,NA,variable,homogeneous,4,absent,0.829605102539062,1,vertical,vertical,1,2,red,3,NaN,619.68777079743,419.68777079743,NaN,NaN,980.31222920257,780.31222920257,980.31222920257,419.68777079743,619.68777079743,419.68777079743,619.68777079743,780.31222920257,0,0,4,0,vertical,horizontal,vertical,horizontal
2a,21,100282,2,4,36,21,M,NA,variable,homogeneous,4,absent,0.818626165390015,1,vertical,vertical,1,2,red,2,NaN,980.31222920257,419.68777079743,NaN,NaN,980.31222920257,780.31222920257,980.31222920257,419.68777079743,619.68777079743,419.68777079743,619.68777079743,780.31222920257,0,4,0,0,horizontal,vertical,horizontal,vertical
2a,21,100282,2,5,37,21,M,NA,variable,homogeneous,4,present,1.01912593841553,1,horizontal,horizontal,1,2,green,3,1,619.68777079743,419.68777079743,980.31222920257,780.31222920257,980.31222920257,780.31222920257,980.31222920257,419.68777079743,619.68777079743,419.68777079743,619.68777079743,780.31222920257,0,0,4,0,vertical,horizontal,horizontal,horizontal
2a,21,100282,2,6,38,21,M,NA,variable,homogeneous,4,absent,1.25955891609192,0,horizontal,vertical,1,2,green,4,NaN,619.68777079743,780.31222920257,NaN,NaN,980.31222920257,780.31222920257,980.31222920257,419.68777079743,619.68777079743,419.68777079743,619.68777079743,780.31222920257,0,0,0,4,horizontal,horizontal,vertical,horizontal
2a,21,100282,2,7,39,21,M,NA,variable,homogeneous,4,absent,1.07711601257324,1,vertical,vertical,1,2,green,3,NaN,619.68777079743,419.68777079743,NaN,NaN,980.31222920257,780.31222920257,980.31222920257,419.68777079743,619.68777079743,419.68777079743,619.68777079743,780.31222920257,0,0,4,0,horizontal,horizontal,vertical,vertical
2a,21,100282,2,8,40,21,M,NA,variable,homogeneous,4,absent,1.75474500656128,1,horizontal,horizontal,1,2,green,3,NaN,619.68777079743,419.68777079743,NaN,NaN,980.31222920257,780.31222920257,980.31222920257,419.68777079743,619.68777079743,419.68777079743,619.68777079743,780.31222920257,0,0,4,0,vertical,vertical,horizontal,horizontal
2a,21,100282,2,9,41,21,M,NA,variable,homogeneous,4,absent,1.02178001403809,1,horizontal,horizontal,1,2,green,1,NaN,980.31222920257,780.31222920257,NaN,NaN,980.31222920257,780.31222920257,980.31222920257,419.68777079743,619.68777079743,419.68777079743,619.68777079743,780.31222920257,4,0,0,0,horizontal,vertical,vertical,horizontal
2a,21,100282,2,10,42,21,M,NA,variable,homogeneous,4,absent,1.25086188316345,1,vertical,vertical,1,2,green,4,NaN,619.68777079743,780.31222920257,NaN,NaN,980.31222920257,780.31222920257,980.31222920257,419.68777079743,619.68777079743,419.68777079743,619.68777079743,780.31222920257,0,0,0,4,horizontal,vertical,vertical,vertical
2a,21,100282,2,11,43,21,M,NA,variable,homogeneous,4,absent,0.93632984161377,1,horizontal,horizontal,1,2,red,3,NaN,619.68777079743,419.68777079743,NaN,NaN,980.31222920257,780.31222920257,980.31222920257,419.68777079743,619.68777079743,419.68777079743,619.68777079743,780.31222920257,0,0,4,0,horizontal,horizontal,horizontal,vertical
2a,21,100282,2,12,44,21,M,NA,variable,homogeneous,4,present,1.3230619430542,1,vertical,vertical,1,2,red,3,2,619.68777079743,419.68777079743,980.31222920257,419.68777079743,980.31222920257,780.31222920257,980.31222920257,419.68777079743,619.68777079743,419.68777079743,619.68777079743,780.31222920257,0,0,4,0,horizontal,vertical,vertical,horizontal
2a,21,100282,2,13,45,21,M,NA,variable,homogeneous,4,present,1.04159593582153,1,vertical,vertical,1,2,red,2,1,980.31222920257,419.68777079743,980.31222920257,780.31222920257,980.31222920257,780.31222920257,980.31222920257,419.68777079743,619.68777079743,419.68777079743,619.68777079743,780.31222920257,0,4,0,0,horizontal,vertical,horizontal,vertical
2a,21,100282,2,14,46,21,M,NA,variable,homogeneous,4,absent,1.08255290985107,1,vertical,vertical,1,2,green,3,NaN,619.68777079743,419.68777079743,NaN,NaN,980.31222920257,780.31222920257,980.31222920257,419.68777079743,619.68777079743,419.68777079743,619.68777079743,780.31222920257,0,0,4,0,horizontal,vertical,vertical,vertical
2a,21,100282,2,15,47,21,M,NA,variable,homogeneous,4,absent,0.692568063735962,1,horizontal,horizontal,1,2,red,3,NaN,619.68777079743,419.68777079743,NaN,NaN,980.31222920257,780.31222920257,980.31222920257,419.68777079743,619.68777079743,419.68777079743,619.68777079743,780.31222920257,0,0,4,0,vertical,horizontal,horizontal,horizontal
2a,21,100282,2,16,48,21,M,NA,variable,homogeneous,4,present,1.16273403167725,1,vertical,vertical,1,2,green,4,2,619.68777079743,780.31222920257,980.31222920257,419.68777079743,980.31222920257,780.31222920257,980.31222920257,419.68777079743,619.68777079743,419.68777079743,619.68777079743,780.31222920257,0,0,0,4,horizontal,vertical,vertical,vertical
2a,21,100282,2,17,49,21,M,NA,variable,homogeneous,4,present,1.19804000854492,1,horizontal,horizontal,1,2,red,4,2,619.68777079743,780.31222920257,980.31222920257,419.68777079743,980.31222920257,780.31222920257,980.31222920257,419.68777079743,619.68777079743,419.68777079743,619.68777079743,780.31222920257,0,0,0,4,vertical,horizontal,vertical,horizontal
2a,21,100282,2,18,50,21,M,NA,variable,homogeneous,4,absent,1.2301709651947,0,horizontal,vertical,1,2,green,2,NaN,980.31222920257,419.68777079743,NaN,NaN,980.31222920257,780.31222920257,980.31222920257,419.68777079743,619.68777079743,419.68777079743,619.68777079743,780.31222920257,0,4,0,0,vertical,horizontal,horizontal,vertical
2a,21,100282,2,19,51,21,M,NA,variable,homogeneous,4,present,0.963004112243652,1,horizontal,horizontal,1,2,red,4,3,619.68777079743,780.31222920257,619.68777079743,419.68777079743,980.31222920257,780.31222920257,980.31222920257,419.68777079743,619.68777079743,419.68777079743,619.68777079743,780.31222920257,0,0,0,4,horizontal,horizontal,horizontal,horizontal
2a,21,100282,2,20,52,21,M,NA,variable,homogeneous,4,present,0.798309087753296,1,horizontal,horizontal,1,2,green,4,2,619.68777079743,780.31222920257,980.31222920257,419.68777079743,980.31222920257,780.31222920257,980.31222920257,419.68777079743,619.68777079743,419.68777079743,619.68777079743,780.31222920257,0,0,0,4,vertical,vertical,horizontal,horizontal
2a,21,100282,2,21,53,21,M,NA,variable,homogeneous,4,present,0.966325998306274,1,horizontal,horizontal,1,2,green,3,1,619.68777079743,419.68777079743,980.31222920257,780.31222920257,980.31222920257,780.31222920257,980.31222920257,419.68777079743,619.68777079743,419.68777079743,619.68777079743,780.31222920257,0,0,4,0,vertical,vertical,horizontal,vertical
2a,21,100282,2,22,54,21,M,NA,variable,homogeneous,4,present,0.790064096450806,1,vertical,vertical,1,2,green,3,1,619.68777079743,419.68777079743,980.31222920257,780.31222920257,980.31222920257,780.31222920257,980.31222920257,419.68777079743,619.68777079743,419.68777079743,619.68777079743,780.31222920257,0,0,4,0,horizontal,vertical,vertical,vertical
2a,21,100282,2,23,55,21,M,NA,variable,homogeneous,4,absent,NaN,0,vertical,none,0,2,red,4,NaN,619.68777079743,780.31222920257,NaN,NaN,980.31222920257,780.31222920257,980.31222920257,419.68777079743,619.68777079743,419.68777079743,619.68777079743,780.31222920257,0,0,0,4,horizontal,vertical,vertical,vertical
2a,21,100282,2,24,56,21,M,NA,variable,homogeneous,4,present,0.658308982849121,1,horizontal,horizontal,1,2,green,2,1,980.31222920257,419.68777079743,980.31222920257,780.31222920257,980.31222920257,780.31222920257,980.31222920257,419.68777079743,619.68777079743,419.68777079743,619.68777079743,780.31222920257,0,4,0,0,vertical,horizontal,vertical,vertical
2a,21,100282,2,25,57,21,M,NA,variable,homogeneous,4,present,0.947608947753906,1,horizontal,horizontal,1,2,red,4,2,619.68777079743,780.31222920257,980.31222920257,419.68777079743,980.31222920257,780.31222920257,980.31222920257,419.68777079743,619.68777079743,419.68777079743,619.68777079743,780.31222920257,0,0,0,4,vertical,horizontal,vertical,horizontal
2a,21,100282,2,26,58,21,M,NA,variable,homogeneous,4,absent,1.31508994102478,1,vertical,vertical,1,2,red,3,NaN,619.68777079743,419.68777079743,NaN,NaN,980.31222920257,780.31222920257,980.31222920257,419.68777079743,619.68777079743,419.68777079743,619.68777079743,780.31222920257,0,0,4,0,vertical,vertical,vertical,vertical
2a,21,100282,2,27,59,21,M,NA,variable,homogeneous,4,absent,1.39728593826294,1,horizontal,horizontal,1,2,red,1,NaN,980.31222920257,780.31222920257,NaN,NaN,980.31222920257,780.31222920257,980.31222920257,419.68777079743,619.68777079743,419.68777079743,619.68777079743,780.31222920257,4,0,0,0,horizontal,vertical,vertical,horizontal
2a,21,100282,2,28,60,21,M,NA,variable,homogeneous,4,present,1.0048508644104,1,vertical,vertical,1,2,red,4,2,619.68777079743,780.31222920257,980.31222920257,419.68777079743,980.31222920257,780.31222920257,980.31222920257,419.68777079743,619.68777079743,419.68777079743,619.68777079743,780.31222920257,0,0,0,4,horizontal,vertical,vertical,vertical
2a,21,100282,2,29,61,21,M,NA,variable,homogeneous,4,absent,NaN,0,horizontal,none,0,2,red,3,NaN,619.68777079743,419.68777079743,NaN,NaN,980.31222920257,780.31222920257,980.31222920257,419.68777079743,619.68777079743,419.68777079743,619.68777079743,780.31222920257,0,0,4,0,horizontal,vertical,horizontal,vertical
2a,21,100282,2,30,62,21,M,NA,variable,homogeneous,4,present,0.869855880737305,1,vertical,vertical,1,2,green,4,2,619.68777079743,780.31222920257,980.31222920257,419.68777079743,980.31222920257,780.31222920257,980.31222920257,419.68777079743,619.68777079743,419.68777079743,619.68777079743,780.31222920257,0,0,0,4,horizontal,vertical,vertical,vertical
2a,21,100282,2,31,63,21,M,NA,variable,homogeneous,4,present,0.811442136764526,1,horizontal,horizontal,1,2,green,2,3,980.31222920257,419.68777079743,619.68777079743,419.68777079743,980.31222920257,780.31222920257,980.31222920257,419.68777079743,619.68777079743,419.68777079743,619.68777079743,780.31222920257,0,4,0,0,horizontal,horizontal,horizontal,horizontal
2a,21,100282,2,32,64,21,M,NA,variable,homogeneous,4,absent,1.02826809883118,1,vertical,vertical,1,2,green,4,NaN,619.68777079743,780.31222920257,NaN,NaN,980.31222920257,780.31222920257,980.31222920257,419.68777079743,619.68777079743,419.68777079743,619.68777079743,780.31222920257,0,0,0,4,vertical,horizontal,horizontal,vertical
2a,21,100282,3,1,65,21,M,NA,variable,homogeneous,4,present,1.27716588973999,1,vertical,vertical,1,2,red,3,4,619.68777079743,419.68777079743,619.68777079743,780.31222920257,980.31222920257,780.31222920257,980.31222920257,419.68777079743,619.68777079743,419.68777079743,619.68777079743,780.31222920257,0,0,4,0,horizontal,vertical,vertical,horizontal
2a,21,100282,3,2,66,21,M,NA,variable,homogeneous,4,present,1.15509104728699,1,vertical,vertical,1,2,red,1,3,980.31222920257,780.31222920257,619.68777079743,419.68777079743,980.31222920257,780.31222920257,980.31222920257,419.68777079743,619.68777079743,419.68777079743,619.68777079743,780.31222920257,4,0,0,0,vertical,vertical,vertical,horizontal
2a,21,100282,3,3,67,21,M,NA,variable,homogeneous,4,present,0.606137037277222,1,vertical,vertical,1,2,green,3,2,619.68777079743,419.68777079743,980.31222920257,419.68777079743,980.31222920257,780.31222920257,980.31222920257,419.68777079743,619.68777079743,419.68777079743,619.68777079743,780.31222920257,0,0,4,0,vertical,horizontal,vertical,horizontal
2a,21,100282,3,4,68,21,M,NA,variable,homogeneous,4,present,0.826504945755005,1,horizontal,horizontal,1,2,red,1,3,980.31222920257,780.31222920257,619.68777079743,419.68777079743,980.31222920257,780.31222920257,980.31222920257,419.68777079743,619.68777079743,419.68777079743,619.68777079743,780.31222920257,4,0,0,0,horizontal,vertical,horizontal,vertical
2a,21,100282,3,5,69,21,M,NA,variable,homogeneous,4,absent,1.65542984008789,1,horizontal,horizontal,1,2,red,2,NaN,980.31222920257,419.68777079743,NaN,NaN,980.31222920257,780.31222920257,980.31222920257,419.68777079743,619.68777079743,419.68777079743,619.68777079743,780.31222920257,0,4,0,0,vertical,horizontal,horizontal,vertical
2a,21,100282,3,6,70,21,M,NA,variable,homogeneous,4,absent,1.21269297599792,1,vertical,vertical,1,2,red,3,NaN,619.68777079743,419.68777079743,NaN,NaN,980.31222920257,780.31222920257,980.31222920257,419.68777079743,619.68777079743,419.68777079743,619.68777079743,780.31222920257,0,0,4,0,horizontal,horizontal,vertical,vertical
2a,21,100282,3,7,71,21,M,NA,variable,homogeneous,4,present,1.98136210441589,1,vertical,vertical,1,2,green,4,1,619.68777079743,780.31222920257,980.31222920257,780.31222920257,980.31222920257,780.31222920257,980.31222920257,419.68777079743,619.68777079743,419.68777079743,619.68777079743,780.31222920257,0,0,0,4,vertical,vertical,vertical,vertical
2a,21,100282,3,8,72,21,M,NA,variable,homogeneous,4,absent,0.737192869186401,1,vertical,vertical,1,2,red,2,NaN,980.31222920257,419.68777079743,NaN,NaN,980.31222920257,780.31222920257,980.31222920257,419.68777079743,619.68777079743,419.68777079743,619.68777079743,780.31222920257,0,4,0,0,horizontal,vertical,horizontal,vertical
2a,21,100282,3,9,73,21,M,NA,variable,homogeneous,4,absent,1.1240611076355,1,horizontal,horizontal,1,2,red,3,NaN,619.68777079743,419.68777079743,NaN,NaN,980.31222920257,780.31222920257,980.31222920257,419.68777079743,619.68777079743,419.68777079743,619.68777079743,780.31222920257,0,0,4,0,vertical,vertical,horizontal,vertical
2a,21,100282,3,10,74,21,M,NA,variable,homogeneous,4,present,1.30610013008118,1,vertical,vertical,1,2,green,4,1,619.68777079743,780.31222920257,980.31222920257,780.31222920257,980.31222920257,780.31222920257,980.31222920257,419.68777079743,619.68777079743,419.68777079743,619.68777079743,780.31222920257,0,0,0,4,vertical,vertical,vertical,vertical
2a,21,100282,3,11,75,21,M,NA,variable,homogeneous,4,present,1.02897310256958,1,horizontal,horizontal,1,2,green,2,4,980.31222920257,419.68777079743,619.68777079743,780.31222920257,980.31222920257,780.31222920257,980.31222920257,419.68777079743,619.68777079743,419.68777079743,619.68777079743,780.31222920257,0,4,0,0,vertical,horizontal,vertical,vertical
2a,21,100282,3,12,76,21,M,NA,variable,homogeneous,4,absent,1.44936800003052,1,horizontal,horizontal,1,2,green,3,NaN,619.68777079743,419.68777079743,NaN,NaN,980.31222920257,780.31222920257,980.31222920257,419.68777079743,619.68777079743,419.68777079743,619.68777079743,780.31222920257,0,0,4,0,horizontal,vertical,horizontal,horizontal
2a,21,100282,3,13,77,21,M,NA,variable,homogeneous,4,absent,1.05480098724365,1,horizontal,horizontal,1,2,red,2,NaN,980.31222920257,419.68777079743,NaN,NaN,980.31222920257,780.31222920257,980.31222920257,419.68777079743,619.68777079743,419.68777079743,619.68777079743,780.31222920257,0,4,0,0,horizontal,horizontal,vertical,vertical
2a,21,100282,3,14,78,21,M,NA,variable,homogeneous,4,absent,0.69226598739624,1,vertical,vertical,1,2,green,3,NaN,619.68777079743,419.68777079743,NaN,NaN,980.31222920257,780.31222920257,980.31222920257,419.68777079743,619.68777079743,419.68777079743,619.68777079743,780.31222920257,0,0,4,0,horizontal,horizontal,vertical,horizontal
2a,21,100282,3,15,79,21,M,NA,variable,homogeneous,4,absent,0.942283868789673,1,horizontal,horizontal,1,2,green,4,NaN,619.68777079743,780.31222920257,NaN,NaN,980.31222920257,780.31222920257,980.31222920257,419.68777079743,619.68777079743,419.68777079743,619.68777079743,780.31222920257,0,0,0,4,vertical,horizontal,horizontal,horizontal
2a,21,100282,3,16,80,21,M,NA,variable,homogeneous,4,present,0.612895011901855,1,horizontal,horizontal,1,2,green,4,3,619.68777079743,780.31222920257,619.68777079743,419.68777079743,980.31222920257,780.31222920257,980.31222920257,419.68777079743,619.68777079743,419.68777079743,619.68777079743,780.31222920257,0,0,0,4,horizontal,vertical,horizontal,horizontal
2a,21,100282,3,17,81,21,M,NA,variable,homogeneous,4,absent,1.82172298431396,1,vertical,vertical,1,2,red,3,NaN,619.68777079743,419.68777079743,NaN,NaN,980.31222920257,780.31222920257,980.31222920257,419.68777079743,619.68777079743,419.68777079743,619.68777079743,780.31222920257,0,0,4,0,horizontal,vertical,vertical,vertical
2a,21,100282,3,18,82,21,M,NA,variable,homogeneous,4,absent,1.07826519012451,1,vertical,vertical,1,2,red,1,NaN,980.31222920257,780.31222920257,NaN,NaN,980.31222920257,780.31222920257,980.31222920257,419.68777079743,619.68777079743,419.68777079743,619.68777079743,780.31222920257,4,0,0,0,vertical,vertical,horizontal,vertical
2a,21,100282,3,19,83,21,M,NA,variable,homogeneous,4,absent,1.01989603042603,1,vertical,vertical,1,2,green,1,NaN,980.31222920257,780.31222920257,NaN,NaN,980.31222920257,780.31222920257,980.31222920257,419.68777079743,619.68777079743,419.68777079743,619.68777079743,780.31222920257,4,0,0,0,vertical,vertical,vertical,horizontal
2a,21,100282,3,20,84,21,M,NA,variable,homogeneous,4,present,NaN,0,horizontal,none,0,2,red,1,4,980.31222920257,780.31222920257,619.68777079743,780.31222920257,980.31222920257,780.31222920257,980.31222920257,419.68777079743,619.68777079743,419.68777079743,619.68777079743,780.31222920257,4,0,0,0,horizontal,vertical,vertical,vertical
2a,21,100282,3,21,85,21,M,NA,variable,homogeneous,4,absent,1.51283288002014,1,vertical,vertical,1,2,red,4,NaN,619.68777079743,780.31222920257,NaN,NaN,980.31222920257,780.31222920257,980.31222920257,419.68777079743,619.68777079743,419.68777079743,619.68777079743,780.31222920257,0,0,0,4,horizontal,horizontal,horizontal,vertical
2a,21,100282,3,22,86,21,M,NA,variable,homogeneous,4,absent,1.76302480697632,0,horizontal,vertical,1,2,red,2,NaN,980.31222920257,419.68777079743,NaN,NaN,980.31222920257,780.31222920257,980.31222920257,419.68777079743,619.68777079743,419.68777079743,619.68777079743,780.31222920257,0,4,0,0,vertical,horizontal,horizontal,vertical
2a,21,100282,3,23,87,21,M,NA,variable,homogeneous,4,present,1.3867449760437,1,horizontal,horizontal,1,2,green,3,4,619.68777079743,419.68777079743,619.68777079743,780.31222920257,980.31222920257,780.31222920257,980.31222920257,419.68777079743,619.68777079743,419.68777079743,619.68777079743,780.31222920257,0,0,4,0,vertical,horizontal,horizontal,vertical
2a,21,100282,3,24,88,21,M,NA,variable,homogeneous,4,present,1.02675104141235,1,vertical,vertical,1,2,green,1,3,980.31222920257,780.31222920257,619.68777079743,419.68777079743,980.31222920257,780.31222920257,980.31222920257,419.68777079743,619.68777079743,419.68777079743,619.68777079743,780.31222920257,4,0,0,0,vertical,horizontal,horizontal,horizontal
2a,21,100282,3,25,89,21,M,NA,variable,homogeneous,4,present,NaN,0,vertical,none,0,2,green,1,4,980.31222920257,780.31222920257,619.68777079743,780.31222920257,980.31222920257,780.31222920257,980.31222920257,419.68777079743,619.68777079743,419.68777079743,619.68777079743,780.31222920257,4,0,0,0,vertical,horizontal,vertical,vertical
2a,21,100282,3,26,90,21,M,NA,variable,homogeneous,4,present,1.31586503982544,1,vertical,vertical,1,2,green,3,4,619.68777079743,419.68777079743,619.68777079743,780.31222920257,980.31222920257,780.31222920257,980.31222920257,419.68777079743,619.68777079743,419.68777079743,619.68777079743,780.31222920257,0,0,4,0,horizontal,horizontal,vertical,vertical
2a,21,100282,3,27,91,21,M,NA,variable,homogeneous,4,absent,0.998246908187866,1,vertical,vertical,1,2,red,1,NaN,980.31222920257,780.31222920257,NaN,NaN,980.31222920257,780.31222920257,980.31222920257,419.68777079743,619.68777079743,419.68777079743,619.68777079743,780.31222920257,4,0,0,0,vertical,vertical,horizontal,horizontal
2a,21,100282,3,28,92,21,M,NA,variable,homogeneous,4,absent,1.934241771698,1,horizontal,horizontal,1,2,red,2,NaN,980.31222920257,419.68777079743,NaN,NaN,980.31222920257,780.31222920257,980.31222920257,419.68777079743,619.68777079743,419.68777079743,619.68777079743,780.31222920257,0,4,0,0,horizontal,horizontal,vertical,horizontal
2a,21,100282,3,29,93,21,M,NA,variable,homogeneous,4,present,1.60927391052246,1,horizontal,horizontal,1,2,red,1,3,980.31222920257,780.31222920257,619.68777079743,419.68777079743,980.31222920257,780.31222920257,980.31222920257,419.68777079743,619.68777079743,419.68777079743,619.68777079743,780.31222920257,4,0,0,0,horizontal,horizontal,horizontal,horizontal
2a,21,100282,3,30,94,21,M,NA,variable,homogeneous,4,absent,0.773384094238281,1,horizontal,horizontal,1,2,green,1,NaN,980.31222920257,780.31222920257,NaN,NaN,980.31222920257,780.31222920257,980.31222920257,419.68777079743,619.68777079743,419.68777079743,619.68777079743,780.31222920257,4,0,0,0,horizontal,horizontal,horizontal,vertical
2a,21,100282,3,31,95,21,M,NA,variable,homogeneous,4,present,0.733409881591797,1,horizontal,horizontal,1,2,red,1,2,980.31222920257,780.31222920257,980.31222920257,419.68777079743,980.31222920257,780.31222920257,980.31222920257,419.68777079743,619.68777079743,419.68777079743,619.68777079743,780.31222920257,4,0,0,0,horizontal,vertical,horizontal,vertical
2a,21,100282,3,32,96,21,M,NA,variable,homogeneous,4,present,0.92012095451355,1,horizontal,horizontal,1,2,green,1,4,980.31222920257,780.31222920257,619.68777079743,780.31222920257,980.31222920257,780.31222920257,980.31222920257,419.68777079743,619.68777079743,419.68777079743,619.68777079743,780.31222920257,4,0,0,0,horizontal,horizontal,vertical,vertical
2a,21,100282,4,1,97,21,M,NA,variable,homogeneous,4,absent,1.80051684379578,1,horizontal,horizontal,1,2,green,1,NaN,980.31222920257,780.31222920257,NaN,NaN,980.31222920257,780.31222920257,980.31222920257,419.68777079743,619.68777079743,419.68777079743,619.68777079743,780.31222920257,4,0,0,0,horizontal,vertical,vertical,vertical
2a,21,100282,4,2,98,21,M,NA,variable,homogeneous,4,absent,0.756772994995117,1,vertical,vertical,1,2,green,1,NaN,980.31222920257,780.31222920257,NaN,NaN,980.31222920257,780.31222920257,980.31222920257,419.68777079743,619.68777079743,419.68777079743,619.68777079743,780.31222920257,4,0,0,0,vertical,horizontal,vertical,vertical
2a,21,100282,4,3,99,21,M,NA,variable,homogeneous,4,present,1.14416098594666,1,vertical,vertical,1,2,red,4,2,619.68777079743,780.31222920257,980.31222920257,419.68777079743,980.31222920257,780.31222920257,980.31222920257,419.68777079743,619.68777079743,419.68777079743,619.68777079743,780.31222920257,0,0,0,4,horizontal,horizontal,vertical,vertical
2a,21,100282,4,4,100,21,M,NA,variable,homogeneous,4,absent,0.527277946472168,1,vertical,vertical,1,2,red,4,NaN,619.68777079743,780.31222920257,NaN,NaN,980.31222920257,780.31222920257,980.31222920257,419.68777079743,619.68777079743,419.68777079743,619.68777079743,780.31222920257,0,0,0,4,vertical,vertical,vertical,vertical
2a,21,100282,4,5,101,21,M,NA,variable,homogeneous,4,present,1.18190503120422,1,horizontal,horizontal,1,2,green,3,1,619.68777079743,419.68777079743,980.31222920257,780.31222920257,980.31222920257,780.31222920257,980.31222920257,419.68777079743,619.68777079743,419.68777079743,619.68777079743,780.31222920257,0,0,4,0,horizontal,vertical,horizontal,horizontal
2a,21,100282,4,6,102,21,M,NA,variable,homogeneous,4,absent,0.657906055450439,1,vertical,vertical,1,2,red,3,NaN,619.68777079743,419.68777079743,NaN,NaN,980.31222920257,780.31222920257,980.31222920257,419.68777079743,619.68777079743,419.68777079743,619.68777079743,780.31222920257,0,0,4,0,vertical,horizontal,vertical,vertical
2a,21,100282,4,7,103,21,M,NA,variable,homogeneous,4,present,0.875524997711182,1,horizontal,horizontal,1,2,green,4,1,619.68777079743,780.31222920257,980.31222920257,780.31222920257,980.31222920257,780.31222920257,980.31222920257,419.68777079743,619.68777079743,419.68777079743,619.68777079743,780.31222920257,0,0,0,4,horizontal,horizontal,vertical,horizontal
2a,21,100282,4,8,104,21,M,NA,variable,homogeneous,4,present,1.69701409339905,1,horizontal,horizontal,1,2,green,2,4,980.31222920257,419.68777079743,619.68777079743,780.31222920257,980.31222920257,780.31222920257,980.31222920257,419.68777079743,619.68777079743,419.68777079743,619.68777079743,780.31222920257,0,4,0,0,horizontal,horizontal,horizontal,vertical
2a,21,100282,4,9,105,21,M,NA,variable,homogeneous,4,present,1.00720620155334,0,horizontal,vertical,1,2,red,1,2,980.31222920257,780.31222920257,980.31222920257,419.68777079743,980.31222920257,780.31222920257,980.31222920257,419.68777079743,619.68777079743,419.68777079743,619.68777079743,780.31222920257,4,0,0,0,horizontal,vertical,vertical,horizontal
2a,21,100282,4,10,106,21,M,NA,variable,homogeneous,4,absent,0.899609088897705,1,horizontal,horizontal,1,2,red,2,NaN,980.31222920257,419.68777079743,NaN,NaN,980.31222920257,780.31222920257,980.31222920257,419.68777079743,619.68777079743,419.68777079743,619.68777079743,780.31222920257,0,4,0,0,horizontal,horizontal,vertical,horizontal
2a,21,100282,4,11,107,21,M,NA,variable,homogeneous,4,present,1.129399061203,1,vertical,vertical,1,2,red,2,3,980.31222920257,419.68777079743,619.68777079743,419.68777079743,980.31222920257,780.31222920257,980.31222920257,419.68777079743,619.68777079743,419.68777079743,619.68777079743,780.31222920257,0,4,0,0,vertical,vertical,vertical,horizontal
2a,21,100282,4,12,108,21,M,NA,variable,homogeneous,4,present,1.01244306564331,1,vertical,vertical,1,2,red,1,4,980.31222920257,780.31222920257,619.68777079743,780.31222920257,980.31222920257,780.31222920257,980.31222920257,419.68777079743,619.68777079743,419.68777079743,619.68777079743,780.31222920257,4,0,0,0,vertical,vertical,vertical,vertical
2a,21,100282,4,13,109,21,M,NA,variable,homogeneous,4,absent,1.02903699874878,1,horizontal,horizontal,1,2,green,4,NaN,619.68777079743,780.31222920257,NaN,NaN,980.31222920257,780.31222920257,980.31222920257,419.68777079743,619.68777079743,419.68777079743,619.68777079743,780.31222920257,0,0,0,4,horizontal,horizontal,vertical,horizontal
2a,21,100282,4,14,110,21,M,NA,variable,homogeneous,4,absent,0.586045980453491,0,vertical,horizontal,1,2,green,4,NaN,619.68777079743,780.31222920257,NaN,NaN,980.31222920257,780.31222920257,980.31222920257,419.68777079743,619.68777079743,419.68777079743,619.68777079743,780.31222920257,0,0,0,4,horizontal,vertical,vertical,vertical
2a,21,100282,4,15,111,21,M,NA,variable,homogeneous,4,absent,1.22162818908691,1,vertical,vertical,1,2,green,1,NaN,980.31222920257,780.31222920257,NaN,NaN,980.31222920257,780.31222920257,980.31222920257,419.68777079743,619.68777079743,419.68777079743,619.68777079743,780.31222920257,4,0,0,0,vertical,vertical,horizontal,horizontal
2a,21,100282,4,16,112,21,M,NA,variable,homogeneous,4,absent,1.07006287574768,1,horizontal,horizontal,1,2,red,1,NaN,980.31222920257,780.31222920257,NaN,NaN,980.31222920257,780.31222920257,980.31222920257,419.68777079743,619.68777079743,419.68777079743,619.68777079743,780.31222920257,4,0,0,0,horizontal,vertical,vertical,vertical
2a,21,100282,4,17,113,21,M,NA,variable,homogeneous,4,absent,1.05174612998962,1,vertical,vertical,1,2,green,3,NaN,619.68777079743,419.68777079743,NaN,NaN,980.31222920257,780.31222920257,980.31222920257,419.68777079743,619.68777079743,419.68777079743,619.68777079743,780.31222920257,0,0,4,0,vertical,horizontal,vertical,vertical
2a,21,100282,4,18,114,21,M,NA,variable,homogeneous,4,absent,0.897294998168945,1,horizontal,horizontal,1,2,red,1,NaN,980.31222920257,780.31222920257,NaN,NaN,980.31222920257,780.31222920257,980.31222920257,419.68777079743,619.68777079743,419.68777079743,619.68777079743,780.31222920257,4,0,0,0,horizontal,vertical,vertical,horizontal
2a,21,100282,4,19,115,21,M,NA,variable,homogeneous,4,present,1.03911089897156,1,vertical,vertical,1,2,green,4,3,619.68777079743,780.31222920257,619.68777079743,419.68777079743,980.31222920257,780.31222920257,980.31222920257,419.68777079743,619.68777079743,419.68777079743,619.68777079743,780.31222920257,0,0,0,4,vertical,vertical,horizontal,vertical
2a,21,100282,4,20,116,21,M,NA,variable,homogeneous,4,present,1.00822401046753,1,vertical,vertical,1,2,green,3,1,619.68777079743,419.68777079743,980.31222920257,780.31222920257,980.31222920257,780.31222920257,980.31222920257,419.68777079743,619.68777079743,419.68777079743,619.68777079743,780.31222920257,0,0,4,0,horizontal,vertical,vertical,horizontal
2a,21,100282,4,21,117,21,M,NA,variable,homogeneous,4,absent,0.980540990829468,1,vertical,vertical,1,2,green,2,NaN,980.31222920257,419.68777079743,NaN,NaN,980.31222920257,780.31222920257,980.31222920257,419.68777079743,619.68777079743,419.68777079743,619.68777079743,780.31222920257,0,4,0,0,vertical,vertical,vertical,horizontal
2a,21,100282,4,22,118,21,M,NA,variable,homogeneous,4,absent,0.592386960983276,1,vertical,vertical,1,2,green,1,NaN,980.31222920257,780.31222920257,NaN,NaN,980.31222920257,780.31222920257,980.31222920257,419.68777079743,619.68777079743,419.68777079743,619.68777079743,780.31222920257,4,0,0,0,vertical,horizontal,horizontal,horizontal
2a,21,100282,4,23,119,21,M,NA,variable,homogeneous,4,absent,1.63229703903198,1,horizontal,horizontal,1,2,green,3,NaN,619.68777079743,419.68777079743,NaN,NaN,980.31222920257,780.31222920257,980.31222920257,419.68777079743,619.68777079743,419.68777079743,619.68777079743,780.31222920257,0,0,4,0,horizontal,horizontal,horizontal,horizontal
2a,21,100282,4,24,120,21,M,NA,variable,homogeneous,4,present,1.39720010757446,1,vertical,vertical,1,2,red,1,3,980.31222920257,780.31222920257,619.68777079743,419.68777079743,980.31222920257,780.31222920257,980.31222920257,419.68777079743,619.68777079743,419.68777079743,619.68777079743,780.31222920257,4,0,0,0,vertical,vertical,horizontal,horizontal
2a,21,100282,4,25,121,21,M,NA,variable,homogeneous,4,absent,NaN,0,horizontal,none,0,2,green,4,NaN,619.68777079743,780.31222920257,NaN,NaN,980.31222920257,780.31222920257,980.31222920257,419.68777079743,619.68777079743,419.68777079743,619.68777079743,780.31222920257,0,0,0,4,horizontal,horizontal,vertical,horizontal
2a,21,100282,4,26,122,21,M,NA,variable,homogeneous,4,present,1.65753293037415,1,vertical,vertical,1,2,red,4,3,619.68777079743,780.31222920257,619.68777079743,419.68777079743,980.31222920257,780.31222920257,980.31222920257,419.68777079743,619.68777079743,419.68777079743,619.68777079743,780.31222920257,0,0,0,4,horizontal,horizontal,vertical,vertical
2a,21,100282,4,27,123,21,M,NA,variable,homogeneous,4,present,1.16309404373169,1,horizontal,horizontal,1,2,green,3,1,619.68777079743,419.68777079743,980.31222920257,780.31222920257,980.31222920257,780.31222920257,980.31222920257,419.68777079743,619.68777079743,419.68777079743,619.68777079743,780.31222920257,0,0,4,0,vertical,vertical,horizontal,vertical
2a,21,100282,4,28,124,21,M,NA,variable,homogeneous,4,present,0.894407033920288,1,horizontal,horizontal,1,2,green,4,3,619.68777079743,780.31222920257,619.68777079743,419.68777079743,980.31222920257,780.31222920257,980.31222920257,419.68777079743,619.68777079743,419.68777079743,619.68777079743,780.31222920257,0,0,0,4,vertical,horizontal,vertical,horizontal
2a,21,100282,4,29,125,21,M,NA,variable,homogeneous,4,present,1.51637315750122,1,horizontal,horizontal,1,2,red,3,1,619.68777079743,419.68777079743,980.31222920257,780.31222920257,980.31222920257,780.31222920257,980.31222920257,419.68777079743,619.68777079743,419.68777079743,619.68777079743,780.31222920257,0,0,4,0,horizontal,vertical,horizontal,horizontal
2a,21,100282,4,30,126,21,M,NA,variable,homogeneous,4,absent,0.779410123825073,1,horizontal,horizontal,1,2,green,2,NaN,980.31222920257,419.68777079743,NaN,NaN,980.31222920257,780.31222920257,980.31222920257,419.68777079743,619.68777079743,419.68777079743,619.68777079743,780.31222920257,0,4,0,0,vertical,horizontal,vertical,vertical
2a,21,100282,4,31,127,21,M,NA,variable,homogeneous,4,present,0.911314964294434,1,horizontal,horizontal,1,2,red,4,3,619.68777079743,780.31222920257,619.68777079743,419.68777079743,980.31222920257,780.31222920257,980.31222920257,419.68777079743,619.68777079743,419.68777079743,619.68777079743,780.31222920257,0,0,0,4,vertical,horizontal,vertical,horizontal
2a,21,100282,4,32,128,21,M,NA,variable,homogeneous,4,present,0.649649858474731,1,vertical,vertical,1,2,green,3,2,619.68777079743,419.68777079743,980.31222920257,419.68777079743,980.31222920257,780.31222920257,980.31222920257,419.68777079743,619.68777079743,419.68777079743,619.68777079743,780.31222920257,0,0,4,0,vertical,horizontal,vertical,horizontal
2a,21,100282,5,1,129,21,M,NA,variable,homogeneous,4,present,1.31644105911255,0,horizontal,vertical,1,2,red,2,4,980.31222920257,419.68777079743,619.68777079743,780.31222920257,980.31222920257,780.31222920257,980.31222920257,419.68777079743,619.68777079743,419.68777079743,619.68777079743,780.31222920257,0,4,0,0,vertical,horizontal,horizontal,horizontal
2a,21,100282,5,2,130,21,M,NA,variable,homogeneous,4,absent,1.62706899642944,1,vertical,vertical,1,2,green,4,NaN,619.68777079743,780.31222920257,NaN,NaN,980.31222920257,780.31222920257,980.31222920257,419.68777079743,619.68777079743,419.68777079743,619.68777079743,780.31222920257,0,0,0,4,horizontal,horizontal,vertical,vertical
2a,21,100282,5,3,131,21,M,NA,variable,homogeneous,4,present,1.08778214454651,1,horizontal,horizontal,1,2,green,2,3,980.31222920257,419.68777079743,619.68777079743,419.68777079743,980.31222920257,780.31222920257,980.31222920257,419.68777079743,619.68777079743,419.68777079743,619.68777079743,780.31222920257,0,4,0,0,vertical,horizontal,horizontal,vertical
2a,21,100282,5,4,132,21,M,NA,variable,homogeneous,4,absent,1.04981708526611,1,vertical,vertical,1,2,red,1,NaN,980.31222920257,780.31222920257,NaN,NaN,980.31222920257,780.31222920257,980.31222920257,419.68777079743,619.68777079743,419.68777079743,619.68777079743,780.31222920257,4,0,0,0,vertical,vertical,horizontal,horizontal
2a,21,100282,5,5,133,21,M,NA,variable,homogeneous,4,absent,0.639039039611816,1,vertical,vertical,1,2,green,3,NaN,619.68777079743,419.68777079743,NaN,NaN,980.31222920257,780.31222920257,980.31222920257,419.68777079743,619.68777079743,419.68777079743,619.68777079743,780.31222920257,0,0,4,0,vertical,vertical,vertical,vertical
2a,21,100282,5,6,134,21,M,NA,variable,homogeneous,4,present,1.08812594413757,1,vertical,vertical,1,2,green,2,1,980.31222920257,419.68777079743,980.31222920257,780.31222920257,980.31222920257,780.31222920257,980.31222920257,419.68777079743,619.68777079743,419.68777079743,619.68777079743,780.31222920257,0,4,0,0,horizontal,vertical,vertical,vertical
2a,21,100282,5,7,135,21,M,NA,variable,homogeneous,4,absent,1.10572791099548,1,vertical,vertical,1,2,green,1,NaN,980.31222920257,780.31222920257,NaN,NaN,980.31222920257,780.31222920257,980.31222920257,419.68777079743,619.68777079743,419.68777079743,619.68777079743,780.31222920257,4,0,0,0,vertical,vertical,vertical,vertical
2a,21,100282,5,8,136,21,M,NA,variable,homogeneous,4,absent,1.20437097549438,1,horizontal,horizontal,1,2,green,1,NaN,980.31222920257,780.31222920257,NaN,NaN,980.31222920257,780.31222920257,980.31222920257,419.68777079743,619.68777079743,419.68777079743,619.68777079743,780.31222920257,4,0,0,0,horizontal,horizontal,vertical,horizontal
2a,21,100282,5,9,137,21,M,NA,variable,homogeneous,4,present,1.14447283744812,1,vertical,vertical,1,2,green,3,1,619.68777079743,419.68777079743,980.31222920257,780.31222920257,980.31222920257,780.31222920257,980.31222920257,419.68777079743,619.68777079743,419.68777079743,619.68777079743,780.31222920257,0,0,4,0,vertical,horizontal,vertical,horizontal
2a,21,100282,5,10,138,21,M,NA,variable,homogeneous,4,present,1.01578688621521,1,horizontal,horizontal,1,2,green,3,4,619.68777079743,419.68777079743,619.68777079743,780.31222920257,980.31222920257,780.31222920257,980.31222920257,419.68777079743,619.68777079743,419.68777079743,619.68777079743,780.31222920257,0,0,4,0,vertical,vertical,horizontal,horizontal
2a,21,100282,5,11,139,21,M,NA,variable,homogeneous,4,present,1.16826200485229,1,vertical,vertical,1,2,red,4,2,619.68777079743,780.31222920257,980.31222920257,419.68777079743,980.31222920257,780.31222920257,980.31222920257,419.68777079743,619.68777079743,419.68777079743,619.68777079743,780.31222920257,0,0,0,4,horizontal,vertical,vertical,vertical
2a,21,100282,5,12,140,21,M,NA,variable,homogeneous,4,absent,0.967952966690063,1,vertical,vertical,1,2,green,1,NaN,980.31222920257,780.31222920257,NaN,NaN,980.31222920257,780.31222920257,980.31222920257,419.68777079743,619.68777079743,419.68777079743,619.68777079743,780.31222920257,4,0,0,0,vertical,horizontal,vertical,vertical
2a,21,100282,5,13,141,21,M,NA,variable,homogeneous,4,absent,0.687278032302856,1,horizontal,horizontal,1,2,red,1,NaN,980.31222920257,780.31222920257,NaN,NaN,980.31222920257,780.31222920257,980.31222920257,419.68777079743,619.68777079743,419.68777079743,619.68777079743,780.31222920257,4,0,0,0,horizontal,vertical,horizontal,vertical
2a,21,100282,5,14,142,21,M,NA,variable,homogeneous,4,present,0.809170961380005,1,horizontal,horizontal,1,2,green,1,2,980.31222920257,780.31222920257,980.31222920257,419.68777079743,980.31222920257,780.31222920257,980.31222920257,419.68777079743,619.68777079743,419.68777079743,619.68777079743,780.31222920257,4,0,0,0,horizontal,vertical,vertical,vertical
2a,21,100282,5,15,143,21,M,NA,variable,homogeneous,4,present,0.645323991775513,1,vertical,vertical,1,2,red,1,3,980.31222920257,780.31222920257,619.68777079743,419.68777079743,980.31222920257,780.31222920257,980.31222920257,419.68777079743,619.68777079743,419.68777079743,619.68777079743,780.31222920257,4,0,0,0,vertical,vertical,vertical,vertical
2a,21,100282,5,16,144,21,M,NA,variable,homogeneous,4,absent,1.35859608650208,1,vertical,vertical,1,2,red,3,NaN,619.68777079743,419.68777079743,NaN,NaN,980.31222920257,780.31222920257,980.31222920257,419.68777079743,619.68777079743,419.68777079743,619.68777079743,780.31222920257,0,0,4,0,vertical,vertical,vertical,vertical
2a,21,100282,5,17,145,21,M,NA,variable,homogeneous,4,present,0.818041086196899,1,horizontal,horizontal,1,2,green,1,4,980.31222920257,780.31222920257,619.68777079743,780.31222920257,980.31222920257,780.31222920257,980.31222920257,419.68777079743,619.68777079743,419.68777079743,619.68777079743,780.31222920257,4,0,0,0,horizontal,horizontal,vertical,horizontal
2a,21,100282,5,18,146,21,M,NA,variable,homogeneous,4,absent,0.898714065551758,1,horizontal,horizontal,1,2,red,1,NaN,980.31222920257,780.31222920257,NaN,NaN,980.31222920257,780.31222920257,980.31222920257,419.68777079743,619.68777079743,419.68777079743,619.68777079743,780.31222920257,4,0,0,0,horizontal,vertical,vertical,horizontal
2a,21,100282,5,19,147,21,M,NA,variable,homogeneous,4,present,0.592742204666138,1,vertical,vertical,1,2,green,1,3,980.31222920257,780.31222920257,619.68777079743,419.68777079743,980.31222920257,780.31222920257,980.31222920257,419.68777079743,619.68777079743,419.68777079743,619.68777079743,780.31222920257,4,0,0,0,vertical,horizontal,vertical,horizontal
2a,21,100282,5,20,148,21,M,NA,variable,homogeneous,4,present,1.08075594902039,1,vertical,vertical,1,2,green,3,4,619.68777079743,419.68777079743,619.68777079743,780.31222920257,980.31222920257,780.31222920257,980.31222920257,419.68777079743,619.68777079743,419.68777079743,619.68777079743,780.31222920257,0,0,4,0,vertical,horizontal,vertical,vertical
2a,21,100282,5,21,149,21,M,NA,variable,homogeneous,4,present,0.866879940032959,1,vertical,vertical,1,2,green,2,3,980.31222920257,419.68777079743,619.68777079743,419.68777079743,980.31222920257,780.31222920257,980.31222920257,419.68777079743,619.68777079743,419.68777079743,619.68777079743,780.31222920257,0,4,0,0,vertical,vertical,horizontal,vertical
2a,21,100282,5,22,150,21,M,NA,variable,homogeneous,4,absent,0.723973989486694,1,horizontal,horizontal,1,2,red,3,NaN,619.68777079743,419.68777079743,NaN,NaN,980.31222920257,780.31222920257,980.31222920257,419.68777079743,619.68777079743,419.68777079743,619.68777079743,780.31222920257,0,0,4,0,horizontal,horizontal,horizontal,horizontal
2a,21,100282,5,23,151,21,M,NA,variable,homogeneous,4,absent,0.642765998840332,1,vertical,vertical,1,2,green,3,NaN,619.68777079743,419.68777079743,NaN,NaN,980.31222920257,780.31222920257,980.31222920257,419.68777079743,619.68777079743,419.68777079743,619.68777079743,780.31222920257,0,0,4,0,horizontal,horizontal,vertical,horizontal
2a,21,100282,5,24,152,21,M,NA,variable,homogeneous,4,absent,0.875911951065063,1,vertical,vertical,1,2,red,1,NaN,980.31222920257,780.31222920257,NaN,NaN,980.31222920257,780.31222920257,980.31222920257,419.68777079743,619.68777079743,419.68777079743,619.68777079743,780.31222920257,4,0,0,0,vertical,horizontal,vertical,vertical
2a,21,100282,5,25,153,21,M,NA,variable,homogeneous,4,absent,0.697355985641479,1,horizontal,horizontal,1,2,red,3,NaN,619.68777079743,419.68777079743,NaN,NaN,980.31222920257,780.31222920257,980.31222920257,419.68777079743,619.68777079743,419.68777079743,619.68777079743,780.31222920257,0,0,4,0,vertical,horizontal,horizontal,horizontal
2a,21,100282,5,26,154,21,M,NA,variable,homogeneous,4,present,0.751480102539062,0,horizontal,vertical,1,2,red,1,3,980.31222920257,780.31222920257,619.68777079743,419.68777079743,980.31222920257,780.31222920257,980.31222920257,419.68777079743,619.68777079743,419.68777079743,619.68777079743,780.31222920257,4,0,0,0,horizontal,horizontal,horizontal,vertical
2a,21,100282,5,27,155,21,M,NA,variable,homogeneous,4,present,1.67489194869995,1,horizontal,horizontal,1,2,green,3,2,619.68777079743,419.68777079743,980.31222920257,419.68777079743,980.31222920257,780.31222920257,980.31222920257,419.68777079743,619.68777079743,419.68777079743,619.68777079743,780.31222920257,0,0,4,0,horizontal,horizontal,horizontal,horizontal
2a,21,100282,5,28,156,21,M,NA,variable,homogeneous,4,present,1.31256198883057,1,horizontal,horizontal,1,2,green,2,1,980.31222920257,419.68777079743,980.31222920257,780.31222920257,980.31222920257,780.31222920257,980.31222920257,419.68777079743,619.68777079743,419.68777079743,619.68777079743,780.31222920257,0,4,0,0,vertical,horizontal,horizontal,horizontal
2a,21,100282,5,29,157,21,M,NA,variable,homogeneous,4,absent,1.04292702674866,1,horizontal,horizontal,1,2,green,2,NaN,980.31222920257,419.68777079743,NaN,NaN,980.31222920257,780.31222920257,980.31222920257,419.68777079743,619.68777079743,419.68777079743,619.68777079743,780.31222920257,0,4,0,0,vertical,horizontal,vertical,horizontal
2a,21,100282,5,30,158,21,M,NA,variable,homogeneous,4,absent,1.41212892532349,1,horizontal,horizontal,1,2,red,1,NaN,980.31222920257,780.31222920257,NaN,NaN,980.31222920257,780.31222920257,980.31222920257,419.68777079743,619.68777079743,419.68777079743,619.68777079743,780.31222920257,4,0,0,0,horizontal,horizontal,horizontal,vertical
2a,21,100282,5,31,159,21,M,NA,variable,homogeneous,4,present,1.62844610214233,0,vertical,horizontal,1,2,green,1,3,980.31222920257,780.31222920257,619.68777079743,419.68777079743,980.31222920257,780.31222920257,980.31222920257,419.68777079743,619.68777079743,419.68777079743,619.68777079743,780.31222920257,4,0,0,0,vertical,horizontal,vertical,horizontal
2a,21,100282,5,32,160,21,M,NA,variable,homogeneous,4,absent,1.32937502861023,1,horizontal,horizontal,1,2,green,2,NaN,980.31222920257,419.68777079743,NaN,NaN,980.31222920257,780.31222920257,980.31222920257,419.68777079743,619.68777079743,419.68777079743,619.68777079743,780.31222920257,0,4,0,0,vertical,horizontal,horizontal,horizontal
2a,21,100282,6,1,161,21,M,NA,variable,homogeneous,4,absent,NaN,0,horizontal,none,0,2,green,2,NaN,980.31222920257,419.68777079743,NaN,NaN,980.31222920257,780.31222920257,980.31222920257,419.68777079743,619.68777079743,419.68777079743,619.68777079743,780.31222920257,0,4,0,0,horizontal,horizontal,horizontal,horizontal
2a,21,100282,6,2,162,21,M,NA,variable,homogeneous,4,absent,0.937982797622681,1,vertical,vertical,1,2,red,4,NaN,619.68777079743,780.31222920257,NaN,NaN,980.31222920257,780.31222920257,980.31222920257,419.68777079743,619.68777079743,419.68777079743,619.68777079743,780.31222920257,0,0,0,4,horizontal,horizontal,vertical,vertical
2a,21,100282,6,3,163,21,M,NA,variable,homogeneous,4,absent,0.828622102737427,1,horizontal,horizontal,1,2,green,2,NaN,980.31222920257,419.68777079743,NaN,NaN,980.31222920257,780.31222920257,980.31222920257,419.68777079743,619.68777079743,419.68777079743,619.68777079743,780.31222920257,0,4,0,0,horizontal,horizontal,vertical,horizontal
2a,21,100282,6,4,164,21,M,NA,variable,homogeneous,4,present,0.857642889022827,1,vertical,vertical,1,2,red,3,1,619.68777079743,419.68777079743,980.31222920257,780.31222920257,980.31222920257,780.31222920257,980.31222920257,419.68777079743,619.68777079743,419.68777079743,619.68777079743,780.31222920257,0,0,4,0,horizontal,horizontal,vertical,vertical
2a,21,100282,6,5,165,21,M,NA,variable,homogeneous,4,absent,1.11519598960876,1,horizontal,horizontal,1,2,green,3,NaN,619.68777079743,419.68777079743,NaN,NaN,980.31222920257,780.31222920257,980.31222920257,419.68777079743,619.68777079743,419.68777079743,619.68777079743,780.31222920257,0,0,4,0,vertical,horizontal,horizontal,horizontal
2a,21,100282,6,6,166,21,M,NA,variable,homogeneous,4,absent,0.901597023010254,1,vertical,vertical,1,2,red,2,NaN,980.31222920257,419.68777079743,NaN,NaN,980.31222920257,780.31222920257,980.31222920257,419.68777079743,619.68777079743,419.68777079743,619.68777079743,780.31222920257,0,4,0,0,horizontal,vertical,vertical,horizontal
2a,21,100282,6,7,167,21,M,NA,variable,homogeneous,4,absent,1.21181511878967,1,horizontal,horizontal,1,2,red,2,NaN,980.31222920257,419.68777079743,NaN,NaN,980.31222920257,780.31222920257,980.31222920257,419.68777079743,619.68777079743,419.68777079743,619.68777079743,780.31222920257,0,4,0,0,vertical,horizontal,vertical,horizontal
2a,21,100282,6,8,168,21,M,NA,variable,homogeneous,4,absent,0.74846887588501,1,horizontal,horizontal,1,2,green,2,NaN,980.31222920257,419.68777079743,NaN,NaN,980.31222920257,780.31222920257,980.31222920257,419.68777079743,619.68777079743,419.68777079743,619.68777079743,780.31222920257,0,4,0,0,vertical,horizontal,horizontal,vertical
2a,21,100282,6,9,169,21,M,NA,variable,homogeneous,4,present,0.531242847442627,1,vertical,vertical,1,2,green,2,4,980.31222920257,419.68777079743,619.68777079743,780.31222920257,980.31222920257,780.31222920257,980.31222920257,419.68777079743,619.68777079743,419.68777079743,619.68777079743,780.31222920257,0,4,0,0,horizontal,vertical,horizontal,horizontal
2a,21,100282,6,10,170,21,M,NA,variable,homogeneous,4,present,0.982285976409912,1,horizontal,horizontal,1,2,red,1,2,980.31222920257,780.31222920257,980.31222920257,419.68777079743,980.31222920257,780.31222920257,980.31222920257,419.68777079743,619.68777079743,419.68777079743,619.68777079743,780.31222920257,4,0,0,0,horizontal,horizontal,vertical,vertical
2a,21,100282,6,11,171,21,M,NA,variable,homogeneous,4,present,0.754076957702637,1,horizontal,horizontal,1,2,green,1,3,980.31222920257,780.31222920257,619.68777079743,419.68777079743,980.31222920257,780.31222920257,980.31222920257,419.68777079743,619.68777079743,419.68777079743,619.68777079743,780.31222920257,4,0,0,0,horizontal,vertical,horizontal,vertical
2a,21,100282,6,12,172,21,M,NA,variable,homogeneous,4,present,0.67742919921875,1,horizontal,horizontal,1,2,green,3,4,619.68777079743,419.68777079743,619.68777079743,780.31222920257,980.31222920257,780.31222920257,980.31222920257,419.68777079743,619.68777079743,419.68777079743,619.68777079743,780.31222920257,0,0,4,0,horizontal,horizontal,horizontal,horizontal
2a,21,100282,6,13,173,21,M,NA,variable,homogeneous,4,absent,0.699230194091797,1,vertical,vertical,1,2,green,2,NaN,980.31222920257,419.68777079743,NaN,NaN,980.31222920257,780.31222920257,980.31222920257,419.68777079743,619.68777079743,419.68777079743,619.68777079743,780.31222920257,0,4,0,0,horizontal,vertical,vertical,horizontal
2a,21,100282,6,14,174,21,M,NA,variable,homogeneous,4,absent,0.881393909454346,1,vertical,vertical,1,2,green,4,NaN,619.68777079743,780.31222920257,NaN,NaN,980.31222920257,780.31222920257,980.31222920257,419.68777079743,619.68777079743,419.68777079743,619.68777079743,780.31222920257,0,0,0,4,vertical,vertical,vertical,vertical
2a,21,100282,6,15,175,21,M,NA,variable,homogeneous,4,absent,0.963083028793335,1,vertical,vertical,1,2,green,1,NaN,980.31222920257,780.31222920257,NaN,NaN,980.31222920257,780.31222920257,980.31222920257,419.68777079743,619.68777079743,419.68777079743,619.68777079743,780.31222920257,4,0,0,0,vertical,horizontal,vertical,horizontal
2a,21,100282,6,16,176,21,M,NA,variable,homogeneous,4,present,0.954942941665649,1,vertical,vertical,1,2,green,4,3,619.68777079743,780.31222920257,619.68777079743,419.68777079743,980.31222920257,780.31222920257,980.31222920257,419.68777079743,619.68777079743,419.68777079743,619.68777079743,780.31222920257,0,0,0,4,horizontal,horizontal,horizontal,vertical
2a,21,100282,6,17,177,21,M,NA,variable,homogeneous,4,present,0.757979154586792,1,horizontal,horizontal,1,2,green,1,3,980.31222920257,780.31222920257,619.68777079743,419.68777079743,980.31222920257,780.31222920257,980.31222920257,419.68777079743,619.68777079743,419.68777079743,619.68777079743,780.31222920257,4,0,0,0,horizontal,horizontal,horizontal,horizontal
2a,21,100282,6,18,178,21,M,NA,variable,homogeneous,4,present,1.60143184661865,1,horizontal,horizontal,1,2,red,4,1,619.68777079743,780.31222920257,980.31222920257,780.31222920257,980.31222920257,780.31222920257,980.31222920257,419.68777079743,619.68777079743,419.68777079743,619.68777079743,780.31222920257,0,0,0,4,vertical,vertical,horizontal,horizontal
2a,21,100282,6,19,179,21,M,NA,variable,homogeneous,4,present,0.701807022094727,1,horizontal,horizontal,1,2,green,4,2,619.68777079743,780.31222920257,980.31222920257,419.68777079743,980.31222920257,780.31222920257,980.31222920257,419.68777079743,619.68777079743,419.68777079743,619.68777079743,780.31222920257,0,0,0,4,horizontal,vertical,vertical,horizontal
2a,21,100282,6,20,180,21,M,NA,variable,homogeneous,4,absent,0.56380295753479,1,vertical,vertical,1,2,green,2,NaN,980.31222920257,419.68777079743,NaN,NaN,980.31222920257,780.31222920257,980.31222920257,419.68777079743,619.68777079743,419.68777079743,619.68777079743,780.31222920257,0,4,0,0,horizontal,vertical,vertical,horizontal
2a,21,100282,6,21,181,21,M,NA,variable,homogeneous,4,present,0.779622077941895,1,horizontal,horizontal,1,2,red,1,2,980.31222920257,780.31222920257,980.31222920257,419.68777079743,980.31222920257,780.31222920257,980.31222920257,419.68777079743,619.68777079743,419.68777079743,619.68777079743,780.31222920257,4,0,0,0,horizontal,horizontal,vertical,vertical
2a,21,100282,6,22,182,21,M,NA,variable,homogeneous,4,absent,1.1994469165802,1,horizontal,horizontal,1,2,red,4,NaN,619.68777079743,780.31222920257,NaN,NaN,980.31222920257,780.31222920257,980.31222920257,419.68777079743,619.68777079743,419.68777079743,619.68777079743,780.31222920257,0,0,0,4,vertical,horizontal,horizontal,horizontal
2a,21,100282,6,23,183,21,M,NA,variable,homogeneous,4,absent,0.563544988632202,1,vertical,vertical,1,2,red,1,NaN,980.31222920257,780.31222920257,NaN,NaN,980.31222920257,780.31222920257,980.31222920257,419.68777079743,619.68777079743,419.68777079743,619.68777079743,780.31222920257,4,0,0,0,vertical,vertical,vertical,vertical
2a,21,100282,6,24,184,21,M,NA,variable,homogeneous,4,absent,1.11516714096069,1,horizontal,horizontal,1,2,green,2,NaN,980.31222920257,419.68777079743,NaN,NaN,980.31222920257,780.31222920257,980.31222920257,419.68777079743,619.68777079743,419.68777079743,619.68777079743,780.31222920257,0,4,0,0,horizontal,horizontal,vertical,vertical
2a,21,100282,6,25,185,21,M,NA,variable,homogeneous,4,absent,0.645712852478027,1,vertical,vertical,1,2,green,1,NaN,980.31222920257,780.31222920257,NaN,NaN,980.31222920257,780.31222920257,980.31222920257,419.68777079743,619.68777079743,419.68777079743,619.68777079743,780.31222920257,4,0,0,0,vertical,vertical,horizontal,horizontal
2a,21,100282,6,26,186,21,M,NA,variable,homogeneous,4,present,1.21901607513428,1,vertical,vertical,1,2,red,2,3,980.31222920257,419.68777079743,619.68777079743,419.68777079743,980.31222920257,780.31222920257,980.31222920257,419.68777079743,619.68777079743,419.68777079743,619.68777079743,780.31222920257,0,4,0,0,vertical,vertical,vertical,vertical
2a,21,100282,6,27,187,21,M,NA,variable,homogeneous,4,present,1.1312210559845,1,vertical,vertical,1,2,red,4,3,619.68777079743,780.31222920257,619.68777079743,419.68777079743,980.31222920257,780.31222920257,980.31222920257,419.68777079743,619.68777079743,419.68777079743,619.68777079743,780.31222920257,0,0,0,4,horizontal,vertical,vertical,vertical
2a,21,100282,6,28,188,21,M,NA,variable,homogeneous,4,present,0.542312860488892,1,vertical,vertical,1,2,red,3,1,619.68777079743,419.68777079743,980.31222920257,780.31222920257,980.31222920257,780.31222920257,980.31222920257,419.68777079743,619.68777079743,419.68777079743,619.68777079743,780.31222920257,0,0,4,0,horizontal,horizontal,vertical,vertical
2a,21,100282,6,29,189,21,M,NA,variable,homogeneous,4,present,0.877434015274048,1,vertical,vertical,1,2,red,2,1,980.31222920257,419.68777079743,980.31222920257,780.31222920257,980.31222920257,780.31222920257,980.31222920257,419.68777079743,619.68777079743,419.68777079743,619.68777079743,780.31222920257,0,4,0,0,horizontal,vertical,horizontal,horizontal
2a,21,100282,6,30,190,21,M,NA,variable,homogeneous,4,present,0.611261129379272,1,vertical,vertical,1,2,green,3,1,619.68777079743,419.68777079743,980.31222920257,780.31222920257,980.31222920257,780.31222920257,980.31222920257,419.68777079743,619.68777079743,419.68777079743,619.68777079743,780.31222920257,0,0,4,0,vertical,vertical,vertical,vertical
2a,21,100282,6,31,191,21,M,NA,variable,homogeneous,4,absent,0.627490997314453,1,horizontal,horizontal,1,2,red,1,NaN,980.31222920257,780.31222920257,NaN,NaN,980.31222920257,780.31222920257,980.31222920257,419.68777079743,619.68777079743,419.68777079743,619.68777079743,780.31222920257,4,0,0,0,horizontal,horizontal,horizontal,vertical
2a,21,100282,6,32,192,21,M,NA,variable,homogeneous,4,present,0.792213916778564,1,horizontal,horizontal,1,2,red,2,1,980.31222920257,419.68777079743,980.31222920257,780.31222920257,980.31222920257,780.31222920257,980.31222920257,419.68777079743,619.68777079743,419.68777079743,619.68777079743,780.31222920257,0,4,0,0,horizontal,horizontal,horizontal,horizontal
2a,21,100282,7,1,193,21,M,NA,variable,homogeneous,4,absent,1.02840900421143,1,vertical,vertical,1,2,green,1,NaN,980.31222920257,780.31222920257,NaN,NaN,980.31222920257,780.31222920257,980.31222920257,419.68777079743,619.68777079743,419.68777079743,619.68777079743,780.31222920257,4,0,0,0,vertical,horizontal,horizontal,horizontal
2a,21,100282,7,2,194,21,M,NA,variable,homogeneous,4,absent,0.801103830337524,1,horizontal,horizontal,1,2,green,4,NaN,619.68777079743,780.31222920257,NaN,NaN,980.31222920257,780.31222920257,980.31222920257,419.68777079743,619.68777079743,419.68777079743,619.68777079743,780.31222920257,0,0,0,4,horizontal,horizontal,vertical,horizontal
2a,21,100282,7,3,195,21,M,NA,variable,homogeneous,4,present,0.981461048126221,1,vertical,vertical,1,2,green,2,4,980.31222920257,419.68777079743,619.68777079743,780.31222920257,980.31222920257,780.31222920257,980.31222920257,419.68777079743,619.68777079743,419.68777079743,619.68777079743,780.31222920257,0,4,0,0,vertical,vertical,vertical,vertical
2a,21,100282,7,4,196,21,M,NA,variable,homogeneous,4,absent,0.841186046600342,1,horizontal,horizontal,1,2,green,3,NaN,619.68777079743,419.68777079743,NaN,NaN,980.31222920257,780.31222920257,980.31222920257,419.68777079743,619.68777079743,419.68777079743,619.68777079743,780.31222920257,0,0,4,0,vertical,horizontal,horizontal,vertical
2a,21,100282,7,5,197,21,M,NA,variable,homogeneous,4,absent,0.906173944473267,1,horizontal,horizontal,1,2,red,1,NaN,980.31222920257,780.31222920257,NaN,NaN,980.31222920257,780.31222920257,980.31222920257,419.68777079743,619.68777079743,419.68777079743,619.68777079743,780.31222920257,4,0,0,0,horizontal,vertical,horizontal,horizontal
2a,21,100282,7,6,198,21,M,NA,variable,homogeneous,4,absent,1.19654202461243,1,horizontal,horizontal,1,2,red,4,NaN,619.68777079743,780.31222920257,NaN,NaN,980.31222920257,780.31222920257,980.31222920257,419.68777079743,619.68777079743,419.68777079743,619.68777079743,780.31222920257,0,0,0,4,horizontal,horizontal,vertical,horizontal
2a,21,100282,7,7,199,21,M,NA,variable,homogeneous,4,absent,0.740845203399658,1,vertical,vertical,1,2,red,1,NaN,980.31222920257,780.31222920257,NaN,NaN,980.31222920257,780.31222920257,980.31222920257,419.68777079743,619.68777079743,419.68777079743,619.68777079743,780.31222920257,4,0,0,0,vertical,vertical,vertical,horizontal
2a,21,100282,7,8,200,21,M,NA,variable,homogeneous,4,present,1.23590111732483,1,vertical,vertical,1,2,green,3,4,619.68777079743,419.68777079743,619.68777079743,780.31222920257,980.31222920257,780.31222920257,980.31222920257,419.68777079743,619.68777079743,419.68777079743,619.68777079743,780.31222920257,0,0,4,0,horizontal,horizontal,vertical,vertical
2a,21,100282,7,9,201,21,M,NA,variable,homogeneous,4,absent,0.924854040145874,1,vertical,vertical,1,2,green,3,NaN,619.68777079743,419.68777079743,NaN,NaN,980.31222920257,780.31222920257,980.31222920257,419.68777079743,619.68777079743,419.68777079743,619.68777079743,780.31222920257,0,0,4,0,horizontal,vertical,vertical,vertical
2a,21,100282,7,10,202,21,M,NA,variable,homogeneous,4,absent,0.779577970504761,1,vertical,vertical,1,2,green,3,NaN,619.68777079743,419.68777079743,NaN,NaN,980.31222920257,780.31222920257,980.31222920257,419.68777079743,619.68777079743,419.68777079743,619.68777079743,780.31222920257,0,0,4,0,vertical,horizontal,vertical,horizontal
2a,21,100282,7,11,203,21,M,NA,variable,homogeneous,4,present,1.06335020065308,1,horizontal,horizontal,1,2,green,4,3,619.68777079743,780.31222920257,619.68777079743,419.68777079743,980.31222920257,780.31222920257,980.31222920257,419.68777079743,619.68777079743,419.68777079743,619.68777079743,780.31222920257,0,0,0,4,vertical,vertical,vertical,horizontal
2a,21,100282,7,12,204,21,M,NA,variable,homogeneous,4,absent,1.64060497283936,0,horizontal,vertical,1,2,green,2,NaN,980.31222920257,419.68777079743,NaN,NaN,980.31222920257,780.31222920257,980.31222920257,419.68777079743,619.68777079743,419.68777079743,619.68777079743,780.31222920257,0,4,0,0,vertical,horizontal,horizontal,horizontal
2a,21,100282,7,13,205,21,M,NA,variable,homogeneous,4,present,0.721734046936035,1,vertical,vertical,1,2,green,3,1,619.68777079743,419.68777079743,980.31222920257,780.31222920257,980.31222920257,780.31222920257,980.31222920257,419.68777079743,619.68777079743,419.68777079743,619.68777079743,780.31222920257,0,0,4,0,horizontal,horizontal,vertical,horizontal
2a,21,100282,7,14,206,21,M,NA,variable,homogeneous,4,present,0.752381086349487,1,vertical,vertical,1,2,red,1,4,980.31222920257,780.31222920257,619.68777079743,780.31222920257,980.31222920257,780.31222920257,980.31222920257,419.68777079743,619.68777079743,419.68777079743,619.68777079743,780.31222920257,4,0,0,0,vertical,horizontal,horizontal,horizontal
2a,21,100282,7,15,207,21,M,NA,variable,homogeneous,4,absent,0.779744148254395,0,vertical,horizontal,1,2,red,4,NaN,619.68777079743,780.31222920257,NaN,NaN,980.31222920257,780.31222920257,980.31222920257,419.68777079743,619.68777079743,419.68777079743,619.68777079743,780.31222920257,0,0,0,4,vertical,vertical,horizontal,vertical
2a,21,100282,7,16,208,21,M,NA,variable,homogeneous,4,present,1.27161288261414,1,vertical,vertical,1,2,green,1,4,980.31222920257,780.31222920257,619.68777079743,780.31222920257,980.31222920257,780.31222920257,980.31222920257,419.68777079743,619.68777079743,419.68777079743,619.68777079743,780.31222920257,4,0,0,0,vertical,vertical,horizontal,horizontal
2a,21,100282,7,17,209,21,M,NA,variable,homogeneous,4,present,1.7091920375824,1,horizontal,horizontal,1,2,green,4,1,619.68777079743,780.31222920257,980.31222920257,780.31222920257,980.31222920257,780.31222920257,980.31222920257,419.68777079743,619.68777079743,419.68777079743,619.68777079743,780.31222920257,0,0,0,4,horizontal,horizontal,horizontal,horizontal
2a,21,100282,7,18,210,21,M,NA,variable,homogeneous,4,present,1.30358910560608,1,vertical,vertical,1,2,green,1,3,980.31222920257,780.31222920257,619.68777079743,419.68777079743,980.31222920257,780.31222920257,980.31222920257,419.68777079743,619.68777079743,419.68777079743,619.68777079743,780.31222920257,4,0,0,0,vertical,horizontal,horizontal,vertical
2a,21,100282,7,19,211,21,M,NA,variable,homogeneous,4,present,1.14990520477295,1,horizontal,horizontal,1,2,green,3,2,619.68777079743,419.68777079743,980.31222920257,419.68777079743,980.31222920257,780.31222920257,980.31222920257,419.68777079743,619.68777079743,419.68777079743,619.68777079743,780.31222920257,0,0,4,0,horizontal,vertical,horizontal,horizontal
2a,21,100282,7,20,212,21,M,NA,variable,homogeneous,4,present,1.29292297363281,1,horizontal,horizontal,1,2,red,2,3,980.31222920257,419.68777079743,619.68777079743,419.68777079743,980.31222920257,780.31222920257,980.31222920257,419.68777079743,619.68777079743,419.68777079743,619.68777079743,780.31222920257,0,4,0,0,horizontal,horizontal,vertical,horizontal
2a,21,100282,7,21,213,21,M,NA,variable,homogeneous,4,present,1.03498506546021,1,horizontal,horizontal,1,2,red,1,4,980.31222920257,780.31222920257,619.68777079743,780.31222920257,980.31222920257,780.31222920257,980.31222920257,419.68777079743,619.68777079743,419.68777079743,619.68777079743,780.31222920257,4,0,0,0,horizontal,vertical,horizontal,horizontal
2a,21,100282,7,22,214,21,M,NA,variable,homogeneous,4,present,1.90810489654541,1,horizontal,horizontal,1,2,red,2,1,980.31222920257,419.68777079743,980.31222920257,780.31222920257,980.31222920257,780.31222920257,980.31222920257,419.68777079743,619.68777079743,419.68777079743,619.68777079743,780.31222920257,0,4,0,0,vertical,horizontal,vertical,horizontal
2a,21,100282,7,23,215,21,M,NA,variable,homogeneous,4,present,0.894590139389038,1,vertical,vertical,1,2,green,2,4,980.31222920257,419.68777079743,619.68777079743,780.31222920257,980.31222920257,780.31222920257,980.31222920257,419.68777079743,619.68777079743,419.68777079743,619.68777079743,780.31222920257,0,4,0,0,vertical,vertical,horizontal,horizontal
2a,21,100282,7,24,216,21,M,NA,variable,homogeneous,4,absent,0.716723203659058,1,vertical,vertical,1,2,green,4,NaN,619.68777079743,780.31222920257,NaN,NaN,980.31222920257,780.31222920257,980.31222920257,419.68777079743,619.68777079743,419.68777079743,619.68777079743,780.31222920257,0,0,0,4,horizontal,vertical,horizontal,vertical
2a,21,100282,7,25,217,21,M,NA,variable,homogeneous,4,absent,0.971376895904541,1,horizontal,horizontal,1,2,green,2,NaN,980.31222920257,419.68777079743,NaN,NaN,980.31222920257,780.31222920257,980.31222920257,419.68777079743,619.68777079743,419.68777079743,619.68777079743,780.31222920257,0,4,0,0,horizontal,horizontal,horizontal,vertical
2a,21,100282,7,26,218,21,M,NA,variable,homogeneous,4,present,0.802989959716797,1,horizontal,horizontal,1,2,red,4,1,619.68777079743,780.31222920257,980.31222920257,780.31222920257,980.31222920257,780.31222920257,980.31222920257,419.68777079743,619.68777079743,419.68777079743,619.68777079743,780.31222920257,0,0,0,4,vertical,horizontal,vertical,horizontal
2a,21,100282,7,27,219,21,M,NA,variable,homogeneous,4,absent,0.823233842849731,1,vertical,vertical,1,2,green,4,NaN,619.68777079743,780.31222920257,NaN,NaN,980.31222920257,780.31222920257,980.31222920257,419.68777079743,619.68777079743,419.68777079743,619.68777079743,780.31222920257,0,0,0,4,vertical,horizontal,vertical,vertical
2a,21,100282,7,28,220,21,M,NA,variable,homogeneous,4,present,1.41988396644592,1,vertical,vertical,1,2,red,1,3,980.31222920257,780.31222920257,619.68777079743,419.68777079743,980.31222920257,780.31222920257,980.31222920257,419.68777079743,619.68777079743,419.68777079743,619.68777079743,780.31222920257,4,0,0,0,vertical,vertical,vertical,vertical
2a,21,100282,7,29,221,21,M,NA,variable,homogeneous,4,absent,NaN,0,horizontal,none,0,2,green,3,NaN,619.68777079743,419.68777079743,NaN,NaN,980.31222920257,780.31222920257,980.31222920257,419.68777079743,619.68777079743,419.68777079743,619.68777079743,780.31222920257,0,0,4,0,horizontal,vertical,horizontal,vertical
2a,21,100282,7,30,222,21,M,NA,variable,homogeneous,4,absent,1.01668810844421,1,horizontal,horizontal,1,2,red,3,NaN,619.68777079743,419.68777079743,NaN,NaN,980.31222920257,780.31222920257,980.31222920257,419.68777079743,619.68777079743,419.68777079743,619.68777079743,780.31222920257,0,0,4,0,vertical,vertical,horizontal,horizontal
2a,21,100282,7,31,223,21,M,NA,variable,homogeneous,4,present,0.857019186019897,1,horizontal,horizontal,1,2,green,1,3,980.31222920257,780.31222920257,619.68777079743,419.68777079743,980.31222920257,780.31222920257,980.31222920257,419.68777079743,619.68777079743,419.68777079743,619.68777079743,780.31222920257,4,0,0,0,horizontal,vertical,horizontal,vertical
2a,21,100282,7,32,224,21,M,NA,variable,homogeneous,4,absent,0.734551906585693,1,vertical,vertical,1,2,green,2,NaN,980.31222920257,419.68777079743,NaN,NaN,980.31222920257,780.31222920257,980.31222920257,419.68777079743,619.68777079743,419.68777079743,619.68777079743,780.31222920257,0,4,0,0,horizontal,vertical,vertical,vertical
2a,21,100282,8,1,225,21,M,NA,variable,homogeneous,4,present,1.45428991317749,1,horizontal,horizontal,1,2,green,4,2,619.68777079743,780.31222920257,980.31222920257,419.68777079743,980.31222920257,780.31222920257,980.31222920257,419.68777079743,619.68777079743,419.68777079743,619.68777079743,780.31222920257,0,0,0,4,horizontal,vertical,vertical,horizontal
2a,21,100282,8,2,226,21,M,NA,variable,homogeneous,4,present,1.46755886077881,1,horizontal,horizontal,1,2,red,3,1,619.68777079743,419.68777079743,980.31222920257,780.31222920257,980.31222920257,780.31222920257,980.31222920257,419.68777079743,619.68777079743,419.68777079743,619.68777079743,780.31222920257,0,0,4,0,vertical,vertical,horizontal,horizontal
2a,21,100282,8,3,227,21,M,NA,variable,homogeneous,4,absent,1.39704918861389,1,vertical,vertical,1,2,red,3,NaN,619.68777079743,419.68777079743,NaN,NaN,980.31222920257,780.31222920257,980.31222920257,419.68777079743,619.68777079743,419.68777079743,619.68777079743,780.31222920257,0,0,4,0,horizontal,vertical,vertical,vertical
2a,21,100282,8,4,228,21,M,NA,variable,homogeneous,4,present,1.74107885360718,1,horizontal,horizontal,1,2,red,1,4,980.31222920257,780.31222920257,619.68777079743,780.31222920257,980.31222920257,780.31222920257,980.31222920257,419.68777079743,619.68777079743,419.68777079743,619.68777079743,780.31222920257,4,0,0,0,horizontal,vertical,horizontal,vertical
2a,21,100282,8,5,229,21,M,NA,variable,homogeneous,4,absent,0.91618800163269,1,vertical,vertical,1,2,red,1,NaN,980.31222920257,780.31222920257,NaN,NaN,980.31222920257,780.31222920257,980.31222920257,419.68777079743,619.68777079743,419.68777079743,619.68777079743,780.31222920257,4,0,0,0,vertical,horizontal,horizontal,horizontal
2a,21,100282,8,6,230,21,M,NA,variable,homogeneous,4,absent,1.07462406158447,1,horizontal,horizontal,1,2,red,3,NaN,619.68777079743,419.68777079743,NaN,NaN,980.31222920257,780.31222920257,980.31222920257,419.68777079743,619.68777079743,419.68777079743,619.68777079743,780.31222920257,0,0,4,0,horizontal,horizontal,horizontal,vertical
2a,21,100282,8,7,231,21,M,NA,variable,homogeneous,4,present,0.944623947143555,1,horizontal,horizontal,1,2,green,4,3,619.68777079743,780.31222920257,619.68777079743,419.68777079743,980.31222920257,780.31222920257,980.31222920257,419.68777079743,619.68777079743,419.68777079743,619.68777079743,780.31222920257,0,0,0,4,horizontal,horizontal,horizontal,horizontal
2a,21,100282,8,8,232,21,M,NA,variable,homogeneous,4,present,0.751564025878906,1,horizontal,horizontal,1,2,green,4,3,619.68777079743,780.31222920257,619.68777079743,419.68777079743,980.31222920257,780.31222920257,980.31222920257,419.68777079743,619.68777079743,419.68777079743,619.68777079743,780.31222920257,0,0,0,4,vertical,vertical,horizontal,horizontal
2a,21,100282,8,9,233,21,M,NA,variable,homogeneous,4,present,1.49075198173523,1,horizontal,horizontal,1,2,red,2,1,980.31222920257,419.68777079743,980.31222920257,780.31222920257,980.31222920257,780.31222920257,980.31222920257,419.68777079743,619.68777079743,419.68777079743,619.68777079743,780.31222920257,0,4,0,0,horizontal,horizontal,horizontal,horizontal
2a,21,100282,8,10,234,21,M,NA,variable,homogeneous,4,present,NaN,0,vertical,none,0,2,green,1,2,980.31222920257,780.31222920257,980.31222920257,419.68777079743,980.31222920257,780.31222920257,980.31222920257,419.68777079743,619.68777079743,419.68777079743,619.68777079743,780.31222920257,4,0,0,0,vertical,vertical,horizontal,horizontal
2a,21,100282,8,11,235,21,M,NA,variable,homogeneous,4,present,1.20924615859985,1,vertical,vertical,1,2,red,3,1,619.68777079743,419.68777079743,980.31222920257,780.31222920257,980.31222920257,780.31222920257,980.31222920257,419.68777079743,619.68777079743,419.68777079743,619.68777079743,780.31222920257,0,0,4,0,horizontal,horizontal,vertical,vertical
2a,21,100282,8,12,236,21,M,NA,variable,homogeneous,4,absent,1.60543322563171,1,vertical,vertical,1,2,red,1,NaN,980.31222920257,780.31222920257,NaN,NaN,980.31222920257,780.31222920257,980.31222920257,419.68777079743,619.68777079743,419.68777079743,619.68777079743,780.31222920257,4,0,0,0,vertical,vertical,vertical,vertical
2a,21,100282,8,13,237,21,M,NA,variable,homogeneous,4,absent,0.849812984466553,1,vertical,vertical,1,2,green,2,NaN,980.31222920257,419.68777079743,NaN,NaN,980.31222920257,780.31222920257,980.31222920257,419.68777079743,619.68777079743,419.68777079743,619.68777079743,780.31222920257,0,4,0,0,horizontal,vertical,vertical,horizontal
2a,21,100282,8,14,238,21,M,NA,variable,homogeneous,4,present,0.582814931869507,1,vertical,vertical,1,2,red,1,3,980.31222920257,780.31222920257,619.68777079743,419.68777079743,980.31222920257,780.31222920257,980.31222920257,419.68777079743,619.68777079743,419.68777079743,619.68777079743,780.31222920257,4,0,0,0,vertical,vertical,horizontal,vertical
2a,21,100282,8,15,239,21,M,NA,variable,homogeneous,4,absent,0.65069580078125,1,horizontal,horizontal,1,2,red,4,NaN,619.68777079743,780.31222920257,NaN,NaN,980.31222920257,780.31222920257,980.31222920257,419.68777079743,619.68777079743,419.68777079743,619.68777079743,780.31222920257,0,0,0,4,horizontal,horizontal,vertical,horizontal
2a,21,100282,8,16,240,21,M,NA,variable,homogeneous,4,present,1.30413389205933,1,vertical,vertical,1,2,green,1,3,980.31222920257,780.31222920257,619.68777079743,419.68777079743,980.31222920257,780.31222920257,980.31222920257,419.68777079743,619.68777079743,419.68777079743,619.68777079743,780.31222920257,4,0,0,0,vertical,vertical,horizontal,vertical
2a,21,100282,8,17,241,21,M,NA,variable,homogeneous,4,absent,1.05419683456421,1,horizontal,horizontal,1,2,green,2,NaN,980.31222920257,419.68777079743,NaN,NaN,980.31222920257,780.31222920257,980.31222920257,419.68777079743,619.68777079743,419.68777079743,619.68777079743,780.31222920257,0,4,0,0,horizontal,horizontal,vertical,vertical
2a,21,100282,8,18,242,21,M,NA,variable,homogeneous,4,absent,0.80345606803894,1,horizontal,horizontal,1,2,green,3,NaN,619.68777079743,419.68777079743,NaN,NaN,980.31222920257,780.31222920257,980.31222920257,419.68777079743,619.68777079743,419.68777079743,619.68777079743,780.31222920257,0,0,4,0,vertical,vertical,horizontal,vertical
2a,21,100282,8,19,243,21,M,NA,variable,homogeneous,4,absent,0.727844953536987,1,horizontal,horizontal,1,2,red,3,NaN,619.68777079743,419.68777079743,NaN,NaN,980.31222920257,780.31222920257,980.31222920257,419.68777079743,619.68777079743,419.68777079743,619.68777079743,780.31222920257,0,0,4,0,vertical,vertical,horizontal,vertical
2a,21,100282,8,20,244,21,M,NA,variable,homogeneous,4,present,0.862154960632324,1,horizontal,horizontal,1,2,green,1,3,980.31222920257,780.31222920257,619.68777079743,419.68777079743,980.31222920257,780.31222920257,980.31222920257,419.68777079743,619.68777079743,419.68777079743,619.68777079743,780.31222920257,4,0,0,0,horizontal,vertical,horizontal,vertical
2a,21,100282,8,21,245,21,M,NA,variable,homogeneous,4,absent,0.639695882797241,1,horizontal,horizontal,1,2,green,2,NaN,980.31222920257,419.68777079743,NaN,NaN,980.31222920257,780.31222920257,980.31222920257,419.68777079743,619.68777079743,419.68777079743,619.68777079743,780.31222920257,0,4,0,0,vertical,horizontal,vertical,horizontal
2a,21,100282,8,22,246,21,M,NA,variable,homogeneous,4,present,1.62462997436523,1,horizontal,horizontal,1,2,red,3,4,619.68777079743,419.68777079743,619.68777079743,780.31222920257,980.31222920257,780.31222920257,980.31222920257,419.68777079743,619.68777079743,419.68777079743,619.68777079743,780.31222920257,0,0,4,0,vertical,horizontal,horizontal,horizontal
2a,21,100282,8,23,247,21,M,NA,variable,homogeneous,4,absent,0.669290065765381,1,vertical,vertical,1,2,green,2,NaN,980.31222920257,419.68777079743,NaN,NaN,980.31222920257,780.31222920257,980.31222920257,419.68777079743,619.68777079743,419.68777079743,619.68777079743,780.31222920257,0,4,0,0,horizontal,vertical,horizontal,horizontal
2a,21,100282,8,24,248,21,M,NA,variable,homogeneous,4,absent,0.683248043060303,1,horizontal,horizontal,1,2,green,1,NaN,980.31222920257,780.31222920257,NaN,NaN,980.31222920257,780.31222920257,980.31222920257,419.68777079743,619.68777079743,419.68777079743,619.68777079743,780.31222920257,4,0,0,0,horizontal,horizontal,horizontal,vertical
2a,21,100282,8,25,249,21,M,NA,variable,homogeneous,4,present,0.733055830001831,1,vertical,vertical,1,2,green,4,2,619.68777079743,780.31222920257,980.31222920257,419.68777079743,980.31222920257,780.31222920257,980.31222920257,419.68777079743,619.68777079743,419.68777079743,619.68777079743,780.31222920257,0,0,0,4,horizontal,vertical,horizontal,vertical
2a,21,100282,8,26,250,21,M,NA,variable,homogeneous,4,present,0.58423900604248,1,vertical,vertical,1,2,green,4,3,619.68777079743,780.31222920257,619.68777079743,419.68777079743,980.31222920257,780.31222920257,980.31222920257,419.68777079743,619.68777079743,419.68777079743,619.68777079743,780.31222920257,0,0,0,4,horizontal,horizontal,vertical,vertical
2a,21,100282,8,27,251,21,M,NA,variable,homogeneous,4,absent,1.15584111213684,1,horizontal,horizontal,1,2,green,1,NaN,980.31222920257,780.31222920257,NaN,NaN,980.31222920257,780.31222920257,980.31222920257,419.68777079743,619.68777079743,419.68777079743,619.68777079743,780.31222920257,4,0,0,0,horizontal,vertical,horizontal,horizontal
2a,21,100282,8,28,252,21,M,NA,variable,homogeneous,4,absent,1.1913959980011,1,vertical,vertical,1,2,red,4,NaN,619.68777079743,780.31222920257,NaN,NaN,980.31222920257,780.31222920257,980.31222920257,419.68777079743,619.68777079743,419.68777079743,619.68777079743,780.31222920257,0,0,0,4,vertical,vertical,vertical,vertical
2a,21,100282,8,29,253,21,M,NA,variable,homogeneous,4,present,0.711173057556152,1,vertical,vertical,1,2,red,4,3,619.68777079743,780.31222920257,619.68777079743,419.68777079743,980.31222920257,780.31222920257,980.31222920257,419.68777079743,619.68777079743,419.68777079743,619.68777079743,780.31222920257,0,0,0,4,vertical,vertical,vertical,vertical
2a,21,100282,8,30,254,21,M,NA,variable,homogeneous,4,present,1.16182112693787,1,vertical,vertical,1,2,green,2,3,980.31222920257,419.68777079743,619.68777079743,419.68777079743,980.31222920257,780.31222920257,980.31222920257,419.68777079743,619.68777079743,419.68777079743,619.68777079743,780.31222920257,0,4,0,0,horizontal,vertical,horizontal,horizontal
2a,21,100282,8,31,255,21,M,NA,variable,homogeneous,4,absent,0.765145063400269,1,vertical,vertical,1,2,red,1,NaN,980.31222920257,780.31222920257,NaN,NaN,980.31222920257,780.31222920257,980.31222920257,419.68777079743,619.68777079743,419.68777079743,619.68777079743,780.31222920257,4,0,0,0,vertical,horizontal,horizontal,vertical
2a,21,100282,8,32,256,21,M,NA,variable,homogeneous,4,absent,1.01268100738525,1,vertical,vertical,1,2,red,3,NaN,619.68777079743,419.68777079743,NaN,NaN,980.31222920257,780.31222920257,980.31222920257,419.68777079743,619.68777079743,419.68777079743,619.68777079743,780.31222920257,0,0,4,0,vertical,horizontal,vertical,vertical
2a,21,100282,9,1,257,21,M,NA,variable,homogeneous,4,present,1.82445096969604,1,horizontal,horizontal,1,2,red,4,2,619.68777079743,780.31222920257,980.31222920257,419.68777079743,980.31222920257,780.31222920257,980.31222920257,419.68777079743,619.68777079743,419.68777079743,619.68777079743,780.31222920257,0,0,0,4,horizontal,horizontal,horizontal,horizontal
2a,21,100282,9,2,258,21,M,NA,variable,homogeneous,4,present,0.877351999282837,1,vertical,vertical,1,2,green,2,3,980.31222920257,419.68777079743,619.68777079743,419.68777079743,980.31222920257,780.31222920257,980.31222920257,419.68777079743,619.68777079743,419.68777079743,619.68777079743,780.31222920257,0,4,0,0,horizontal,vertical,horizontal,horizontal
2a,21,100282,9,3,259,21,M,NA,variable,homogeneous,4,absent,0.867111921310425,1,vertical,vertical,1,2,red,4,NaN,619.68777079743,780.31222920257,NaN,NaN,980.31222920257,780.31222920257,980.31222920257,419.68777079743,619.68777079743,419.68777079743,619.68777079743,780.31222920257,0,0,0,4,horizontal,vertical,horizontal,vertical
2a,21,100282,9,4,260,21,M,NA,variable,homogeneous,4,absent,0.884507894515991,1,horizontal,horizontal,1,2,green,2,NaN,980.31222920257,419.68777079743,NaN,NaN,980.31222920257,780.31222920257,980.31222920257,419.68777079743,619.68777079743,419.68777079743,619.68777079743,780.31222920257,0,4,0,0,horizontal,horizontal,horizontal,horizontal
2a,21,100282,9,5,261,21,M,NA,variable,homogeneous,4,absent,0.510244131088257,1,horizontal,horizontal,1,2,green,4,NaN,619.68777079743,780.31222920257,NaN,NaN,980.31222920257,780.31222920257,980.31222920257,419.68777079743,619.68777079743,419.68777079743,619.68777079743,780.31222920257,0,0,0,4,vertical,vertical,vertical,horizontal
2a,21,100282,9,6,262,21,M,NA,variable,homogeneous,4,absent,1.16079092025757,1,vertical,vertical,1,2,red,2,NaN,980.31222920257,419.68777079743,NaN,NaN,980.31222920257,780.31222920257,980.31222920257,419.68777079743,619.68777079743,419.68777079743,619.68777079743,780.31222920257,0,4,0,0,vertical,vertical,horizontal,vertical
2a,21,100282,9,7,263,21,M,NA,variable,homogeneous,4,present,0.716068029403687,1,horizontal,horizontal,1,2,red,1,4,980.31222920257,780.31222920257,619.68777079743,780.31222920257,980.31222920257,780.31222920257,980.31222920257,419.68777079743,619.68777079743,419.68777079743,619.68777079743,780.31222920257,4,0,0,0,horizontal,horizontal,horizontal,vertical
2a,21,100282,9,8,264,21,M,NA,variable,homogeneous,4,absent,1.27058911323547,1,horizontal,horizontal,1,2,red,3,NaN,619.68777079743,419.68777079743,NaN,NaN,980.31222920257,780.31222920257,980.31222920257,419.68777079743,619.68777079743,419.68777079743,619.68777079743,780.31222920257,0,0,4,0,horizontal,vertical,horizontal,horizontal
2a,21,100282,9,9,265,21,M,NA,variable,homogeneous,4,absent,0.948487043380737,1,vertical,vertical,1,2,red,3,NaN,619.68777079743,419.68777079743,NaN,NaN,980.31222920257,780.31222920257,980.31222920257,419.68777079743,619.68777079743,419.68777079743,619.68777079743,780.31222920257,0,0,4,0,vertical,horizontal,vertical,horizontal
2a,21,100282,9,10,266,21,M,NA,variable,homogeneous,4,present,1.21127486228943,1,vertical,vertical,1,2,green,3,4,619.68777079743,419.68777079743,619.68777079743,780.31222920257,980.31222920257,780.31222920257,980.31222920257,419.68777079743,619.68777079743,419.68777079743,619.68777079743,780.31222920257,0,0,4,0,vertical,vertical,vertical,vertical
2a,21,100282,9,11,267,21,M,NA,variable,homogeneous,4,absent,0.667977094650269,1,horizontal,horizontal,1,2,red,1,NaN,980.31222920257,780.31222920257,NaN,NaN,980.31222920257,780.31222920257,980.31222920257,419.68777079743,619.68777079743,419.68777079743,619.68777079743,780.31222920257,4,0,0,0,horizontal,vertical,horizontal,vertical
2a,21,100282,9,12,268,21,M,NA,variable,homogeneous,4,present,0.725292205810547,1,vertical,vertical,1,2,green,3,4,619.68777079743,419.68777079743,619.68777079743,780.31222920257,980.31222920257,780.31222920257,980.31222920257,419.68777079743,619.68777079743,419.68777079743,619.68777079743,780.31222920257,0,0,4,0,vertical,vertical,vertical,horizontal
2a,21,100282,9,13,269,21,M,NA,variable,homogeneous,4,absent,0.875921010971069,1,vertical,vertical,1,2,green,2,NaN,980.31222920257,419.68777079743,NaN,NaN,980.31222920257,780.31222920257,980.31222920257,419.68777079743,619.68777079743,419.68777079743,619.68777079743,780.31222920257,0,4,0,0,horizontal,vertical,vertical,horizontal
2a,21,100282,9,14,270,21,M,NA,variable,homogeneous,4,absent,0.769593000411987,1,vertical,vertical,1,2,green,3,NaN,619.68777079743,419.68777079743,NaN,NaN,980.31222920257,780.31222920257,980.31222920257,419.68777079743,619.68777079743,419.68777079743,619.68777079743,780.31222920257,0,0,4,0,horizontal,horizontal,vertical,vertical
2a,21,100282,9,15,271,21,M,NA,variable,homogeneous,4,present,1.9369580745697,1,horizontal,horizontal,1,2,green,3,1,619.68777079743,419.68777079743,980.31222920257,780.31222920257,980.31222920257,780.31222920257,980.31222920257,419.68777079743,619.68777079743,419.68777079743,619.68777079743,780.31222920257,0,0,4,0,vertical,vertical,horizontal,horizontal
2a,21,100282,9,16,272,21,M,NA,variable,homogeneous,4,absent,0.812028884887695,1,horizontal,horizontal,1,2,red,1,NaN,980.31222920257,780.31222920257,NaN,NaN,980.31222920257,780.31222920257,980.31222920257,419.68777079743,619.68777079743,419.68777079743,619.68777079743,780.31222920257,4,0,0,0,horizontal,horizontal,horizontal,vertical
2a,21,100282,9,17,273,21,M,NA,variable,homogeneous,4,present,0.644630908966064,1,vertical,vertical,1,2,red,4,3,619.68777079743,780.31222920257,619.68777079743,419.68777079743,980.31222920257,780.31222920257,980.31222920257,419.68777079743,619.68777079743,419.68777079743,619.68777079743,780.31222920257,0,0,0,4,horizontal,horizontal,horizontal,vertical
2a,21,100282,9,18,274,21,M,NA,variable,homogeneous,4,absent,0.58965277671814,1,vertical,vertical,1,2,red,2,NaN,980.31222920257,419.68777079743,NaN,NaN,980.31222920257,780.31222920257,980.31222920257,419.68777079743,619.68777079743,419.68777079743,619.68777079743,780.31222920257,0,4,0,0,vertical,vertical,horizontal,vertical
2a,21,100282,9,19,275,21,M,NA,variable,homogeneous,4,present,NaN,0,horizontal,none,0,2,green,4,2,619.68777079743,780.31222920257,980.31222920257,419.68777079743,980.31222920257,780.31222920257,980.31222920257,419.68777079743,619.68777079743,419.68777079743,619.68777079743,780.31222920257,0,0,0,4,vertical,vertical,vertical,horizontal
2a,21,100282,9,20,276,21,M,NA,variable,homogeneous,4,present,0.530055999755859,1,horizontal,horizontal,1,2,green,4,1,619.68777079743,780.31222920257,980.31222920257,780.31222920257,980.31222920257,780.31222920257,980.31222920257,419.68777079743,619.68777079743,419.68777079743,619.68777079743,780.31222920257,0,0,0,4,horizontal,vertical,horizontal,horizontal
2a,21,100282,9,21,277,21,M,NA,variable,homogeneous,4,present,1.06101703643799,1,vertical,vertical,1,2,red,4,3,619.68777079743,780.31222920257,619.68777079743,419.68777079743,980.31222920257,780.31222920257,980.31222920257,419.68777079743,619.68777079743,419.68777079743,619.68777079743,780.31222920257,0,0,0,4,vertical,horizontal,horizontal,vertical
2a,21,100282,9,22,278,21,M,NA,variable,homogeneous,4,present,0.630417108535767,1,vertical,vertical,1,2,red,1,4,980.31222920257,780.31222920257,619.68777079743,780.31222920257,980.31222920257,780.31222920257,980.31222920257,419.68777079743,619.68777079743,419.68777079743,619.68777079743,780.31222920257,4,0,0,0,vertical,vertical,vertical,horizontal
2a,21,100282,9,23,279,21,M,NA,variable,homogeneous,4,present,0.971225023269653,1,horizontal,horizontal,1,2,red,2,3,980.31222920257,419.68777079743,619.68777079743,419.68777079743,980.31222920257,780.31222920257,980.31222920257,419.68777079743,619.68777079743,419.68777079743,619.68777079743,780.31222920257,0,4,0,0,horizontal,horizontal,horizontal,horizontal
2a,21,100282,9,24,280,21,M,NA,variable,homogeneous,4,absent,0.690598964691162,1,horizontal,horizontal,1,2,green,1,NaN,980.31222920257,780.31222920257,NaN,NaN,980.31222920257,780.31222920257,980.31222920257,419.68777079743,619.68777079743,419.68777079743,619.68777079743,780.31222920257,4,0,0,0,horizontal,horizontal,horizontal,vertical
2a,21,100282,9,25,281,21,M,NA,variable,homogeneous,4,present,1.17254114151001,1,horizontal,horizontal,1,2,green,4,1,619.68777079743,780.31222920257,980.31222920257,780.31222920257,980.31222920257,780.31222920257,980.31222920257,419.68777079743,619.68777079743,419.68777079743,619.68777079743,780.31222920257,0,0,0,4,horizontal,horizontal,vertical,horizontal
2a,21,100282,9,26,282,21,M,NA,variable,homogeneous,4,absent,1.27617406845093,1,horizontal,horizontal,1,2,red,3,NaN,619.68777079743,419.68777079743,NaN,NaN,980.31222920257,780.31222920257,980.31222920257,419.68777079743,619.68777079743,419.68777079743,619.68777079743,780.31222920257,0,0,4,0,vertical,vertical,horizontal,vertical
2a,21,100282,9,27,283,21,M,NA,variable,homogeneous,4,present,0.738054037094116,1,vertical,vertical,1,2,green,1,3,980.31222920257,780.31222920257,619.68777079743,419.68777079743,980.31222920257,780.31222920257,980.31222920257,419.68777079743,619.68777079743,419.68777079743,619.68777079743,780.31222920257,4,0,0,0,vertical,vertical,horizontal,horizontal
2a,21,100282,9,28,284,21,M,NA,variable,homogeneous,4,absent,1.20494794845581,1,horizontal,horizontal,1,2,red,3,NaN,619.68777079743,419.68777079743,NaN,NaN,980.31222920257,780.31222920257,980.31222920257,419.68777079743,619.68777079743,419.68777079743,619.68777079743,780.31222920257,0,0,4,0,vertical,vertical,horizontal,horizontal
2a,21,100282,9,29,285,21,M,NA,variable,homogeneous,4,absent,0.721004009246826,1,vertical,vertical,1,2,green,3,NaN,619.68777079743,419.68777079743,NaN,NaN,980.31222920257,780.31222920257,980.31222920257,419.68777079743,619.68777079743,419.68777079743,619.68777079743,780.31222920257,0,0,4,0,horizontal,vertical,vertical,vertical
2a,21,100282,9,30,286,21,M,NA,variable,homogeneous,4,present,0.807608127593994,1,horizontal,horizontal,1,2,red,1,4,980.31222920257,780.31222920257,619.68777079743,780.31222920257,980.31222920257,780.31222920257,980.31222920257,419.68777079743,619.68777079743,419.68777079743,619.68777079743,780.31222920257,4,0,0,0,horizontal,vertical,horizontal,vertical
2a,21,100282,9,31,287,21,M,NA,variable,homogeneous,4,present,1.20375490188599,1,vertical,vertical,1,2,red,2,4,980.31222920257,419.68777079743,619.68777079743,780.31222920257,980.31222920257,780.31222920257,980.31222920257,419.68777079743,619.68777079743,419.68777079743,619.68777079743,780.31222920257,0,4,0,0,horizontal,vertical,horizontal,horizontal
2a,21,100282,9,32,288,21,M,NA,variable,homogeneous,4,absent,0.560173034667969,1,vertical,vertical,1,2,red,2,NaN,980.31222920257,419.68777079743,NaN,NaN,980.31222920257,780.31222920257,980.31222920257,419.68777079743,619.68777079743,419.68777079743,619.68777079743,780.31222920257,0,4,0,0,vertical,vertical,vertical,horizontal
2a,21,100282,10,1,289,21,M,NA,variable,homogeneous,4,absent,1.04429388046265,1,vertical,vertical,1,2,green,4,NaN,619.68777079743,780.31222920257,NaN,NaN,980.31222920257,780.31222920257,980.31222920257,419.68777079743,619.68777079743,419.68777079743,619.68777079743,780.31222920257,0,0,0,4,vertical,vertical,horizontal,vertical
2a,21,100282,10,2,290,21,M,NA,variable,homogeneous,4,absent,1.33344006538391,1,horizontal,horizontal,1,2,red,4,NaN,619.68777079743,780.31222920257,NaN,NaN,980.31222920257,780.31222920257,980.31222920257,419.68777079743,619.68777079743,419.68777079743,619.68777079743,780.31222920257,0,0,0,4,horizontal,vertical,horizontal,horizontal
2a,21,100282,10,3,291,21,M,NA,variable,homogeneous,4,absent,0.895941972732544,1,vertical,vertical,1,2,green,3,NaN,619.68777079743,419.68777079743,NaN,NaN,980.31222920257,780.31222920257,980.31222920257,419.68777079743,619.68777079743,419.68777079743,619.68777079743,780.31222920257,0,0,4,0,horizontal,horizontal,vertical,vertical
2a,21,100282,10,4,292,21,M,NA,variable,homogeneous,4,present,0.6062171459198,1,horizontal,horizontal,1,2,red,1,4,980.31222920257,780.31222920257,619.68777079743,780.31222920257,980.31222920257,780.31222920257,980.31222920257,419.68777079743,619.68777079743,419.68777079743,619.68777079743,780.31222920257,4,0,0,0,horizontal,vertical,horizontal,horizontal
