experiment,subject,uniqueID,block,trial,trial_cumulative,age,gender,color_cond_blocking,color_history,shape_type,set_size,distractor,rt,acc,target_orient,response_key,response_made,iti,target_color,target_item,distractor_item,target_X,target_Y,distractor_X,distractor_Y,item1_X,item1_Y,item2_X,item2_Y,item3_X,item3_Y,item4_X,item4_Y,item1_shape,item2_shape,item3_shape,item4_shape,item1_line,item2_line,item3_line,item4_line
2a,22,100284,1,1,1,25,F,NA,variable,heterogeneous,4,present,NaN,0,horizontal,none,0,3,red,3,2,619.68777079743,419.68777079743,980.31222920257,419.68777079743,980.31222920257,780.31222920257,980.31222920257,419.68777079743,619.68777079743,419.68777079743,619.68777079743,780.31222920257,0,6,4,5,horizontal,vertical,horizontal,horizontal
2a,22,100284,1,2,2,25,F,NA,variable,heterogeneous,4,absent,1.3324191570282,1,vertical,vertical,1,2,red,2,NaN,980.31222920257,419.68777079743,NaN,NaN,980.31222920257,780.31222920257,980.31222920257,419.68777079743,619.68777079743,419.68777079743,619.68777079743,780.31222920257,0,4,6,5,vertical,vertical,horizontal,vertical
2a,22,100284,1,3,3,25,F,NA,variable,heterogeneous,4,present,1.22329092025757,1,horizontal,horizontal,1,2,red,3,2,619.68777079743,419.68777079743,980.31222920257,419.68777079743,980.31222920257,780.31222920257,980.31222920257,419.68777079743,619.68777079743,419.68777079743,619.68777079743,780.31222920257,6,3,4,0,vertical,vertical,horizontal,horizontal
2a,22,100284,1,4,4,25,F,NA,variable,heterogeneous,4,present,1.57940697669983,1,vertical,vertical,1,3,green,4,2,619.68777079743,780.31222920257,980.31222920257,419.68777079743,980.31222920257,780.31222920257,980.31222920257,419.68777079743,619.68777079743,419.68777079743,619.68777079743,780.31222920257,3,6,5,4,vertical,vertical,horizontal,vertical
2a,22,100284,1,5,5,25,F,NA,variable,heterogeneous,4,absent,NaN,0,horizontal,none,0,3,red,1,NaN,980.31222920257,780.31222920257,NaN,NaN,980.31222920257,780.31222920257,980.31222920257,419.68777079743,619.68777079743,419.68777079743,619.68777079743,780.31222920257,4,3,0,6,horizontal,vertical,horizontal,horizontal
2a,22,100284,1,6,6,25,F,NA,variable,heterogeneous,4,present,1.97966408729553,1,vertical,vertical,1,5,red,1,2,980.31222920257,780.31222920257,980.31222920257,419.68777079743,980.31222920257,780.31222920257,980.31222920257,419.68777079743,619.68777079743,419.68777079743,619.68777079743,780.31222920257,4,6,3,5,vertical,horizontal,vertical,vertical
2a,22,100284,1,7,7,25,F,NA,variable,heterogeneous,4,absent,1.9433798789978,1,horizontal,horizontal,1,2,red,4,NaN,619.68777079743,780.31222920257,NaN,NaN,980.31222920257,780.31222920257,980.31222920257,419.68777079743,619.68777079743,419.68777079743,619.68777079743,780.31222920257,5,6,3,4,vertical,vertical,vertical,horizontal
2a,22,100284,1,8,8,25,F,NA,variable,heterogeneous,4,absent,1.15077304840088,1,horizontal,horizontal,1,5,red,1,NaN,980.31222920257,780.31222920257,NaN,NaN,980.31222920257,780.31222920257,980.31222920257,419.68777079743,619.68777079743,419.68777079743,619.68777079743,780.31222920257,4,5,6,0,horizontal,horizontal,horizontal,vertical
2a,22,100284,1,9,9,25,F,NA,variable,heterogeneous,4,absent,0.949656963348389,1,vertical,vertical,1,3,red,4,NaN,619.68777079743,780.31222920257,NaN,NaN,980.31222920257,780.31222920257,980.31222920257,419.68777079743,619.68777079743,419.68777079743,619.68777079743,780.31222920257,6,0,5,4,horizontal,horizontal,horizontal,vertical
2a,22,100284,1,10,10,25,F,NA,variable,heterogeneous,4,absent,0.988903999328613,1,horizontal,horizontal,1,2,green,2,NaN,980.31222920257,419.68777079743,NaN,NaN,980.31222920257,780.31222920257,980.31222920257,419.68777079743,619.68777079743,419.68777079743,619.68777079743,780.31222920257,0,4,5,6,vertical,horizontal,vertical,vertical
2a,22,100284,1,11,11,25,F,NA,variable,heterogeneous,4,absent,0.924832105636597,1,horizontal,horizontal,1,3,green,2,NaN,980.31222920257,419.68777079743,NaN,NaN,980.31222920257,780.31222920257,980.31222920257,419.68777079743,619.68777079743,419.68777079743,619.68777079743,780.31222920257,3,4,0,6,horizontal,horizontal,horizontal,vertical
2a,22,100284,1,12,12,25,F,NA,variable,heterogeneous,4,absent,1.50749182701111,1,vertical,vertical,1,5,red,3,NaN,619.68777079743,419.68777079743,NaN,NaN,980.31222920257,780.31222920257,980.31222920257,419.68777079743,619.68777079743,419.68777079743,619.68777079743,780.31222920257,5,0,4,3,horizontal,horizontal,vertical,vertical
2a,22,100284,1,13,13,25,F,NA,variable,heterogeneous,4,present,1.79822993278503,0,horizontal,vertical,1,8,red,2,3,980.31222920257,419.68777079743,619.68777079743,419.68777079743,980.31222920257,780.31222920257,980.31222920257,419.68777079743,619.68777079743,419.68777079743,619.68777079743,780.31222920257,3,4,5,6,vertical,horizontal,vertical,vertical
2a,22,100284,1,14,14,25,F,NA,variable,heterogeneous,4,present,1.37452387809753,1,vertical,vertical,1,2,green,3,1,619.68777079743,419.68777079743,980.31222920257,780.31222920257,980.31222920257,780.31222920257,980.31222920257,419.68777079743,619.68777079743,419.68777079743,619.68777079743,780.31222920257,0,3,4,5,horizontal,horizontal,vertical,vertical
2a,22,100284,1,15,15,25,F,NA,variable,heterogeneous,4,absent,1.55007600784302,1,horizontal,horizontal,1,2,red,2,NaN,980.31222920257,419.68777079743,NaN,NaN,980.31222920257,780.31222920257,980.31222920257,419.68777079743,619.68777079743,419.68777079743,619.68777079743,780.31222920257,5,4,3,6,horizontal,horizontal,horizontal,vertical
2a,22,100284,1,16,16,25,F,NA,variable,heterogeneous,4,absent,1.33287000656128,1,vertical,vertical,1,3,red,1,NaN,980.31222920257,780.31222920257,NaN,NaN,980.31222920257,780.31222920257,980.31222920257,419.68777079743,619.68777079743,419.68777079743,619.68777079743,780.31222920257,4,0,6,3,vertical,vertical,vertical,vertical
2a,22,100284,1,17,17,25,F,NA,variable,heterogeneous,4,present,1.10372400283813,1,vertical,vertical,1,3,green,1,3,980.31222920257,780.31222920257,619.68777079743,419.68777079743,980.31222920257,780.31222920257,980.31222920257,419.68777079743,619.68777079743,419.68777079743,619.68777079743,780.31222920257,4,3,5,6,vertical,vertical,vertical,vertical
2a,22,100284,1,18,18,25,F,NA,variable,heterogeneous,4,absent,1.78201222419739,1,horizontal,horizontal,1,5,green,3,NaN,619.68777079743,419.68777079743,NaN,NaN,980.31222920257,780.31222920257,980.31222920257,419.68777079743,619.68777079743,419.68777079743,619.68777079743,780.31222920257,5,6,4,3,vertical,vertical,horizontal,horizontal
2a,22,100284,1,19,19,25,F,NA,variable,heterogeneous,4,absent,1.05003023147583,1,vertical,vertical,1,2,red,1,NaN,980.31222920257,780.31222920257,NaN,NaN,980.31222920257,780.31222920257,980.31222920257,419.68777079743,619.68777079743,419.68777079743,619.68777079743,780.31222920257,4,0,3,6,vertical,horizontal,horizontal,horizontal
2a,22,100284,1,20,20,25,F,NA,variable,heterogeneous,4,absent,0.983387231826782,1,vertical,vertical,1,8,green,4,NaN,619.68777079743,780.31222920257,NaN,NaN,980.31222920257,780.31222920257,980.31222920257,419.68777079743,619.68777079743,419.68777079743,619.68777079743,780.31222920257,5,0,6,4,horizontal,horizontal,horizontal,vertical
2a,22,100284,1,21,21,25,F,NA,variable,heterogeneous,4,present,1.43520903587341,1,vertical,vertical,1,2,green,3,2,619.68777079743,419.68777079743,980.31222920257,419.68777079743,980.31222920257,780.31222920257,980.31222920257,419.68777079743,619.68777079743,419.68777079743,619.68777079743,780.31222920257,3,5,4,6,horizontal,horizontal,vertical,horizontal
2a,22,100284,1,22,22,25,F,NA,variable,heterogeneous,4,present,0.892194032669067,1,vertical,vertical,1,5,red,2,1,980.31222920257,419.68777079743,980.31222920257,780.31222920257,980.31222920257,780.31222920257,980.31222920257,419.68777079743,619.68777079743,419.68777079743,619.68777079743,780.31222920257,3,4,0,6,horizontal,vertical,horizontal,vertical
2a,22,100284,1,23,23,25,F,NA,variable,heterogeneous,4,present,NaN,0,horizontal,none,0,5,red,3,2,619.68777079743,419.68777079743,980.31222920257,419.68777079743,980.31222920257,780.31222920257,980.31222920257,419.68777079743,619.68777079743,419.68777079743,619.68777079743,780.31222920257,0,3,4,6,horizontal,horizontal,horizontal,vertical
2a,22,100284,1,24,24,25,F,NA,variable,heterogeneous,4,present,1.00240802764893,0,vertical,horizontal,1,8,green,3,1,619.68777079743,419.68777079743,980.31222920257,780.31222920257,980.31222920257,780.31222920257,980.31222920257,419.68777079743,619.68777079743,419.68777079743,619.68777079743,780.31222920257,0,6,4,5,vertical,horizontal,vertical,horizontal
2a,22,100284,1,25,25,25,F,NA,variable,heterogeneous,4,present,1.15076398849487,1,horizontal,horizontal,1,3,red,3,1,619.68777079743,419.68777079743,980.31222920257,780.31222920257,980.31222920257,780.31222920257,980.31222920257,419.68777079743,619.68777079743,419.68777079743,619.68777079743,780.31222920257,6,0,4,5,horizontal,horizontal,horizontal,horizontal
2a,22,100284,1,26,26,25,F,NA,variable,heterogeneous,4,present,1.50998401641846,1,horizontal,horizontal,1,5,red,2,1,980.31222920257,419.68777079743,980.31222920257,780.31222920257,980.31222920257,780.31222920257,980.31222920257,419.68777079743,619.68777079743,419.68777079743,619.68777079743,780.31222920257,3,4,5,0,vertical,horizontal,vertical,vertical
2a,22,100284,1,27,27,25,F,NA,variable,heterogeneous,4,present,1.46450805664062,1,horizontal,horizontal,1,2,red,3,1,619.68777079743,419.68777079743,980.31222920257,780.31222920257,980.31222920257,780.31222920257,980.31222920257,419.68777079743,619.68777079743,419.68777079743,619.68777079743,780.31222920257,3,5,4,0,vertical,vertical,horizontal,vertical
2a,22,100284,1,28,28,25,F,NA,variable,heterogeneous,4,absent,1.03396487236023,1,vertical,vertical,1,2,red,1,NaN,980.31222920257,780.31222920257,NaN,NaN,980.31222920257,780.31222920257,980.31222920257,419.68777079743,619.68777079743,419.68777079743,619.68777079743,780.31222920257,4,3,0,6,vertical,horizontal,horizontal,vertical
2a,22,100284,1,29,29,25,F,NA,variable,heterogeneous,4,absent,1.10661506652832,1,horizontal,horizontal,1,8,red,1,NaN,980.31222920257,780.31222920257,NaN,NaN,980.31222920257,780.31222920257,980.31222920257,419.68777079743,619.68777079743,419.68777079743,619.68777079743,780.31222920257,4,3,0,5,horizontal,horizontal,vertical,horizontal
2a,22,100284,1,30,30,25,F,NA,variable,heterogeneous,4,absent,1.24543619155884,1,vertical,vertical,1,5,green,1,NaN,980.31222920257,780.31222920257,NaN,NaN,980.31222920257,780.31222920257,980.31222920257,419.68777079743,619.68777079743,419.68777079743,619.68777079743,780.31222920257,4,5,0,3,vertical,vertical,horizontal,horizontal
2a,22,100284,1,31,31,25,F,NA,variable,heterogeneous,4,present,1.60257005691528,1,vertical,vertical,1,2,red,3,1,619.68777079743,419.68777079743,980.31222920257,780.31222920257,980.31222920257,780.31222920257,980.31222920257,419.68777079743,619.68777079743,419.68777079743,619.68777079743,780.31222920257,0,6,4,3,horizontal,vertical,vertical,vertical
2a,22,100284,1,32,32,25,F,NA,variable,heterogeneous,4,present,1.67107605934143,1,horizontal,horizontal,1,2,green,1,2,980.31222920257,780.31222920257,980.31222920257,419.68777079743,980.31222920257,780.31222920257,980.31222920257,419.68777079743,619.68777079743,419.68777079743,619.68777079743,780.31222920257,4,6,5,3,horizontal,horizontal,vertical,horizontal
2a,22,100284,2,1,33,25,F,NA,variable,heterogeneous,4,absent,1.13380098342896,1,vertical,vertical,1,3,red,2,NaN,980.31222920257,419.68777079743,NaN,NaN,980.31222920257,780.31222920257,980.31222920257,419.68777079743,619.68777079743,419.68777079743,619.68777079743,780.31222920257,6,4,0,3,vertical,vertical,horizontal,vertical
2a,22,100284,2,2,34,25,F,NA,variable,heterogeneous,4,absent,1.36864590644836,1,horizontal,horizontal,1,2,green,2,NaN,980.31222920257,419.68777079743,NaN,NaN,980.31222920257,780.31222920257,980.31222920257,419.68777079743,619.68777079743,419.68777079743,619.68777079743,780.31222920257,0,4,5,3,vertical,horizontal,horizontal,horizontal
2a,22,100284,2,3,35,25,F,NA,variable,heterogeneous,4,present,1.25610899925232,1,horizontal,horizontal,1,2,green,3,1,619.68777079743,419.68777079743,980.31222920257,780.31222920257,980.31222920257,780.31222920257,980.31222920257,419.68777079743,619.68777079743,419.68777079743,619.68777079743,780.31222920257,5,3,4,0,vertical,horizontal,horizontal,vertical
2a,22,100284,2,4,36,25,F,NA,variable,heterogeneous,4,present,0.885447025299072,1,vertical,vertical,1,5,red,2,4,980.31222920257,419.68777079743,619.68777079743,780.31222920257,980.31222920257,780.31222920257,980.31222920257,419.68777079743,619.68777079743,419.68777079743,619.68777079743,780.31222920257,0,4,5,3,vertical,vertical,vertical,vertical
2a,22,100284,2,5,37,25,F,NA,variable,heterogeneous,4,absent,0.711492776870728,1,vertical,vertical,1,2,red,2,NaN,980.31222920257,419.68777079743,NaN,NaN,980.31222920257,780.31222920257,980.31222920257,419.68777079743,619.68777079743,419.68777079743,619.68777079743,780.31222920257,6,4,5,0,horizontal,vertical,vertical,vertical
2a,22,100284,2,6,38,25,F,NA,variable,heterogeneous,4,absent,1.08974409103394,1,horizontal,horizontal,1,3,green,3,NaN,619.68777079743,419.68777079743,NaN,NaN,980.31222920257,780.31222920257,980.31222920257,419.68777079743,619.68777079743,419.68777079743,619.68777079743,780.31222920257,5,0,4,3,vertical,vertical,horizontal,horizontal
2a,22,100284,2,7,39,25,F,NA,variable,heterogeneous,4,present,1.4115629196167,1,horizontal,horizontal,1,3,red,3,4,619.68777079743,419.68777079743,619.68777079743,780.31222920257,980.31222920257,780.31222920257,980.31222920257,419.68777079743,619.68777079743,419.68777079743,619.68777079743,780.31222920257,6,0,4,3,horizontal,vertical,horizontal,horizontal
2a,22,100284,2,8,40,25,F,NA,variable,heterogeneous,4,present,NaN,0,horizontal,none,0,2,green,1,3,980.31222920257,780.31222920257,619.68777079743,419.68777079743,980.31222920257,780.31222920257,980.31222920257,419.68777079743,619.68777079743,419.68777079743,619.68777079743,780.31222920257,4,5,3,0,horizontal,vertical,vertical,vertical
2a,22,100284,2,9,41,25,F,NA,variable,heterogeneous,4,absent,1.20866298675537,0,horizontal,vertical,1,2,green,1,NaN,980.31222920257,780.31222920257,NaN,NaN,980.31222920257,780.31222920257,980.31222920257,419.68777079743,619.68777079743,419.68777079743,619.68777079743,780.31222920257,4,6,5,3,horizontal,horizontal,horizontal,vertical
2a,22,100284,2,10,42,25,F,NA,variable,heterogeneous,4,present,1.66864681243896,1,vertical,vertical,1,3,green,4,1,619.68777079743,780.31222920257,980.31222920257,780.31222920257,980.31222920257,780.31222920257,980.31222920257,419.68777079743,619.68777079743,419.68777079743,619.68777079743,780.31222920257,3,0,6,4,horizontal,vertical,vertical,vertical
2a,22,100284,2,11,43,25,F,NA,variable,heterogeneous,4,present,1.79835605621338,1,horizontal,horizontal,1,5,green,1,4,980.31222920257,780.31222920257,619.68777079743,780.31222920257,980.31222920257,780.31222920257,980.31222920257,419.68777079743,619.68777079743,419.68777079743,619.68777079743,780.31222920257,4,3,5,0,horizontal,vertical,vertical,horizontal
2a,22,100284,2,12,44,25,F,NA,variable,heterogeneous,4,present,1.44278812408447,1,vertical,vertical,1,2,green,4,1,619.68777079743,780.31222920257,980.31222920257,780.31222920257,980.31222920257,780.31222920257,980.31222920257,419.68777079743,619.68777079743,419.68777079743,619.68777079743,780.31222920257,3,6,0,4,vertical,horizontal,horizontal,vertical
2a,22,100284,2,13,45,25,F,NA,variable,heterogeneous,4,absent,1.73179006576538,1,vertical,vertical,1,5,green,2,NaN,980.31222920257,419.68777079743,NaN,NaN,980.31222920257,780.31222920257,980.31222920257,419.68777079743,619.68777079743,419.68777079743,619.68777079743,780.31222920257,5,4,3,6,horizontal,vertical,horizontal,horizontal
2a,22,100284,2,14,46,25,F,NA,variable,heterogeneous,4,absent,NaN,0,vertical,none,0,3,green,2,NaN,980.31222920257,419.68777079743,NaN,NaN,980.31222920257,780.31222920257,980.31222920257,419.68777079743,619.68777079743,419.68777079743,619.68777079743,780.31222920257,3,4,6,5,vertical,vertical,vertical,vertical
2a,22,100284,2,15,47,25,F,NA,variable,heterogeneous,4,absent,1.37089204788208,1,horizontal,horizontal,1,3,green,2,NaN,980.31222920257,419.68777079743,NaN,NaN,980.31222920257,780.31222920257,980.31222920257,419.68777079743,619.68777079743,419.68777079743,619.68777079743,780.31222920257,6,4,3,0,vertical,horizontal,vertical,vertical
2a,22,100284,2,16,48,25,F,NA,variable,heterogeneous,4,absent,1.22663903236389,1,vertical,vertical,1,2,red,3,NaN,619.68777079743,419.68777079743,NaN,NaN,980.31222920257,780.31222920257,980.31222920257,419.68777079743,619.68777079743,419.68777079743,619.68777079743,780.31222920257,0,3,4,5,horizontal,vertical,vertical,horizontal
2a,22,100284,2,17,49,25,F,NA,variable,heterogeneous,4,absent,0.679297208786011,1,vertical,vertical,1,8,red,2,NaN,980.31222920257,419.68777079743,NaN,NaN,980.31222920257,780.31222920257,980.31222920257,419.68777079743,619.68777079743,419.68777079743,619.68777079743,780.31222920257,0,4,6,5,horizontal,vertical,horizontal,horizontal
2a,22,100284,2,18,50,25,F,NA,variable,heterogeneous,4,present,0.941020011901855,0,vertical,horizontal,1,2,green,4,3,619.68777079743,780.31222920257,619.68777079743,419.68777079743,980.31222920257,780.31222920257,980.31222920257,419.68777079743,619.68777079743,419.68777079743,619.68777079743,780.31222920257,5,0,3,4,horizontal,horizontal,horizontal,vertical
2a,22,100284,2,19,51,25,F,NA,variable,heterogeneous,4,absent,1.21211504936218,1,horizontal,horizontal,1,5,green,3,NaN,619.68777079743,419.68777079743,NaN,NaN,980.31222920257,780.31222920257,980.31222920257,419.68777079743,619.68777079743,419.68777079743,619.68777079743,780.31222920257,6,5,4,0,vertical,horizontal,horizontal,horizontal
2a,22,100284,2,20,52,25,F,NA,variable,heterogeneous,4,absent,0.900604009628296,1,vertical,vertical,1,2,green,3,NaN,619.68777079743,419.68777079743,NaN,NaN,980.31222920257,780.31222920257,980.31222920257,419.68777079743,619.68777079743,419.68777079743,619.68777079743,780.31222920257,5,0,4,3,vertical,horizontal,vertical,vertical
2a,22,100284,2,21,53,25,F,NA,variable,heterogeneous,4,present,1.4589159488678,0,horizontal,vertical,1,5,red,4,3,619.68777079743,780.31222920257,619.68777079743,419.68777079743,980.31222920257,780.31222920257,980.31222920257,419.68777079743,619.68777079743,419.68777079743,619.68777079743,780.31222920257,3,0,6,4,horizontal,horizontal,horizontal,horizontal
2a,22,100284,2,22,54,25,F,NA,variable,heterogeneous,4,present,1.15649604797363,1,vertical,vertical,1,8,green,1,3,980.31222920257,780.31222920257,619.68777079743,419.68777079743,980.31222920257,780.31222920257,980.31222920257,419.68777079743,619.68777079743,419.68777079743,619.68777079743,780.31222920257,4,5,3,6,vertical,horizontal,vertical,vertical
2a,22,100284,2,23,55,25,F,NA,variable,heterogeneous,4,absent,1.29576301574707,1,horizontal,horizontal,1,5,red,3,NaN,619.68777079743,419.68777079743,NaN,NaN,980.31222920257,780.31222920257,980.31222920257,419.68777079743,619.68777079743,419.68777079743,619.68777079743,780.31222920257,0,6,4,5,horizontal,vertical,horizontal,vertical
2a,22,100284,2,24,56,25,F,NA,variable,heterogeneous,4,present,1.27019095420837,1,horizontal,horizontal,1,8,red,2,4,980.31222920257,419.68777079743,619.68777079743,780.31222920257,980.31222920257,780.31222920257,980.31222920257,419.68777079743,619.68777079743,419.68777079743,619.68777079743,780.31222920257,3,4,0,6,horizontal,horizontal,vertical,horizontal
2a,22,100284,2,25,57,25,F,NA,variable,heterogeneous,4,present,1.21995687484741,1,horizontal,horizontal,1,2,red,1,4,980.31222920257,780.31222920257,619.68777079743,780.31222920257,980.31222920257,780.31222920257,980.31222920257,419.68777079743,619.68777079743,419.68777079743,619.68777079743,780.31222920257,4,3,0,6,horizontal,vertical,horizontal,vertical
2a,22,100284,2,26,58,25,F,NA,variable,heterogeneous,4,present,1.46840000152588,1,vertical,vertical,1,2,red,2,3,980.31222920257,419.68777079743,619.68777079743,419.68777079743,980.31222920257,780.31222920257,980.31222920257,419.68777079743,619.68777079743,419.68777079743,619.68777079743,780.31222920257,0,4,3,5,vertical,vertical,vertical,vertical
2a,22,100284,2,27,59,25,F,NA,variable,heterogeneous,4,present,0.997749090194702,1,vertical,vertical,1,5,red,1,4,980.31222920257,780.31222920257,619.68777079743,780.31222920257,980.31222920257,780.31222920257,980.31222920257,419.68777079743,619.68777079743,419.68777079743,619.68777079743,780.31222920257,4,5,6,0,vertical,horizontal,horizontal,vertical
2a,22,100284,2,28,60,25,F,NA,variable,heterogeneous,4,absent,1.02215886116028,1,horizontal,horizontal,1,2,green,3,NaN,619.68777079743,419.68777079743,NaN,NaN,980.31222920257,780.31222920257,980.31222920257,419.68777079743,619.68777079743,419.68777079743,619.68777079743,780.31222920257,5,3,4,0,vertical,vertical,horizontal,horizontal
2a,22,100284,2,29,61,25,F,NA,variable,heterogeneous,4,present,0.858606100082397,1,horizontal,horizontal,1,3,red,3,2,619.68777079743,419.68777079743,980.31222920257,419.68777079743,980.31222920257,780.31222920257,980.31222920257,419.68777079743,619.68777079743,419.68777079743,619.68777079743,780.31222920257,3,0,4,5,horizontal,horizontal,horizontal,horizontal
2a,22,100284,2,30,62,25,F,NA,variable,heterogeneous,4,absent,1.09221005439758,0,horizontal,vertical,1,8,red,4,NaN,619.68777079743,780.31222920257,NaN,NaN,980.31222920257,780.31222920257,980.31222920257,419.68777079743,619.68777079743,419.68777079743,619.68777079743,780.31222920257,0,6,3,4,vertical,horizontal,vertical,horizontal
2a,22,100284,2,31,63,25,F,NA,variable,heterogeneous,4,absent,1.01427507400513,1,vertical,vertical,1,5,red,3,NaN,619.68777079743,419.68777079743,NaN,NaN,980.31222920257,780.31222920257,980.31222920257,419.68777079743,619.68777079743,419.68777079743,619.68777079743,780.31222920257,3,0,4,6,horizontal,horizontal,vertical,horizontal
2a,22,100284,2,32,64,25,F,NA,variable,heterogeneous,4,present,1.26277995109558,1,vertical,vertical,1,3,red,3,1,619.68777079743,419.68777079743,980.31222920257,780.31222920257,980.31222920257,780.31222920257,980.31222920257,419.68777079743,619.68777079743,419.68777079743,619.68777079743,780.31222920257,3,0,4,5,horizontal,horizontal,vertical,vertical
2a,22,100284,3,1,65,25,F,NA,variable,heterogeneous,4,absent,0.914211988449097,1,horizontal,horizontal,1,5,green,3,NaN,619.68777079743,419.68777079743,NaN,NaN,980.31222920257,780.31222920257,980.31222920257,419.68777079743,619.68777079743,419.68777079743,619.68777079743,780.31222920257,6,0,4,3,horizontal,horizontal,horizontal,horizontal
2a,22,100284,3,2,66,25,F,NA,variable,heterogeneous,4,present,0.596461057662964,1,horizontal,horizontal,1,3,green,3,4,619.68777079743,419.68777079743,619.68777079743,780.31222920257,980.31222920257,780.31222920257,980.31222920257,419.68777079743,619.68777079743,419.68777079743,619.68777079743,780.31222920257,5,0,4,3,horizontal,vertical,horizontal,horizontal
2a,22,100284,3,3,67,25,F,NA,variable,heterogeneous,4,absent,1.05286884307861,1,vertical,vertical,1,2,green,4,NaN,619.68777079743,780.31222920257,NaN,NaN,980.31222920257,780.31222920257,980.31222920257,419.68777079743,619.68777079743,419.68777079743,619.68777079743,780.31222920257,3,6,0,4,vertical,horizontal,horizontal,vertical
2a,22,100284,3,4,68,25,F,NA,variable,heterogeneous,4,present,1.44975399971008,1,horizontal,horizontal,1,2,red,3,4,619.68777079743,419.68777079743,619.68777079743,780.31222920257,980.31222920257,780.31222920257,980.31222920257,419.68777079743,619.68777079743,419.68777079743,619.68777079743,780.31222920257,0,3,4,6,vertical,horizontal,horizontal,horizontal
2a,22,100284,3,5,69,25,F,NA,variable,heterogeneous,4,present,1.06338000297546,1,horizontal,horizontal,1,8,green,1,4,980.31222920257,780.31222920257,619.68777079743,780.31222920257,980.31222920257,780.31222920257,980.31222920257,419.68777079743,619.68777079743,419.68777079743,619.68777079743,780.31222920257,4,6,5,0,horizontal,vertical,vertical,horizontal
2a,22,100284,3,6,70,25,F,NA,variable,heterogeneous,4,present,0.904875993728638,1,horizontal,horizontal,1,2,green,1,3,980.31222920257,780.31222920257,619.68777079743,419.68777079743,980.31222920257,780.31222920257,980.31222920257,419.68777079743,619.68777079743,419.68777079743,619.68777079743,780.31222920257,4,6,0,5,horizontal,horizontal,horizontal,vertical
2a,22,100284,3,7,71,25,F,NA,variable,heterogeneous,4,absent,1.79503297805786,1,horizontal,horizontal,1,2,red,1,NaN,980.31222920257,780.31222920257,NaN,NaN,980.31222920257,780.31222920257,980.31222920257,419.68777079743,619.68777079743,419.68777079743,619.68777079743,780.31222920257,4,5,6,0,horizontal,vertical,vertical,horizontal
2a,22,100284,3,8,72,25,F,NA,variable,heterogeneous,4,present,0.907305955886841,1,vertical,vertical,1,2,green,2,4,980.31222920257,419.68777079743,619.68777079743,780.31222920257,980.31222920257,780.31222920257,980.31222920257,419.68777079743,619.68777079743,419.68777079743,619.68777079743,780.31222920257,0,4,6,3,horizontal,vertical,horizontal,horizontal
2a,22,100284,3,9,73,25,F,NA,variable,heterogeneous,4,present,0.989642143249512,1,horizontal,horizontal,1,5,red,2,4,980.31222920257,419.68777079743,619.68777079743,780.31222920257,980.31222920257,780.31222920257,980.31222920257,419.68777079743,619.68777079743,419.68777079743,619.68777079743,780.31222920257,0,4,5,6,horizontal,horizontal,horizontal,vertical
2a,22,100284,3,10,74,25,F,NA,variable,heterogeneous,4,absent,0.998046159744263,1,horizontal,horizontal,1,2,green,1,NaN,980.31222920257,780.31222920257,NaN,NaN,980.31222920257,780.31222920257,980.31222920257,419.68777079743,619.68777079743,419.68777079743,619.68777079743,780.31222920257,4,3,5,0,horizontal,horizontal,horizontal,horizontal
2a,22,100284,3,11,75,25,F,NA,variable,heterogeneous,4,absent,0.62965202331543,1,vertical,vertical,1,3,red,1,NaN,980.31222920257,780.31222920257,NaN,NaN,980.31222920257,780.31222920257,980.31222920257,419.68777079743,619.68777079743,419.68777079743,619.68777079743,780.31222920257,4,5,3,0,vertical,vertical,vertical,horizontal
2a,22,100284,3,12,76,25,F,NA,variable,heterogeneous,4,present,0.994592189788818,1,vertical,vertical,1,3,red,4,2,619.68777079743,780.31222920257,980.31222920257,419.68777079743,980.31222920257,780.31222920257,980.31222920257,419.68777079743,619.68777079743,419.68777079743,619.68777079743,780.31222920257,0,6,3,4,horizontal,vertical,horizontal,vertical
2a,22,100284,3,13,77,25,F,NA,variable,heterogeneous,4,present,0.946542024612427,1,vertical,vertical,1,3,red,3,1,619.68777079743,419.68777079743,980.31222920257,780.31222920257,980.31222920257,780.31222920257,980.31222920257,419.68777079743,619.68777079743,419.68777079743,619.68777079743,780.31222920257,6,0,4,3,vertical,horizontal,vertical,horizontal
2a,22,100284,3,14,78,25,F,NA,variable,heterogeneous,4,absent,0.721801996231079,1,vertical,vertical,1,5,red,3,NaN,619.68777079743,419.68777079743,NaN,NaN,980.31222920257,780.31222920257,980.31222920257,419.68777079743,619.68777079743,419.68777079743,619.68777079743,780.31222920257,5,6,4,0,vertical,horizontal,vertical,vertical
2a,22,100284,3,15,79,25,F,NA,variable,heterogeneous,4,absent,0.896440982818604,0,horizontal,vertical,1,3,red,1,NaN,980.31222920257,780.31222920257,NaN,NaN,980.31222920257,780.31222920257,980.31222920257,419.68777079743,619.68777079743,419.68777079743,619.68777079743,780.31222920257,4,0,6,5,horizontal,horizontal,horizontal,vertical
2a,22,100284,3,16,80,25,F,NA,variable,heterogeneous,4,present,1.21447610855103,1,vertical,vertical,1,5,red,2,1,980.31222920257,419.68777079743,980.31222920257,780.31222920257,980.31222920257,780.31222920257,980.31222920257,419.68777079743,619.68777079743,419.68777079743,619.68777079743,780.31222920257,6,4,5,3,vertical,vertical,vertical,vertical
2a,22,100284,3,17,81,25,F,NA,variable,heterogeneous,4,absent,1.15135097503662,1,vertical,vertical,1,3,green,4,NaN,619.68777079743,780.31222920257,NaN,NaN,980.31222920257,780.31222920257,980.31222920257,419.68777079743,619.68777079743,419.68777079743,619.68777079743,780.31222920257,3,0,5,4,vertical,vertical,horizontal,vertical
2a,22,100284,3,18,82,25,F,NA,variable,heterogeneous,4,absent,0.830559015274048,1,horizontal,horizontal,1,8,green,4,NaN,619.68777079743,780.31222920257,NaN,NaN,980.31222920257,780.31222920257,980.31222920257,419.68777079743,619.68777079743,419.68777079743,619.68777079743,780.31222920257,6,3,0,4,horizontal,horizontal,horizontal,horizontal
2a,22,100284,3,19,83,25,F,NA,variable,heterogeneous,4,absent,1.26708602905273,1,vertical,vertical,1,5,green,2,NaN,980.31222920257,419.68777079743,NaN,NaN,980.31222920257,780.31222920257,980.31222920257,419.68777079743,619.68777079743,419.68777079743,619.68777079743,780.31222920257,5,4,0,3,horizontal,vertical,horizontal,vertical
2a,22,100284,3,20,84,25,F,NA,variable,heterogeneous,4,present,1.31668400764465,1,horizontal,horizontal,1,5,red,1,2,980.31222920257,780.31222920257,980.31222920257,419.68777079743,980.31222920257,780.31222920257,980.31222920257,419.68777079743,619.68777079743,419.68777079743,619.68777079743,780.31222920257,4,5,3,0,horizontal,horizontal,horizontal,vertical
2a,22,100284,3,21,85,25,F,NA,variable,heterogeneous,4,present,1.04343414306641,1,vertical,vertical,1,8,red,4,2,619.68777079743,780.31222920257,980.31222920257,419.68777079743,980.31222920257,780.31222920257,980.31222920257,419.68777079743,619.68777079743,419.68777079743,619.68777079743,780.31222920257,3,0,6,4,vertical,horizontal,vertical,vertical
2a,22,100284,3,22,86,25,F,NA,variable,heterogeneous,4,present,0.788304805755615,1,vertical,vertical,1,5,red,1,3,980.31222920257,780.31222920257,619.68777079743,419.68777079743,980.31222920257,780.31222920257,980.31222920257,419.68777079743,619.68777079743,419.68777079743,619.68777079743,780.31222920257,4,0,5,6,vertical,vertical,vertical,horizontal
2a,22,100284,3,23,87,25,F,NA,variable,heterogeneous,4,present,1.06861710548401,1,horizontal,horizontal,1,3,green,1,4,980.31222920257,780.31222920257,619.68777079743,780.31222920257,980.31222920257,780.31222920257,980.31222920257,419.68777079743,619.68777079743,419.68777079743,619.68777079743,780.31222920257,4,3,0,6,horizontal,vertical,horizontal,horizontal
2a,22,100284,3,24,88,25,F,NA,variable,heterogeneous,4,present,0.958136081695557,1,vertical,vertical,1,2,green,2,3,980.31222920257,419.68777079743,619.68777079743,419.68777079743,980.31222920257,780.31222920257,980.31222920257,419.68777079743,619.68777079743,419.68777079743,619.68777079743,780.31222920257,0,4,6,5,vertical,vertical,horizontal,horizontal
2a,22,100284,3,25,89,25,F,NA,variable,heterogeneous,4,absent,1.52131295204163,1,horizontal,horizontal,1,5,red,4,NaN,619.68777079743,780.31222920257,NaN,NaN,980.31222920257,780.31222920257,980.31222920257,419.68777079743,619.68777079743,419.68777079743,619.68777079743,780.31222920257,0,5,3,4,vertical,vertical,vertical,horizontal
2a,22,100284,3,26,90,25,F,NA,variable,heterogeneous,4,absent,0.823925971984863,1,horizontal,horizontal,1,2,green,4,NaN,619.68777079743,780.31222920257,NaN,NaN,980.31222920257,780.31222920257,980.31222920257,419.68777079743,619.68777079743,419.68777079743,619.68777079743,780.31222920257,5,6,3,4,vertical,vertical,vertical,horizontal
2a,22,100284,3,27,91,25,F,NA,variable,heterogeneous,4,absent,0.868947982788086,1,vertical,vertical,1,2,red,4,NaN,619.68777079743,780.31222920257,NaN,NaN,980.31222920257,780.31222920257,980.31222920257,419.68777079743,619.68777079743,419.68777079743,619.68777079743,780.31222920257,3,6,0,4,horizontal,vertical,horizontal,vertical
2a,22,100284,3,28,92,25,F,NA,variable,heterogeneous,4,present,1.79035806655884,1,horizontal,horizontal,1,2,red,3,4,619.68777079743,419.68777079743,619.68777079743,780.31222920257,980.31222920257,780.31222920257,980.31222920257,419.68777079743,619.68777079743,419.68777079743,619.68777079743,780.31222920257,0,6,4,3,horizontal,horizontal,horizontal,horizontal
2a,22,100284,3,29,93,25,F,NA,variable,heterogeneous,4,absent,0.870373010635376,1,vertical,vertical,1,2,green,3,NaN,619.68777079743,419.68777079743,NaN,NaN,980.31222920257,780.31222920257,980.31222920257,419.68777079743,619.68777079743,419.68777079743,619.68777079743,780.31222920257,3,0,4,6,vertical,vertical,vertical,vertical
2a,22,100284,3,30,94,25,F,NA,variable,heterogeneous,4,present,0.724345207214355,1,vertical,vertical,1,2,red,4,1,619.68777079743,780.31222920257,980.31222920257,780.31222920257,980.31222920257,780.31222920257,980.31222920257,419.68777079743,619.68777079743,419.68777079743,619.68777079743,780.31222920257,5,6,0,4,vertical,vertical,vertical,vertical
2a,22,100284,3,31,95,25,F,NA,variable,heterogeneous,4,absent,1.41079497337341,1,horizontal,horizontal,1,3,red,3,NaN,619.68777079743,419.68777079743,NaN,NaN,980.31222920257,780.31222920257,980.31222920257,419.68777079743,619.68777079743,419.68777079743,619.68777079743,780.31222920257,6,5,4,3,vertical,horizontal,horizontal,horizontal
2a,22,100284,3,32,96,25,F,NA,variable,heterogeneous,4,absent,0.755302906036377,1,vertical,vertical,1,8,red,3,NaN,619.68777079743,419.68777079743,NaN,NaN,980.31222920257,780.31222920257,980.31222920257,419.68777079743,619.68777079743,419.68777079743,619.68777079743,780.31222920257,6,3,4,5,vertical,vertical,vertical,vertical
2a,22,100284,4,1,97,25,F,NA,variable,heterogeneous,4,absent,1.27450799942017,1,vertical,vertical,1,2,red,3,NaN,619.68777079743,419.68777079743,NaN,NaN,980.31222920257,780.31222920257,980.31222920257,419.68777079743,619.68777079743,419.68777079743,619.68777079743,780.31222920257,3,5,4,0,horizontal,vertical,vertical,horizontal
2a,22,100284,4,2,98,25,F,NA,variable,heterogeneous,4,absent,0.872233867645264,1,horizontal,horizontal,1,2,green,2,NaN,980.31222920257,419.68777079743,NaN,NaN,980.31222920257,780.31222920257,980.31222920257,419.68777079743,619.68777079743,419.68777079743,619.68777079743,780.31222920257,3,4,6,5,horizontal,horizontal,horizontal,vertical
2a,22,100284,4,3,99,25,F,NA,variable,heterogeneous,4,present,0.749879121780396,1,horizontal,horizontal,1,3,green,2,3,980.31222920257,419.68777079743,619.68777079743,419.68777079743,980.31222920257,780.31222920257,980.31222920257,419.68777079743,619.68777079743,419.68777079743,619.68777079743,780.31222920257,5,4,6,0,horizontal,horizontal,horizontal,horizontal
2a,22,100284,4,4,100,25,F,NA,variable,heterogeneous,4,present,1.22095108032227,1,horizontal,horizontal,1,3,red,1,2,980.31222920257,780.31222920257,980.31222920257,419.68777079743,980.31222920257,780.31222920257,980.31222920257,419.68777079743,619.68777079743,419.68777079743,619.68777079743,780.31222920257,4,6,0,3,horizontal,horizontal,horizontal,vertical
2a,22,100284,4,5,101,25,F,NA,variable,heterogeneous,4,absent,0.885483026504517,1,horizontal,horizontal,1,3,red,3,NaN,619.68777079743,419.68777079743,NaN,NaN,980.31222920257,780.31222920257,980.31222920257,419.68777079743,619.68777079743,419.68777079743,619.68777079743,780.31222920257,3,0,4,6,horizontal,horizontal,horizontal,horizontal
2a,22,100284,4,6,102,25,F,NA,variable,heterogeneous,4,absent,1.05551791191101,1,horizontal,horizontal,1,3,green,1,NaN,980.31222920257,780.31222920257,NaN,NaN,980.31222920257,780.31222920257,980.31222920257,419.68777079743,619.68777079743,419.68777079743,619.68777079743,780.31222920257,4,5,6,3,horizontal,horizontal,vertical,vertical
2a,22,100284,4,7,103,25,F,NA,variable,heterogeneous,4,present,0.740657091140747,1,vertical,vertical,1,5,red,2,3,980.31222920257,419.68777079743,619.68777079743,419.68777079743,980.31222920257,780.31222920257,980.31222920257,419.68777079743,619.68777079743,419.68777079743,619.68777079743,780.31222920257,6,4,0,3,horizontal,vertical,horizontal,vertical
2a,22,100284,4,8,104,25,F,NA,variable,heterogeneous,4,present,1.27583408355713,1,horizontal,horizontal,1,5,green,3,4,619.68777079743,419.68777079743,619.68777079743,780.31222920257,980.31222920257,780.31222920257,980.31222920257,419.68777079743,619.68777079743,419.68777079743,619.68777079743,780.31222920257,0,6,4,5,horizontal,horizontal,horizontal,vertical
2a,22,100284,4,9,105,25,F,NA,variable,heterogeneous,4,absent,1.26598191261292,1,vertical,vertical,1,5,green,3,NaN,619.68777079743,419.68777079743,NaN,NaN,980.31222920257,780.31222920257,980.31222920257,419.68777079743,619.68777079743,419.68777079743,619.68777079743,780.31222920257,0,5,4,3,horizontal,horizontal,vertical,horizontal
2a,22,100284,4,10,106,25,F,NA,variable,heterogeneous,4,absent,0.827101945877075,1,vertical,vertical,1,2,red,3,NaN,619.68777079743,419.68777079743,NaN,NaN,980.31222920257,780.31222920257,980.31222920257,419.68777079743,619.68777079743,419.68777079743,619.68777079743,780.31222920257,5,3,4,6,horizontal,vertical,vertical,vertical
2a,22,100284,4,11,107,25,F,NA,variable,heterogeneous,4,absent,0.560060024261475,1,vertical,vertical,1,3,red,1,NaN,980.31222920257,780.31222920257,NaN,NaN,980.31222920257,780.31222920257,980.31222920257,419.68777079743,619.68777079743,419.68777079743,619.68777079743,780.31222920257,4,0,5,6,vertical,vertical,horizontal,horizontal
2a,22,100284,4,12,108,25,F,NA,variable,heterogeneous,4,absent,0.539547920227051,1,vertical,vertical,1,2,red,1,NaN,980.31222920257,780.31222920257,NaN,NaN,980.31222920257,780.31222920257,980.31222920257,419.68777079743,619.68777079743,419.68777079743,619.68777079743,780.31222920257,4,5,3,6,vertical,horizontal,horizontal,horizontal
2a,22,100284,4,13,109,25,F,NA,variable,heterogeneous,4,present,0.598197937011719,1,vertical,vertical,1,5,green,1,2,980.31222920257,780.31222920257,980.31222920257,419.68777079743,980.31222920257,780.31222920257,980.31222920257,419.68777079743,619.68777079743,419.68777079743,619.68777079743,780.31222920257,4,5,0,6,vertical,vertical,vertical,horizontal
2a,22,100284,4,14,110,25,F,NA,variable,heterogeneous,4,present,0.862622022628784,1,vertical,vertical,1,8,green,4,2,619.68777079743,780.31222920257,980.31222920257,419.68777079743,980.31222920257,780.31222920257,980.31222920257,419.68777079743,619.68777079743,419.68777079743,619.68777079743,780.31222920257,6,0,5,4,horizontal,vertical,horizontal,vertical
2a,22,100284,4,15,111,25,F,NA,variable,heterogeneous,4,present,0.791813135147095,1,vertical,vertical,1,2,red,2,1,980.31222920257,419.68777079743,980.31222920257,780.31222920257,980.31222920257,780.31222920257,980.31222920257,419.68777079743,619.68777079743,419.68777079743,619.68777079743,780.31222920257,0,4,6,5,horizontal,vertical,vertical,horizontal
2a,22,100284,4,16,112,25,F,NA,variable,heterogeneous,4,present,1.4800751209259,1,horizontal,horizontal,1,2,red,3,1,619.68777079743,419.68777079743,980.31222920257,780.31222920257,980.31222920257,780.31222920257,980.31222920257,419.68777079743,619.68777079743,419.68777079743,619.68777079743,780.31222920257,6,3,4,5,horizontal,vertical,horizontal,vertical
2a,22,100284,4,17,113,25,F,NA,variable,heterogeneous,4,present,1.02164101600647,1,horizontal,horizontal,1,2,red,2,1,980.31222920257,419.68777079743,980.31222920257,780.31222920257,980.31222920257,780.31222920257,980.31222920257,419.68777079743,619.68777079743,419.68777079743,619.68777079743,780.31222920257,0,4,6,5,horizontal,horizontal,horizontal,vertical
2a,22,100284,4,18,114,25,F,NA,variable,heterogeneous,4,absent,0.758122205734253,1,vertical,vertical,1,3,red,1,NaN,980.31222920257,780.31222920257,NaN,NaN,980.31222920257,780.31222920257,980.31222920257,419.68777079743,619.68777079743,419.68777079743,619.68777079743,780.31222920257,4,0,6,5,vertical,horizontal,vertical,vertical
2a,22,100284,4,19,115,25,F,NA,variable,heterogeneous,4,present,0.937538146972656,1,horizontal,horizontal,1,8,red,2,4,980.31222920257,419.68777079743,619.68777079743,780.31222920257,980.31222920257,780.31222920257,980.31222920257,419.68777079743,619.68777079743,419.68777079743,619.68777079743,780.31222920257,3,4,0,5,vertical,horizontal,vertical,vertical
2a,22,100284,4,20,116,25,F,NA,variable,heterogeneous,4,present,0.940394878387451,1,vertical,vertical,1,2,green,3,2,619.68777079743,419.68777079743,980.31222920257,419.68777079743,980.31222920257,780.31222920257,980.31222920257,419.68777079743,619.68777079743,419.68777079743,619.68777079743,780.31222920257,5,0,4,6,horizontal,vertical,vertical,vertical
2a,22,100284,4,21,117,25,F,NA,variable,heterogeneous,4,absent,1.68375515937805,1,horizontal,horizontal,1,8,red,2,NaN,980.31222920257,419.68777079743,NaN,NaN,980.31222920257,780.31222920257,980.31222920257,419.68777079743,619.68777079743,419.68777079743,619.68777079743,780.31222920257,3,4,0,5,horizontal,horizontal,vertical,horizontal
2a,22,100284,4,22,118,25,F,NA,variable,heterogeneous,4,absent,0.645653963088989,1,vertical,vertical,1,8,red,1,NaN,980.31222920257,780.31222920257,NaN,NaN,980.31222920257,780.31222920257,980.31222920257,419.68777079743,619.68777079743,419.68777079743,619.68777079743,780.31222920257,4,0,5,6,vertical,vertical,horizontal,vertical
2a,22,100284,4,23,119,25,F,NA,variable,heterogeneous,4,absent,1.21908903121948,1,horizontal,horizontal,1,2,red,2,NaN,980.31222920257,419.68777079743,NaN,NaN,980.31222920257,780.31222920257,980.31222920257,419.68777079743,619.68777079743,419.68777079743,619.68777079743,780.31222920257,5,4,0,6,vertical,horizontal,vertical,horizontal
2a,22,100284,4,24,120,25,F,NA,variable,heterogeneous,4,present,1.40336608886719,1,horizontal,horizontal,1,2,green,1,2,980.31222920257,780.31222920257,980.31222920257,419.68777079743,980.31222920257,780.31222920257,980.31222920257,419.68777079743,619.68777079743,419.68777079743,619.68777079743,780.31222920257,4,3,6,0,horizontal,vertical,vertical,horizontal
2a,22,100284,4,25,121,25,F,NA,variable,heterogeneous,4,present,0.791696071624756,1,vertical,vertical,1,2,red,2,4,980.31222920257,419.68777079743,619.68777079743,780.31222920257,980.31222920257,780.31222920257,980.31222920257,419.68777079743,619.68777079743,419.68777079743,619.68777079743,780.31222920257,6,4,3,5,vertical,vertical,vertical,vertical
2a,22,100284,4,26,122,25,F,NA,variable,heterogeneous,4,absent,0.863641023635864,1,vertical,vertical,1,5,green,1,NaN,980.31222920257,780.31222920257,NaN,NaN,980.31222920257,780.31222920257,980.31222920257,419.68777079743,619.68777079743,419.68777079743,619.68777079743,780.31222920257,4,0,5,6,vertical,vertical,horizontal,horizontal
2a,22,100284,4,27,123,25,F,NA,variable,heterogeneous,4,absent,1.66527891159058,0,horizontal,vertical,1,5,red,2,NaN,980.31222920257,419.68777079743,NaN,NaN,980.31222920257,780.31222920257,980.31222920257,419.68777079743,619.68777079743,419.68777079743,619.68777079743,780.31222920257,0,4,6,3,horizontal,horizontal,vertical,horizontal
2a,22,100284,4,28,124,25,F,NA,variable,heterogeneous,4,absent,0.834833145141602,1,horizontal,horizontal,1,5,red,1,NaN,980.31222920257,780.31222920257,NaN,NaN,980.31222920257,780.31222920257,980.31222920257,419.68777079743,619.68777079743,419.68777079743,619.68777079743,780.31222920257,4,0,5,6,horizontal,vertical,horizontal,vertical
2a,22,100284,4,29,125,25,F,NA,variable,heterogeneous,4,present,1.08369493484497,1,vertical,vertical,1,3,green,1,2,980.31222920257,780.31222920257,980.31222920257,419.68777079743,980.31222920257,780.31222920257,980.31222920257,419.68777079743,619.68777079743,419.68777079743,619.68777079743,780.31222920257,4,3,0,5,vertical,vertical,horizontal,vertical
2a,22,100284,4,30,126,25,F,NA,variable,heterogeneous,4,present,0.829885005950928,0,vertical,horizontal,1,3,red,4,1,619.68777079743,780.31222920257,980.31222920257,780.31222920257,980.31222920257,780.31222920257,980.31222920257,419.68777079743,619.68777079743,419.68777079743,619.68777079743,780.31222920257,5,0,3,4,horizontal,horizontal,horizontal,vertical
2a,22,100284,4,31,127,25,F,NA,variable,heterogeneous,4,absent,1.83443999290466,1,horizontal,horizontal,1,2,green,1,NaN,980.31222920257,780.31222920257,NaN,NaN,980.31222920257,780.31222920257,980.31222920257,419.68777079743,619.68777079743,419.68777079743,619.68777079743,780.31222920257,4,3,5,0,horizontal,horizontal,vertical,horizontal
2a,22,100284,4,32,128,25,F,NA,variable,heterogeneous,4,present,0.939720153808594,1,horizontal,horizontal,1,5,green,4,2,619.68777079743,780.31222920257,980.31222920257,419.68777079743,980.31222920257,780.31222920257,980.31222920257,419.68777079743,619.68777079743,419.68777079743,619.68777079743,780.31222920257,6,5,0,4,vertical,horizontal,vertical,horizontal
2a,22,100284,5,1,129,25,F,NA,variable,heterogeneous,4,absent,1.02400016784668,1,vertical,vertical,1,5,red,3,NaN,619.68777079743,419.68777079743,NaN,NaN,980.31222920257,780.31222920257,980.31222920257,419.68777079743,619.68777079743,419.68777079743,619.68777079743,780.31222920257,5,0,4,3,horizontal,vertical,vertical,horizontal
2a,22,100284,5,2,130,25,F,NA,variable,heterogeneous,4,present,0.980894088745117,1,vertical,vertical,1,2,red,1,4,980.31222920257,780.31222920257,619.68777079743,780.31222920257,980.31222920257,780.31222920257,980.31222920257,419.68777079743,619.68777079743,419.68777079743,619.68777079743,780.31222920257,4,0,6,3,vertical,horizontal,vertical,vertical
2a,22,100284,5,3,131,25,F,NA,variable,heterogeneous,4,present,1.24069213867188,1,horizontal,horizontal,1,2,red,4,1,619.68777079743,780.31222920257,980.31222920257,780.31222920257,980.31222920257,780.31222920257,980.31222920257,419.68777079743,619.68777079743,419.68777079743,619.68777079743,780.31222920257,3,5,6,4,vertical,horizontal,vertical,horizontal
2a,22,100284,5,4,132,25,F,NA,variable,heterogeneous,4,absent,0.953397035598755,1,vertical,vertical,1,2,green,1,NaN,980.31222920257,780.31222920257,NaN,NaN,980.31222920257,780.31222920257,980.31222920257,419.68777079743,619.68777079743,419.68777079743,619.68777079743,780.31222920257,4,0,5,3,vertical,vertical,vertical,horizontal
2a,22,100284,5,5,133,25,F,NA,variable,heterogeneous,4,present,1.14089393615723,1,horizontal,horizontal,1,2,red,2,4,980.31222920257,419.68777079743,619.68777079743,780.31222920257,980.31222920257,780.31222920257,980.31222920257,419.68777079743,619.68777079743,419.68777079743,619.68777079743,780.31222920257,3,4,5,6,horizontal,horizontal,horizontal,horizontal
2a,22,100284,5,6,134,25,F,NA,variable,heterogeneous,4,present,1.51627397537231,1,horizontal,horizontal,1,5,red,1,2,980.31222920257,780.31222920257,980.31222920257,419.68777079743,980.31222920257,780.31222920257,980.31222920257,419.68777079743,619.68777079743,419.68777079743,619.68777079743,780.31222920257,4,5,3,6,horizontal,horizontal,horizontal,horizontal
2a,22,100284,5,7,135,25,F,NA,variable,heterogeneous,4,present,0.794800043106079,1,vertical,vertical,1,5,red,3,4,619.68777079743,419.68777079743,619.68777079743,780.31222920257,980.31222920257,780.31222920257,980.31222920257,419.68777079743,619.68777079743,419.68777079743,619.68777079743,780.31222920257,6,3,4,0,vertical,vertical,vertical,horizontal
2a,22,100284,5,8,136,25,F,NA,variable,heterogeneous,4,absent,0.634866952896118,1,vertical,vertical,1,2,red,3,NaN,619.68777079743,419.68777079743,NaN,NaN,980.31222920257,780.31222920257,980.31222920257,419.68777079743,619.68777079743,419.68777079743,619.68777079743,780.31222920257,0,3,4,5,horizontal,horizontal,vertical,vertical
2a,22,100284,5,9,137,25,F,NA,variable,heterogeneous,4,present,0.587836027145386,1,vertical,vertical,1,3,red,2,3,980.31222920257,419.68777079743,619.68777079743,419.68777079743,980.31222920257,780.31222920257,980.31222920257,419.68777079743,619.68777079743,419.68777079743,619.68777079743,780.31222920257,6,4,5,3,vertical,vertical,vertical,horizontal
2a,22,100284,5,10,138,25,F,NA,variable,heterogeneous,4,absent,0.883852005004883,1,horizontal,horizontal,1,8,red,3,NaN,619.68777079743,419.68777079743,NaN,NaN,980.31222920257,780.31222920257,980.31222920257,419.68777079743,619.68777079743,419.68777079743,619.68777079743,780.31222920257,3,6,4,5,horizontal,horizontal,horizontal,horizontal
2a,22,100284,5,11,139,25,F,NA,variable,heterogeneous,4,present,0.637894153594971,1,horizontal,horizontal,1,5,red,3,4,619.68777079743,419.68777079743,619.68777079743,780.31222920257,980.31222920257,780.31222920257,980.31222920257,419.68777079743,619.68777079743,419.68777079743,619.68777079743,780.31222920257,6,3,4,0,horizontal,horizontal,horizontal,vertical
2a,22,100284,5,12,140,25,F,NA,variable,heterogeneous,4,absent,0.862928867340088,1,horizontal,horizontal,1,5,red,3,NaN,619.68777079743,419.68777079743,NaN,NaN,980.31222920257,780.31222920257,980.31222920257,419.68777079743,619.68777079743,419.68777079743,619.68777079743,780.31222920257,6,5,4,3,vertical,vertical,horizontal,horizontal
2a,22,100284,5,13,141,25,F,NA,variable,heterogeneous,4,present,0.832424879074097,1,vertical,vertical,1,3,red,4,3,619.68777079743,780.31222920257,619.68777079743,419.68777079743,980.31222920257,780.31222920257,980.31222920257,419.68777079743,619.68777079743,419.68777079743,619.68777079743,780.31222920257,6,5,3,4,vertical,horizontal,horizontal,vertical
2a,22,100284,5,14,142,25,F,NA,variable,heterogeneous,4,present,1.020840883255,1,horizontal,horizontal,1,2,red,4,3,619.68777079743,780.31222920257,619.68777079743,419.68777079743,980.31222920257,780.31222920257,980.31222920257,419.68777079743,619.68777079743,419.68777079743,619.68777079743,780.31222920257,3,0,6,4,horizontal,horizontal,vertical,horizontal
2a,22,100284,5,15,143,25,F,NA,variable,heterogeneous,4,absent,0.83763599395752,1,vertical,vertical,1,3,red,2,NaN,980.31222920257,419.68777079743,NaN,NaN,980.31222920257,780.31222920257,980.31222920257,419.68777079743,619.68777079743,419.68777079743,619.68777079743,780.31222920257,6,4,3,5,vertical,vertical,vertical,vertical
2a,22,100284,5,16,144,25,F,NA,variable,heterogeneous,4,present,1.21481990814209,1,horizontal,horizontal,1,3,green,3,1,619.68777079743,419.68777079743,980.31222920257,780.31222920257,980.31222920257,780.31222920257,980.31222920257,419.68777079743,619.68777079743,419.68777079743,619.68777079743,780.31222920257,0,3,4,6,vertical,horizontal,horizontal,vertical
2a,22,100284,5,17,145,25,F,NA,variable,heterogeneous,4,present,0.855357885360718,1,vertical,vertical,1,8,red,4,3,619.68777079743,780.31222920257,619.68777079743,419.68777079743,980.31222920257,780.31222920257,980.31222920257,419.68777079743,619.68777079743,419.68777079743,619.68777079743,780.31222920257,3,0,5,4,horizontal,horizontal,horizontal,vertical
2a,22,100284,5,18,146,25,F,NA,variable,heterogeneous,4,absent,NaN,0,horizontal,none,0,2,red,2,NaN,980.31222920257,419.68777079743,NaN,NaN,980.31222920257,780.31222920257,980.31222920257,419.68777079743,619.68777079743,419.68777079743,619.68777079743,780.31222920257,6,4,3,5,horizontal,horizontal,horizontal,vertical
2a,22,100284,5,19,147,25,F,NA,variable,heterogeneous,4,present,1.14469313621521,1,horizontal,horizontal,1,3,green,1,2,980.31222920257,780.31222920257,980.31222920257,419.68777079743,980.31222920257,780.31222920257,980.31222920257,419.68777079743,619.68777079743,419.68777079743,619.68777079743,780.31222920257,4,6,0,3,horizontal,horizontal,horizontal,vertical
2a,22,100284,5,20,148,25,F,NA,variable,heterogeneous,4,absent,0.879807949066162,1,vertical,vertical,1,3,red,1,NaN,980.31222920257,780.31222920257,NaN,NaN,980.31222920257,780.31222920257,980.31222920257,419.68777079743,619.68777079743,419.68777079743,619.68777079743,780.31222920257,4,6,0,5,vertical,horizontal,horizontal,vertical
2a,22,100284,5,21,149,25,F,NA,variable,heterogeneous,4,absent,0.901551008224487,1,horizontal,horizontal,1,5,red,3,NaN,619.68777079743,419.68777079743,NaN,NaN,980.31222920257,780.31222920257,980.31222920257,419.68777079743,619.68777079743,419.68777079743,619.68777079743,780.31222920257,5,0,4,6,horizontal,horizontal,horizontal,vertical
2a,22,100284,5,22,150,25,F,NA,variable,heterogeneous,4,absent,0.731904983520508,1,vertical,vertical,1,2,red,2,NaN,980.31222920257,419.68777079743,NaN,NaN,980.31222920257,780.31222920257,980.31222920257,419.68777079743,619.68777079743,419.68777079743,619.68777079743,780.31222920257,3,4,5,6,horizontal,vertical,vertical,vertical
2a,22,100284,5,23,151,25,F,NA,variable,heterogeneous,4,absent,1.10278415679932,1,horizontal,horizontal,1,3,red,4,NaN,619.68777079743,780.31222920257,NaN,NaN,980.31222920257,780.31222920257,980.31222920257,419.68777079743,619.68777079743,419.68777079743,619.68777079743,780.31222920257,5,0,3,4,vertical,vertical,vertical,horizontal
2a,22,100284,5,24,152,25,F,NA,variable,heterogeneous,4,absent,0.764769792556763,1,horizontal,horizontal,1,2,red,4,NaN,619.68777079743,780.31222920257,NaN,NaN,980.31222920257,780.31222920257,980.31222920257,419.68777079743,619.68777079743,419.68777079743,619.68777079743,780.31222920257,5,0,6,4,vertical,horizontal,horizontal,horizontal
2a,22,100284,5,25,153,25,F,NA,variable,heterogeneous,4,present,0.740478992462158,1,vertical,vertical,1,2,green,2,4,980.31222920257,419.68777079743,619.68777079743,780.31222920257,980.31222920257,780.31222920257,980.31222920257,419.68777079743,619.68777079743,419.68777079743,619.68777079743,780.31222920257,6,4,0,5,horizontal,vertical,horizontal,vertical
2a,22,100284,5,26,154,25,F,NA,variable,heterogeneous,4,absent,1.23555111885071,1,horizontal,horizontal,1,2,green,4,NaN,619.68777079743,780.31222920257,NaN,NaN,980.31222920257,780.31222920257,980.31222920257,419.68777079743,619.68777079743,419.68777079743,619.68777079743,780.31222920257,5,0,6,4,vertical,vertical,vertical,horizontal
2a,22,100284,5,27,155,25,F,NA,variable,heterogeneous,4,absent,0.716725826263428,1,vertical,vertical,1,5,red,1,NaN,980.31222920257,780.31222920257,NaN,NaN,980.31222920257,780.31222920257,980.31222920257,419.68777079743,619.68777079743,419.68777079743,619.68777079743,780.31222920257,4,3,6,0,vertical,vertical,vertical,vertical
2a,22,100284,5,28,156,25,F,NA,variable,heterogeneous,4,present,0.619044065475464,1,vertical,vertical,1,5,red,1,2,980.31222920257,780.31222920257,980.31222920257,419.68777079743,980.31222920257,780.31222920257,980.31222920257,419.68777079743,619.68777079743,419.68777079743,619.68777079743,780.31222920257,4,6,3,0,vertical,vertical,horizontal,vertical
2a,22,100284,5,29,157,25,F,NA,variable,heterogeneous,4,present,1.45197701454163,1,horizontal,horizontal,1,8,red,3,4,619.68777079743,419.68777079743,619.68777079743,780.31222920257,980.31222920257,780.31222920257,980.31222920257,419.68777079743,619.68777079743,419.68777079743,619.68777079743,780.31222920257,3,6,4,0,vertical,vertical,horizontal,horizontal
2a,22,100284,5,30,158,25,F,NA,variable,heterogeneous,4,absent,0.761338949203491,1,vertical,vertical,1,8,green,1,NaN,980.31222920257,780.31222920257,NaN,NaN,980.31222920257,780.31222920257,980.31222920257,419.68777079743,619.68777079743,419.68777079743,619.68777079743,780.31222920257,4,6,5,3,vertical,vertical,vertical,vertical
2a,22,100284,5,31,159,25,F,NA,variable,heterogeneous,4,present,0.540520906448364,1,vertical,vertical,1,2,green,1,2,980.31222920257,780.31222920257,980.31222920257,419.68777079743,980.31222920257,780.31222920257,980.31222920257,419.68777079743,619.68777079743,419.68777079743,619.68777079743,780.31222920257,4,5,6,0,vertical,vertical,horizontal,vertical
2a,22,100284,5,32,160,25,F,NA,variable,heterogeneous,4,absent,1.24362587928772,1,horizontal,horizontal,1,3,green,2,NaN,980.31222920257,419.68777079743,NaN,NaN,980.31222920257,780.31222920257,980.31222920257,419.68777079743,619.68777079743,419.68777079743,619.68777079743,780.31222920257,3,4,0,6,horizontal,horizontal,vertical,vertical
2a,22,100284,6,1,161,25,F,NA,variable,heterogeneous,4,absent,1.12479591369629,1,vertical,vertical,1,8,green,2,NaN,980.31222920257,419.68777079743,NaN,NaN,980.31222920257,780.31222920257,980.31222920257,419.68777079743,619.68777079743,419.68777079743,619.68777079743,780.31222920257,5,4,0,6,horizontal,vertical,vertical,horizontal
2a,22,100284,6,2,162,25,F,NA,variable,heterogeneous,4,absent,0.755919933319092,1,vertical,vertical,1,3,green,2,NaN,980.31222920257,419.68777079743,NaN,NaN,980.31222920257,780.31222920257,980.31222920257,419.68777079743,619.68777079743,419.68777079743,619.68777079743,780.31222920257,5,4,0,6,vertical,vertical,vertical,horizontal
2a,22,100284,6,3,163,25,F,NA,variable,heterogeneous,4,present,1.55906391143799,1,vertical,vertical,1,2,red,4,1,619.68777079743,780.31222920257,980.31222920257,780.31222920257,980.31222920257,780.31222920257,980.31222920257,419.68777079743,619.68777079743,419.68777079743,619.68777079743,780.31222920257,6,3,5,4,vertical,horizontal,vertical,vertical
2a,22,100284,6,4,164,25,F,NA,variable,heterogeneous,4,present,1.69835710525513,1,horizontal,horizontal,1,5,red,2,1,980.31222920257,419.68777079743,980.31222920257,780.31222920257,980.31222920257,780.31222920257,980.31222920257,419.68777079743,619.68777079743,419.68777079743,619.68777079743,780.31222920257,5,4,3,6,vertical,horizontal,vertical,horizontal
2a,22,100284,6,5,165,25,F,NA,variable,heterogeneous,4,present,0.856790065765381,1,vertical,vertical,1,2,green,1,2,980.31222920257,780.31222920257,980.31222920257,419.68777079743,980.31222920257,780.31222920257,980.31222920257,419.68777079743,619.68777079743,419.68777079743,619.68777079743,780.31222920257,4,0,6,5,vertical,vertical,horizontal,horizontal
2a,22,100284,6,6,166,25,F,NA,variable,heterogeneous,4,present,0.701918840408325,1,vertical,vertical,1,8,red,1,4,980.31222920257,780.31222920257,619.68777079743,780.31222920257,980.31222920257,780.31222920257,980.31222920257,419.68777079743,619.68777079743,419.68777079743,619.68777079743,780.31222920257,4,5,0,3,vertical,vertical,horizontal,vertical
2a,22,100284,6,7,167,25,F,NA,variable,heterogeneous,4,present,0.780082941055298,1,vertical,vertical,1,2,red,4,2,619.68777079743,780.31222920257,980.31222920257,419.68777079743,980.31222920257,780.31222920257,980.31222920257,419.68777079743,619.68777079743,419.68777079743,619.68777079743,780.31222920257,3,6,0,4,vertical,vertical,horizontal,vertical
2a,22,100284,6,8,168,25,F,NA,variable,heterogeneous,4,present,0.591903924942017,1,vertical,vertical,1,5,green,2,4,980.31222920257,419.68777079743,619.68777079743,780.31222920257,980.31222920257,780.31222920257,980.31222920257,419.68777079743,619.68777079743,419.68777079743,619.68777079743,780.31222920257,3,4,0,6,horizontal,vertical,vertical,horizontal
2a,22,100284,6,9,169,25,F,NA,variable,heterogeneous,4,present,1.44816207885742,1,horizontal,horizontal,1,8,red,3,4,619.68777079743,419.68777079743,619.68777079743,780.31222920257,980.31222920257,780.31222920257,980.31222920257,419.68777079743,619.68777079743,419.68777079743,619.68777079743,780.31222920257,6,5,4,3,horizontal,vertical,horizontal,vertical
2a,22,100284,6,10,170,25,F,NA,variable,heterogeneous,4,absent,0.813429832458496,1,vertical,vertical,1,3,red,2,NaN,980.31222920257,419.68777079743,NaN,NaN,980.31222920257,780.31222920257,980.31222920257,419.68777079743,619.68777079743,419.68777079743,619.68777079743,780.31222920257,6,4,0,3,vertical,vertical,horizontal,horizontal
2a,22,100284,6,11,171,25,F,NA,variable,heterogeneous,4,present,0.861785888671875,1,vertical,vertical,1,5,green,1,4,980.31222920257,780.31222920257,619.68777079743,780.31222920257,980.31222920257,780.31222920257,980.31222920257,419.68777079743,619.68777079743,419.68777079743,619.68777079743,780.31222920257,4,5,6,3,vertical,vertical,horizontal,horizontal
2a,22,100284,6,12,172,25,F,NA,variable,heterogeneous,4,absent,1.65544009208679,1,horizontal,horizontal,1,2,green,3,NaN,619.68777079743,419.68777079743,NaN,NaN,980.31222920257,780.31222920257,980.31222920257,419.68777079743,619.68777079743,419.68777079743,619.68777079743,780.31222920257,3,6,4,5,vertical,horizontal,horizontal,vertical
2a,22,100284,6,13,173,25,F,NA,variable,heterogeneous,4,absent,0.660592079162598,1,vertical,vertical,1,5,red,2,NaN,980.31222920257,419.68777079743,NaN,NaN,980.31222920257,780.31222920257,980.31222920257,419.68777079743,619.68777079743,419.68777079743,619.68777079743,780.31222920257,6,4,0,3,vertical,vertical,vertical,vertical
2a,22,100284,6,14,174,25,F,NA,variable,heterogeneous,4,absent,0.86235499382019,1,horizontal,horizontal,1,3,red,3,NaN,619.68777079743,419.68777079743,NaN,NaN,980.31222920257,780.31222920257,980.31222920257,419.68777079743,619.68777079743,419.68777079743,619.68777079743,780.31222920257,6,0,4,5,horizontal,horizontal,horizontal,vertical
2a,22,100284,6,15,175,25,F,NA,variable,heterogeneous,4,present,1.27166891098022,1,horizontal,horizontal,1,2,red,3,1,619.68777079743,419.68777079743,980.31222920257,780.31222920257,980.31222920257,780.31222920257,980.31222920257,419.68777079743,619.68777079743,419.68777079743,619.68777079743,780.31222920257,6,0,4,5,vertical,vertical,horizontal,vertical
2a,22,100284,6,16,176,25,F,NA,variable,heterogeneous,4,absent,1.22928786277771,1,vertical,vertical,1,5,red,2,NaN,980.31222920257,419.68777079743,NaN,NaN,980.31222920257,780.31222920257,980.31222920257,419.68777079743,619.68777079743,419.68777079743,619.68777079743,780.31222920257,0,4,3,6,vertical,vertical,horizontal,vertical
2a,22,100284,6,17,177,25,F,NA,variable,heterogeneous,4,present,0.954229831695557,1,horizontal,horizontal,1,2,green,4,1,619.68777079743,780.31222920257,980.31222920257,780.31222920257,980.31222920257,780.31222920257,980.31222920257,419.68777079743,619.68777079743,419.68777079743,619.68777079743,780.31222920257,6,5,3,4,vertical,vertical,vertical,horizontal
2a,22,100284,6,18,178,25,F,NA,variable,heterogeneous,4,absent,NaN,0,horizontal,none,0,3,green,4,NaN,619.68777079743,780.31222920257,NaN,NaN,980.31222920257,780.31222920257,980.31222920257,419.68777079743,619.68777079743,419.68777079743,619.68777079743,780.31222920257,5,0,3,4,vertical,horizontal,vertical,horizontal
2a,22,100284,6,19,179,25,F,NA,variable,heterogeneous,4,absent,1.23381209373474,1,horizontal,horizontal,1,2,green,4,NaN,619.68777079743,780.31222920257,NaN,NaN,980.31222920257,780.31222920257,980.31222920257,419.68777079743,619.68777079743,419.68777079743,619.68777079743,780.31222920257,6,5,3,4,horizontal,horizontal,horizontal,horizontal
2a,22,100284,6,20,180,25,F,NA,variable,heterogeneous,4,present,1.4831440448761,1,horizontal,horizontal,1,5,red,3,4,619.68777079743,419.68777079743,619.68777079743,780.31222920257,980.31222920257,780.31222920257,980.31222920257,419.68777079743,619.68777079743,419.68777079743,619.68777079743,780.31222920257,3,5,4,0,vertical,horizontal,horizontal,vertical
2a,22,100284,6,21,181,25,F,NA,variable,heterogeneous,4,absent,1.12461495399475,1,vertical,vertical,1,2,green,1,NaN,980.31222920257,780.31222920257,NaN,NaN,980.31222920257,780.31222920257,980.31222920257,419.68777079743,619.68777079743,419.68777079743,619.68777079743,780.31222920257,4,6,5,0,vertical,vertical,horizontal,vertical
2a,22,100284,6,22,182,25,F,NA,variable,heterogeneous,4,absent,0.715620040893555,1,vertical,vertical,1,2,red,1,NaN,980.31222920257,780.31222920257,NaN,NaN,980.31222920257,780.31222920257,980.31222920257,419.68777079743,619.68777079743,419.68777079743,619.68777079743,780.31222920257,4,0,3,5,vertical,horizontal,vertical,vertical
2a,22,100284,6,23,183,25,F,NA,variable,heterogeneous,4,present,1.70210099220276,1,horizontal,horizontal,1,3,red,3,4,619.68777079743,419.68777079743,619.68777079743,780.31222920257,980.31222920257,780.31222920257,980.31222920257,419.68777079743,619.68777079743,419.68777079743,619.68777079743,780.31222920257,6,3,4,0,horizontal,vertical,horizontal,vertical
2a,22,100284,6,24,184,25,F,NA,variable,heterogeneous,4,absent,1.55595302581787,0,horizontal,vertical,1,5,red,1,NaN,980.31222920257,780.31222920257,NaN,NaN,980.31222920257,780.31222920257,980.31222920257,419.68777079743,619.68777079743,419.68777079743,619.68777079743,780.31222920257,4,5,6,0,horizontal,vertical,horizontal,vertical
2a,22,100284,6,25,185,25,F,NA,variable,heterogeneous,4,present,0.863306999206543,1,vertical,vertical,1,3,red,4,3,619.68777079743,780.31222920257,619.68777079743,419.68777079743,980.31222920257,780.31222920257,980.31222920257,419.68777079743,619.68777079743,419.68777079743,619.68777079743,780.31222920257,3,6,0,4,horizontal,horizontal,horizontal,vertical
2a,22,100284,6,26,186,25,F,NA,variable,heterogeneous,4,absent,0.92123818397522,1,vertical,vertical,1,2,green,2,NaN,980.31222920257,419.68777079743,NaN,NaN,980.31222920257,780.31222920257,980.31222920257,419.68777079743,619.68777079743,419.68777079743,619.68777079743,780.31222920257,0,4,3,6,horizontal,vertical,horizontal,horizontal
2a,22,100284,6,27,187,25,F,NA,variable,heterogeneous,4,present,0.91162896156311,1,vertical,vertical,1,3,green,1,4,980.31222920257,780.31222920257,619.68777079743,780.31222920257,980.31222920257,780.31222920257,980.31222920257,419.68777079743,619.68777079743,419.68777079743,619.68777079743,780.31222920257,4,5,3,6,vertical,horizontal,horizontal,vertical
2a,22,100284,6,28,188,25,F,NA,variable,heterogeneous,4,present,1.00217413902283,1,horizontal,horizontal,1,2,red,3,2,619.68777079743,419.68777079743,980.31222920257,419.68777079743,980.31222920257,780.31222920257,980.31222920257,419.68777079743,619.68777079743,419.68777079743,619.68777079743,780.31222920257,3,5,4,6,horizontal,horizontal,horizontal,vertical
2a,22,100284,6,29,189,25,F,NA,variable,heterogeneous,4,absent,1.58215022087097,1,horizontal,horizontal,1,5,green,2,NaN,980.31222920257,419.68777079743,NaN,NaN,980.31222920257,780.31222920257,980.31222920257,419.68777079743,619.68777079743,419.68777079743,619.68777079743,780.31222920257,3,4,0,6,vertical,horizontal,vertical,vertical
2a,22,100284,6,30,190,25,F,NA,variable,heterogeneous,4,absent,0.906219005584717,1,horizontal,horizontal,1,2,green,3,NaN,619.68777079743,419.68777079743,NaN,NaN,980.31222920257,780.31222920257,980.31222920257,419.68777079743,619.68777079743,419.68777079743,619.68777079743,780.31222920257,3,6,4,5,vertical,vertical,horizontal,vertical
2a,22,100284,6,31,191,25,F,NA,variable,heterogeneous,4,present,0.828671932220459,1,horizontal,horizontal,1,3,green,2,4,980.31222920257,419.68777079743,619.68777079743,780.31222920257,980.31222920257,780.31222920257,980.31222920257,419.68777079743,619.68777079743,419.68777079743,619.68777079743,780.31222920257,3,4,6,0,vertical,horizontal,horizontal,vertical
2a,22,100284,6,32,192,25,F,NA,variable,heterogeneous,4,absent,1.03327393531799,1,horizontal,horizontal,1,8,red,4,NaN,619.68777079743,780.31222920257,NaN,NaN,980.31222920257,780.31222920257,980.31222920257,419.68777079743,619.68777079743,419.68777079743,619.68777079743,780.31222920257,5,6,0,4,vertical,horizontal,horizontal,horizontal
2a,22,100284,7,1,193,25,F,NA,variable,heterogeneous,4,present,0.926589965820312,1,vertical,vertical,1,3,red,4,2,619.68777079743,780.31222920257,980.31222920257,419.68777079743,980.31222920257,780.31222920257,980.31222920257,419.68777079743,619.68777079743,419.68777079743,619.68777079743,780.31222920257,5,6,0,4,vertical,vertical,vertical,vertical
2a,22,100284,7,2,194,25,F,NA,variable,heterogeneous,4,absent,1.83717393875122,1,horizontal,horizontal,1,8,green,1,NaN,980.31222920257,780.31222920257,NaN,NaN,980.31222920257,780.31222920257,980.31222920257,419.68777079743,619.68777079743,419.68777079743,619.68777079743,780.31222920257,4,5,0,6,horizontal,vertical,vertical,horizontal
2a,22,100284,7,3,195,25,F,NA,variable,heterogeneous,4,present,1.21453714370728,1,horizontal,horizontal,1,3,green,2,3,980.31222920257,419.68777079743,619.68777079743,419.68777079743,980.31222920257,780.31222920257,980.31222920257,419.68777079743,619.68777079743,419.68777079743,619.68777079743,780.31222920257,6,4,0,3,vertical,horizontal,horizontal,horizontal
2a,22,100284,7,4,196,25,F,NA,variable,heterogeneous,4,present,1.62307691574097,1,horizontal,horizontal,1,8,green,2,4,980.31222920257,419.68777079743,619.68777079743,780.31222920257,980.31222920257,780.31222920257,980.31222920257,419.68777079743,619.68777079743,419.68777079743,619.68777079743,780.31222920257,5,4,6,0,horizontal,horizontal,vertical,horizontal
2a,22,100284,7,5,197,25,F,NA,variable,heterogeneous,4,absent,0.939962148666382,1,horizontal,horizontal,1,3,green,2,NaN,980.31222920257,419.68777079743,NaN,NaN,980.31222920257,780.31222920257,980.31222920257,419.68777079743,619.68777079743,419.68777079743,619.68777079743,780.31222920257,5,4,6,0,horizontal,horizontal,horizontal,horizontal
2a,22,100284,7,6,198,25,F,NA,variable,heterogeneous,4,absent,0.97921085357666,1,vertical,vertical,1,8,red,2,NaN,980.31222920257,419.68777079743,NaN,NaN,980.31222920257,780.31222920257,980.31222920257,419.68777079743,619.68777079743,419.68777079743,619.68777079743,780.31222920257,5,4,0,3,horizontal,vertical,horizontal,vertical
2a,22,100284,7,7,199,25,F,NA,variable,heterogeneous,4,present,1.28692197799683,1,horizontal,horizontal,1,2,red,1,2,980.31222920257,780.31222920257,980.31222920257,419.68777079743,980.31222920257,780.31222920257,980.31222920257,419.68777079743,619.68777079743,419.68777079743,619.68777079743,780.31222920257,4,0,6,3,horizontal,vertical,horizontal,horizontal
2a,22,100284,7,8,200,25,F,NA,variable,heterogeneous,4,absent,1.55276703834534,1,vertical,vertical,1,3,red,4,NaN,619.68777079743,780.31222920257,NaN,NaN,980.31222920257,780.31222920257,980.31222920257,419.68777079743,619.68777079743,419.68777079743,619.68777079743,780.31222920257,3,5,6,4,vertical,vertical,vertical,vertical
2a,22,100284,7,9,201,25,F,NA,variable,heterogeneous,4,absent,1.11612892150879,1,horizontal,horizontal,1,3,green,4,NaN,619.68777079743,780.31222920257,NaN,NaN,980.31222920257,780.31222920257,980.31222920257,419.68777079743,619.68777079743,419.68777079743,619.68777079743,780.31222920257,3,6,0,4,horizontal,vertical,vertical,horizontal
2a,22,100284,7,10,202,25,F,NA,variable,heterogeneous,4,absent,1.97109723091125,1,horizontal,horizontal,1,2,green,1,NaN,980.31222920257,780.31222920257,NaN,NaN,980.31222920257,780.31222920257,980.31222920257,419.68777079743,619.68777079743,419.68777079743,619.68777079743,780.31222920257,4,6,3,0,horizontal,vertical,horizontal,horizontal
2a,22,100284,7,11,203,25,F,NA,variable,heterogeneous,4,absent,1.37842607498169,1,vertical,vertical,1,3,green,3,NaN,619.68777079743,419.68777079743,NaN,NaN,980.31222920257,780.31222920257,980.31222920257,419.68777079743,619.68777079743,419.68777079743,619.68777079743,780.31222920257,5,6,4,0,horizontal,vertical,vertical,vertical
2a,22,100284,7,12,204,25,F,NA,variable,heterogeneous,4,present,1.54992699623108,1,horizontal,horizontal,1,5,red,1,2,980.31222920257,780.31222920257,980.31222920257,419.68777079743,980.31222920257,780.31222920257,980.31222920257,419.68777079743,619.68777079743,419.68777079743,619.68777079743,780.31222920257,4,3,6,0,horizontal,vertical,vertical,horizontal
2a,22,100284,7,13,205,25,F,NA,variable,heterogeneous,4,absent,1.82166004180908,1,horizontal,horizontal,1,2,red,2,NaN,980.31222920257,419.68777079743,NaN,NaN,980.31222920257,780.31222920257,980.31222920257,419.68777079743,619.68777079743,419.68777079743,619.68777079743,780.31222920257,0,4,3,6,vertical,horizontal,vertical,vertical
2a,22,100284,7,14,206,25,F,NA,variable,heterogeneous,4,present,1.55015182495117,1,vertical,vertical,1,8,green,2,3,980.31222920257,419.68777079743,619.68777079743,419.68777079743,980.31222920257,780.31222920257,980.31222920257,419.68777079743,619.68777079743,419.68777079743,619.68777079743,780.31222920257,3,4,0,5,horizontal,vertical,horizontal,vertical
2a,22,100284,7,15,207,25,F,NA,variable,heterogeneous,4,present,0.981269121170044,1,vertical,vertical,1,5,green,4,1,619.68777079743,780.31222920257,980.31222920257,780.31222920257,980.31222920257,780.31222920257,980.31222920257,419.68777079743,619.68777079743,419.68777079743,619.68777079743,780.31222920257,5,6,3,4,horizontal,vertical,horizontal,vertical
2a,22,100284,7,16,208,25,F,NA,variable,heterogeneous,4,present,0.817101955413818,1,vertical,vertical,1,5,red,4,3,619.68777079743,780.31222920257,619.68777079743,419.68777079743,980.31222920257,780.31222920257,980.31222920257,419.68777079743,619.68777079743,419.68777079743,619.68777079743,780.31222920257,0,5,3,4,vertical,horizontal,vertical,vertical
2a,22,100284,7,17,209,25,F,NA,variable,heterogeneous,4,absent,1.00966882705688,1,horizontal,horizontal,1,5,green,4,NaN,619.68777079743,780.31222920257,NaN,NaN,980.31222920257,780.31222920257,980.31222920257,419.68777079743,619.68777079743,419.68777079743,619.68777079743,780.31222920257,5,3,0,4,horizontal,vertical,horizontal,horizontal
2a,22,100284,7,18,210,25,F,NA,variable,heterogeneous,4,present,1.04601788520813,1,horizontal,horizontal,1,3,red,3,2,619.68777079743,419.68777079743,980.31222920257,419.68777079743,980.31222920257,780.31222920257,980.31222920257,419.68777079743,619.68777079743,419.68777079743,619.68777079743,780.31222920257,0,3,4,5,horizontal,vertical,horizontal,horizontal
2a,22,100284,7,19,211,25,F,NA,variable,heterogeneous,4,present,1.13922190666199,1,vertical,vertical,1,2,green,3,1,619.68777079743,419.68777079743,980.31222920257,780.31222920257,980.31222920257,780.31222920257,980.31222920257,419.68777079743,619.68777079743,419.68777079743,619.68777079743,780.31222920257,6,0,4,3,horizontal,horizontal,vertical,vertical
2a,22,100284,7,20,212,25,F,NA,variable,heterogeneous,4,present,0.686123132705688,1,vertical,vertical,1,2,red,2,4,980.31222920257,419.68777079743,619.68777079743,780.31222920257,980.31222920257,780.31222920257,980.31222920257,419.68777079743,619.68777079743,419.68777079743,619.68777079743,780.31222920257,0,4,6,3,horizontal,vertical,horizontal,vertical
2a,22,100284,7,21,213,25,F,NA,variable,heterogeneous,4,absent,0.872012138366699,1,vertical,vertical,1,2,green,4,NaN,619.68777079743,780.31222920257,NaN,NaN,980.31222920257,780.31222920257,980.31222920257,419.68777079743,619.68777079743,419.68777079743,619.68777079743,780.31222920257,3,5,6,4,horizontal,vertical,horizontal,vertical
2a,22,100284,7,22,214,25,F,NA,variable,heterogeneous,4,absent,0.653601169586182,1,vertical,vertical,1,5,green,2,NaN,980.31222920257,419.68777079743,NaN,NaN,980.31222920257,780.31222920257,980.31222920257,419.68777079743,619.68777079743,419.68777079743,619.68777079743,780.31222920257,3,4,5,0,vertical,vertical,vertical,horizontal
2a,22,100284,7,23,215,25,F,NA,variable,heterogeneous,4,present,0.89109992980957,1,horizontal,horizontal,1,2,red,2,1,980.31222920257,419.68777079743,980.31222920257,780.31222920257,980.31222920257,780.31222920257,980.31222920257,419.68777079743,619.68777079743,419.68777079743,619.68777079743,780.31222920257,3,4,5,0,horizontal,horizontal,vertical,horizontal
2a,22,100284,7,24,216,25,F,NA,variable,heterogeneous,4,present,1.06085085868835,1,horizontal,horizontal,1,5,green,1,2,980.31222920257,780.31222920257,980.31222920257,419.68777079743,980.31222920257,780.31222920257,980.31222920257,419.68777079743,619.68777079743,419.68777079743,619.68777079743,780.31222920257,4,0,6,5,horizontal,horizontal,vertical,vertical
2a,22,100284,7,25,217,25,F,NA,variable,heterogeneous,4,absent,0.76634407043457,1,vertical,vertical,1,5,red,3,NaN,619.68777079743,419.68777079743,NaN,NaN,980.31222920257,780.31222920257,980.31222920257,419.68777079743,619.68777079743,419.68777079743,619.68777079743,780.31222920257,3,0,4,5,vertical,horizontal,vertical,horizontal
2a,22,100284,7,26,218,25,F,NA,variable,heterogeneous,4,present,0.862107038497925,1,vertical,vertical,1,3,green,2,3,980.31222920257,419.68777079743,619.68777079743,419.68777079743,980.31222920257,780.31222920257,980.31222920257,419.68777079743,619.68777079743,419.68777079743,619.68777079743,780.31222920257,0,4,3,5,horizontal,vertical,horizontal,vertical
2a,22,100284,7,27,219,25,F,NA,variable,heterogeneous,4,present,0.919600009918213,1,vertical,vertical,1,2,green,3,2,619.68777079743,419.68777079743,980.31222920257,419.68777079743,980.31222920257,780.31222920257,980.31222920257,419.68777079743,619.68777079743,419.68777079743,619.68777079743,780.31222920257,0,3,4,5,horizontal,vertical,vertical,horizontal
2a,22,100284,7,28,220,25,F,NA,variable,heterogeneous,4,absent,NaN,0,horizontal,none,0,5,green,2,NaN,980.31222920257,419.68777079743,NaN,NaN,980.31222920257,780.31222920257,980.31222920257,419.68777079743,619.68777079743,419.68777079743,619.68777079743,780.31222920257,0,4,6,3,vertical,horizontal,horizontal,vertical
2a,22,100284,7,29,221,25,F,NA,variable,heterogeneous,4,absent,1.23439383506775,1,horizontal,horizontal,1,2,red,3,NaN,619.68777079743,419.68777079743,NaN,NaN,980.31222920257,780.31222920257,980.31222920257,419.68777079743,619.68777079743,419.68777079743,619.68777079743,780.31222920257,5,3,4,0,vertical,horizontal,horizontal,vertical
2a,22,100284,7,30,222,25,F,NA,variable,heterogeneous,4,absent,0.723476886749268,1,vertical,vertical,1,2,green,3,NaN,619.68777079743,419.68777079743,NaN,NaN,980.31222920257,780.31222920257,980.31222920257,419.68777079743,619.68777079743,419.68777079743,619.68777079743,780.31222920257,0,5,4,6,vertical,horizontal,vertical,horizontal
2a,22,100284,7,31,223,25,F,NA,variable,heterogeneous,4,present,1.77023005485535,1,horizontal,horizontal,1,2,green,2,4,980.31222920257,419.68777079743,619.68777079743,780.31222920257,980.31222920257,780.31222920257,980.31222920257,419.68777079743,619.68777079743,419.68777079743,619.68777079743,780.31222920257,5,4,0,6,vertical,horizontal,vertical,vertical
2a,22,100284,7,32,224,25,F,NA,variable,heterogeneous,4,absent,0.953557014465332,1,vertical,vertical,1,2,red,1,NaN,980.31222920257,780.31222920257,NaN,NaN,980.31222920257,780.31222920257,980.31222920257,419.68777079743,619.68777079743,419.68777079743,619.68777079743,780.31222920257,4,5,6,0,vertical,vertical,horizontal,horizontal
2a,22,100284,8,1,225,25,F,NA,variable,heterogeneous,4,present,1.17530298233032,1,horizontal,horizontal,1,2,green,2,1,980.31222920257,419.68777079743,980.31222920257,780.31222920257,980.31222920257,780.31222920257,980.31222920257,419.68777079743,619.68777079743,419.68777079743,619.68777079743,780.31222920257,5,4,3,6,vertical,horizontal,vertical,horizontal
2a,22,100284,8,2,226,25,F,NA,variable,heterogeneous,4,absent,0.875010967254639,1,horizontal,horizontal,1,3,green,3,NaN,619.68777079743,419.68777079743,NaN,NaN,980.31222920257,780.31222920257,980.31222920257,419.68777079743,619.68777079743,419.68777079743,619.68777079743,780.31222920257,5,6,4,0,vertical,vertical,horizontal,horizontal
2a,22,100284,8,3,227,25,F,NA,variable,heterogeneous,4,absent,1.49643301963806,1,vertical,vertical,1,2,green,3,NaN,619.68777079743,419.68777079743,NaN,NaN,980.31222920257,780.31222920257,980.31222920257,419.68777079743,619.68777079743,419.68777079743,619.68777079743,780.31222920257,5,3,4,6,horizontal,horizontal,vertical,vertical
2a,22,100284,8,4,228,25,F,NA,variable,heterogeneous,4,absent,0.614682912826538,1,vertical,vertical,1,8,red,1,NaN,980.31222920257,780.31222920257,NaN,NaN,980.31222920257,780.31222920257,980.31222920257,419.68777079743,619.68777079743,419.68777079743,619.68777079743,780.31222920257,4,0,6,3,vertical,vertical,horizontal,horizontal
2a,22,100284,8,5,229,25,F,NA,variable,heterogeneous,4,present,1.46341514587402,1,horizontal,horizontal,1,2,green,4,3,619.68777079743,780.31222920257,619.68777079743,419.68777079743,980.31222920257,780.31222920257,980.31222920257,419.68777079743,619.68777079743,419.68777079743,619.68777079743,780.31222920257,6,0,3,4,horizontal,vertical,vertical,horizontal
2a,22,100284,8,6,230,25,F,NA,variable,heterogeneous,4,present,0.83272123336792,1,horizontal,horizontal,1,5,green,4,2,619.68777079743,780.31222920257,980.31222920257,419.68777079743,980.31222920257,780.31222920257,980.31222920257,419.68777079743,619.68777079743,419.68777079743,619.68777079743,780.31222920257,5,3,6,4,vertical,horizontal,vertical,horizontal
2a,22,100284,8,7,231,25,F,NA,variable,heterogeneous,4,present,0.661486864089966,1,vertical,vertical,1,3,red,3,1,619.68777079743,419.68777079743,980.31222920257,780.31222920257,980.31222920257,780.31222920257,980.31222920257,419.68777079743,619.68777079743,419.68777079743,619.68777079743,780.31222920257,0,5,4,3,horizontal,vertical,vertical,vertical
2a,22,100284,8,8,232,25,F,NA,variable,heterogeneous,4,absent,0.718859195709229,1,vertical,vertical,1,5,red,4,NaN,619.68777079743,780.31222920257,NaN,NaN,980.31222920257,780.31222920257,980.31222920257,419.68777079743,619.68777079743,419.68777079743,619.68777079743,780.31222920257,0,5,6,4,vertical,vertical,vertical,vertical
2a,22,100284,8,9,233,25,F,NA,variable,heterogeneous,4,present,0.749634981155396,1,horizontal,horizontal,1,5,green,2,4,980.31222920257,419.68777079743,619.68777079743,780.31222920257,980.31222920257,780.31222920257,980.31222920257,419.68777079743,619.68777079743,419.68777079743,619.68777079743,780.31222920257,0,4,6,3,horizontal,horizontal,horizontal,horizontal
2a,22,100284,8,10,234,25,F,NA,variable,heterogeneous,4,absent,1.20483994483948,1,horizontal,horizontal,1,3,green,1,NaN,980.31222920257,780.31222920257,NaN,NaN,980.31222920257,780.31222920257,980.31222920257,419.68777079743,619.68777079743,419.68777079743,619.68777079743,780.31222920257,4,5,0,6,horizontal,horizontal,horizontal,horizontal
2a,22,100284,8,11,235,25,F,NA,variable,heterogeneous,4,absent,0.809110879898071,0,horizontal,vertical,1,2,green,2,NaN,980.31222920257,419.68777079743,NaN,NaN,980.31222920257,780.31222920257,980.31222920257,419.68777079743,619.68777079743,419.68777079743,619.68777079743,780.31222920257,3,4,0,5,vertical,horizontal,vertical,horizontal
2a,22,100284,8,12,236,25,F,NA,variable,heterogeneous,4,absent,0.821520090103149,1,vertical,vertical,1,3,green,2,NaN,980.31222920257,419.68777079743,NaN,NaN,980.31222920257,780.31222920257,980.31222920257,419.68777079743,619.68777079743,419.68777079743,619.68777079743,780.31222920257,5,4,3,6,horizontal,vertical,vertical,horizontal
2a,22,100284,8,13,237,25,F,NA,variable,heterogeneous,4,present,0.869972944259644,1,vertical,vertical,1,3,red,1,3,980.31222920257,780.31222920257,619.68777079743,419.68777079743,980.31222920257,780.31222920257,980.31222920257,419.68777079743,619.68777079743,419.68777079743,619.68777079743,780.31222920257,4,3,6,0,vertical,vertical,horizontal,vertical
2a,22,100284,8,14,238,25,F,NA,variable,heterogeneous,4,absent,0.779803037643433,1,horizontal,horizontal,1,5,green,2,NaN,980.31222920257,419.68777079743,NaN,NaN,980.31222920257,780.31222920257,980.31222920257,419.68777079743,619.68777079743,419.68777079743,619.68777079743,780.31222920257,6,4,0,3,vertical,horizontal,horizontal,horizontal
2a,22,100284,8,15,239,25,F,NA,variable,heterogeneous,4,present,0.98348593711853,1,vertical,vertical,1,8,red,1,4,980.31222920257,780.31222920257,619.68777079743,780.31222920257,980.31222920257,780.31222920257,980.31222920257,419.68777079743,619.68777079743,419.68777079743,619.68777079743,780.31222920257,4,6,3,0,vertical,horizontal,vertical,vertical
2a,22,100284,8,16,240,25,F,NA,variable,heterogeneous,4,present,1.29943799972534,1,horizontal,horizontal,1,3,green,1,4,980.31222920257,780.31222920257,619.68777079743,780.31222920257,980.31222920257,780.31222920257,980.31222920257,419.68777079743,619.68777079743,419.68777079743,619.68777079743,780.31222920257,4,0,6,5,horizontal,horizontal,vertical,horizontal
2a,22,100284,8,17,241,25,F,NA,variable,heterogeneous,4,absent,1.34548878669739,1,horizontal,horizontal,1,5,green,4,NaN,619.68777079743,780.31222920257,NaN,NaN,980.31222920257,780.31222920257,980.31222920257,419.68777079743,619.68777079743,419.68777079743,619.68777079743,780.31222920257,5,6,3,4,horizontal,vertical,horizontal,horizontal
2a,22,100284,8,18,242,25,F,NA,variable,heterogeneous,4,present,1.40072989463806,1,vertical,vertical,1,2,green,3,1,619.68777079743,419.68777079743,980.31222920257,780.31222920257,980.31222920257,780.31222920257,980.31222920257,419.68777079743,619.68777079743,419.68777079743,619.68777079743,780.31222920257,3,6,4,0,horizontal,horizontal,vertical,horizontal
2a,22,100284,8,19,243,25,F,NA,variable,heterogeneous,4,absent,1.85296416282654,1,vertical,vertical,1,5,red,3,NaN,619.68777079743,419.68777079743,NaN,NaN,980.31222920257,780.31222920257,980.31222920257,419.68777079743,619.68777079743,419.68777079743,619.68777079743,780.31222920257,3,5,4,0,horizontal,horizontal,vertical,vertical
2a,22,100284,8,20,244,25,F,NA,variable,heterogeneous,4,absent,1.59428286552429,1,horizontal,horizontal,1,2,green,1,NaN,980.31222920257,780.31222920257,NaN,NaN,980.31222920257,780.31222920257,980.31222920257,419.68777079743,619.68777079743,419.68777079743,619.68777079743,780.31222920257,4,5,3,6,horizontal,vertical,vertical,vertical
2a,22,100284,8,21,245,25,F,NA,variable,heterogeneous,4,present,0.83442211151123,1,vertical,vertical,1,5,red,4,2,619.68777079743,780.31222920257,980.31222920257,419.68777079743,980.31222920257,780.31222920257,980.31222920257,419.68777079743,619.68777079743,419.68777079743,619.68777079743,780.31222920257,0,5,6,4,vertical,vertical,horizontal,vertical
2a,22,100284,8,22,246,25,F,NA,variable,heterogeneous,4,present,1.15560102462769,1,horizontal,horizontal,1,8,green,3,1,619.68777079743,419.68777079743,980.31222920257,780.31222920257,980.31222920257,780.31222920257,980.31222920257,419.68777079743,619.68777079743,419.68777079743,619.68777079743,780.31222920257,6,5,4,3,horizontal,vertical,horizontal,horizontal
2a,22,100284,8,23,247,25,F,NA,variable,heterogeneous,4,absent,1.30282521247864,1,horizontal,horizontal,1,2,green,4,NaN,619.68777079743,780.31222920257,NaN,NaN,980.31222920257,780.31222920257,980.31222920257,419.68777079743,619.68777079743,419.68777079743,619.68777079743,780.31222920257,3,0,5,4,vertical,horizontal,vertical,horizontal
2a,22,100284,8,24,248,25,F,NA,variable,heterogeneous,4,absent,1.02927589416504,1,vertical,vertical,1,3,green,1,NaN,980.31222920257,780.31222920257,NaN,NaN,980.31222920257,780.31222920257,980.31222920257,419.68777079743,619.68777079743,419.68777079743,619.68777079743,780.31222920257,4,0,3,6,vertical,horizontal,vertical,horizontal
2a,22,100284,8,25,249,25,F,NA,variable,heterogeneous,4,present,0.913832902908325,1,horizontal,horizontal,1,3,green,3,4,619.68777079743,419.68777079743,619.68777079743,780.31222920257,980.31222920257,780.31222920257,980.31222920257,419.68777079743,619.68777079743,419.68777079743,619.68777079743,780.31222920257,5,6,4,0,vertical,horizontal,horizontal,vertical
2a,22,100284,8,26,250,25,F,NA,variable,heterogeneous,4,present,0.764575004577637,1,vertical,vertical,1,2,green,4,2,619.68777079743,780.31222920257,980.31222920257,419.68777079743,980.31222920257,780.31222920257,980.31222920257,419.68777079743,619.68777079743,419.68777079743,619.68777079743,780.31222920257,0,6,5,4,vertical,vertical,vertical,vertical
2a,22,100284,8,27,251,25,F,NA,variable,heterogeneous,4,absent,1.09200692176819,1,vertical,vertical,1,2,green,1,NaN,980.31222920257,780.31222920257,NaN,NaN,980.31222920257,780.31222920257,980.31222920257,419.68777079743,619.68777079743,419.68777079743,619.68777079743,780.31222920257,4,0,6,5,vertical,vertical,horizontal,vertical
2a,22,100284,8,28,252,25,F,NA,variable,heterogeneous,4,present,0.717554092407227,1,vertical,vertical,1,2,green,2,3,980.31222920257,419.68777079743,619.68777079743,419.68777079743,980.31222920257,780.31222920257,980.31222920257,419.68777079743,619.68777079743,419.68777079743,619.68777079743,780.31222920257,3,4,5,6,vertical,vertical,vertical,vertical
2a,22,100284,8,29,253,25,F,NA,variable,heterogeneous,4,absent,0.932585954666138,1,vertical,vertical,1,2,green,4,NaN,619.68777079743,780.31222920257,NaN,NaN,980.31222920257,780.31222920257,980.31222920257,419.68777079743,619.68777079743,419.68777079743,619.68777079743,780.31222920257,5,3,0,4,vertical,vertical,horizontal,vertical
2a,22,100284,8,30,254,25,F,NA,variable,heterogeneous,4,absent,0.663190126419067,1,horizontal,horizontal,1,8,green,4,NaN,619.68777079743,780.31222920257,NaN,NaN,980.31222920257,780.31222920257,980.31222920257,419.68777079743,619.68777079743,419.68777079743,619.68777079743,780.31222920257,0,5,6,4,vertical,horizontal,vertical,horizontal
2a,22,100284,8,31,255,25,F,NA,variable,heterogeneous,4,present,0.760982990264893,1,horizontal,horizontal,1,2,red,1,4,980.31222920257,780.31222920257,619.68777079743,780.31222920257,980.31222920257,780.31222920257,980.31222920257,419.68777079743,619.68777079743,419.68777079743,619.68777079743,780.31222920257,4,0,5,6,horizontal,vertical,horizontal,horizontal
2a,22,100284,8,32,256,25,F,NA,variable,heterogeneous,4,present,1.12423205375671,1,vertical,vertical,1,5,green,4,1,619.68777079743,780.31222920257,980.31222920257,780.31222920257,980.31222920257,780.31222920257,980.31222920257,419.68777079743,619.68777079743,419.68777079743,619.68777079743,780.31222920257,5,3,0,4,horizontal,horizontal,horizontal,vertical
2a,22,100284,9,1,257,25,F,NA,variable,heterogeneous,4,present,1.45110392570496,1,horizontal,horizontal,1,2,red,2,1,980.31222920257,419.68777079743,980.31222920257,780.31222920257,980.31222920257,780.31222920257,980.31222920257,419.68777079743,619.68777079743,419.68777079743,619.68777079743,780.31222920257,6,4,0,3,vertical,horizontal,horizontal,vertical
2a,22,100284,9,2,258,25,F,NA,variable,heterogeneous,4,absent,1.06424188613892,1,horizontal,horizontal,1,8,green,1,NaN,980.31222920257,780.31222920257,NaN,NaN,980.31222920257,780.31222920257,980.31222920257,419.68777079743,619.68777079743,419.68777079743,619.68777079743,780.31222920257,4,5,3,6,horizontal,vertical,vertical,vertical
2a,22,100284,9,3,259,25,F,NA,variable,heterogeneous,4,absent,1.03393507003784,1,vertical,vertical,1,2,red,4,NaN,619.68777079743,780.31222920257,NaN,NaN,980.31222920257,780.31222920257,980.31222920257,419.68777079743,619.68777079743,419.68777079743,619.68777079743,780.31222920257,0,3,6,4,horizontal,horizontal,horizontal,vertical
2a,22,100284,9,4,260,25,F,NA,variable,heterogeneous,4,present,0.602653026580811,1,vertical,vertical,1,3,red,4,2,619.68777079743,780.31222920257,980.31222920257,419.68777079743,980.31222920257,780.31222920257,980.31222920257,419.68777079743,619.68777079743,419.68777079743,619.68777079743,780.31222920257,0,5,6,4,horizontal,vertical,vertical,vertical
2a,22,100284,9,5,261,25,F,NA,variable,heterogeneous,4,absent,0.69527792930603,1,vertical,vertical,1,8,green,3,NaN,619.68777079743,419.68777079743,NaN,NaN,980.31222920257,780.31222920257,980.31222920257,419.68777079743,619.68777079743,419.68777079743,619.68777079743,780.31222920257,5,3,4,6,vertical,vertical,vertical,horizontal
2a,22,100284,9,6,262,25,F,NA,variable,heterogeneous,4,present,0.709200859069824,1,vertical,vertical,1,2,green,4,2,619.68777079743,780.31222920257,980.31222920257,419.68777079743,980.31222920257,780.31222920257,980.31222920257,419.68777079743,619.68777079743,419.68777079743,619.68777079743,780.31222920257,6,5,0,4,vertical,vertical,horizontal,vertical
2a,22,100284,9,7,263,25,F,NA,variable,heterogeneous,4,present,0.711535930633545,1,vertical,vertical,1,2,green,1,3,980.31222920257,780.31222920257,619.68777079743,419.68777079743,980.31222920257,780.31222920257,980.31222920257,419.68777079743,619.68777079743,419.68777079743,619.68777079743,780.31222920257,4,5,0,3,vertical,vertical,horizontal,horizontal
2a,22,100284,9,8,264,25,F,NA,variable,heterogeneous,4,present,1.36225914955139,1,horizontal,horizontal,1,5,red,2,4,980.31222920257,419.68777079743,619.68777079743,780.31222920257,980.31222920257,780.31222920257,980.31222920257,419.68777079743,619.68777079743,419.68777079743,619.68777079743,780.31222920257,5,4,3,6,vertical,horizontal,horizontal,vertical
2a,22,100284,9,9,265,25,F,NA,variable,heterogeneous,4,absent,0.733551025390625,1,horizontal,horizontal,1,2,red,2,NaN,980.31222920257,419.68777079743,NaN,NaN,980.31222920257,780.31222920257,980.31222920257,419.68777079743,619.68777079743,419.68777079743,619.68777079743,780.31222920257,0,4,6,3,vertical,horizontal,horizontal,vertical
2a,22,100284,9,10,266,25,F,NA,variable,heterogeneous,4,absent,1.45652389526367,0,horizontal,vertical,1,3,red,3,NaN,619.68777079743,419.68777079743,NaN,NaN,980.31222920257,780.31222920257,980.31222920257,419.68777079743,619.68777079743,419.68777079743,619.68777079743,780.31222920257,6,0,4,3,vertical,horizontal,horizontal,vertical
2a,22,100284,9,11,267,25,F,NA,variable,heterogeneous,4,absent,1.39762687683105,1,horizontal,horizontal,1,5,red,3,NaN,619.68777079743,419.68777079743,NaN,NaN,980.31222920257,780.31222920257,980.31222920257,419.68777079743,619.68777079743,419.68777079743,619.68777079743,780.31222920257,5,0,4,3,horizontal,horizontal,horizontal,vertical
2a,22,100284,9,12,268,25,F,NA,variable,heterogeneous,4,present,0.741818189620972,1,vertical,vertical,1,5,green,3,2,619.68777079743,419.68777079743,980.31222920257,419.68777079743,980.31222920257,780.31222920257,980.31222920257,419.68777079743,619.68777079743,419.68777079743,619.68777079743,780.31222920257,6,0,4,5,vertical,vertical,vertical,vertical
2a,22,100284,9,13,269,25,F,NA,variable,heterogeneous,4,present,1.02090907096863,1,horizontal,horizontal,1,3,green,1,4,980.31222920257,780.31222920257,619.68777079743,780.31222920257,980.31222920257,780.31222920257,980.31222920257,419.68777079743,619.68777079743,419.68777079743,619.68777079743,780.31222920257,4,6,0,5,horizontal,vertical,horizontal,vertical
2a,22,100284,9,14,270,25,F,NA,variable,heterogeneous,4,absent,0.909564971923828,1,vertical,vertical,1,2,green,1,NaN,980.31222920257,780.31222920257,NaN,NaN,980.31222920257,780.31222920257,980.31222920257,419.68777079743,619.68777079743,419.68777079743,619.68777079743,780.31222920257,4,3,5,6,vertical,vertical,horizontal,horizontal
2a,22,100284,9,15,271,25,F,NA,variable,heterogeneous,4,present,1.01564002037048,1,horizontal,horizontal,1,2,green,3,1,619.68777079743,419.68777079743,980.31222920257,780.31222920257,980.31222920257,780.31222920257,980.31222920257,419.68777079743,619.68777079743,419.68777079743,619.68777079743,780.31222920257,3,0,4,6,vertical,horizontal,horizontal,horizontal
2a,22,100284,9,16,272,25,F,NA,variable,heterogeneous,4,present,1.07225489616394,1,horizontal,horizontal,1,3,red,4,1,619.68777079743,780.31222920257,980.31222920257,780.31222920257,980.31222920257,780.31222920257,980.31222920257,419.68777079743,619.68777079743,419.68777079743,619.68777079743,780.31222920257,6,3,0,4,horizontal,vertical,horizontal,horizontal
2a,22,100284,9,17,273,25,F,NA,variable,heterogeneous,4,absent,1.12596392631531,1,horizontal,horizontal,1,2,red,2,NaN,980.31222920257,419.68777079743,NaN,NaN,980.31222920257,780.31222920257,980.31222920257,419.68777079743,619.68777079743,419.68777079743,619.68777079743,780.31222920257,6,4,5,0,horizontal,horizontal,horizontal,vertical
2a,22,100284,9,18,274,25,F,NA,variable,heterogeneous,4,present,0.724889993667603,1,vertical,vertical,1,5,red,4,3,619.68777079743,780.31222920257,619.68777079743,419.68777079743,980.31222920257,780.31222920257,980.31222920257,419.68777079743,619.68777079743,419.68777079743,619.68777079743,780.31222920257,3,6,0,4,vertical,vertical,vertical,vertical
2a,22,100284,9,19,275,25,F,NA,variable,heterogeneous,4,present,1.16341805458069,1,vertical,vertical,1,8,red,1,4,980.31222920257,780.31222920257,619.68777079743,780.31222920257,980.31222920257,780.31222920257,980.31222920257,419.68777079743,619.68777079743,419.68777079743,619.68777079743,780.31222920257,4,6,5,0,vertical,vertical,horizontal,horizontal
2a,22,100284,9,20,276,25,F,NA,variable,heterogeneous,4,present,0.947268962860107,1,vertical,vertical,1,2,red,2,3,980.31222920257,419.68777079743,619.68777079743,419.68777079743,980.31222920257,780.31222920257,980.31222920257,419.68777079743,619.68777079743,419.68777079743,619.68777079743,780.31222920257,6,4,0,5,horizontal,vertical,vertical,vertical
2a,22,100284,9,21,277,25,F,NA,variable,heterogeneous,4,absent,0.834088087081909,1,vertical,vertical,1,3,red,3,NaN,619.68777079743,419.68777079743,NaN,NaN,980.31222920257,780.31222920257,980.31222920257,419.68777079743,619.68777079743,419.68777079743,619.68777079743,780.31222920257,6,3,4,0,vertical,horizontal,vertical,vertical
2a,22,100284,9,22,278,25,F,NA,variable,heterogeneous,4,absent,0.707062005996704,1,horizontal,horizontal,1,2,red,4,NaN,619.68777079743,780.31222920257,NaN,NaN,980.31222920257,780.31222920257,980.31222920257,419.68777079743,619.68777079743,419.68777079743,619.68777079743,780.31222920257,5,0,6,4,horizontal,horizontal,horizontal,horizontal
2a,22,100284,9,23,279,25,F,NA,variable,heterogeneous,4,present,1.73395299911499,1,horizontal,horizontal,1,2,green,4,1,619.68777079743,780.31222920257,980.31222920257,780.31222920257,980.31222920257,780.31222920257,980.31222920257,419.68777079743,619.68777079743,419.68777079743,619.68777079743,780.31222920257,0,6,3,4,vertical,vertical,vertical,horizontal
2a,22,100284,9,24,280,25,F,NA,variable,heterogeneous,4,absent,1.520339012146,1,vertical,vertical,1,3,red,3,NaN,619.68777079743,419.68777079743,NaN,NaN,980.31222920257,780.31222920257,980.31222920257,419.68777079743,619.68777079743,419.68777079743,619.68777079743,780.31222920257,0,3,4,6,horizontal,horizontal,vertical,vertical
2a,22,100284,9,25,281,25,F,NA,variable,heterogeneous,4,present,0.879036903381348,1,vertical,vertical,1,3,red,4,2,619.68777079743,780.31222920257,980.31222920257,419.68777079743,980.31222920257,780.31222920257,980.31222920257,419.68777079743,619.68777079743,419.68777079743,619.68777079743,780.31222920257,0,5,6,4,horizontal,horizontal,vertical,vertical
2a,22,100284,9,26,282,25,F,NA,variable,heterogeneous,4,absent,1.36512589454651,1,horizontal,horizontal,1,5,red,4,NaN,619.68777079743,780.31222920257,NaN,NaN,980.31222920257,780.31222920257,980.31222920257,419.68777079743,619.68777079743,419.68777079743,619.68777079743,780.31222920257,0,3,6,4,horizontal,horizontal,vertical,horizontal
2a,22,100284,9,27,283,25,F,NA,variable,heterogeneous,4,absent,1.53235006332397,1,horizontal,horizontal,1,3,red,1,NaN,980.31222920257,780.31222920257,NaN,NaN,980.31222920257,780.31222920257,980.31222920257,419.68777079743,619.68777079743,419.68777079743,619.68777079743,780.31222920257,4,6,5,3,horizontal,horizontal,horizontal,vertical
2a,22,100284,9,28,284,25,F,NA,variable,heterogeneous,4,absent,0.839626789093018,1,vertical,vertical,1,2,green,4,NaN,619.68777079743,780.31222920257,NaN,NaN,980.31222920257,780.31222920257,980.31222920257,419.68777079743,619.68777079743,419.68777079743,619.68777079743,780.31222920257,6,5,3,4,horizontal,horizontal,vertical,vertical
2a,22,100284,9,29,285,25,F,NA,variable,heterogeneous,4,present,0.904624938964844,1,horizontal,horizontal,1,8,red,4,3,619.68777079743,780.31222920257,619.68777079743,419.68777079743,980.31222920257,780.31222920257,980.31222920257,419.68777079743,619.68777079743,419.68777079743,619.68777079743,780.31222920257,3,5,0,4,horizontal,horizontal,horizontal,horizontal
2a,22,100284,9,30,286,25,F,NA,variable,heterogeneous,4,absent,1.19500303268433,0,vertical,horizontal,1,5,red,4,NaN,619.68777079743,780.31222920257,NaN,NaN,980.31222920257,780.31222920257,980.31222920257,419.68777079743,619.68777079743,419.68777079743,619.68777079743,780.31222920257,3,6,5,4,horizontal,horizontal,horizontal,vertical
2a,22,100284,9,31,287,25,F,NA,variable,heterogeneous,4,absent,0.818986892700195,1,vertical,vertical,1,5,green,4,NaN,619.68777079743,780.31222920257,NaN,NaN,980.31222920257,780.31222920257,980.31222920257,419.68777079743,619.68777079743,419.68777079743,619.68777079743,780.31222920257,3,0,6,4,horizontal,horizontal,vertical,vertical
2a,22,100284,9,32,288,25,F,NA,variable,heterogeneous,4,present,0.835705995559692,1,horizontal,horizontal,1,5,red,1,3,980.31222920257,780.31222920257,619.68777079743,419.68777079743,980.31222920257,780.31222920257,980.31222920257,419.68777079743,619.68777079743,419.68777079743,619.68777079743,780.31222920257,4,5,6,0,horizontal,horizontal,horizontal,horizontal
2a,22,100284,10,1,289,25,F,NA,variable,heterogeneous,4,absent,1.1879608631134,1,vertical,vertical,1,3,green,1,NaN,980.31222920257,780.31222920257,NaN,NaN,980.31222920257,780.31222920257,980.31222920257,419.68777079743,619.68777079743,419.68777079743,619.68777079743,780.31222920257,4,5,6,3,vertical,vertical,horizontal,vertical
2a,22,100284,10,2,290,25,F,NA,variable,heterogeneous,4,absent,0.635723114013672,1,horizontal,horizontal,1,3,red,4,NaN,619.68777079743,780.31222920257,NaN,NaN,980.31222920257,780.31222920257,980.31222920257,419.68777079743,619.68777079743,419.68777079743,619.68777079743,780.31222920257,3,5,6,4,horizontal,horizontal,vertical,horizontal
