experiment,subject,uniqueID,block,trial,trial_cumulative,age,gender,color_cond_blocking,color_history,shape_type,set_size,distractor,rt,acc,target_orient,response_key,response_made,iti,target_color,target_item,distractor_item,target_X,target_Y,distractor_X,distractor_Y,item1_X,item1_Y,item2_X,item2_Y,item3_X,item3_Y,item4_X,item4_Y,item1_shape,item2_shape,item3_shape,item4_shape,item1_line,item2_line,item3_line,item4_line
2a,24,100344,1,1,1,22,F,NA,variable,heterogeneous,4,absent,1.44167304039001,1,horizontal,horizontal,1,3,red,1,NaN,980.31222920257,780.31222920257,NaN,NaN,980.31222920257,780.31222920257,980.31222920257,419.68777079743,619.68777079743,419.68777079743,619.68777079743,780.31222920257,4,6,3,0,horizontal,vertical,horizontal,vertical
2a,24,100344,1,2,2,22,F,NA,variable,heterogeneous,4,present,1.71418595314026,1,horizontal,horizontal,1,2,red,3,4,619.68777079743,419.68777079743,619.68777079743,780.31222920257,980.31222920257,780.31222920257,980.31222920257,419.68777079743,619.68777079743,419.68777079743,619.68777079743,780.31222920257,3,6,4,5,horizontal,horizontal,horizontal,horizontal
2a,24,100344,1,3,3,22,F,NA,variable,heterogeneous,4,absent,0.932515859603882,1,horizontal,horizontal,1,2,red,2,NaN,980.31222920257,419.68777079743,NaN,NaN,980.31222920257,780.31222920257,980.31222920257,419.68777079743,619.68777079743,419.68777079743,619.68777079743,780.31222920257,6,4,3,5,vertical,horizontal,horizontal,horizontal
2a,24,100344,1,4,4,22,F,NA,variable,heterogeneous,4,present,0.911481142044067,1,horizontal,horizontal,1,3,green,2,1,980.31222920257,419.68777079743,980.31222920257,780.31222920257,980.31222920257,780.31222920257,980.31222920257,419.68777079743,619.68777079743,419.68777079743,619.68777079743,780.31222920257,3,4,0,5,horizontal,horizontal,vertical,horizontal
2a,24,100344,1,5,5,22,F,NA,variable,heterogeneous,4,absent,1.21007513999939,1,vertical,vertical,1,3,red,3,NaN,619.68777079743,419.68777079743,NaN,NaN,980.31222920257,780.31222920257,980.31222920257,419.68777079743,619.68777079743,419.68777079743,619.68777079743,780.31222920257,0,3,4,5,vertical,horizontal,vertical,horizontal
2a,24,100344,1,6,6,22,F,NA,variable,heterogeneous,4,present,1.67434597015381,1,horizontal,horizontal,1,2,green,4,2,619.68777079743,780.31222920257,980.31222920257,419.68777079743,980.31222920257,780.31222920257,980.31222920257,419.68777079743,619.68777079743,419.68777079743,619.68777079743,780.31222920257,5,6,3,4,horizontal,horizontal,horizontal,horizontal
2a,24,100344,1,7,7,22,F,NA,variable,heterogeneous,4,present,0.952045917510986,1,vertical,vertical,1,2,red,3,1,619.68777079743,419.68777079743,980.31222920257,780.31222920257,980.31222920257,780.31222920257,980.31222920257,419.68777079743,619.68777079743,419.68777079743,619.68777079743,780.31222920257,6,0,4,3,vertical,horizontal,vertical,horizontal
2a,24,100344,1,8,8,22,F,NA,variable,heterogeneous,4,present,1.15546011924744,1,vertical,vertical,1,5,red,4,2,619.68777079743,780.31222920257,980.31222920257,419.68777079743,980.31222920257,780.31222920257,980.31222920257,419.68777079743,619.68777079743,419.68777079743,619.68777079743,780.31222920257,5,6,3,4,horizontal,horizontal,horizontal,vertical
2a,24,100344,1,9,9,22,F,NA,variable,heterogeneous,4,absent,0.831066131591797,1,vertical,vertical,1,5,green,1,NaN,980.31222920257,780.31222920257,NaN,NaN,980.31222920257,780.31222920257,980.31222920257,419.68777079743,619.68777079743,419.68777079743,619.68777079743,780.31222920257,4,0,5,6,vertical,horizontal,horizontal,vertical
2a,24,100344,1,10,10,22,F,NA,variable,heterogeneous,4,present,1.37153697013855,1,vertical,vertical,1,3,green,4,3,619.68777079743,780.31222920257,619.68777079743,419.68777079743,980.31222920257,780.31222920257,980.31222920257,419.68777079743,619.68777079743,419.68777079743,619.68777079743,780.31222920257,5,6,3,4,horizontal,vertical,vertical,vertical
2a,24,100344,1,11,11,22,F,NA,variable,heterogeneous,4,present,0.819254159927368,1,horizontal,horizontal,1,5,green,2,1,980.31222920257,419.68777079743,980.31222920257,780.31222920257,980.31222920257,780.31222920257,980.31222920257,419.68777079743,619.68777079743,419.68777079743,619.68777079743,780.31222920257,6,4,5,3,horizontal,horizontal,vertical,vertical
2a,24,100344,1,12,12,22,F,NA,variable,heterogeneous,4,absent,1.01196694374084,1,vertical,vertical,1,5,green,1,NaN,980.31222920257,780.31222920257,NaN,NaN,980.31222920257,780.31222920257,980.31222920257,419.68777079743,619.68777079743,419.68777079743,619.68777079743,780.31222920257,4,0,5,6,vertical,horizontal,horizontal,horizontal
2a,24,100344,1,13,13,22,F,NA,variable,heterogeneous,4,present,0.764542818069458,1,vertical,vertical,1,5,green,2,3,980.31222920257,419.68777079743,619.68777079743,419.68777079743,980.31222920257,780.31222920257,980.31222920257,419.68777079743,619.68777079743,419.68777079743,619.68777079743,780.31222920257,3,4,5,0,vertical,vertical,horizontal,horizontal
2a,24,100344,1,14,14,22,F,NA,variable,heterogeneous,4,absent,0.763947010040283,1,vertical,vertical,1,8,green,1,NaN,980.31222920257,780.31222920257,NaN,NaN,980.31222920257,780.31222920257,980.31222920257,419.68777079743,619.68777079743,419.68777079743,619.68777079743,780.31222920257,4,5,3,6,vertical,vertical,vertical,horizontal
2a,24,100344,1,15,15,22,F,NA,variable,heterogeneous,4,absent,0.62791895866394,1,horizontal,horizontal,1,5,green,3,NaN,619.68777079743,419.68777079743,NaN,NaN,980.31222920257,780.31222920257,980.31222920257,419.68777079743,619.68777079743,419.68777079743,619.68777079743,780.31222920257,0,5,4,6,vertical,vertical,horizontal,vertical
2a,24,100344,1,16,16,22,F,NA,variable,heterogeneous,4,present,1.31241297721863,0,horizontal,vertical,1,2,green,2,3,980.31222920257,419.68777079743,619.68777079743,419.68777079743,980.31222920257,780.31222920257,980.31222920257,419.68777079743,619.68777079743,419.68777079743,619.68777079743,780.31222920257,3,4,6,0,vertical,horizontal,vertical,horizontal
2a,24,100344,1,17,17,22,F,NA,variable,heterogeneous,4,absent,1.25872993469238,1,vertical,vertical,1,3,red,4,NaN,619.68777079743,780.31222920257,NaN,NaN,980.31222920257,780.31222920257,980.31222920257,419.68777079743,619.68777079743,419.68777079743,619.68777079743,780.31222920257,5,0,3,4,vertical,horizontal,vertical,vertical
2a,24,100344,1,18,18,22,F,NA,variable,heterogeneous,4,absent,0.900352001190186,1,horizontal,horizontal,1,3,red,3,NaN,619.68777079743,419.68777079743,NaN,NaN,980.31222920257,780.31222920257,980.31222920257,419.68777079743,619.68777079743,419.68777079743,619.68777079743,780.31222920257,0,5,4,6,horizontal,horizontal,horizontal,vertical
2a,24,100344,1,19,19,22,F,NA,variable,heterogeneous,4,absent,1.35453295707703,1,horizontal,horizontal,1,2,red,3,NaN,619.68777079743,419.68777079743,NaN,NaN,980.31222920257,780.31222920257,980.31222920257,419.68777079743,619.68777079743,419.68777079743,619.68777079743,780.31222920257,6,3,4,0,horizontal,horizontal,horizontal,horizontal
2a,24,100344,1,20,20,22,F,NA,variable,heterogeneous,4,present,0.88589882850647,1,horizontal,horizontal,1,3,red,4,2,619.68777079743,780.31222920257,980.31222920257,419.68777079743,980.31222920257,780.31222920257,980.31222920257,419.68777079743,619.68777079743,419.68777079743,619.68777079743,780.31222920257,0,5,6,4,horizontal,vertical,vertical,horizontal
2a,24,100344,1,21,21,22,F,NA,variable,heterogeneous,4,present,0.911746025085449,1,vertical,vertical,1,8,green,2,1,980.31222920257,419.68777079743,980.31222920257,780.31222920257,980.31222920257,780.31222920257,980.31222920257,419.68777079743,619.68777079743,419.68777079743,619.68777079743,780.31222920257,0,4,3,5,vertical,vertical,vertical,vertical
2a,24,100344,1,22,22,22,F,NA,variable,heterogeneous,4,absent,0.714460849761963,1,vertical,vertical,1,2,red,3,NaN,619.68777079743,419.68777079743,NaN,NaN,980.31222920257,780.31222920257,980.31222920257,419.68777079743,619.68777079743,419.68777079743,619.68777079743,780.31222920257,0,6,4,5,vertical,vertical,vertical,vertical
2a,24,100344,1,23,23,22,F,NA,variable,heterogeneous,4,absent,1.07702279090881,1,horizontal,horizontal,1,5,red,4,NaN,619.68777079743,780.31222920257,NaN,NaN,980.31222920257,780.31222920257,980.31222920257,419.68777079743,619.68777079743,419.68777079743,619.68777079743,780.31222920257,0,5,3,4,vertical,horizontal,horizontal,horizontal
2a,24,100344,1,24,24,22,F,NA,variable,heterogeneous,4,present,1.23467111587524,1,vertical,vertical,1,2,red,4,1,619.68777079743,780.31222920257,980.31222920257,780.31222920257,980.31222920257,780.31222920257,980.31222920257,419.68777079743,619.68777079743,419.68777079743,619.68777079743,780.31222920257,5,3,6,4,horizontal,horizontal,vertical,vertical
2a,24,100344,1,25,25,22,F,NA,variable,heterogeneous,4,absent,1.05180287361145,1,horizontal,horizontal,1,8,red,4,NaN,619.68777079743,780.31222920257,NaN,NaN,980.31222920257,780.31222920257,980.31222920257,419.68777079743,619.68777079743,419.68777079743,619.68777079743,780.31222920257,3,6,5,4,horizontal,horizontal,vertical,horizontal
2a,24,100344,1,26,26,22,F,NA,variable,heterogeneous,4,absent,0.888792991638184,1,vertical,vertical,1,2,green,3,NaN,619.68777079743,419.68777079743,NaN,NaN,980.31222920257,780.31222920257,980.31222920257,419.68777079743,619.68777079743,419.68777079743,619.68777079743,780.31222920257,5,6,4,3,horizontal,vertical,vertical,vertical
2a,24,100344,1,27,27,22,F,NA,variable,heterogeneous,4,present,1.61101102828979,1,horizontal,horizontal,1,5,red,1,4,980.31222920257,780.31222920257,619.68777079743,780.31222920257,980.31222920257,780.31222920257,980.31222920257,419.68777079743,619.68777079743,419.68777079743,619.68777079743,780.31222920257,4,0,6,5,horizontal,horizontal,horizontal,vertical
2a,24,100344,1,28,28,22,F,NA,variable,heterogeneous,4,present,1.41950511932373,1,vertical,vertical,1,2,red,4,1,619.68777079743,780.31222920257,980.31222920257,780.31222920257,980.31222920257,780.31222920257,980.31222920257,419.68777079743,619.68777079743,419.68777079743,619.68777079743,780.31222920257,6,5,3,4,vertical,horizontal,horizontal,vertical
2a,24,100344,1,29,29,22,F,NA,variable,heterogeneous,4,absent,1.08381509780884,1,horizontal,horizontal,1,2,red,2,NaN,980.31222920257,419.68777079743,NaN,NaN,980.31222920257,780.31222920257,980.31222920257,419.68777079743,619.68777079743,419.68777079743,619.68777079743,780.31222920257,3,4,0,6,horizontal,horizontal,horizontal,vertical
2a,24,100344,1,30,30,22,F,NA,variable,heterogeneous,4,present,1.045814037323,1,vertical,vertical,1,3,red,3,2,619.68777079743,419.68777079743,980.31222920257,419.68777079743,980.31222920257,780.31222920257,980.31222920257,419.68777079743,619.68777079743,419.68777079743,619.68777079743,780.31222920257,3,6,4,5,vertical,vertical,vertical,horizontal
2a,24,100344,1,31,31,22,F,NA,variable,heterogeneous,4,present,1.8031690120697,1,horizontal,horizontal,1,8,red,2,3,980.31222920257,419.68777079743,619.68777079743,419.68777079743,980.31222920257,780.31222920257,980.31222920257,419.68777079743,619.68777079743,419.68777079743,619.68777079743,780.31222920257,6,4,3,5,horizontal,horizontal,vertical,horizontal
2a,24,100344,1,32,32,22,F,NA,variable,heterogeneous,4,absent,0.791630983352661,1,vertical,vertical,1,2,red,3,NaN,619.68777079743,419.68777079743,NaN,NaN,980.31222920257,780.31222920257,980.31222920257,419.68777079743,619.68777079743,419.68777079743,619.68777079743,780.31222920257,0,5,4,6,vertical,horizontal,vertical,vertical
2a,24,100344,2,1,33,22,F,NA,variable,heterogeneous,4,present,1.86265993118286,1,horizontal,horizontal,1,3,red,3,4,619.68777079743,419.68777079743,619.68777079743,780.31222920257,980.31222920257,780.31222920257,980.31222920257,419.68777079743,619.68777079743,419.68777079743,619.68777079743,780.31222920257,6,5,4,3,vertical,vertical,horizontal,vertical
2a,24,100344,2,2,34,22,F,NA,variable,heterogeneous,4,present,1.12052488327026,1,vertical,vertical,1,3,green,2,4,980.31222920257,419.68777079743,619.68777079743,780.31222920257,980.31222920257,780.31222920257,980.31222920257,419.68777079743,619.68777079743,419.68777079743,619.68777079743,780.31222920257,0,4,5,3,vertical,vertical,horizontal,vertical
2a,24,100344,2,3,35,22,F,NA,variable,heterogeneous,4,present,1.08691310882568,1,vertical,vertical,1,5,green,2,4,980.31222920257,419.68777079743,619.68777079743,780.31222920257,980.31222920257,780.31222920257,980.31222920257,419.68777079743,619.68777079743,419.68777079743,619.68777079743,780.31222920257,5,4,6,3,vertical,vertical,vertical,vertical
2a,24,100344,2,4,36,22,F,NA,variable,heterogeneous,4,present,1.03295993804932,1,horizontal,horizontal,1,2,green,4,3,619.68777079743,780.31222920257,619.68777079743,419.68777079743,980.31222920257,780.31222920257,980.31222920257,419.68777079743,619.68777079743,419.68777079743,619.68777079743,780.31222920257,3,0,5,4,horizontal,horizontal,vertical,horizontal
2a,24,100344,2,5,37,22,F,NA,variable,heterogeneous,4,absent,1.78985404968262,1,vertical,vertical,1,2,red,3,NaN,619.68777079743,419.68777079743,NaN,NaN,980.31222920257,780.31222920257,980.31222920257,419.68777079743,619.68777079743,419.68777079743,619.68777079743,780.31222920257,0,5,4,3,horizontal,horizontal,vertical,horizontal
2a,24,100344,2,6,38,22,F,NA,variable,heterogeneous,4,absent,1.39751577377319,1,vertical,vertical,1,3,green,4,NaN,619.68777079743,780.31222920257,NaN,NaN,980.31222920257,780.31222920257,980.31222920257,419.68777079743,619.68777079743,419.68777079743,619.68777079743,780.31222920257,0,5,3,4,horizontal,horizontal,vertical,vertical
2a,24,100344,2,7,39,22,F,NA,variable,heterogeneous,4,absent,0.805763959884644,1,vertical,vertical,1,5,red,2,NaN,980.31222920257,419.68777079743,NaN,NaN,980.31222920257,780.31222920257,980.31222920257,419.68777079743,619.68777079743,419.68777079743,619.68777079743,780.31222920257,6,4,0,3,vertical,vertical,vertical,vertical
2a,24,100344,2,8,40,22,F,NA,variable,heterogeneous,4,absent,1.09823608398438,1,horizontal,horizontal,1,8,red,4,NaN,619.68777079743,780.31222920257,NaN,NaN,980.31222920257,780.31222920257,980.31222920257,419.68777079743,619.68777079743,419.68777079743,619.68777079743,780.31222920257,5,0,6,4,vertical,horizontal,vertical,horizontal
2a,24,100344,2,9,41,22,F,NA,variable,heterogeneous,4,absent,1.73643398284912,1,horizontal,horizontal,1,2,red,1,NaN,980.31222920257,780.31222920257,NaN,NaN,980.31222920257,780.31222920257,980.31222920257,419.68777079743,619.68777079743,419.68777079743,619.68777079743,780.31222920257,4,3,0,5,horizontal,horizontal,horizontal,horizontal
2a,24,100344,2,10,42,22,F,NA,variable,heterogeneous,4,present,0.979554891586304,1,vertical,vertical,1,2,red,4,2,619.68777079743,780.31222920257,980.31222920257,419.68777079743,980.31222920257,780.31222920257,980.31222920257,419.68777079743,619.68777079743,419.68777079743,619.68777079743,780.31222920257,3,5,6,4,horizontal,vertical,horizontal,vertical
2a,24,100344,2,11,43,22,F,NA,variable,heterogeneous,4,present,0.951260089874268,1,vertical,vertical,1,2,red,4,1,619.68777079743,780.31222920257,980.31222920257,780.31222920257,980.31222920257,780.31222920257,980.31222920257,419.68777079743,619.68777079743,419.68777079743,619.68777079743,780.31222920257,3,6,5,4,vertical,vertical,vertical,vertical
2a,24,100344,2,12,44,22,F,NA,variable,heterogeneous,4,absent,0.99034595489502,1,vertical,vertical,1,3,green,2,NaN,980.31222920257,419.68777079743,NaN,NaN,980.31222920257,780.31222920257,980.31222920257,419.68777079743,619.68777079743,419.68777079743,619.68777079743,780.31222920257,3,4,6,5,vertical,vertical,vertical,horizontal
2a,24,100344,2,13,45,22,F,NA,variable,heterogeneous,4,present,0.750152826309204,1,horizontal,horizontal,1,8,green,2,3,980.31222920257,419.68777079743,619.68777079743,419.68777079743,980.31222920257,780.31222920257,980.31222920257,419.68777079743,619.68777079743,419.68777079743,619.68777079743,780.31222920257,6,4,5,3,vertical,horizontal,vertical,horizontal
2a,24,100344,2,14,46,22,F,NA,variable,heterogeneous,4,absent,0.997859001159668,1,vertical,vertical,1,5,red,1,NaN,980.31222920257,780.31222920257,NaN,NaN,980.31222920257,780.31222920257,980.31222920257,419.68777079743,619.68777079743,419.68777079743,619.68777079743,780.31222920257,4,6,0,3,vertical,horizontal,vertical,vertical
2a,24,100344,2,15,47,22,F,NA,variable,heterogeneous,4,present,0.790053129196167,1,vertical,vertical,1,8,green,1,2,980.31222920257,780.31222920257,980.31222920257,419.68777079743,980.31222920257,780.31222920257,980.31222920257,419.68777079743,619.68777079743,419.68777079743,619.68777079743,780.31222920257,4,5,3,0,vertical,horizontal,horizontal,horizontal
2a,24,100344,2,16,48,22,F,NA,variable,heterogeneous,4,absent,1.81393694877625,0,horizontal,vertical,1,3,red,3,NaN,619.68777079743,419.68777079743,NaN,NaN,980.31222920257,780.31222920257,980.31222920257,419.68777079743,619.68777079743,419.68777079743,619.68777079743,780.31222920257,6,0,4,3,horizontal,vertical,horizontal,vertical
2a,24,100344,2,17,49,22,F,NA,variable,heterogeneous,4,absent,0.742378950119019,1,vertical,vertical,1,2,green,1,NaN,980.31222920257,780.31222920257,NaN,NaN,980.31222920257,780.31222920257,980.31222920257,419.68777079743,619.68777079743,419.68777079743,619.68777079743,780.31222920257,4,0,5,6,vertical,horizontal,horizontal,vertical
2a,24,100344,2,18,50,22,F,NA,variable,heterogeneous,4,present,1.18963599205017,1,vertical,vertical,1,3,green,1,4,980.31222920257,780.31222920257,619.68777079743,780.31222920257,980.31222920257,780.31222920257,980.31222920257,419.68777079743,619.68777079743,419.68777079743,619.68777079743,780.31222920257,4,6,3,0,vertical,horizontal,horizontal,horizontal
2a,24,100344,2,19,51,22,F,NA,variable,heterogeneous,4,present,1.30166411399841,1,horizontal,horizontal,1,2,red,4,1,619.68777079743,780.31222920257,980.31222920257,780.31222920257,980.31222920257,780.31222920257,980.31222920257,419.68777079743,619.68777079743,419.68777079743,619.68777079743,780.31222920257,3,0,5,4,horizontal,vertical,horizontal,horizontal
2a,24,100344,2,20,52,22,F,NA,variable,heterogeneous,4,absent,0.803835153579712,1,vertical,vertical,1,2,red,1,NaN,980.31222920257,780.31222920257,NaN,NaN,980.31222920257,780.31222920257,980.31222920257,419.68777079743,619.68777079743,419.68777079743,619.68777079743,780.31222920257,4,3,0,6,vertical,horizontal,vertical,horizontal
2a,24,100344,2,21,53,22,F,NA,variable,heterogeneous,4,present,0.920068025588989,1,horizontal,horizontal,1,2,red,3,1,619.68777079743,419.68777079743,980.31222920257,780.31222920257,980.31222920257,780.31222920257,980.31222920257,419.68777079743,619.68777079743,419.68777079743,619.68777079743,780.31222920257,6,0,4,3,vertical,horizontal,horizontal,vertical
2a,24,100344,2,22,54,22,F,NA,variable,heterogeneous,4,present,1.2143189907074,1,vertical,vertical,1,2,green,2,4,980.31222920257,419.68777079743,619.68777079743,780.31222920257,980.31222920257,780.31222920257,980.31222920257,419.68777079743,619.68777079743,419.68777079743,619.68777079743,780.31222920257,0,4,6,5,horizontal,vertical,vertical,horizontal
2a,24,100344,2,23,55,22,F,NA,variable,heterogeneous,4,present,0.703325986862183,1,horizontal,horizontal,1,3,green,3,1,619.68777079743,419.68777079743,980.31222920257,780.31222920257,980.31222920257,780.31222920257,980.31222920257,419.68777079743,619.68777079743,419.68777079743,619.68777079743,780.31222920257,3,6,4,5,horizontal,vertical,horizontal,vertical
2a,24,100344,2,24,56,22,F,NA,variable,heterogeneous,4,absent,0.741664886474609,1,horizontal,horizontal,1,2,red,3,NaN,619.68777079743,419.68777079743,NaN,NaN,980.31222920257,780.31222920257,980.31222920257,419.68777079743,619.68777079743,419.68777079743,619.68777079743,780.31222920257,0,3,4,6,horizontal,vertical,horizontal,horizontal
2a,24,100344,2,25,57,22,F,NA,variable,heterogeneous,4,absent,0.980471849441528,1,vertical,vertical,1,8,green,1,NaN,980.31222920257,780.31222920257,NaN,NaN,980.31222920257,780.31222920257,980.31222920257,419.68777079743,619.68777079743,419.68777079743,619.68777079743,780.31222920257,4,6,0,5,vertical,vertical,vertical,horizontal
2a,24,100344,2,26,58,22,F,NA,variable,heterogeneous,4,absent,0.91250205039978,1,horizontal,horizontal,1,3,red,4,NaN,619.68777079743,780.31222920257,NaN,NaN,980.31222920257,780.31222920257,980.31222920257,419.68777079743,619.68777079743,419.68777079743,619.68777079743,780.31222920257,6,5,0,4,vertical,vertical,vertical,horizontal
2a,24,100344,2,27,59,22,F,NA,variable,heterogeneous,4,absent,0.834980010986328,1,horizontal,horizontal,1,5,red,1,NaN,980.31222920257,780.31222920257,NaN,NaN,980.31222920257,780.31222920257,980.31222920257,419.68777079743,619.68777079743,419.68777079743,619.68777079743,780.31222920257,4,0,6,5,horizontal,horizontal,vertical,horizontal
2a,24,100344,2,28,60,22,F,NA,variable,heterogeneous,4,present,0.755945920944214,1,horizontal,horizontal,1,5,red,3,4,619.68777079743,419.68777079743,619.68777079743,780.31222920257,980.31222920257,780.31222920257,980.31222920257,419.68777079743,619.68777079743,419.68777079743,619.68777079743,780.31222920257,0,3,4,5,vertical,horizontal,horizontal,vertical
2a,24,100344,2,29,61,22,F,NA,variable,heterogeneous,4,absent,1.3033881187439,1,horizontal,horizontal,1,2,green,1,NaN,980.31222920257,780.31222920257,NaN,NaN,980.31222920257,780.31222920257,980.31222920257,419.68777079743,619.68777079743,419.68777079743,619.68777079743,780.31222920257,4,0,5,3,horizontal,vertical,vertical,vertical
2a,24,100344,2,30,62,22,F,NA,variable,heterogeneous,4,present,1.26166820526123,1,vertical,vertical,1,5,red,3,2,619.68777079743,419.68777079743,980.31222920257,419.68777079743,980.31222920257,780.31222920257,980.31222920257,419.68777079743,619.68777079743,419.68777079743,619.68777079743,780.31222920257,3,5,4,0,vertical,vertical,vertical,horizontal
2a,24,100344,2,31,63,22,F,NA,variable,heterogeneous,4,absent,1.33521008491516,1,horizontal,horizontal,1,5,red,1,NaN,980.31222920257,780.31222920257,NaN,NaN,980.31222920257,780.31222920257,980.31222920257,419.68777079743,619.68777079743,419.68777079743,619.68777079743,780.31222920257,4,5,0,6,horizontal,horizontal,vertical,horizontal
2a,24,100344,2,32,64,22,F,NA,variable,heterogeneous,4,present,0.793905973434448,1,horizontal,horizontal,1,5,green,1,3,980.31222920257,780.31222920257,619.68777079743,419.68777079743,980.31222920257,780.31222920257,980.31222920257,419.68777079743,619.68777079743,419.68777079743,619.68777079743,780.31222920257,4,0,5,6,horizontal,vertical,horizontal,vertical
2a,24,100344,3,1,65,22,F,NA,variable,heterogeneous,4,present,0.835730075836182,1,vertical,vertical,1,8,green,3,4,619.68777079743,419.68777079743,619.68777079743,780.31222920257,980.31222920257,780.31222920257,980.31222920257,419.68777079743,619.68777079743,419.68777079743,619.68777079743,780.31222920257,0,6,4,5,horizontal,horizontal,vertical,vertical
2a,24,100344,3,2,66,22,F,NA,variable,heterogeneous,4,absent,1.20478892326355,1,horizontal,horizontal,1,3,red,2,NaN,980.31222920257,419.68777079743,NaN,NaN,980.31222920257,780.31222920257,980.31222920257,419.68777079743,619.68777079743,419.68777079743,619.68777079743,780.31222920257,6,4,5,3,vertical,horizontal,vertical,vertical
2a,24,100344,3,3,67,22,F,NA,variable,heterogeneous,4,absent,0.873028993606567,1,horizontal,horizontal,1,3,green,3,NaN,619.68777079743,419.68777079743,NaN,NaN,980.31222920257,780.31222920257,980.31222920257,419.68777079743,619.68777079743,419.68777079743,619.68777079743,780.31222920257,0,5,4,6,vertical,horizontal,horizontal,horizontal
2a,24,100344,3,4,68,22,F,NA,variable,heterogeneous,4,absent,0.862666845321655,1,horizontal,horizontal,1,5,red,4,NaN,619.68777079743,780.31222920257,NaN,NaN,980.31222920257,780.31222920257,980.31222920257,419.68777079743,619.68777079743,419.68777079743,619.68777079743,780.31222920257,3,0,6,4,vertical,horizontal,vertical,horizontal
2a,24,100344,3,5,69,22,F,NA,variable,heterogeneous,4,absent,1.11214995384216,1,vertical,vertical,1,2,red,2,NaN,980.31222920257,419.68777079743,NaN,NaN,980.31222920257,780.31222920257,980.31222920257,419.68777079743,619.68777079743,419.68777079743,619.68777079743,780.31222920257,5,4,3,0,horizontal,vertical,horizontal,horizontal
2a,24,100344,3,6,70,22,F,NA,variable,heterogeneous,4,absent,1.01050114631653,1,horizontal,horizontal,1,8,green,4,NaN,619.68777079743,780.31222920257,NaN,NaN,980.31222920257,780.31222920257,980.31222920257,419.68777079743,619.68777079743,419.68777079743,619.68777079743,780.31222920257,0,3,5,4,vertical,horizontal,horizontal,horizontal
2a,24,100344,3,7,71,22,F,NA,variable,heterogeneous,4,present,1.60329508781433,1,horizontal,horizontal,1,2,green,2,1,980.31222920257,419.68777079743,980.31222920257,780.31222920257,980.31222920257,780.31222920257,980.31222920257,419.68777079743,619.68777079743,419.68777079743,619.68777079743,780.31222920257,0,4,6,3,vertical,horizontal,horizontal,vertical
2a,24,100344,3,8,72,22,F,NA,variable,heterogeneous,4,present,0.927635908126831,1,vertical,vertical,1,5,red,3,4,619.68777079743,419.68777079743,619.68777079743,780.31222920257,980.31222920257,780.31222920257,980.31222920257,419.68777079743,619.68777079743,419.68777079743,619.68777079743,780.31222920257,5,3,4,0,vertical,vertical,vertical,horizontal
2a,24,100344,3,9,73,22,F,NA,variable,heterogeneous,4,absent,0.73431396484375,1,horizontal,horizontal,1,5,green,2,NaN,980.31222920257,419.68777079743,NaN,NaN,980.31222920257,780.31222920257,980.31222920257,419.68777079743,619.68777079743,419.68777079743,619.68777079743,780.31222920257,5,4,3,0,horizontal,horizontal,horizontal,vertical
2a,24,100344,3,10,74,22,F,NA,variable,heterogeneous,4,absent,1.36132001876831,1,horizontal,horizontal,1,2,red,1,NaN,980.31222920257,780.31222920257,NaN,NaN,980.31222920257,780.31222920257,980.31222920257,419.68777079743,619.68777079743,419.68777079743,619.68777079743,780.31222920257,4,3,0,6,horizontal,horizontal,vertical,vertical
2a,24,100344,3,11,75,22,F,NA,variable,heterogeneous,4,present,0.908538103103638,1,vertical,vertical,1,3,green,2,4,980.31222920257,419.68777079743,619.68777079743,780.31222920257,980.31222920257,780.31222920257,980.31222920257,419.68777079743,619.68777079743,419.68777079743,619.68777079743,780.31222920257,3,4,5,0,vertical,vertical,vertical,vertical
2a,24,100344,3,12,76,22,F,NA,variable,heterogeneous,4,present,1.79120993614197,1,horizontal,horizontal,1,3,red,4,3,619.68777079743,780.31222920257,619.68777079743,419.68777079743,980.31222920257,780.31222920257,980.31222920257,419.68777079743,619.68777079743,419.68777079743,619.68777079743,780.31222920257,5,0,3,4,vertical,vertical,vertical,horizontal
2a,24,100344,3,13,77,22,F,NA,variable,heterogeneous,4,absent,0.959151029586792,1,horizontal,horizontal,1,2,green,1,NaN,980.31222920257,780.31222920257,NaN,NaN,980.31222920257,780.31222920257,980.31222920257,419.68777079743,619.68777079743,419.68777079743,619.68777079743,780.31222920257,4,6,0,5,horizontal,vertical,vertical,vertical
2a,24,100344,3,14,78,22,F,NA,variable,heterogeneous,4,absent,1.15418386459351,1,vertical,vertical,1,2,green,4,NaN,619.68777079743,780.31222920257,NaN,NaN,980.31222920257,780.31222920257,980.31222920257,419.68777079743,619.68777079743,419.68777079743,619.68777079743,780.31222920257,5,6,3,4,vertical,vertical,horizontal,vertical
2a,24,100344,3,15,79,22,F,NA,variable,heterogeneous,4,absent,0.853604078292847,1,horizontal,horizontal,1,2,green,2,NaN,980.31222920257,419.68777079743,NaN,NaN,980.31222920257,780.31222920257,980.31222920257,419.68777079743,619.68777079743,419.68777079743,619.68777079743,780.31222920257,0,4,5,3,vertical,horizontal,horizontal,vertical
2a,24,100344,3,16,80,22,F,NA,variable,heterogeneous,4,present,NaN,0,horizontal,none,0,3,green,4,1,619.68777079743,780.31222920257,980.31222920257,780.31222920257,980.31222920257,780.31222920257,980.31222920257,419.68777079743,619.68777079743,419.68777079743,619.68777079743,780.31222920257,5,0,3,4,vertical,vertical,vertical,horizontal
2a,24,100344,3,17,81,22,F,NA,variable,heterogeneous,4,absent,0.799282073974609,1,vertical,vertical,1,5,green,2,NaN,980.31222920257,419.68777079743,NaN,NaN,980.31222920257,780.31222920257,980.31222920257,419.68777079743,619.68777079743,419.68777079743,619.68777079743,780.31222920257,3,4,6,5,horizontal,vertical,horizontal,vertical
2a,24,100344,3,18,82,22,F,NA,variable,heterogeneous,4,absent,0.89963698387146,1,vertical,vertical,1,5,red,2,NaN,980.31222920257,419.68777079743,NaN,NaN,980.31222920257,780.31222920257,980.31222920257,419.68777079743,619.68777079743,419.68777079743,619.68777079743,780.31222920257,0,4,5,3,horizontal,vertical,vertical,horizontal
2a,24,100344,3,19,83,22,F,NA,variable,heterogeneous,4,present,1.2476499080658,1,vertical,vertical,1,3,red,4,1,619.68777079743,780.31222920257,980.31222920257,780.31222920257,980.31222920257,780.31222920257,980.31222920257,419.68777079743,619.68777079743,419.68777079743,619.68777079743,780.31222920257,6,3,5,4,horizontal,horizontal,vertical,vertical
2a,24,100344,3,20,84,22,F,NA,variable,heterogeneous,4,present,0.895037174224854,1,vertical,vertical,1,5,red,4,2,619.68777079743,780.31222920257,980.31222920257,419.68777079743,980.31222920257,780.31222920257,980.31222920257,419.68777079743,619.68777079743,419.68777079743,619.68777079743,780.31222920257,3,0,5,4,vertical,vertical,vertical,vertical
2a,24,100344,3,21,85,22,F,NA,variable,heterogeneous,4,present,1.00551605224609,1,vertical,vertical,1,2,red,3,2,619.68777079743,419.68777079743,980.31222920257,419.68777079743,980.31222920257,780.31222920257,980.31222920257,419.68777079743,619.68777079743,419.68777079743,619.68777079743,780.31222920257,3,5,4,0,horizontal,vertical,vertical,vertical
2a,24,100344,3,22,86,22,F,NA,variable,heterogeneous,4,absent,0.737632989883423,1,vertical,vertical,1,3,red,3,NaN,619.68777079743,419.68777079743,NaN,NaN,980.31222920257,780.31222920257,980.31222920257,419.68777079743,619.68777079743,419.68777079743,619.68777079743,780.31222920257,0,5,4,6,vertical,horizontal,vertical,horizontal
2a,24,100344,3,23,87,22,F,NA,variable,heterogeneous,4,present,0.900590181350708,1,horizontal,horizontal,1,2,red,1,3,980.31222920257,780.31222920257,619.68777079743,419.68777079743,980.31222920257,780.31222920257,980.31222920257,419.68777079743,619.68777079743,419.68777079743,619.68777079743,780.31222920257,4,0,3,6,horizontal,horizontal,vertical,horizontal
2a,24,100344,3,24,88,22,F,NA,variable,heterogeneous,4,present,1.03497409820557,0,vertical,horizontal,1,2,red,4,2,619.68777079743,780.31222920257,980.31222920257,419.68777079743,980.31222920257,780.31222920257,980.31222920257,419.68777079743,619.68777079743,419.68777079743,619.68777079743,780.31222920257,5,6,3,4,vertical,vertical,horizontal,vertical
2a,24,100344,3,25,89,22,F,NA,variable,heterogeneous,4,absent,1.16372203826904,1,vertical,vertical,1,8,green,2,NaN,980.31222920257,419.68777079743,NaN,NaN,980.31222920257,780.31222920257,980.31222920257,419.68777079743,619.68777079743,419.68777079743,619.68777079743,780.31222920257,5,4,3,0,horizontal,vertical,vertical,vertical
2a,24,100344,3,26,90,22,F,NA,variable,heterogeneous,4,absent,1.09962010383606,1,vertical,vertical,1,3,red,3,NaN,619.68777079743,419.68777079743,NaN,NaN,980.31222920257,780.31222920257,980.31222920257,419.68777079743,619.68777079743,419.68777079743,619.68777079743,780.31222920257,5,6,4,3,vertical,horizontal,vertical,vertical
2a,24,100344,3,27,91,22,F,NA,variable,heterogeneous,4,present,1.16163897514343,1,horizontal,horizontal,1,5,red,3,2,619.68777079743,419.68777079743,980.31222920257,419.68777079743,980.31222920257,780.31222920257,980.31222920257,419.68777079743,619.68777079743,419.68777079743,619.68777079743,780.31222920257,6,0,4,5,horizontal,horizontal,horizontal,vertical
2a,24,100344,3,28,92,22,F,NA,variable,heterogeneous,4,present,0.956818103790283,1,horizontal,horizontal,1,8,red,4,1,619.68777079743,780.31222920257,980.31222920257,780.31222920257,980.31222920257,780.31222920257,980.31222920257,419.68777079743,619.68777079743,419.68777079743,619.68777079743,780.31222920257,5,0,6,4,horizontal,vertical,horizontal,horizontal
2a,24,100344,3,29,93,22,F,NA,variable,heterogeneous,4,present,0.880493879318237,1,vertical,vertical,1,2,red,2,3,980.31222920257,419.68777079743,619.68777079743,419.68777079743,980.31222920257,780.31222920257,980.31222920257,419.68777079743,619.68777079743,419.68777079743,619.68777079743,780.31222920257,0,4,3,5,vertical,vertical,horizontal,vertical
2a,24,100344,3,30,94,22,F,NA,variable,heterogeneous,4,present,0.958362817764282,1,horizontal,horizontal,1,2,red,2,1,980.31222920257,419.68777079743,980.31222920257,780.31222920257,980.31222920257,780.31222920257,980.31222920257,419.68777079743,619.68777079743,419.68777079743,619.68777079743,780.31222920257,6,4,0,5,vertical,horizontal,vertical,horizontal
2a,24,100344,3,31,95,22,F,NA,variable,heterogeneous,4,present,0.921571016311646,1,horizontal,horizontal,1,5,red,1,2,980.31222920257,780.31222920257,980.31222920257,419.68777079743,980.31222920257,780.31222920257,980.31222920257,419.68777079743,619.68777079743,419.68777079743,619.68777079743,780.31222920257,4,3,0,6,horizontal,vertical,horizontal,horizontal
2a,24,100344,3,32,96,22,F,NA,variable,heterogeneous,4,absent,0.807771921157837,1,vertical,vertical,1,2,red,2,NaN,980.31222920257,419.68777079743,NaN,NaN,980.31222920257,780.31222920257,980.31222920257,419.68777079743,619.68777079743,419.68777079743,619.68777079743,780.31222920257,6,4,5,3,vertical,vertical,horizontal,vertical
2a,24,100344,4,1,97,22,F,NA,variable,heterogeneous,4,absent,0.963670969009399,1,horizontal,horizontal,1,5,red,1,NaN,980.31222920257,780.31222920257,NaN,NaN,980.31222920257,780.31222920257,980.31222920257,419.68777079743,619.68777079743,419.68777079743,619.68777079743,780.31222920257,4,6,5,0,horizontal,vertical,horizontal,vertical
2a,24,100344,4,2,98,22,F,NA,variable,heterogeneous,4,absent,1.39913392066956,1,vertical,vertical,1,2,green,3,NaN,619.68777079743,419.68777079743,NaN,NaN,980.31222920257,780.31222920257,980.31222920257,419.68777079743,619.68777079743,419.68777079743,619.68777079743,780.31222920257,0,5,4,3,vertical,vertical,vertical,vertical
2a,24,100344,4,3,99,22,F,NA,variable,heterogeneous,4,present,1.03118205070496,1,vertical,vertical,1,5,red,4,2,619.68777079743,780.31222920257,980.31222920257,419.68777079743,980.31222920257,780.31222920257,980.31222920257,419.68777079743,619.68777079743,419.68777079743,619.68777079743,780.31222920257,5,6,0,4,horizontal,horizontal,horizontal,vertical
2a,24,100344,4,4,100,22,F,NA,variable,heterogeneous,4,present,0.859792947769165,1,vertical,vertical,1,2,red,3,4,619.68777079743,419.68777079743,619.68777079743,780.31222920257,980.31222920257,780.31222920257,980.31222920257,419.68777079743,619.68777079743,419.68777079743,619.68777079743,780.31222920257,6,3,4,0,vertical,vertical,vertical,horizontal
2a,24,100344,4,5,101,22,F,NA,variable,heterogeneous,4,absent,1.75729203224182,1,vertical,vertical,1,3,green,3,NaN,619.68777079743,419.68777079743,NaN,NaN,980.31222920257,780.31222920257,980.31222920257,419.68777079743,619.68777079743,419.68777079743,619.68777079743,780.31222920257,3,5,4,6,horizontal,horizontal,vertical,horizontal
2a,24,100344,4,6,102,22,F,NA,variable,heterogeneous,4,present,0.792755126953125,1,vertical,vertical,1,5,green,1,4,980.31222920257,780.31222920257,619.68777079743,780.31222920257,980.31222920257,780.31222920257,980.31222920257,419.68777079743,619.68777079743,419.68777079743,619.68777079743,780.31222920257,4,5,6,0,vertical,horizontal,horizontal,vertical
2a,24,100344,4,7,103,22,F,NA,variable,heterogeneous,4,present,0.936809062957764,0,vertical,horizontal,1,2,red,3,4,619.68777079743,419.68777079743,619.68777079743,780.31222920257,980.31222920257,780.31222920257,980.31222920257,419.68777079743,619.68777079743,419.68777079743,619.68777079743,780.31222920257,3,0,4,5,horizontal,vertical,vertical,horizontal
2a,24,100344,4,8,104,22,F,NA,variable,heterogeneous,4,present,1.45959305763245,1,vertical,vertical,1,2,red,4,3,619.68777079743,780.31222920257,619.68777079743,419.68777079743,980.31222920257,780.31222920257,980.31222920257,419.68777079743,619.68777079743,419.68777079743,619.68777079743,780.31222920257,6,0,5,4,horizontal,vertical,vertical,vertical
2a,24,100344,4,9,105,22,F,NA,variable,heterogeneous,4,absent,0.973407030105591,1,vertical,vertical,1,2,red,1,NaN,980.31222920257,780.31222920257,NaN,NaN,980.31222920257,780.31222920257,980.31222920257,419.68777079743,619.68777079743,419.68777079743,619.68777079743,780.31222920257,4,6,3,0,vertical,horizontal,vertical,vertical
2a,24,100344,4,10,106,22,F,NA,variable,heterogeneous,4,absent,1.10074996948242,0,horizontal,vertical,1,3,red,1,NaN,980.31222920257,780.31222920257,NaN,NaN,980.31222920257,780.31222920257,980.31222920257,419.68777079743,619.68777079743,419.68777079743,619.68777079743,780.31222920257,4,5,6,0,horizontal,vertical,vertical,horizontal
2a,24,100344,4,11,107,22,F,NA,variable,heterogeneous,4,present,1.22706913948059,1,horizontal,horizontal,1,5,green,3,4,619.68777079743,419.68777079743,619.68777079743,780.31222920257,980.31222920257,780.31222920257,980.31222920257,419.68777079743,619.68777079743,419.68777079743,619.68777079743,780.31222920257,0,5,4,6,horizontal,horizontal,horizontal,vertical
2a,24,100344,4,12,108,22,F,NA,variable,heterogeneous,4,present,1.72756576538086,1,vertical,vertical,1,3,green,4,3,619.68777079743,780.31222920257,619.68777079743,419.68777079743,980.31222920257,780.31222920257,980.31222920257,419.68777079743,619.68777079743,419.68777079743,619.68777079743,780.31222920257,0,3,5,4,vertical,vertical,vertical,vertical
2a,24,100344,4,13,109,22,F,NA,variable,heterogeneous,4,present,1.03033804893494,1,horizontal,horizontal,1,3,red,4,2,619.68777079743,780.31222920257,980.31222920257,419.68777079743,980.31222920257,780.31222920257,980.31222920257,419.68777079743,619.68777079743,419.68777079743,619.68777079743,780.31222920257,6,5,0,4,vertical,horizontal,vertical,horizontal
2a,24,100344,4,14,110,22,F,NA,variable,heterogeneous,4,absent,1.11522889137268,1,vertical,vertical,1,3,red,3,NaN,619.68777079743,419.68777079743,NaN,NaN,980.31222920257,780.31222920257,980.31222920257,419.68777079743,619.68777079743,419.68777079743,619.68777079743,780.31222920257,6,0,4,3,horizontal,horizontal,vertical,horizontal
2a,24,100344,4,15,111,22,F,NA,variable,heterogeneous,4,absent,1.54153680801392,1,vertical,vertical,1,5,red,4,NaN,619.68777079743,780.31222920257,NaN,NaN,980.31222920257,780.31222920257,980.31222920257,419.68777079743,619.68777079743,419.68777079743,619.68777079743,780.31222920257,0,5,3,4,vertical,vertical,horizontal,vertical
2a,24,100344,4,16,112,22,F,NA,variable,heterogeneous,4,absent,0.892922163009644,1,horizontal,horizontal,1,3,red,3,NaN,619.68777079743,419.68777079743,NaN,NaN,980.31222920257,780.31222920257,980.31222920257,419.68777079743,619.68777079743,419.68777079743,619.68777079743,780.31222920257,6,3,4,5,vertical,horizontal,horizontal,vertical
2a,24,100344,4,17,113,22,F,NA,variable,heterogeneous,4,absent,0.890734910964966,1,horizontal,horizontal,1,2,red,3,NaN,619.68777079743,419.68777079743,NaN,NaN,980.31222920257,780.31222920257,980.31222920257,419.68777079743,619.68777079743,419.68777079743,619.68777079743,780.31222920257,3,0,4,5,horizontal,vertical,horizontal,horizontal
2a,24,100344,4,18,114,22,F,NA,variable,heterogeneous,4,present,1.02101492881775,0,horizontal,vertical,1,5,green,3,2,619.68777079743,419.68777079743,980.31222920257,419.68777079743,980.31222920257,780.31222920257,980.31222920257,419.68777079743,619.68777079743,419.68777079743,619.68777079743,780.31222920257,3,6,4,0,horizontal,horizontal,horizontal,vertical
2a,24,100344,4,19,115,22,F,NA,variable,heterogeneous,4,absent,0.901412963867188,1,horizontal,horizontal,1,8,red,4,NaN,619.68777079743,780.31222920257,NaN,NaN,980.31222920257,780.31222920257,980.31222920257,419.68777079743,619.68777079743,419.68777079743,619.68777079743,780.31222920257,3,6,0,4,vertical,vertical,horizontal,horizontal
2a,24,100344,4,20,116,22,F,NA,variable,heterogeneous,4,present,0.763893842697144,1,vertical,vertical,1,8,red,3,4,619.68777079743,419.68777079743,619.68777079743,780.31222920257,980.31222920257,780.31222920257,980.31222920257,419.68777079743,619.68777079743,419.68777079743,619.68777079743,780.31222920257,3,6,4,0,vertical,horizontal,vertical,horizontal
2a,24,100344,4,21,117,22,F,NA,variable,heterogeneous,4,present,1.0915379524231,1,horizontal,horizontal,1,3,green,4,3,619.68777079743,780.31222920257,619.68777079743,419.68777079743,980.31222920257,780.31222920257,980.31222920257,419.68777079743,619.68777079743,419.68777079743,619.68777079743,780.31222920257,6,0,3,4,horizontal,horizontal,vertical,horizontal
2a,24,100344,4,22,118,22,F,NA,variable,heterogeneous,4,present,1.02962207794189,1,vertical,vertical,1,3,green,4,1,619.68777079743,780.31222920257,980.31222920257,780.31222920257,980.31222920257,780.31222920257,980.31222920257,419.68777079743,619.68777079743,419.68777079743,619.68777079743,780.31222920257,0,3,5,4,horizontal,vertical,vertical,vertical
2a,24,100344,4,23,119,22,F,NA,variable,heterogeneous,4,present,1.7623119354248,0,horizontal,vertical,1,8,green,1,3,980.31222920257,780.31222920257,619.68777079743,419.68777079743,980.31222920257,780.31222920257,980.31222920257,419.68777079743,619.68777079743,419.68777079743,619.68777079743,780.31222920257,4,6,3,5,horizontal,vertical,horizontal,vertical
2a,24,100344,4,24,120,22,F,NA,variable,heterogeneous,4,absent,1.00550293922424,1,horizontal,horizontal,1,2,green,4,NaN,619.68777079743,780.31222920257,NaN,NaN,980.31222920257,780.31222920257,980.31222920257,419.68777079743,619.68777079743,419.68777079743,619.68777079743,780.31222920257,6,5,0,4,horizontal,horizontal,horizontal,horizontal
2a,24,100344,4,25,121,22,F,NA,variable,heterogeneous,4,absent,1.36997008323669,1,vertical,vertical,1,8,red,3,NaN,619.68777079743,419.68777079743,NaN,NaN,980.31222920257,780.31222920257,980.31222920257,419.68777079743,619.68777079743,419.68777079743,619.68777079743,780.31222920257,0,5,4,6,vertical,horizontal,vertical,horizontal
2a,24,100344,4,26,122,22,F,NA,variable,heterogeneous,4,absent,1.16962790489197,1,horizontal,horizontal,1,5,red,1,NaN,980.31222920257,780.31222920257,NaN,NaN,980.31222920257,780.31222920257,980.31222920257,419.68777079743,619.68777079743,419.68777079743,619.68777079743,780.31222920257,4,6,3,0,horizontal,horizontal,vertical,vertical
2a,24,100344,4,27,123,22,F,NA,variable,heterogeneous,4,absent,0.817503929138184,1,vertical,vertical,1,2,red,3,NaN,619.68777079743,419.68777079743,NaN,NaN,980.31222920257,780.31222920257,980.31222920257,419.68777079743,619.68777079743,419.68777079743,619.68777079743,780.31222920257,5,3,4,6,vertical,vertical,vertical,vertical
2a,24,100344,4,28,124,22,F,NA,variable,heterogeneous,4,absent,0.833817958831787,1,horizontal,horizontal,1,2,green,4,NaN,619.68777079743,780.31222920257,NaN,NaN,980.31222920257,780.31222920257,980.31222920257,419.68777079743,619.68777079743,419.68777079743,619.68777079743,780.31222920257,0,3,5,4,horizontal,horizontal,vertical,horizontal
2a,24,100344,4,29,125,22,F,NA,variable,heterogeneous,4,absent,0.934514045715332,1,vertical,vertical,1,5,green,3,NaN,619.68777079743,419.68777079743,NaN,NaN,980.31222920257,780.31222920257,980.31222920257,419.68777079743,619.68777079743,419.68777079743,619.68777079743,780.31222920257,0,5,4,3,vertical,vertical,vertical,horizontal
2a,24,100344,4,30,126,22,F,NA,variable,heterogeneous,4,present,1.13743901252747,0,horizontal,vertical,1,2,red,2,1,980.31222920257,419.68777079743,980.31222920257,780.31222920257,980.31222920257,780.31222920257,980.31222920257,419.68777079743,619.68777079743,419.68777079743,619.68777079743,780.31222920257,5,4,6,0,vertical,horizontal,vertical,horizontal
2a,24,100344,4,31,127,22,F,NA,variable,heterogeneous,4,present,1.2366771697998,1,horizontal,horizontal,1,2,green,3,4,619.68777079743,419.68777079743,619.68777079743,780.31222920257,980.31222920257,780.31222920257,980.31222920257,419.68777079743,619.68777079743,419.68777079743,619.68777079743,780.31222920257,6,0,4,3,horizontal,vertical,horizontal,vertical
2a,24,100344,4,32,128,22,F,NA,variable,heterogeneous,4,present,1.0292820930481,1,horizontal,horizontal,1,2,green,1,2,980.31222920257,780.31222920257,980.31222920257,419.68777079743,980.31222920257,780.31222920257,980.31222920257,419.68777079743,619.68777079743,419.68777079743,619.68777079743,780.31222920257,4,0,3,5,horizontal,horizontal,vertical,vertical
2a,24,100344,5,1,129,22,F,NA,variable,heterogeneous,4,present,1.00028014183044,1,horizontal,horizontal,1,3,red,4,1,619.68777079743,780.31222920257,980.31222920257,780.31222920257,980.31222920257,780.31222920257,980.31222920257,419.68777079743,619.68777079743,419.68777079743,619.68777079743,780.31222920257,6,0,3,4,vertical,horizontal,horizontal,horizontal
2a,24,100344,5,2,130,22,F,NA,variable,heterogeneous,4,absent,1.52477288246155,1,horizontal,horizontal,1,3,green,2,NaN,980.31222920257,419.68777079743,NaN,NaN,980.31222920257,780.31222920257,980.31222920257,419.68777079743,619.68777079743,419.68777079743,619.68777079743,780.31222920257,5,4,6,3,vertical,horizontal,vertical,horizontal
2a,24,100344,5,3,131,22,F,NA,variable,heterogeneous,4,present,0.867331027984619,1,vertical,vertical,1,3,red,1,2,980.31222920257,780.31222920257,980.31222920257,419.68777079743,980.31222920257,780.31222920257,980.31222920257,419.68777079743,619.68777079743,419.68777079743,619.68777079743,780.31222920257,4,0,6,3,vertical,horizontal,vertical,horizontal
2a,24,100344,5,4,132,22,F,NA,variable,heterogeneous,4,present,1.03657412528992,1,vertical,vertical,1,2,green,3,2,619.68777079743,419.68777079743,980.31222920257,419.68777079743,980.31222920257,780.31222920257,980.31222920257,419.68777079743,619.68777079743,419.68777079743,619.68777079743,780.31222920257,5,3,4,0,horizontal,vertical,vertical,vertical
2a,24,100344,5,5,133,22,F,NA,variable,heterogeneous,4,absent,0.813652038574219,1,horizontal,horizontal,1,2,red,4,NaN,619.68777079743,780.31222920257,NaN,NaN,980.31222920257,780.31222920257,980.31222920257,419.68777079743,619.68777079743,419.68777079743,619.68777079743,780.31222920257,6,5,0,4,horizontal,horizontal,vertical,horizontal
2a,24,100344,5,6,134,22,F,NA,variable,heterogeneous,4,present,1.21441078186035,1,horizontal,horizontal,1,2,red,2,3,980.31222920257,419.68777079743,619.68777079743,419.68777079743,980.31222920257,780.31222920257,980.31222920257,419.68777079743,619.68777079743,419.68777079743,619.68777079743,780.31222920257,3,4,6,5,vertical,horizontal,vertical,horizontal
2a,24,100344,5,7,135,22,F,NA,variable,heterogeneous,4,present,0.91902494430542,1,horizontal,horizontal,1,8,green,3,1,619.68777079743,419.68777079743,980.31222920257,780.31222920257,980.31222920257,780.31222920257,980.31222920257,419.68777079743,619.68777079743,419.68777079743,619.68777079743,780.31222920257,6,5,4,0,vertical,horizontal,horizontal,horizontal
2a,24,100344,5,8,136,22,F,NA,variable,heterogeneous,4,present,1.24566411972046,1,horizontal,horizontal,1,2,red,3,4,619.68777079743,419.68777079743,619.68777079743,780.31222920257,980.31222920257,780.31222920257,980.31222920257,419.68777079743,619.68777079743,419.68777079743,619.68777079743,780.31222920257,5,0,4,3,horizontal,horizontal,horizontal,horizontal
2a,24,100344,5,9,137,22,F,NA,variable,heterogeneous,4,present,1.40274810791016,1,vertical,vertical,1,2,red,1,4,980.31222920257,780.31222920257,619.68777079743,780.31222920257,980.31222920257,780.31222920257,980.31222920257,419.68777079743,619.68777079743,419.68777079743,619.68777079743,780.31222920257,4,6,5,3,vertical,horizontal,horizontal,horizontal
2a,24,100344,5,10,138,22,F,NA,variable,heterogeneous,4,present,1.07916498184204,1,vertical,vertical,1,5,red,1,2,980.31222920257,780.31222920257,980.31222920257,419.68777079743,980.31222920257,780.31222920257,980.31222920257,419.68777079743,619.68777079743,419.68777079743,619.68777079743,780.31222920257,4,5,6,3,vertical,horizontal,horizontal,horizontal
2a,24,100344,5,11,139,22,F,NA,variable,heterogeneous,4,present,0.82873010635376,1,horizontal,horizontal,1,5,green,2,4,980.31222920257,419.68777079743,619.68777079743,780.31222920257,980.31222920257,780.31222920257,980.31222920257,419.68777079743,619.68777079743,419.68777079743,619.68777079743,780.31222920257,0,4,5,6,horizontal,horizontal,horizontal,horizontal
2a,24,100344,5,12,140,22,F,NA,variable,heterogeneous,4,absent,1.04144406318665,1,vertical,vertical,1,8,green,2,NaN,980.31222920257,419.68777079743,NaN,NaN,980.31222920257,780.31222920257,980.31222920257,419.68777079743,619.68777079743,419.68777079743,619.68777079743,780.31222920257,3,4,6,0,vertical,vertical,vertical,vertical
2a,24,100344,5,13,141,22,F,NA,variable,heterogeneous,4,present,1.05081510543823,1,vertical,vertical,1,3,green,1,2,980.31222920257,780.31222920257,980.31222920257,419.68777079743,980.31222920257,780.31222920257,980.31222920257,419.68777079743,619.68777079743,419.68777079743,619.68777079743,780.31222920257,4,3,0,6,vertical,horizontal,vertical,vertical
2a,24,100344,5,14,142,22,F,NA,variable,heterogeneous,4,absent,1.08812713623047,1,horizontal,horizontal,1,5,red,4,NaN,619.68777079743,780.31222920257,NaN,NaN,980.31222920257,780.31222920257,980.31222920257,419.68777079743,619.68777079743,419.68777079743,619.68777079743,780.31222920257,3,5,6,4,horizontal,vertical,horizontal,horizontal
2a,24,100344,5,15,143,22,F,NA,variable,heterogeneous,4,absent,1.02586889266968,1,horizontal,horizontal,1,5,green,2,NaN,980.31222920257,419.68777079743,NaN,NaN,980.31222920257,780.31222920257,980.31222920257,419.68777079743,619.68777079743,419.68777079743,619.68777079743,780.31222920257,5,4,6,3,vertical,horizontal,vertical,vertical
2a,24,100344,5,16,144,22,F,NA,variable,heterogeneous,4,present,1.40706491470337,1,vertical,vertical,1,5,red,4,2,619.68777079743,780.31222920257,980.31222920257,419.68777079743,980.31222920257,780.31222920257,980.31222920257,419.68777079743,619.68777079743,419.68777079743,619.68777079743,780.31222920257,3,6,0,4,horizontal,horizontal,horizontal,vertical
2a,24,100344,5,17,145,22,F,NA,variable,heterogeneous,4,absent,1.08336615562439,1,vertical,vertical,1,2,green,2,NaN,980.31222920257,419.68777079743,NaN,NaN,980.31222920257,780.31222920257,980.31222920257,419.68777079743,619.68777079743,419.68777079743,619.68777079743,780.31222920257,6,4,0,3,horizontal,vertical,vertical,vertical
2a,24,100344,5,18,146,22,F,NA,variable,heterogeneous,4,absent,1.13305497169495,1,vertical,vertical,1,2,red,4,NaN,619.68777079743,780.31222920257,NaN,NaN,980.31222920257,780.31222920257,980.31222920257,419.68777079743,619.68777079743,419.68777079743,619.68777079743,780.31222920257,5,3,6,4,horizontal,horizontal,horizontal,vertical
2a,24,100344,5,19,147,22,F,NA,variable,heterogeneous,4,absent,1.68800115585327,1,horizontal,horizontal,1,2,green,4,NaN,619.68777079743,780.31222920257,NaN,NaN,980.31222920257,780.31222920257,980.31222920257,419.68777079743,619.68777079743,419.68777079743,619.68777079743,780.31222920257,6,0,3,4,horizontal,vertical,vertical,horizontal
2a,24,100344,5,20,148,22,F,NA,variable,heterogeneous,4,absent,1.04210710525513,1,vertical,vertical,1,3,green,2,NaN,980.31222920257,419.68777079743,NaN,NaN,980.31222920257,780.31222920257,980.31222920257,419.68777079743,619.68777079743,419.68777079743,619.68777079743,780.31222920257,6,4,5,3,horizontal,vertical,horizontal,horizontal
2a,24,100344,5,21,149,22,F,NA,variable,heterogeneous,4,present,1.77090883255005,1,horizontal,horizontal,1,3,red,2,3,980.31222920257,419.68777079743,619.68777079743,419.68777079743,980.31222920257,780.31222920257,980.31222920257,419.68777079743,619.68777079743,419.68777079743,619.68777079743,780.31222920257,5,4,3,0,horizontal,horizontal,vertical,horizontal
2a,24,100344,5,22,150,22,F,NA,variable,heterogeneous,4,present,1.43460607528687,1,horizontal,horizontal,1,2,green,4,3,619.68777079743,780.31222920257,619.68777079743,419.68777079743,980.31222920257,780.31222920257,980.31222920257,419.68777079743,619.68777079743,419.68777079743,619.68777079743,780.31222920257,0,6,3,4,horizontal,horizontal,horizontal,horizontal
2a,24,100344,5,23,151,22,F,NA,variable,heterogeneous,4,absent,1.47584199905396,1,vertical,vertical,1,5,red,1,NaN,980.31222920257,780.31222920257,NaN,NaN,980.31222920257,780.31222920257,980.31222920257,419.68777079743,619.68777079743,419.68777079743,619.68777079743,780.31222920257,4,3,5,0,vertical,vertical,horizontal,horizontal
2a,24,100344,5,24,152,22,F,NA,variable,heterogeneous,4,absent,0.777185916900635,1,vertical,vertical,1,5,red,1,NaN,980.31222920257,780.31222920257,NaN,NaN,980.31222920257,780.31222920257,980.31222920257,419.68777079743,619.68777079743,419.68777079743,619.68777079743,780.31222920257,4,6,5,3,vertical,vertical,horizontal,horizontal
2a,24,100344,5,25,153,22,F,NA,variable,heterogeneous,4,present,1.20509696006775,1,vertical,vertical,1,2,red,4,1,619.68777079743,780.31222920257,980.31222920257,780.31222920257,980.31222920257,780.31222920257,980.31222920257,419.68777079743,619.68777079743,419.68777079743,619.68777079743,780.31222920257,5,0,6,4,vertical,horizontal,horizontal,vertical
2a,24,100344,5,26,154,22,F,NA,variable,heterogeneous,4,absent,1.74535703659058,1,horizontal,horizontal,1,2,green,4,NaN,619.68777079743,780.31222920257,NaN,NaN,980.31222920257,780.31222920257,980.31222920257,419.68777079743,619.68777079743,419.68777079743,619.68777079743,780.31222920257,6,0,3,4,vertical,horizontal,vertical,horizontal
2a,24,100344,5,27,155,22,F,NA,variable,heterogeneous,4,absent,1.14459896087646,1,horizontal,horizontal,1,3,red,3,NaN,619.68777079743,419.68777079743,NaN,NaN,980.31222920257,780.31222920257,980.31222920257,419.68777079743,619.68777079743,419.68777079743,619.68777079743,780.31222920257,0,6,4,5,vertical,horizontal,horizontal,vertical
2a,24,100344,5,28,156,22,F,NA,variable,heterogeneous,4,present,1.30378389358521,1,horizontal,horizontal,1,5,red,2,4,980.31222920257,419.68777079743,619.68777079743,780.31222920257,980.31222920257,780.31222920257,980.31222920257,419.68777079743,619.68777079743,419.68777079743,619.68777079743,780.31222920257,5,4,3,6,vertical,horizontal,vertical,vertical
2a,24,100344,5,29,157,22,F,NA,variable,heterogeneous,4,absent,1.2378191947937,1,vertical,vertical,1,2,red,4,NaN,619.68777079743,780.31222920257,NaN,NaN,980.31222920257,780.31222920257,980.31222920257,419.68777079743,619.68777079743,419.68777079743,619.68777079743,780.31222920257,0,5,3,4,horizontal,vertical,horizontal,vertical
2a,24,100344,5,30,158,22,F,NA,variable,heterogeneous,4,absent,1.01495695114136,1,horizontal,horizontal,1,8,green,4,NaN,619.68777079743,780.31222920257,NaN,NaN,980.31222920257,780.31222920257,980.31222920257,419.68777079743,619.68777079743,419.68777079743,619.68777079743,780.31222920257,5,3,0,4,horizontal,vertical,vertical,horizontal
2a,24,100344,5,31,159,22,F,NA,variable,heterogeneous,4,absent,1.07144594192505,1,vertical,vertical,1,3,red,1,NaN,980.31222920257,780.31222920257,NaN,NaN,980.31222920257,780.31222920257,980.31222920257,419.68777079743,619.68777079743,419.68777079743,619.68777079743,780.31222920257,4,3,0,6,vertical,horizontal,horizontal,vertical
2a,24,100344,5,32,160,22,F,NA,variable,heterogeneous,4,present,1.51726603507996,1,vertical,vertical,1,8,green,2,4,980.31222920257,419.68777079743,619.68777079743,780.31222920257,980.31222920257,780.31222920257,980.31222920257,419.68777079743,619.68777079743,419.68777079743,619.68777079743,780.31222920257,0,4,3,6,vertical,vertical,horizontal,horizontal
2a,24,100344,6,1,161,22,F,NA,variable,heterogeneous,4,absent,1.43979215621948,1,horizontal,horizontal,1,2,red,4,NaN,619.68777079743,780.31222920257,NaN,NaN,980.31222920257,780.31222920257,980.31222920257,419.68777079743,619.68777079743,419.68777079743,619.68777079743,780.31222920257,0,5,6,4,vertical,horizontal,horizontal,horizontal
2a,24,100344,6,2,162,22,F,NA,variable,heterogeneous,4,present,1.28097105026245,1,horizontal,horizontal,1,3,red,1,3,980.31222920257,780.31222920257,619.68777079743,419.68777079743,980.31222920257,780.31222920257,980.31222920257,419.68777079743,619.68777079743,419.68777079743,619.68777079743,780.31222920257,4,6,3,0,horizontal,horizontal,horizontal,horizontal
2a,24,100344,6,3,163,22,F,NA,variable,heterogeneous,4,absent,1.18681597709656,1,vertical,vertical,1,8,red,3,NaN,619.68777079743,419.68777079743,NaN,NaN,980.31222920257,780.31222920257,980.31222920257,419.68777079743,619.68777079743,419.68777079743,619.68777079743,780.31222920257,6,0,4,3,vertical,horizontal,vertical,vertical
2a,24,100344,6,4,164,22,F,NA,variable,heterogeneous,4,absent,1.6349880695343,1,horizontal,horizontal,1,3,green,4,NaN,619.68777079743,780.31222920257,NaN,NaN,980.31222920257,780.31222920257,980.31222920257,419.68777079743,619.68777079743,419.68777079743,619.68777079743,780.31222920257,3,5,0,4,horizontal,horizontal,horizontal,horizontal
2a,24,100344,6,5,165,22,F,NA,variable,heterogeneous,4,present,0.916115045547485,1,vertical,vertical,1,2,green,1,2,980.31222920257,780.31222920257,980.31222920257,419.68777079743,980.31222920257,780.31222920257,980.31222920257,419.68777079743,619.68777079743,419.68777079743,619.68777079743,780.31222920257,4,3,5,0,vertical,vertical,vertical,horizontal
2a,24,100344,6,6,166,22,F,NA,variable,heterogeneous,4,present,1.2384979724884,1,horizontal,horizontal,1,2,green,3,4,619.68777079743,419.68777079743,619.68777079743,780.31222920257,980.31222920257,780.31222920257,980.31222920257,419.68777079743,619.68777079743,419.68777079743,619.68777079743,780.31222920257,0,6,4,5,vertical,horizontal,horizontal,horizontal
2a,24,100344,6,7,167,22,F,NA,variable,heterogeneous,4,absent,0.999568939208984,1,vertical,vertical,1,3,red,3,NaN,619.68777079743,419.68777079743,NaN,NaN,980.31222920257,780.31222920257,980.31222920257,419.68777079743,619.68777079743,419.68777079743,619.68777079743,780.31222920257,5,3,4,6,vertical,vertical,vertical,vertical
2a,24,100344,6,8,168,22,F,NA,variable,heterogeneous,4,absent,1.39577698707581,1,horizontal,horizontal,1,8,green,1,NaN,980.31222920257,780.31222920257,NaN,NaN,980.31222920257,780.31222920257,980.31222920257,419.68777079743,619.68777079743,419.68777079743,619.68777079743,780.31222920257,4,5,3,0,horizontal,vertical,horizontal,horizontal
2a,24,100344,6,9,169,22,F,NA,variable,heterogeneous,4,present,1.49180221557617,1,horizontal,horizontal,1,2,red,1,4,980.31222920257,780.31222920257,619.68777079743,780.31222920257,980.31222920257,780.31222920257,980.31222920257,419.68777079743,619.68777079743,419.68777079743,619.68777079743,780.31222920257,4,3,6,0,horizontal,vertical,vertical,vertical
2a,24,100344,6,10,170,22,F,NA,variable,heterogeneous,4,present,1.26978397369385,1,vertical,vertical,1,3,red,2,3,980.31222920257,419.68777079743,619.68777079743,419.68777079743,980.31222920257,780.31222920257,980.31222920257,419.68777079743,619.68777079743,419.68777079743,619.68777079743,780.31222920257,3,4,5,6,horizontal,vertical,vertical,vertical
2a,24,100344,6,11,171,22,F,NA,variable,heterogeneous,4,absent,NaN,0,horizontal,none,0,3,red,3,NaN,619.68777079743,419.68777079743,NaN,NaN,980.31222920257,780.31222920257,980.31222920257,419.68777079743,619.68777079743,419.68777079743,619.68777079743,780.31222920257,3,0,4,6,vertical,vertical,horizontal,vertical
2a,24,100344,6,12,172,22,F,NA,variable,heterogeneous,4,present,1.33612585067749,1,vertical,vertical,1,2,red,3,4,619.68777079743,419.68777079743,619.68777079743,780.31222920257,980.31222920257,780.31222920257,980.31222920257,419.68777079743,619.68777079743,419.68777079743,619.68777079743,780.31222920257,3,5,4,6,vertical,horizontal,vertical,vertical
2a,24,100344,6,13,173,22,F,NA,variable,heterogeneous,4,present,0.802888870239258,1,vertical,vertical,1,2,green,3,1,619.68777079743,419.68777079743,980.31222920257,780.31222920257,980.31222920257,780.31222920257,980.31222920257,419.68777079743,619.68777079743,419.68777079743,619.68777079743,780.31222920257,3,0,4,6,horizontal,horizontal,vertical,vertical
2a,24,100344,6,14,174,22,F,NA,variable,heterogeneous,4,present,0.886829853057861,1,horizontal,horizontal,1,5,green,3,4,619.68777079743,419.68777079743,619.68777079743,780.31222920257,980.31222920257,780.31222920257,980.31222920257,419.68777079743,619.68777079743,419.68777079743,619.68777079743,780.31222920257,5,3,4,0,horizontal,vertical,horizontal,vertical
2a,24,100344,6,15,175,22,F,NA,variable,heterogeneous,4,absent,0.905094146728516,1,vertical,vertical,1,5,red,4,NaN,619.68777079743,780.31222920257,NaN,NaN,980.31222920257,780.31222920257,980.31222920257,419.68777079743,619.68777079743,419.68777079743,619.68777079743,780.31222920257,6,5,0,4,vertical,vertical,horizontal,vertical
2a,24,100344,6,16,176,22,F,NA,variable,heterogeneous,4,present,0.755357980728149,1,vertical,vertical,1,5,red,3,4,619.68777079743,419.68777079743,619.68777079743,780.31222920257,980.31222920257,780.31222920257,980.31222920257,419.68777079743,619.68777079743,419.68777079743,619.68777079743,780.31222920257,6,5,4,0,horizontal,vertical,vertical,horizontal
2a,24,100344,6,17,177,22,F,NA,variable,heterogeneous,4,present,0.855049133300781,1,vertical,vertical,1,3,red,4,3,619.68777079743,780.31222920257,619.68777079743,419.68777079743,980.31222920257,780.31222920257,980.31222920257,419.68777079743,619.68777079743,419.68777079743,619.68777079743,780.31222920257,3,0,5,4,horizontal,vertical,horizontal,vertical
2a,24,100344,6,18,178,22,F,NA,variable,heterogeneous,4,present,0.980273962020874,1,horizontal,horizontal,1,3,green,3,1,619.68777079743,419.68777079743,980.31222920257,780.31222920257,980.31222920257,780.31222920257,980.31222920257,419.68777079743,619.68777079743,419.68777079743,619.68777079743,780.31222920257,5,6,4,0,horizontal,vertical,horizontal,horizontal
2a,24,100344,6,19,179,22,F,NA,variable,heterogeneous,4,present,1.7277250289917,0,horizontal,vertical,1,2,red,2,1,980.31222920257,419.68777079743,980.31222920257,780.31222920257,980.31222920257,780.31222920257,980.31222920257,419.68777079743,619.68777079743,419.68777079743,619.68777079743,780.31222920257,5,4,3,6,vertical,horizontal,horizontal,vertical
2a,24,100344,6,20,180,22,F,NA,variable,heterogeneous,4,present,0.850950956344604,1,horizontal,horizontal,1,8,red,1,4,980.31222920257,780.31222920257,619.68777079743,780.31222920257,980.31222920257,780.31222920257,980.31222920257,419.68777079743,619.68777079743,419.68777079743,619.68777079743,780.31222920257,4,5,6,0,horizontal,vertical,horizontal,vertical
2a,24,100344,6,21,181,22,F,NA,variable,heterogeneous,4,absent,1.3759651184082,1,horizontal,horizontal,1,2,green,1,NaN,980.31222920257,780.31222920257,NaN,NaN,980.31222920257,780.31222920257,980.31222920257,419.68777079743,619.68777079743,419.68777079743,619.68777079743,780.31222920257,4,3,6,0,horizontal,vertical,vertical,vertical
2a,24,100344,6,22,182,22,F,NA,variable,heterogeneous,4,absent,0.708168029785156,1,vertical,vertical,1,3,green,1,NaN,980.31222920257,780.31222920257,NaN,NaN,980.31222920257,780.31222920257,980.31222920257,419.68777079743,619.68777079743,419.68777079743,619.68777079743,780.31222920257,4,6,5,0,vertical,horizontal,horizontal,horizontal
2a,24,100344,6,23,183,22,F,NA,variable,heterogeneous,4,absent,0.678515911102295,1,horizontal,horizontal,1,5,red,1,NaN,980.31222920257,780.31222920257,NaN,NaN,980.31222920257,780.31222920257,980.31222920257,419.68777079743,619.68777079743,419.68777079743,619.68777079743,780.31222920257,4,5,0,6,horizontal,horizontal,vertical,vertical
2a,24,100344,6,24,184,22,F,NA,variable,heterogeneous,4,absent,1.4601731300354,1,horizontal,horizontal,1,5,red,4,NaN,619.68777079743,780.31222920257,NaN,NaN,980.31222920257,780.31222920257,980.31222920257,419.68777079743,619.68777079743,419.68777079743,619.68777079743,780.31222920257,6,0,3,4,vertical,vertical,vertical,horizontal
2a,24,100344,6,25,185,22,F,NA,variable,heterogeneous,4,present,1.19782900810242,1,vertical,vertical,1,8,green,1,3,980.31222920257,780.31222920257,619.68777079743,419.68777079743,980.31222920257,780.31222920257,980.31222920257,419.68777079743,619.68777079743,419.68777079743,619.68777079743,780.31222920257,4,6,0,5,vertical,horizontal,vertical,vertical
2a,24,100344,6,26,186,22,F,NA,variable,heterogeneous,4,absent,1.07785391807556,1,horizontal,horizontal,1,2,green,4,NaN,619.68777079743,780.31222920257,NaN,NaN,980.31222920257,780.31222920257,980.31222920257,419.68777079743,619.68777079743,419.68777079743,619.68777079743,780.31222920257,3,6,5,4,vertical,horizontal,horizontal,horizontal
2a,24,100344,6,27,187,22,F,NA,variable,heterogeneous,4,present,0.939558029174805,1,vertical,vertical,1,5,red,1,4,980.31222920257,780.31222920257,619.68777079743,780.31222920257,980.31222920257,780.31222920257,980.31222920257,419.68777079743,619.68777079743,419.68777079743,619.68777079743,780.31222920257,4,5,0,6,vertical,vertical,vertical,vertical
2a,24,100344,6,28,188,22,F,NA,variable,heterogeneous,4,absent,1.98686480522156,0,vertical,horizontal,1,2,green,3,NaN,619.68777079743,419.68777079743,NaN,NaN,980.31222920257,780.31222920257,980.31222920257,419.68777079743,619.68777079743,419.68777079743,619.68777079743,780.31222920257,3,5,4,6,horizontal,horizontal,vertical,vertical
2a,24,100344,6,29,189,22,F,NA,variable,heterogeneous,4,absent,1.12290215492249,1,vertical,vertical,1,2,red,4,NaN,619.68777079743,780.31222920257,NaN,NaN,980.31222920257,780.31222920257,980.31222920257,419.68777079743,619.68777079743,419.68777079743,619.68777079743,780.31222920257,0,5,6,4,vertical,horizontal,vertical,vertical
2a,24,100344,6,30,190,22,F,NA,variable,heterogeneous,4,absent,0.921507120132446,1,vertical,vertical,1,5,green,4,NaN,619.68777079743,780.31222920257,NaN,NaN,980.31222920257,780.31222920257,980.31222920257,419.68777079743,619.68777079743,419.68777079743,619.68777079743,780.31222920257,0,5,6,4,vertical,vertical,horizontal,vertical
2a,24,100344,6,31,191,22,F,NA,variable,heterogeneous,4,absent,0.712222814559937,1,vertical,vertical,1,2,red,4,NaN,619.68777079743,780.31222920257,NaN,NaN,980.31222920257,780.31222920257,980.31222920257,419.68777079743,619.68777079743,419.68777079743,619.68777079743,780.31222920257,3,0,6,4,horizontal,vertical,horizontal,vertical
2a,24,100344,6,32,192,22,F,NA,variable,heterogeneous,4,present,0.978581190109253,1,horizontal,horizontal,1,5,green,4,3,619.68777079743,780.31222920257,619.68777079743,419.68777079743,980.31222920257,780.31222920257,980.31222920257,419.68777079743,619.68777079743,419.68777079743,619.68777079743,780.31222920257,0,6,5,4,horizontal,horizontal,horizontal,horizontal
2a,24,100344,7,1,193,22,F,NA,variable,heterogeneous,4,absent,NaN,0,horizontal,none,0,3,green,2,NaN,980.31222920257,419.68777079743,NaN,NaN,980.31222920257,780.31222920257,980.31222920257,419.68777079743,619.68777079743,419.68777079743,619.68777079743,780.31222920257,5,4,3,6,vertical,horizontal,horizontal,vertical
2a,24,100344,7,2,194,22,F,NA,variable,heterogeneous,4,present,1.129469871521,1,vertical,vertical,1,2,red,1,3,980.31222920257,780.31222920257,619.68777079743,419.68777079743,980.31222920257,780.31222920257,980.31222920257,419.68777079743,619.68777079743,419.68777079743,619.68777079743,780.31222920257,4,6,0,5,vertical,vertical,horizontal,horizontal
2a,24,100344,7,3,195,22,F,NA,variable,heterogeneous,4,absent,0.87633490562439,1,vertical,vertical,1,2,green,1,NaN,980.31222920257,780.31222920257,NaN,NaN,980.31222920257,780.31222920257,980.31222920257,419.68777079743,619.68777079743,419.68777079743,619.68777079743,780.31222920257,4,6,0,5,vertical,vertical,vertical,horizontal
2a,24,100344,7,4,196,22,F,NA,variable,heterogeneous,4,present,0.810086011886597,1,horizontal,horizontal,1,3,green,3,4,619.68777079743,419.68777079743,619.68777079743,780.31222920257,980.31222920257,780.31222920257,980.31222920257,419.68777079743,619.68777079743,419.68777079743,619.68777079743,780.31222920257,5,6,4,0,horizontal,horizontal,horizontal,horizontal
2a,24,100344,7,5,197,22,F,NA,variable,heterogeneous,4,present,0.918167114257812,1,vertical,vertical,1,2,red,4,2,619.68777079743,780.31222920257,980.31222920257,419.68777079743,980.31222920257,780.31222920257,980.31222920257,419.68777079743,619.68777079743,419.68777079743,619.68777079743,780.31222920257,0,3,5,4,vertical,horizontal,horizontal,vertical
2a,24,100344,7,6,198,22,F,NA,variable,heterogeneous,4,present,1.09288620948792,1,horizontal,horizontal,1,5,red,2,1,980.31222920257,419.68777079743,980.31222920257,780.31222920257,980.31222920257,780.31222920257,980.31222920257,419.68777079743,619.68777079743,419.68777079743,619.68777079743,780.31222920257,6,4,5,3,horizontal,horizontal,vertical,vertical
2a,24,100344,7,7,199,22,F,NA,variable,heterogeneous,4,present,1.01108813285828,1,horizontal,horizontal,1,8,red,4,1,619.68777079743,780.31222920257,980.31222920257,780.31222920257,980.31222920257,780.31222920257,980.31222920257,419.68777079743,619.68777079743,419.68777079743,619.68777079743,780.31222920257,5,0,6,4,vertical,vertical,horizontal,horizontal
2a,24,100344,7,8,200,22,F,NA,variable,heterogeneous,4,absent,1.09976100921631,1,horizontal,horizontal,1,2,red,3,NaN,619.68777079743,419.68777079743,NaN,NaN,980.31222920257,780.31222920257,980.31222920257,419.68777079743,619.68777079743,419.68777079743,619.68777079743,780.31222920257,3,6,4,5,vertical,horizontal,horizontal,horizontal
2a,24,100344,7,9,201,22,F,NA,variable,heterogeneous,4,present,1.04203486442566,1,vertical,vertical,1,2,red,4,2,619.68777079743,780.31222920257,980.31222920257,419.68777079743,980.31222920257,780.31222920257,980.31222920257,419.68777079743,619.68777079743,419.68777079743,619.68777079743,780.31222920257,6,0,3,4,vertical,horizontal,horizontal,vertical
2a,24,100344,7,10,202,22,F,NA,variable,heterogeneous,4,present,1.45127391815186,1,horizontal,horizontal,1,5,green,2,1,980.31222920257,419.68777079743,980.31222920257,780.31222920257,980.31222920257,780.31222920257,980.31222920257,419.68777079743,619.68777079743,419.68777079743,619.68777079743,780.31222920257,6,4,0,3,horizontal,horizontal,vertical,vertical
2a,24,100344,7,11,203,22,F,NA,variable,heterogeneous,4,absent,0.864368915557861,1,vertical,vertical,1,2,green,3,NaN,619.68777079743,419.68777079743,NaN,NaN,980.31222920257,780.31222920257,980.31222920257,419.68777079743,619.68777079743,419.68777079743,619.68777079743,780.31222920257,6,0,4,5,vertical,vertical,vertical,vertical
2a,24,100344,7,12,204,22,F,NA,variable,heterogeneous,4,absent,1.04985308647156,1,horizontal,horizontal,1,8,green,3,NaN,619.68777079743,419.68777079743,NaN,NaN,980.31222920257,780.31222920257,980.31222920257,419.68777079743,619.68777079743,419.68777079743,619.68777079743,780.31222920257,3,0,4,5,horizontal,horizontal,horizontal,horizontal
2a,24,100344,7,13,205,22,F,NA,variable,heterogeneous,4,absent,1.19131302833557,1,horizontal,horizontal,1,5,green,1,NaN,980.31222920257,780.31222920257,NaN,NaN,980.31222920257,780.31222920257,980.31222920257,419.68777079743,619.68777079743,419.68777079743,619.68777079743,780.31222920257,4,3,6,5,horizontal,vertical,horizontal,horizontal
2a,24,100344,7,14,206,22,F,NA,variable,heterogeneous,4,present,0.831223011016846,1,vertical,vertical,1,5,red,3,4,619.68777079743,419.68777079743,619.68777079743,780.31222920257,980.31222920257,780.31222920257,980.31222920257,419.68777079743,619.68777079743,419.68777079743,619.68777079743,780.31222920257,0,6,4,5,vertical,vertical,vertical,vertical
2a,24,100344,7,15,207,22,F,NA,variable,heterogeneous,4,absent,1.14809393882751,1,vertical,vertical,1,5,red,1,NaN,980.31222920257,780.31222920257,NaN,NaN,980.31222920257,780.31222920257,980.31222920257,419.68777079743,619.68777079743,419.68777079743,619.68777079743,780.31222920257,4,3,0,5,vertical,vertical,vertical,vertical
2a,24,100344,7,16,208,22,F,NA,variable,heterogeneous,4,present,0.755160093307495,1,vertical,vertical,1,5,red,1,4,980.31222920257,780.31222920257,619.68777079743,780.31222920257,980.31222920257,780.31222920257,980.31222920257,419.68777079743,619.68777079743,419.68777079743,619.68777079743,780.31222920257,4,5,3,0,vertical,vertical,vertical,vertical
2a,24,100344,7,17,209,22,F,NA,variable,heterogeneous,4,present,0.82284688949585,1,horizontal,horizontal,1,2,red,1,3,980.31222920257,780.31222920257,619.68777079743,419.68777079743,980.31222920257,780.31222920257,980.31222920257,419.68777079743,619.68777079743,419.68777079743,619.68777079743,780.31222920257,4,5,6,0,horizontal,horizontal,horizontal,vertical
2a,24,100344,7,18,210,22,F,NA,variable,heterogeneous,4,present,1.27545404434204,1,horizontal,horizontal,1,2,green,4,1,619.68777079743,780.31222920257,980.31222920257,780.31222920257,980.31222920257,780.31222920257,980.31222920257,419.68777079743,619.68777079743,419.68777079743,619.68777079743,780.31222920257,5,0,6,4,vertical,horizontal,horizontal,horizontal
2a,24,100344,7,19,211,22,F,NA,variable,heterogeneous,4,absent,0.913006067276001,1,horizontal,horizontal,1,5,red,1,NaN,980.31222920257,780.31222920257,NaN,NaN,980.31222920257,780.31222920257,980.31222920257,419.68777079743,619.68777079743,419.68777079743,619.68777079743,780.31222920257,4,6,3,0,horizontal,vertical,horizontal,horizontal
2a,24,100344,7,20,212,22,F,NA,variable,heterogeneous,4,present,1.05166101455688,1,vertical,vertical,1,3,green,2,4,980.31222920257,419.68777079743,619.68777079743,780.31222920257,980.31222920257,780.31222920257,980.31222920257,419.68777079743,619.68777079743,419.68777079743,619.68777079743,780.31222920257,0,4,3,6,horizontal,vertical,horizontal,horizontal
2a,24,100344,7,21,213,22,F,NA,variable,heterogeneous,4,absent,1.06478905677795,1,horizontal,horizontal,1,3,green,1,NaN,980.31222920257,780.31222920257,NaN,NaN,980.31222920257,780.31222920257,980.31222920257,419.68777079743,619.68777079743,419.68777079743,619.68777079743,780.31222920257,4,6,0,5,horizontal,horizontal,vertical,vertical
2a,24,100344,7,22,214,22,F,NA,variable,heterogeneous,4,absent,1.42627692222595,1,vertical,vertical,1,8,green,4,NaN,619.68777079743,780.31222920257,NaN,NaN,980.31222920257,780.31222920257,980.31222920257,419.68777079743,619.68777079743,419.68777079743,619.68777079743,780.31222920257,6,5,3,4,horizontal,horizontal,vertical,vertical
2a,24,100344,7,23,215,22,F,NA,variable,heterogeneous,4,absent,1.04740500450134,1,vertical,vertical,1,5,red,4,NaN,619.68777079743,780.31222920257,NaN,NaN,980.31222920257,780.31222920257,980.31222920257,419.68777079743,619.68777079743,419.68777079743,619.68777079743,780.31222920257,5,3,6,4,vertical,horizontal,vertical,vertical
2a,24,100344,7,24,216,22,F,NA,variable,heterogeneous,4,absent,1.6205620765686,1,horizontal,horizontal,1,2,green,2,NaN,980.31222920257,419.68777079743,NaN,NaN,980.31222920257,780.31222920257,980.31222920257,419.68777079743,619.68777079743,419.68777079743,619.68777079743,780.31222920257,6,4,0,5,horizontal,horizontal,horizontal,horizontal
2a,24,100344,7,25,217,22,F,NA,variable,heterogeneous,4,absent,0.821118831634521,1,vertical,vertical,1,3,red,4,NaN,619.68777079743,780.31222920257,NaN,NaN,980.31222920257,780.31222920257,980.31222920257,419.68777079743,619.68777079743,419.68777079743,619.68777079743,780.31222920257,6,3,5,4,horizontal,vertical,vertical,vertical
2a,24,100344,7,26,218,22,F,NA,variable,heterogeneous,4,present,1.2054660320282,1,horizontal,horizontal,1,3,red,4,2,619.68777079743,780.31222920257,980.31222920257,419.68777079743,980.31222920257,780.31222920257,980.31222920257,419.68777079743,619.68777079743,419.68777079743,619.68777079743,780.31222920257,5,0,3,4,vertical,vertical,vertical,horizontal
2a,24,100344,7,27,219,22,F,NA,variable,heterogeneous,4,present,0.993875026702881,1,vertical,vertical,1,3,green,4,1,619.68777079743,780.31222920257,980.31222920257,780.31222920257,980.31222920257,780.31222920257,980.31222920257,419.68777079743,619.68777079743,419.68777079743,619.68777079743,780.31222920257,5,6,3,4,horizontal,vertical,horizontal,vertical
2a,24,100344,7,28,220,22,F,NA,variable,heterogeneous,4,present,0.857909202575684,1,vertical,vertical,1,8,red,3,2,619.68777079743,419.68777079743,980.31222920257,419.68777079743,980.31222920257,780.31222920257,980.31222920257,419.68777079743,619.68777079743,419.68777079743,619.68777079743,780.31222920257,5,0,4,6,horizontal,horizontal,vertical,horizontal
2a,24,100344,7,29,221,22,F,NA,variable,heterogeneous,4,present,1.6116361618042,1,horizontal,horizontal,1,2,green,2,3,980.31222920257,419.68777079743,619.68777079743,419.68777079743,980.31222920257,780.31222920257,980.31222920257,419.68777079743,619.68777079743,419.68777079743,619.68777079743,780.31222920257,5,4,6,0,vertical,horizontal,horizontal,vertical
2a,24,100344,7,30,222,22,F,NA,variable,heterogeneous,4,absent,0.852111101150513,1,vertical,vertical,1,2,green,2,NaN,980.31222920257,419.68777079743,NaN,NaN,980.31222920257,780.31222920257,980.31222920257,419.68777079743,619.68777079743,419.68777079743,619.68777079743,780.31222920257,3,4,6,5,horizontal,vertical,horizontal,horizontal
2a,24,100344,7,31,223,22,F,NA,variable,heterogeneous,4,absent,1.47310996055603,0,vertical,horizontal,1,3,red,4,NaN,619.68777079743,780.31222920257,NaN,NaN,980.31222920257,780.31222920257,980.31222920257,419.68777079743,619.68777079743,419.68777079743,619.68777079743,780.31222920257,6,0,3,4,horizontal,vertical,vertical,vertical
2a,24,100344,7,32,224,22,F,NA,variable,heterogeneous,4,absent,0.903174161911011,1,horizontal,horizontal,1,2,red,4,NaN,619.68777079743,780.31222920257,NaN,NaN,980.31222920257,780.31222920257,980.31222920257,419.68777079743,619.68777079743,419.68777079743,619.68777079743,780.31222920257,5,3,6,4,horizontal,horizontal,vertical,horizontal
2a,24,100344,8,1,225,22,F,NA,variable,heterogeneous,4,absent,1.02045798301697,1,horizontal,horizontal,1,5,red,2,NaN,980.31222920257,419.68777079743,NaN,NaN,980.31222920257,780.31222920257,980.31222920257,419.68777079743,619.68777079743,419.68777079743,619.68777079743,780.31222920257,6,4,0,3,vertical,horizontal,vertical,vertical
2a,24,100344,8,2,226,22,F,NA,variable,heterogeneous,4,present,0.884881973266602,1,vertical,vertical,1,3,red,4,3,619.68777079743,780.31222920257,619.68777079743,419.68777079743,980.31222920257,780.31222920257,980.31222920257,419.68777079743,619.68777079743,419.68777079743,619.68777079743,780.31222920257,5,0,6,4,horizontal,horizontal,vertical,vertical
2a,24,100344,8,3,227,22,F,NA,variable,heterogeneous,4,absent,0.991028070449829,1,vertical,vertical,1,3,red,3,NaN,619.68777079743,419.68777079743,NaN,NaN,980.31222920257,780.31222920257,980.31222920257,419.68777079743,619.68777079743,419.68777079743,619.68777079743,780.31222920257,3,5,4,6,vertical,vertical,vertical,vertical
2a,24,100344,8,4,228,22,F,NA,variable,heterogeneous,4,absent,1.06297302246094,1,vertical,vertical,1,8,green,1,NaN,980.31222920257,780.31222920257,NaN,NaN,980.31222920257,780.31222920257,980.31222920257,419.68777079743,619.68777079743,419.68777079743,619.68777079743,780.31222920257,4,5,6,3,vertical,horizontal,horizontal,vertical
2a,24,100344,8,5,229,22,F,NA,variable,heterogeneous,4,present,1.80865597724915,1,horizontal,horizontal,1,2,red,2,3,980.31222920257,419.68777079743,619.68777079743,419.68777079743,980.31222920257,780.31222920257,980.31222920257,419.68777079743,619.68777079743,419.68777079743,619.68777079743,780.31222920257,3,4,0,5,vertical,horizontal,vertical,vertical
2a,24,100344,8,6,230,22,F,NA,variable,heterogeneous,4,absent,1.72504806518555,1,vertical,vertical,1,5,red,4,NaN,619.68777079743,780.31222920257,NaN,NaN,980.31222920257,780.31222920257,980.31222920257,419.68777079743,619.68777079743,419.68777079743,619.68777079743,780.31222920257,3,6,5,4,horizontal,horizontal,horizontal,vertical
2a,24,100344,8,7,231,22,F,NA,variable,heterogeneous,4,present,NaN,0,horizontal,none,0,5,green,2,4,980.31222920257,419.68777079743,619.68777079743,780.31222920257,980.31222920257,780.31222920257,980.31222920257,419.68777079743,619.68777079743,419.68777079743,619.68777079743,780.31222920257,6,4,3,5,horizontal,horizontal,horizontal,vertical
2a,24,100344,8,8,232,22,F,NA,variable,heterogeneous,4,absent,1.84759020805359,1,horizontal,horizontal,1,2,red,2,NaN,980.31222920257,419.68777079743,NaN,NaN,980.31222920257,780.31222920257,980.31222920257,419.68777079743,619.68777079743,419.68777079743,619.68777079743,780.31222920257,6,4,0,5,vertical,horizontal,horizontal,horizontal
2a,24,100344,8,9,233,22,F,NA,variable,heterogeneous,4,absent,1.09311008453369,1,horizontal,horizontal,1,5,green,2,NaN,980.31222920257,419.68777079743,NaN,NaN,980.31222920257,780.31222920257,980.31222920257,419.68777079743,619.68777079743,419.68777079743,619.68777079743,780.31222920257,0,4,3,5,vertical,horizontal,vertical,vertical
2a,24,100344,8,10,234,22,F,NA,variable,heterogeneous,4,present,1.12342691421509,1,horizontal,horizontal,1,2,green,2,1,980.31222920257,419.68777079743,980.31222920257,780.31222920257,980.31222920257,780.31222920257,980.31222920257,419.68777079743,619.68777079743,419.68777079743,619.68777079743,780.31222920257,6,4,5,0,vertical,horizontal,vertical,vertical
2a,24,100344,8,11,235,22,F,NA,variable,heterogeneous,4,absent,1.44995903968811,1,horizontal,horizontal,1,8,green,1,NaN,980.31222920257,780.31222920257,NaN,NaN,980.31222920257,780.31222920257,980.31222920257,419.68777079743,619.68777079743,419.68777079743,619.68777079743,780.31222920257,4,5,3,0,horizontal,vertical,vertical,vertical
2a,24,100344,8,12,236,22,F,NA,variable,heterogeneous,4,absent,1.11147999763489,1,vertical,vertical,1,2,red,3,NaN,619.68777079743,419.68777079743,NaN,NaN,980.31222920257,780.31222920257,980.31222920257,419.68777079743,619.68777079743,419.68777079743,619.68777079743,780.31222920257,3,6,4,5,vertical,vertical,vertical,horizontal
2a,24,100344,8,13,237,22,F,NA,variable,heterogeneous,4,absent,1.24958181381226,1,horizontal,horizontal,1,3,red,1,NaN,980.31222920257,780.31222920257,NaN,NaN,980.31222920257,780.31222920257,980.31222920257,419.68777079743,619.68777079743,419.68777079743,619.68777079743,780.31222920257,4,0,3,5,horizontal,vertical,horizontal,horizontal
2a,24,100344,8,14,238,22,F,NA,variable,heterogeneous,4,present,1.14304900169373,1,horizontal,horizontal,1,3,red,2,4,980.31222920257,419.68777079743,619.68777079743,780.31222920257,980.31222920257,780.31222920257,980.31222920257,419.68777079743,619.68777079743,419.68777079743,619.68777079743,780.31222920257,5,4,3,0,vertical,horizontal,vertical,vertical
2a,24,100344,8,15,239,22,F,NA,variable,heterogeneous,4,absent,1.0538911819458,1,vertical,vertical,1,5,red,1,NaN,980.31222920257,780.31222920257,NaN,NaN,980.31222920257,780.31222920257,980.31222920257,419.68777079743,619.68777079743,419.68777079743,619.68777079743,780.31222920257,4,3,5,6,vertical,horizontal,horizontal,vertical
2a,24,100344,8,16,240,22,F,NA,variable,heterogeneous,4,absent,1.43541097640991,1,vertical,vertical,1,3,red,2,NaN,980.31222920257,419.68777079743,NaN,NaN,980.31222920257,780.31222920257,980.31222920257,419.68777079743,619.68777079743,419.68777079743,619.68777079743,780.31222920257,0,4,3,6,vertical,vertical,vertical,horizontal
2a,24,100344,8,17,241,22,F,NA,variable,heterogeneous,4,present,1.49253106117249,1,vertical,vertical,1,3,green,3,1,619.68777079743,419.68777079743,980.31222920257,780.31222920257,980.31222920257,780.31222920257,980.31222920257,419.68777079743,619.68777079743,419.68777079743,619.68777079743,780.31222920257,3,0,4,6,horizontal,vertical,vertical,horizontal
2a,24,100344,8,18,242,22,F,NA,variable,heterogeneous,4,present,1.2385458946228,1,horizontal,horizontal,1,3,red,4,2,619.68777079743,780.31222920257,980.31222920257,419.68777079743,980.31222920257,780.31222920257,980.31222920257,419.68777079743,619.68777079743,419.68777079743,619.68777079743,780.31222920257,6,3,5,4,vertical,vertical,horizontal,horizontal
2a,24,100344,8,19,243,22,F,NA,variable,heterogeneous,4,absent,1.00750994682312,1,horizontal,horizontal,1,2,green,4,NaN,619.68777079743,780.31222920257,NaN,NaN,980.31222920257,780.31222920257,980.31222920257,419.68777079743,619.68777079743,419.68777079743,619.68777079743,780.31222920257,3,5,6,4,vertical,vertical,horizontal,horizontal
2a,24,100344,8,20,244,22,F,NA,variable,heterogeneous,4,present,1.3236129283905,1,horizontal,horizontal,1,5,red,2,4,980.31222920257,419.68777079743,619.68777079743,780.31222920257,980.31222920257,780.31222920257,980.31222920257,419.68777079743,619.68777079743,419.68777079743,619.68777079743,780.31222920257,3,4,5,0,horizontal,horizontal,horizontal,vertical
2a,24,100344,8,21,245,22,F,NA,variable,heterogeneous,4,present,1.42656397819519,1,vertical,vertical,1,5,red,2,3,980.31222920257,419.68777079743,619.68777079743,419.68777079743,980.31222920257,780.31222920257,980.31222920257,419.68777079743,619.68777079743,419.68777079743,619.68777079743,780.31222920257,3,4,5,6,vertical,vertical,horizontal,vertical
2a,24,100344,8,22,246,22,F,NA,variable,heterogeneous,4,absent,0.799088001251221,1,vertical,vertical,1,2,green,2,NaN,980.31222920257,419.68777079743,NaN,NaN,980.31222920257,780.31222920257,980.31222920257,419.68777079743,619.68777079743,419.68777079743,619.68777079743,780.31222920257,0,4,3,5,horizontal,vertical,vertical,horizontal
2a,24,100344,8,23,247,22,F,NA,variable,heterogeneous,4,present,0.875568866729736,1,vertical,vertical,1,5,red,3,2,619.68777079743,419.68777079743,980.31222920257,419.68777079743,980.31222920257,780.31222920257,980.31222920257,419.68777079743,619.68777079743,419.68777079743,619.68777079743,780.31222920257,6,3,4,0,vertical,vertical,vertical,vertical
2a,24,100344,8,24,248,22,F,NA,variable,heterogeneous,4,present,0.945151805877686,1,vertical,vertical,1,2,green,2,1,980.31222920257,419.68777079743,980.31222920257,780.31222920257,980.31222920257,780.31222920257,980.31222920257,419.68777079743,619.68777079743,419.68777079743,619.68777079743,780.31222920257,0,4,5,3,horizontal,vertical,horizontal,horizontal
2a,24,100344,8,25,249,22,F,NA,variable,heterogeneous,4,present,0.864309072494507,1,horizontal,horizontal,1,2,red,2,1,980.31222920257,419.68777079743,980.31222920257,780.31222920257,980.31222920257,780.31222920257,980.31222920257,419.68777079743,619.68777079743,419.68777079743,619.68777079743,780.31222920257,6,4,0,3,horizontal,horizontal,vertical,vertical
2a,24,100344,8,26,250,22,F,NA,variable,heterogeneous,4,absent,1.21796083450317,1,horizontal,horizontal,1,2,red,2,NaN,980.31222920257,419.68777079743,NaN,NaN,980.31222920257,780.31222920257,980.31222920257,419.68777079743,619.68777079743,419.68777079743,619.68777079743,780.31222920257,5,4,3,6,horizontal,horizontal,vertical,horizontal
2a,24,100344,8,27,251,22,F,NA,variable,heterogeneous,4,absent,1.05780410766602,1,vertical,vertical,1,2,red,3,NaN,619.68777079743,419.68777079743,NaN,NaN,980.31222920257,780.31222920257,980.31222920257,419.68777079743,619.68777079743,419.68777079743,619.68777079743,780.31222920257,0,3,4,5,vertical,vertical,vertical,vertical
2a,24,100344,8,28,252,22,F,NA,variable,heterogeneous,4,present,1.01986193656921,0,horizontal,vertical,1,8,red,4,3,619.68777079743,780.31222920257,619.68777079743,419.68777079743,980.31222920257,780.31222920257,980.31222920257,419.68777079743,619.68777079743,419.68777079743,619.68777079743,780.31222920257,5,6,0,4,vertical,vertical,horizontal,horizontal
2a,24,100344,8,29,253,22,F,NA,variable,heterogeneous,4,present,1.29244899749756,1,vertical,vertical,1,8,red,1,3,980.31222920257,780.31222920257,619.68777079743,419.68777079743,980.31222920257,780.31222920257,980.31222920257,419.68777079743,619.68777079743,419.68777079743,619.68777079743,780.31222920257,4,0,6,5,vertical,horizontal,vertical,horizontal
2a,24,100344,8,30,254,22,F,NA,variable,heterogeneous,4,absent,1.17077302932739,1,horizontal,horizontal,1,3,green,1,NaN,980.31222920257,780.31222920257,NaN,NaN,980.31222920257,780.31222920257,980.31222920257,419.68777079743,619.68777079743,419.68777079743,619.68777079743,780.31222920257,4,5,0,3,horizontal,horizontal,vertical,vertical
2a,24,100344,8,31,255,22,F,NA,variable,heterogeneous,4,present,0.922206163406372,1,vertical,vertical,1,2,red,3,4,619.68777079743,419.68777079743,619.68777079743,780.31222920257,980.31222920257,780.31222920257,980.31222920257,419.68777079743,619.68777079743,419.68777079743,619.68777079743,780.31222920257,0,5,4,3,horizontal,vertical,vertical,vertical
2a,24,100344,8,32,256,22,F,NA,variable,heterogeneous,4,present,1.72886896133423,0,vertical,horizontal,1,2,green,1,3,980.31222920257,780.31222920257,619.68777079743,419.68777079743,980.31222920257,780.31222920257,980.31222920257,419.68777079743,619.68777079743,419.68777079743,619.68777079743,780.31222920257,4,3,5,0,vertical,horizontal,horizontal,vertical
2a,24,100344,9,1,257,22,F,NA,variable,heterogeneous,4,absent,1.22332882881165,1,horizontal,horizontal,1,3,red,4,NaN,619.68777079743,780.31222920257,NaN,NaN,980.31222920257,780.31222920257,980.31222920257,419.68777079743,619.68777079743,419.68777079743,619.68777079743,780.31222920257,0,6,5,4,horizontal,vertical,horizontal,horizontal
2a,24,100344,9,2,258,22,F,NA,variable,heterogeneous,4,absent,0.916120052337646,1,horizontal,horizontal,1,2,red,3,NaN,619.68777079743,419.68777079743,NaN,NaN,980.31222920257,780.31222920257,980.31222920257,419.68777079743,619.68777079743,419.68777079743,619.68777079743,780.31222920257,5,3,4,0,horizontal,horizontal,horizontal,horizontal
2a,24,100344,9,3,259,22,F,NA,variable,heterogeneous,4,absent,1.05051207542419,1,vertical,vertical,1,3,green,4,NaN,619.68777079743,780.31222920257,NaN,NaN,980.31222920257,780.31222920257,980.31222920257,419.68777079743,619.68777079743,419.68777079743,619.68777079743,780.31222920257,0,6,3,4,horizontal,vertical,vertical,vertical
2a,24,100344,9,4,260,22,F,NA,variable,heterogeneous,4,present,0.816068887710571,1,vertical,vertical,1,2,green,1,2,980.31222920257,780.31222920257,980.31222920257,419.68777079743,980.31222920257,780.31222920257,980.31222920257,419.68777079743,619.68777079743,419.68777079743,619.68777079743,780.31222920257,4,5,6,0,vertical,horizontal,horizontal,vertical
2a,24,100344,9,5,261,22,F,NA,variable,heterogeneous,4,present,0.776654958724976,1,vertical,vertical,1,2,red,2,3,980.31222920257,419.68777079743,619.68777079743,419.68777079743,980.31222920257,780.31222920257,980.31222920257,419.68777079743,619.68777079743,419.68777079743,619.68777079743,780.31222920257,0,4,6,5,horizontal,vertical,vertical,horizontal
2a,24,100344,9,6,262,22,F,NA,variable,heterogeneous,4,absent,0.836225986480713,1,vertical,vertical,1,2,green,1,NaN,980.31222920257,780.31222920257,NaN,NaN,980.31222920257,780.31222920257,980.31222920257,419.68777079743,619.68777079743,419.68777079743,619.68777079743,780.31222920257,4,6,0,5,vertical,horizontal,horizontal,vertical
2a,24,100344,9,7,263,22,F,NA,variable,heterogeneous,4,present,0.997260808944702,1,horizontal,horizontal,1,5,red,4,3,619.68777079743,780.31222920257,619.68777079743,419.68777079743,980.31222920257,780.31222920257,980.31222920257,419.68777079743,619.68777079743,419.68777079743,619.68777079743,780.31222920257,3,0,5,4,vertical,horizontal,horizontal,horizontal
2a,24,100344,9,8,264,22,F,NA,variable,heterogeneous,4,present,0.925541877746582,1,vertical,vertical,1,3,red,2,4,980.31222920257,419.68777079743,619.68777079743,780.31222920257,980.31222920257,780.31222920257,980.31222920257,419.68777079743,619.68777079743,419.68777079743,619.68777079743,780.31222920257,3,4,6,5,vertical,vertical,vertical,vertical
2a,24,100344,9,9,265,22,F,NA,variable,heterogeneous,4,absent,0.796070098876953,1,vertical,vertical,1,8,red,4,NaN,619.68777079743,780.31222920257,NaN,NaN,980.31222920257,780.31222920257,980.31222920257,419.68777079743,619.68777079743,419.68777079743,619.68777079743,780.31222920257,0,6,5,4,vertical,vertical,vertical,vertical
2a,24,100344,9,10,266,22,F,NA,variable,heterogeneous,4,absent,0.860214948654175,1,vertical,vertical,1,5,green,4,NaN,619.68777079743,780.31222920257,NaN,NaN,980.31222920257,780.31222920257,980.31222920257,419.68777079743,619.68777079743,419.68777079743,619.68777079743,780.31222920257,3,5,6,4,vertical,horizontal,horizontal,vertical
2a,24,100344,9,11,267,22,F,NA,variable,heterogeneous,4,absent,1.02178502082825,1,vertical,vertical,1,3,red,3,NaN,619.68777079743,419.68777079743,NaN,NaN,980.31222920257,780.31222920257,980.31222920257,419.68777079743,619.68777079743,419.68777079743,619.68777079743,780.31222920257,0,3,4,6,vertical,horizontal,vertical,horizontal
2a,24,100344,9,12,268,22,F,NA,variable,heterogeneous,4,present,0.742648839950562,1,vertical,vertical,1,5,green,3,4,619.68777079743,419.68777079743,619.68777079743,780.31222920257,980.31222920257,780.31222920257,980.31222920257,419.68777079743,619.68777079743,419.68777079743,619.68777079743,780.31222920257,6,0,4,5,vertical,horizontal,vertical,horizontal
2a,24,100344,9,13,269,22,F,NA,variable,heterogeneous,4,absent,1.12553310394287,1,vertical,vertical,1,2,green,1,NaN,980.31222920257,780.31222920257,NaN,NaN,980.31222920257,780.31222920257,980.31222920257,419.68777079743,619.68777079743,419.68777079743,619.68777079743,780.31222920257,4,3,0,6,vertical,vertical,vertical,vertical
2a,24,100344,9,14,270,22,F,NA,variable,heterogeneous,4,present,1.04413509368896,1,horizontal,horizontal,1,5,red,3,2,619.68777079743,419.68777079743,980.31222920257,419.68777079743,980.31222920257,780.31222920257,980.31222920257,419.68777079743,619.68777079743,419.68777079743,619.68777079743,780.31222920257,0,5,4,3,vertical,vertical,horizontal,horizontal
2a,24,100344,9,15,271,22,F,NA,variable,heterogeneous,4,present,1.21309804916382,1,horizontal,horizontal,1,3,red,1,2,980.31222920257,780.31222920257,980.31222920257,419.68777079743,980.31222920257,780.31222920257,980.31222920257,419.68777079743,619.68777079743,419.68777079743,619.68777079743,780.31222920257,4,0,5,6,horizontal,vertical,horizontal,vertical
2a,24,100344,9,16,272,22,F,NA,variable,heterogeneous,4,present,0.853818893432617,1,horizontal,horizontal,1,3,red,1,3,980.31222920257,780.31222920257,619.68777079743,419.68777079743,980.31222920257,780.31222920257,980.31222920257,419.68777079743,619.68777079743,419.68777079743,619.68777079743,780.31222920257,4,6,0,5,horizontal,vertical,horizontal,vertical
2a,24,100344,9,17,273,22,F,NA,variable,heterogeneous,4,present,1.6590690612793,1,horizontal,horizontal,1,2,red,4,1,619.68777079743,780.31222920257,980.31222920257,780.31222920257,980.31222920257,780.31222920257,980.31222920257,419.68777079743,619.68777079743,419.68777079743,619.68777079743,780.31222920257,5,0,6,4,horizontal,vertical,vertical,horizontal
2a,24,100344,9,18,274,22,F,NA,variable,heterogeneous,4,present,0.964601993560791,1,vertical,vertical,1,5,red,1,3,980.31222920257,780.31222920257,619.68777079743,419.68777079743,980.31222920257,780.31222920257,980.31222920257,419.68777079743,619.68777079743,419.68777079743,619.68777079743,780.31222920257,4,0,5,6,vertical,vertical,horizontal,vertical
2a,24,100344,9,19,275,22,F,NA,variable,heterogeneous,4,absent,1.04387998580933,1,horizontal,horizontal,1,2,red,2,NaN,980.31222920257,419.68777079743,NaN,NaN,980.31222920257,780.31222920257,980.31222920257,419.68777079743,619.68777079743,419.68777079743,619.68777079743,780.31222920257,6,4,5,3,vertical,horizontal,vertical,horizontal
2a,24,100344,9,20,276,22,F,NA,variable,heterogeneous,4,present,1.02111005783081,1,vertical,vertical,1,3,green,4,2,619.68777079743,780.31222920257,980.31222920257,419.68777079743,980.31222920257,780.31222920257,980.31222920257,419.68777079743,619.68777079743,419.68777079743,619.68777079743,780.31222920257,5,3,0,4,vertical,vertical,vertical,vertical
2a,24,100344,9,21,277,22,F,NA,variable,heterogeneous,4,absent,0.781566858291626,1,vertical,vertical,1,5,green,1,NaN,980.31222920257,780.31222920257,NaN,NaN,980.31222920257,780.31222920257,980.31222920257,419.68777079743,619.68777079743,419.68777079743,619.68777079743,780.31222920257,4,3,5,6,vertical,vertical,horizontal,vertical
2a,24,100344,9,22,278,22,F,NA,variable,heterogeneous,4,present,0.865523815155029,1,vertical,vertical,1,8,green,3,4,619.68777079743,419.68777079743,619.68777079743,780.31222920257,980.31222920257,780.31222920257,980.31222920257,419.68777079743,619.68777079743,419.68777079743,619.68777079743,780.31222920257,3,0,4,5,vertical,vertical,vertical,horizontal
2a,24,100344,9,23,279,22,F,NA,variable,heterogeneous,4,absent,0.819085836410522,1,horizontal,horizontal,1,5,green,3,NaN,619.68777079743,419.68777079743,NaN,NaN,980.31222920257,780.31222920257,980.31222920257,419.68777079743,619.68777079743,419.68777079743,619.68777079743,780.31222920257,6,5,4,0,vertical,horizontal,horizontal,horizontal
2a,24,100344,9,24,280,22,F,NA,variable,heterogeneous,4,present,1.74771404266357,1,horizontal,horizontal,1,2,red,4,3,619.68777079743,780.31222920257,619.68777079743,419.68777079743,980.31222920257,780.31222920257,980.31222920257,419.68777079743,619.68777079743,419.68777079743,619.68777079743,780.31222920257,5,3,0,4,vertical,horizontal,horizontal,horizontal
2a,24,100344,9,25,281,22,F,NA,variable,heterogeneous,4,absent,0.954830169677734,1,horizontal,horizontal,1,5,green,4,NaN,619.68777079743,780.31222920257,NaN,NaN,980.31222920257,780.31222920257,980.31222920257,419.68777079743,619.68777079743,419.68777079743,619.68777079743,780.31222920257,5,3,6,4,horizontal,vertical,vertical,horizontal
2a,24,100344,9,26,282,22,F,NA,variable,heterogeneous,4,absent,1.70221495628357,1,horizontal,horizontal,1,8,green,1,NaN,980.31222920257,780.31222920257,NaN,NaN,980.31222920257,780.31222920257,980.31222920257,419.68777079743,619.68777079743,419.68777079743,619.68777079743,780.31222920257,4,5,6,3,horizontal,vertical,horizontal,horizontal
2a,24,100344,9,27,283,22,F,NA,variable,heterogeneous,4,absent,1.58042693138123,1,horizontal,horizontal,1,2,red,3,NaN,619.68777079743,419.68777079743,NaN,NaN,980.31222920257,780.31222920257,980.31222920257,419.68777079743,619.68777079743,419.68777079743,619.68777079743,780.31222920257,6,3,4,0,vertical,horizontal,horizontal,vertical
2a,24,100344,9,28,284,22,F,NA,variable,heterogeneous,4,present,0.936370134353638,1,horizontal,horizontal,1,2,red,1,2,980.31222920257,780.31222920257,980.31222920257,419.68777079743,980.31222920257,780.31222920257,980.31222920257,419.68777079743,619.68777079743,419.68777079743,619.68777079743,780.31222920257,4,0,3,5,horizontal,horizontal,vertical,horizontal
2a,24,100344,9,29,285,22,F,NA,variable,heterogeneous,4,present,1.30732703208923,1,vertical,vertical,1,2,red,4,1,619.68777079743,780.31222920257,980.31222920257,780.31222920257,980.31222920257,780.31222920257,980.31222920257,419.68777079743,619.68777079743,419.68777079743,619.68777079743,780.31222920257,5,6,3,4,horizontal,horizontal,vertical,vertical
2a,24,100344,9,30,286,22,F,NA,variable,heterogeneous,4,present,0.901556968688965,1,horizontal,horizontal,1,8,green,1,4,980.31222920257,780.31222920257,619.68777079743,780.31222920257,980.31222920257,780.31222920257,980.31222920257,419.68777079743,619.68777079743,419.68777079743,619.68777079743,780.31222920257,4,0,6,5,horizontal,horizontal,horizontal,horizontal
2a,24,100344,9,31,287,22,F,NA,variable,heterogeneous,4,absent,0.859799146652222,1,vertical,vertical,1,2,red,3,NaN,619.68777079743,419.68777079743,NaN,NaN,980.31222920257,780.31222920257,980.31222920257,419.68777079743,619.68777079743,419.68777079743,619.68777079743,780.31222920257,6,0,4,3,vertical,horizontal,vertical,horizontal
2a,24,100344,9,32,288,22,F,NA,variable,heterogeneous,4,absent,0.73326301574707,1,horizontal,horizontal,1,3,red,1,NaN,980.31222920257,780.31222920257,NaN,NaN,980.31222920257,780.31222920257,980.31222920257,419.68777079743,619.68777079743,419.68777079743,619.68777079743,780.31222920257,4,6,3,5,horizontal,horizontal,horizontal,vertical
2a,24,100344,10,1,289,22,F,NA,variable,heterogeneous,4,absent,1.19665122032166,1,horizontal,horizontal,1,8,green,4,NaN,619.68777079743,780.31222920257,NaN,NaN,980.31222920257,780.31222920257,980.31222920257,419.68777079743,619.68777079743,419.68777079743,619.68777079743,780.31222920257,0,5,3,4,horizontal,horizontal,vertical,horizontal
2a,24,100344,10,2,290,22,F,NA,variable,heterogeneous,4,present,0.764629125595093,1,horizontal,horizontal,1,5,green,1,2,980.31222920257,780.31222920257,980.31222920257,419.68777079743,980.31222920257,780.31222920257,980.31222920257,419.68777079743,619.68777079743,419.68777079743,619.68777079743,780.31222920257,4,5,0,6,horizontal,horizontal,horizontal,vertical
