experiment,subject,uniqueID,block,trial,trial_cumulative,age,gender,color_cond_blocking,color_history,shape_type,set_size,distractor,rt,acc,target_orient,response_key,response_made,iti,target_color,target_item,distractor_item,target_X,target_Y,distractor_X,distractor_Y,item1_X,item1_Y,item2_X,item2_Y,item3_X,item3_Y,item4_X,item4_Y,item1_shape,item2_shape,item3_shape,item4_shape,item1_line,item2_line,item3_line,item4_line
2a,2,100250,1,1,1,18,F,NA,variable,heterogeneous,4,absent,NaN,0,horizontal,none,0,2,green,4,NaN,619.68777079743,780.31222920257,NaN,NaN,980.31222920257,780.31222920257,980.31222920257,419.68777079743,619.68777079743,419.68777079743,619.68777079743,780.31222920257,3,0,6,4,horizontal,horizontal,horizontal,horizontal
2a,2,100250,1,2,2,18,F,NA,variable,heterogeneous,4,present,1.84310483932495,1,vertical,vertical,1,5,red,4,1,619.68777079743,780.31222920257,980.31222920257,780.31222920257,980.31222920257,780.31222920257,980.31222920257,419.68777079743,619.68777079743,419.68777079743,619.68777079743,780.31222920257,3,6,0,4,vertical,horizontal,vertical,vertical
2a,2,100250,1,3,3,18,F,NA,variable,heterogeneous,4,absent,0.988188982009888,1,vertical,vertical,1,2,green,4,NaN,619.68777079743,780.31222920257,NaN,NaN,980.31222920257,780.31222920257,980.31222920257,419.68777079743,619.68777079743,419.68777079743,619.68777079743,780.31222920257,3,5,6,4,horizontal,horizontal,horizontal,vertical
2a,2,100250,1,4,4,18,F,NA,variable,heterogeneous,4,present,NaN,0,horizontal,none,0,5,green,3,1,619.68777079743,419.68777079743,980.31222920257,780.31222920257,980.31222920257,780.31222920257,980.31222920257,419.68777079743,619.68777079743,419.68777079743,619.68777079743,780.31222920257,6,3,4,0,horizontal,horizontal,horizontal,horizontal
2a,2,100250,1,5,5,18,F,NA,variable,heterogeneous,4,present,NaN,0,vertical,none,0,2,red,1,4,980.31222920257,780.31222920257,619.68777079743,780.31222920257,980.31222920257,780.31222920257,980.31222920257,419.68777079743,619.68777079743,419.68777079743,619.68777079743,780.31222920257,4,5,0,3,vertical,vertical,horizontal,horizontal
2a,2,100250,1,6,6,18,F,NA,variable,heterogeneous,4,absent,1.83736300468445,0,vertical,horizontal,1,3,red,3,NaN,619.68777079743,419.68777079743,NaN,NaN,980.31222920257,780.31222920257,980.31222920257,419.68777079743,619.68777079743,419.68777079743,619.68777079743,780.31222920257,5,3,4,0,horizontal,vertical,vertical,horizontal
2a,2,100250,1,7,7,18,F,NA,variable,heterogeneous,4,absent,NaN,0,vertical,none,0,5,green,4,NaN,619.68777079743,780.31222920257,NaN,NaN,980.31222920257,780.31222920257,980.31222920257,419.68777079743,619.68777079743,419.68777079743,619.68777079743,780.31222920257,6,3,5,4,vertical,vertical,vertical,vertical
2a,2,100250,1,8,8,18,F,NA,variable,heterogeneous,4,present,1.65023899078369,0,horizontal,vertical,1,8,red,1,4,980.31222920257,780.31222920257,619.68777079743,780.31222920257,980.31222920257,780.31222920257,980.31222920257,419.68777079743,619.68777079743,419.68777079743,619.68777079743,780.31222920257,4,0,3,6,horizontal,vertical,horizontal,horizontal
2a,2,100250,1,9,9,18,F,NA,variable,heterogeneous,4,present,NaN,0,vertical,none,0,8,red,3,4,619.68777079743,419.68777079743,619.68777079743,780.31222920257,980.31222920257,780.31222920257,980.31222920257,419.68777079743,619.68777079743,419.68777079743,619.68777079743,780.31222920257,3,6,4,5,vertical,vertical,vertical,horizontal
2a,2,100250,1,10,10,18,F,NA,variable,heterogeneous,4,present,NaN,0,horizontal,none,0,2,green,2,1,980.31222920257,419.68777079743,980.31222920257,780.31222920257,980.31222920257,780.31222920257,980.31222920257,419.68777079743,619.68777079743,419.68777079743,619.68777079743,780.31222920257,3,4,5,0,vertical,horizontal,vertical,vertical
2a,2,100250,1,11,11,18,F,NA,variable,heterogeneous,4,present,1.82423305511475,0,horizontal,vertical,1,2,green,1,3,980.31222920257,780.31222920257,619.68777079743,419.68777079743,980.31222920257,780.31222920257,980.31222920257,419.68777079743,619.68777079743,419.68777079743,619.68777079743,780.31222920257,4,6,0,3,horizontal,vertical,horizontal,horizontal
2a,2,100250,1,12,12,18,F,NA,variable,heterogeneous,4,present,1.90114402770996,1,horizontal,horizontal,1,3,green,3,1,619.68777079743,419.68777079743,980.31222920257,780.31222920257,980.31222920257,780.31222920257,980.31222920257,419.68777079743,619.68777079743,419.68777079743,619.68777079743,780.31222920257,6,0,4,5,vertical,horizontal,horizontal,vertical
2a,2,100250,1,13,13,18,F,NA,variable,heterogeneous,4,present,1.36348009109497,1,vertical,vertical,1,3,green,1,3,980.31222920257,780.31222920257,619.68777079743,419.68777079743,980.31222920257,780.31222920257,980.31222920257,419.68777079743,619.68777079743,419.68777079743,619.68777079743,780.31222920257,4,5,6,3,vertical,horizontal,vertical,horizontal
2a,2,100250,1,14,14,18,F,NA,variable,heterogeneous,4,present,1.07503914833069,1,vertical,vertical,1,2,green,4,3,619.68777079743,780.31222920257,619.68777079743,419.68777079743,980.31222920257,780.31222920257,980.31222920257,419.68777079743,619.68777079743,419.68777079743,619.68777079743,780.31222920257,3,6,0,4,vertical,vertical,horizontal,vertical
2a,2,100250,1,15,15,18,F,NA,variable,heterogeneous,4,absent,1.44076299667358,1,vertical,vertical,1,5,green,1,NaN,980.31222920257,780.31222920257,NaN,NaN,980.31222920257,780.31222920257,980.31222920257,419.68777079743,619.68777079743,419.68777079743,619.68777079743,780.31222920257,4,3,5,0,vertical,vertical,vertical,vertical
2a,2,100250,1,16,16,18,F,NA,variable,heterogeneous,4,absent,0.825623989105225,1,vertical,vertical,1,2,green,1,NaN,980.31222920257,780.31222920257,NaN,NaN,980.31222920257,780.31222920257,980.31222920257,419.68777079743,619.68777079743,419.68777079743,619.68777079743,780.31222920257,4,3,0,5,vertical,horizontal,horizontal,vertical
2a,2,100250,1,17,17,18,F,NA,variable,heterogeneous,4,present,1.51845097541809,1,vertical,vertical,1,5,red,2,4,980.31222920257,419.68777079743,619.68777079743,780.31222920257,980.31222920257,780.31222920257,980.31222920257,419.68777079743,619.68777079743,419.68777079743,619.68777079743,780.31222920257,0,4,5,6,horizontal,vertical,vertical,vertical
2a,2,100250,1,18,18,18,F,NA,variable,heterogeneous,4,absent,1.21310997009277,1,vertical,vertical,1,3,green,1,NaN,980.31222920257,780.31222920257,NaN,NaN,980.31222920257,780.31222920257,980.31222920257,419.68777079743,619.68777079743,419.68777079743,619.68777079743,780.31222920257,4,5,3,6,vertical,vertical,horizontal,horizontal
2a,2,100250,1,19,19,18,F,NA,variable,heterogeneous,4,present,1.19785785675049,1,horizontal,horizontal,1,5,green,3,4,619.68777079743,419.68777079743,619.68777079743,780.31222920257,980.31222920257,780.31222920257,980.31222920257,419.68777079743,619.68777079743,419.68777079743,619.68777079743,780.31222920257,5,6,4,0,vertical,vertical,horizontal,vertical
2a,2,100250,1,20,20,18,F,NA,variable,heterogeneous,4,absent,1.06177401542664,0,horizontal,vertical,1,5,green,3,NaN,619.68777079743,419.68777079743,NaN,NaN,980.31222920257,780.31222920257,980.31222920257,419.68777079743,619.68777079743,419.68777079743,619.68777079743,780.31222920257,3,5,4,6,vertical,horizontal,horizontal,vertical
2a,2,100250,1,21,21,18,F,NA,variable,heterogeneous,4,absent,0.711335897445679,0,vertical,horizontal,1,8,red,3,NaN,619.68777079743,419.68777079743,NaN,NaN,980.31222920257,780.31222920257,980.31222920257,419.68777079743,619.68777079743,419.68777079743,619.68777079743,780.31222920257,5,6,4,3,horizontal,horizontal,vertical,horizontal
2a,2,100250,1,22,22,18,F,NA,variable,heterogeneous,4,present,1.16985392570496,0,vertical,horizontal,1,3,green,3,1,619.68777079743,419.68777079743,980.31222920257,780.31222920257,980.31222920257,780.31222920257,980.31222920257,419.68777079743,619.68777079743,419.68777079743,619.68777079743,780.31222920257,6,5,4,3,vertical,horizontal,vertical,horizontal
2a,2,100250,1,23,23,18,F,NA,variable,heterogeneous,4,absent,1.6412570476532,1,horizontal,horizontal,1,2,green,3,NaN,619.68777079743,419.68777079743,NaN,NaN,980.31222920257,780.31222920257,980.31222920257,419.68777079743,619.68777079743,419.68777079743,619.68777079743,780.31222920257,3,5,4,6,horizontal,vertical,horizontal,horizontal
2a,2,100250,1,24,24,18,F,NA,variable,heterogeneous,4,present,0.938468933105469,1,vertical,vertical,1,2,red,3,1,619.68777079743,419.68777079743,980.31222920257,780.31222920257,980.31222920257,780.31222920257,980.31222920257,419.68777079743,619.68777079743,419.68777079743,619.68777079743,780.31222920257,3,0,4,5,vertical,horizontal,vertical,vertical
2a,2,100250,1,25,25,18,F,NA,variable,heterogeneous,4,present,1.5972011089325,1,horizontal,horizontal,1,2,green,4,3,619.68777079743,780.31222920257,619.68777079743,419.68777079743,980.31222920257,780.31222920257,980.31222920257,419.68777079743,619.68777079743,419.68777079743,619.68777079743,780.31222920257,3,0,6,4,horizontal,horizontal,horizontal,horizontal
2a,2,100250,1,26,26,18,F,NA,variable,heterogeneous,4,absent,1.84532403945923,1,horizontal,horizontal,1,3,red,3,NaN,619.68777079743,419.68777079743,NaN,NaN,980.31222920257,780.31222920257,980.31222920257,419.68777079743,619.68777079743,419.68777079743,619.68777079743,780.31222920257,0,5,4,3,horizontal,horizontal,horizontal,vertical
2a,2,100250,1,27,27,18,F,NA,variable,heterogeneous,4,present,1.62232518196106,0,horizontal,vertical,1,3,green,2,4,980.31222920257,419.68777079743,619.68777079743,780.31222920257,980.31222920257,780.31222920257,980.31222920257,419.68777079743,619.68777079743,419.68777079743,619.68777079743,780.31222920257,5,4,0,6,vertical,horizontal,vertical,vertical
2a,2,100250,1,28,28,18,F,NA,variable,heterogeneous,4,absent,NaN,0,horizontal,none,0,3,green,2,NaN,980.31222920257,419.68777079743,NaN,NaN,980.31222920257,780.31222920257,980.31222920257,419.68777079743,619.68777079743,419.68777079743,619.68777079743,780.31222920257,5,4,6,0,vertical,horizontal,vertical,vertical
2a,2,100250,1,29,29,18,F,NA,variable,heterogeneous,4,absent,NaN,0,horizontal,none,0,8,green,2,NaN,980.31222920257,419.68777079743,NaN,NaN,980.31222920257,780.31222920257,980.31222920257,419.68777079743,619.68777079743,419.68777079743,619.68777079743,780.31222920257,6,4,0,5,vertical,horizontal,vertical,vertical
2a,2,100250,1,30,30,18,F,NA,variable,heterogeneous,4,absent,NaN,0,horizontal,none,0,5,red,2,NaN,980.31222920257,419.68777079743,NaN,NaN,980.31222920257,780.31222920257,980.31222920257,419.68777079743,619.68777079743,419.68777079743,619.68777079743,780.31222920257,3,4,5,6,vertical,horizontal,vertical,horizontal
2a,2,100250,1,31,31,18,F,NA,variable,heterogeneous,4,absent,1.23203802108765,1,horizontal,horizontal,1,2,green,4,NaN,619.68777079743,780.31222920257,NaN,NaN,980.31222920257,780.31222920257,980.31222920257,419.68777079743,619.68777079743,419.68777079743,619.68777079743,780.31222920257,0,3,5,4,horizontal,vertical,horizontal,horizontal
2a,2,100250,1,32,32,18,F,NA,variable,heterogeneous,4,absent,1.02099704742432,1,vertical,vertical,1,2,red,4,NaN,619.68777079743,780.31222920257,NaN,NaN,980.31222920257,780.31222920257,980.31222920257,419.68777079743,619.68777079743,419.68777079743,619.68777079743,780.31222920257,0,5,3,4,horizontal,vertical,vertical,vertical
2a,2,100250,2,1,33,18,F,NA,variable,heterogeneous,4,absent,1.0982141494751,1,horizontal,horizontal,1,2,green,4,NaN,619.68777079743,780.31222920257,NaN,NaN,980.31222920257,780.31222920257,980.31222920257,419.68777079743,619.68777079743,419.68777079743,619.68777079743,780.31222920257,0,3,5,4,horizontal,horizontal,vertical,horizontal
2a,2,100250,2,2,34,18,F,NA,variable,heterogeneous,4,present,1.31256103515625,0,horizontal,vertical,1,5,red,4,3,619.68777079743,780.31222920257,619.68777079743,419.68777079743,980.31222920257,780.31222920257,980.31222920257,419.68777079743,619.68777079743,419.68777079743,619.68777079743,780.31222920257,5,6,3,4,vertical,vertical,horizontal,horizontal
2a,2,100250,2,3,35,18,F,NA,variable,heterogeneous,4,absent,1.57900500297546,1,horizontal,horizontal,1,2,red,2,NaN,980.31222920257,419.68777079743,NaN,NaN,980.31222920257,780.31222920257,980.31222920257,419.68777079743,619.68777079743,419.68777079743,619.68777079743,780.31222920257,5,4,3,6,vertical,horizontal,horizontal,vertical
2a,2,100250,2,4,36,18,F,NA,variable,heterogeneous,4,absent,1.5346040725708,0,horizontal,vertical,1,5,green,1,NaN,980.31222920257,780.31222920257,NaN,NaN,980.31222920257,780.31222920257,980.31222920257,419.68777079743,619.68777079743,419.68777079743,619.68777079743,780.31222920257,4,6,0,5,horizontal,vertical,horizontal,horizontal
2a,2,100250,2,5,37,18,F,NA,variable,heterogeneous,4,present,1.44967699050903,0,vertical,horizontal,1,2,red,4,2,619.68777079743,780.31222920257,980.31222920257,419.68777079743,980.31222920257,780.31222920257,980.31222920257,419.68777079743,619.68777079743,419.68777079743,619.68777079743,780.31222920257,6,3,0,4,horizontal,horizontal,horizontal,vertical
2a,2,100250,2,6,38,18,F,NA,variable,heterogeneous,4,absent,0.942903995513916,1,horizontal,horizontal,1,5,green,4,NaN,619.68777079743,780.31222920257,NaN,NaN,980.31222920257,780.31222920257,980.31222920257,419.68777079743,619.68777079743,419.68777079743,619.68777079743,780.31222920257,5,3,6,4,horizontal,vertical,vertical,horizontal
2a,2,100250,2,7,39,18,F,NA,variable,heterogeneous,4,absent,0.98205304145813,1,vertical,vertical,1,2,red,4,NaN,619.68777079743,780.31222920257,NaN,NaN,980.31222920257,780.31222920257,980.31222920257,419.68777079743,619.68777079743,419.68777079743,619.68777079743,780.31222920257,3,5,6,4,vertical,horizontal,horizontal,vertical
2a,2,100250,2,8,40,18,F,NA,variable,heterogeneous,4,present,0.889801979064941,1,horizontal,horizontal,1,2,green,4,2,619.68777079743,780.31222920257,980.31222920257,419.68777079743,980.31222920257,780.31222920257,980.31222920257,419.68777079743,619.68777079743,419.68777079743,619.68777079743,780.31222920257,6,5,3,4,horizontal,horizontal,vertical,horizontal
2a,2,100250,2,9,41,18,F,NA,variable,heterogeneous,4,present,1.21172308921814,1,horizontal,horizontal,1,2,red,1,4,980.31222920257,780.31222920257,619.68777079743,780.31222920257,980.31222920257,780.31222920257,980.31222920257,419.68777079743,619.68777079743,419.68777079743,619.68777079743,780.31222920257,4,0,5,3,horizontal,horizontal,vertical,vertical
2a,2,100250,2,10,42,18,F,NA,variable,heterogeneous,4,present,1.50835704803467,1,vertical,vertical,1,2,red,2,3,980.31222920257,419.68777079743,619.68777079743,419.68777079743,980.31222920257,780.31222920257,980.31222920257,419.68777079743,619.68777079743,419.68777079743,619.68777079743,780.31222920257,5,4,0,6,horizontal,vertical,horizontal,horizontal
2a,2,100250,2,11,43,18,F,NA,variable,heterogeneous,4,present,0.894598007202148,1,horizontal,horizontal,1,3,green,4,3,619.68777079743,780.31222920257,619.68777079743,419.68777079743,980.31222920257,780.31222920257,980.31222920257,419.68777079743,619.68777079743,419.68777079743,619.68777079743,780.31222920257,0,5,3,4,horizontal,vertical,vertical,horizontal
2a,2,100250,2,12,44,18,F,NA,variable,heterogeneous,4,present,1.03657793998718,0,vertical,horizontal,1,3,red,4,3,619.68777079743,780.31222920257,619.68777079743,419.68777079743,980.31222920257,780.31222920257,980.31222920257,419.68777079743,619.68777079743,419.68777079743,619.68777079743,780.31222920257,5,0,3,4,vertical,horizontal,horizontal,vertical
2a,2,100250,2,13,45,18,F,NA,variable,heterogeneous,4,present,1.06982016563416,1,vertical,vertical,1,5,red,4,2,619.68777079743,780.31222920257,980.31222920257,419.68777079743,980.31222920257,780.31222920257,980.31222920257,419.68777079743,619.68777079743,419.68777079743,619.68777079743,780.31222920257,5,3,0,4,vertical,horizontal,vertical,vertical
2a,2,100250,2,14,46,18,F,NA,variable,heterogeneous,4,present,0.779639005661011,1,vertical,vertical,1,5,red,1,2,980.31222920257,780.31222920257,980.31222920257,419.68777079743,980.31222920257,780.31222920257,980.31222920257,419.68777079743,619.68777079743,419.68777079743,619.68777079743,780.31222920257,4,3,5,0,vertical,horizontal,horizontal,horizontal
2a,2,100250,2,15,47,18,F,NA,variable,heterogeneous,4,present,1.20741295814514,1,vertical,vertical,1,2,red,4,1,619.68777079743,780.31222920257,980.31222920257,780.31222920257,980.31222920257,780.31222920257,980.31222920257,419.68777079743,619.68777079743,419.68777079743,619.68777079743,780.31222920257,5,0,6,4,vertical,horizontal,vertical,vertical
2a,2,100250,2,16,48,18,F,NA,variable,heterogeneous,4,absent,0.803608179092407,1,vertical,vertical,1,5,green,4,NaN,619.68777079743,780.31222920257,NaN,NaN,980.31222920257,780.31222920257,980.31222920257,419.68777079743,619.68777079743,419.68777079743,619.68777079743,780.31222920257,0,6,3,4,horizontal,horizontal,vertical,vertical
2a,2,100250,2,17,49,18,F,NA,variable,heterogeneous,4,absent,1.56812906265259,1,vertical,vertical,1,3,green,3,NaN,619.68777079743,419.68777079743,NaN,NaN,980.31222920257,780.31222920257,980.31222920257,419.68777079743,619.68777079743,419.68777079743,619.68777079743,780.31222920257,5,3,4,0,horizontal,vertical,vertical,vertical
2a,2,100250,2,18,50,18,F,NA,variable,heterogeneous,4,present,1.81554317474365,0,horizontal,vertical,1,2,green,3,4,619.68777079743,419.68777079743,619.68777079743,780.31222920257,980.31222920257,780.31222920257,980.31222920257,419.68777079743,619.68777079743,419.68777079743,619.68777079743,780.31222920257,6,0,4,3,horizontal,horizontal,horizontal,vertical
2a,2,100250,2,19,51,18,F,NA,variable,heterogeneous,4,absent,1.26417112350464,1,vertical,vertical,1,3,red,3,NaN,619.68777079743,419.68777079743,NaN,NaN,980.31222920257,780.31222920257,980.31222920257,419.68777079743,619.68777079743,419.68777079743,619.68777079743,780.31222920257,0,5,4,6,vertical,horizontal,vertical,vertical
2a,2,100250,2,20,52,18,F,NA,variable,heterogeneous,4,absent,1.72153091430664,1,horizontal,horizontal,1,8,red,2,NaN,980.31222920257,419.68777079743,NaN,NaN,980.31222920257,780.31222920257,980.31222920257,419.68777079743,619.68777079743,419.68777079743,619.68777079743,780.31222920257,5,4,6,3,horizontal,horizontal,horizontal,horizontal
2a,2,100250,2,21,53,18,F,NA,variable,heterogeneous,4,absent,1.16047477722168,1,vertical,vertical,1,8,red,2,NaN,980.31222920257,419.68777079743,NaN,NaN,980.31222920257,780.31222920257,980.31222920257,419.68777079743,619.68777079743,419.68777079743,619.68777079743,780.31222920257,3,4,0,6,vertical,vertical,horizontal,vertical
2a,2,100250,2,22,54,18,F,NA,variable,heterogeneous,4,present,1.66796803474426,1,horizontal,horizontal,1,5,green,3,1,619.68777079743,419.68777079743,980.31222920257,780.31222920257,980.31222920257,780.31222920257,980.31222920257,419.68777079743,619.68777079743,419.68777079743,619.68777079743,780.31222920257,5,0,4,6,horizontal,horizontal,horizontal,vertical
2a,2,100250,2,23,55,18,F,NA,variable,heterogeneous,4,present,1.17339491844177,0,vertical,horizontal,1,3,red,4,2,619.68777079743,780.31222920257,980.31222920257,419.68777079743,980.31222920257,780.31222920257,980.31222920257,419.68777079743,619.68777079743,419.68777079743,619.68777079743,780.31222920257,5,0,3,4,vertical,horizontal,vertical,vertical
2a,2,100250,2,24,56,18,F,NA,variable,heterogeneous,4,present,0.925153970718384,1,vertical,vertical,1,8,red,1,3,980.31222920257,780.31222920257,619.68777079743,419.68777079743,980.31222920257,780.31222920257,980.31222920257,419.68777079743,619.68777079743,419.68777079743,619.68777079743,780.31222920257,4,6,3,5,vertical,vertical,horizontal,vertical
2a,2,100250,2,25,57,18,F,NA,variable,heterogeneous,4,absent,1.6836838722229,0,horizontal,vertical,1,3,red,1,NaN,980.31222920257,780.31222920257,NaN,NaN,980.31222920257,780.31222920257,980.31222920257,419.68777079743,619.68777079743,419.68777079743,619.68777079743,780.31222920257,4,3,6,5,horizontal,horizontal,horizontal,horizontal
2a,2,100250,2,26,58,18,F,NA,variable,heterogeneous,4,present,1.89375615119934,0,horizontal,vertical,1,8,green,1,2,980.31222920257,780.31222920257,980.31222920257,419.68777079743,980.31222920257,780.31222920257,980.31222920257,419.68777079743,619.68777079743,419.68777079743,619.68777079743,780.31222920257,4,5,6,3,horizontal,vertical,vertical,vertical
2a,2,100250,2,27,59,18,F,NA,variable,heterogeneous,4,absent,NaN,0,horizontal,none,0,3,red,3,NaN,619.68777079743,419.68777079743,NaN,NaN,980.31222920257,780.31222920257,980.31222920257,419.68777079743,619.68777079743,419.68777079743,619.68777079743,780.31222920257,0,5,4,3,horizontal,horizontal,horizontal,horizontal
2a,2,100250,2,28,60,18,F,NA,variable,heterogeneous,4,absent,1.64843988418579,1,horizontal,horizontal,1,2,green,2,NaN,980.31222920257,419.68777079743,NaN,NaN,980.31222920257,780.31222920257,980.31222920257,419.68777079743,619.68777079743,419.68777079743,619.68777079743,780.31222920257,5,4,0,3,horizontal,horizontal,vertical,vertical
2a,2,100250,2,29,61,18,F,NA,variable,heterogeneous,4,absent,1.09350800514221,0,vertical,horizontal,1,2,red,2,NaN,980.31222920257,419.68777079743,NaN,NaN,980.31222920257,780.31222920257,980.31222920257,419.68777079743,619.68777079743,419.68777079743,619.68777079743,780.31222920257,3,4,5,6,horizontal,vertical,horizontal,horizontal
2a,2,100250,2,30,62,18,F,NA,variable,heterogeneous,4,absent,1.46773195266724,1,vertical,vertical,1,5,red,2,NaN,980.31222920257,419.68777079743,NaN,NaN,980.31222920257,780.31222920257,980.31222920257,419.68777079743,619.68777079743,419.68777079743,619.68777079743,780.31222920257,6,4,5,0,vertical,vertical,vertical,horizontal
2a,2,100250,2,31,63,18,F,NA,variable,heterogeneous,4,absent,1.35727787017822,1,vertical,vertical,1,2,green,1,NaN,980.31222920257,780.31222920257,NaN,NaN,980.31222920257,780.31222920257,980.31222920257,419.68777079743,619.68777079743,419.68777079743,619.68777079743,780.31222920257,4,0,3,6,vertical,vertical,horizontal,vertical
2a,2,100250,2,32,64,18,F,NA,variable,heterogeneous,4,present,0.880292892456055,1,horizontal,horizontal,1,3,green,1,2,980.31222920257,780.31222920257,980.31222920257,419.68777079743,980.31222920257,780.31222920257,980.31222920257,419.68777079743,619.68777079743,419.68777079743,619.68777079743,780.31222920257,4,0,6,3,horizontal,horizontal,horizontal,horizontal
2a,2,100250,3,1,65,18,F,NA,variable,heterogeneous,4,present,0.834573030471802,0,vertical,horizontal,1,2,green,1,3,980.31222920257,780.31222920257,619.68777079743,419.68777079743,980.31222920257,780.31222920257,980.31222920257,419.68777079743,619.68777079743,419.68777079743,619.68777079743,780.31222920257,4,0,5,6,vertical,vertical,horizontal,horizontal
2a,2,100250,3,2,66,18,F,NA,variable,heterogeneous,4,present,0.907773971557617,1,horizontal,horizontal,1,5,green,3,1,619.68777079743,419.68777079743,980.31222920257,780.31222920257,980.31222920257,780.31222920257,980.31222920257,419.68777079743,619.68777079743,419.68777079743,619.68777079743,780.31222920257,5,3,4,6,horizontal,horizontal,horizontal,vertical
2a,2,100250,3,3,67,18,F,NA,variable,heterogeneous,4,present,0.814044952392578,1,horizontal,horizontal,1,5,green,3,1,619.68777079743,419.68777079743,980.31222920257,780.31222920257,980.31222920257,780.31222920257,980.31222920257,419.68777079743,619.68777079743,419.68777079743,619.68777079743,780.31222920257,3,5,4,0,vertical,vertical,horizontal,vertical
2a,2,100250,3,4,68,18,F,NA,variable,heterogeneous,4,present,0.758544921875,1,horizontal,horizontal,1,8,green,3,2,619.68777079743,419.68777079743,980.31222920257,419.68777079743,980.31222920257,780.31222920257,980.31222920257,419.68777079743,619.68777079743,419.68777079743,619.68777079743,780.31222920257,3,6,4,5,horizontal,horizontal,horizontal,vertical
2a,2,100250,3,5,69,18,F,NA,variable,heterogeneous,4,absent,1.09815907478333,1,vertical,vertical,1,2,red,2,NaN,980.31222920257,419.68777079743,NaN,NaN,980.31222920257,780.31222920257,980.31222920257,419.68777079743,619.68777079743,419.68777079743,619.68777079743,780.31222920257,0,4,6,3,horizontal,vertical,horizontal,horizontal
2a,2,100250,3,6,70,18,F,NA,variable,heterogeneous,4,present,0.560011863708496,0,vertical,horizontal,1,3,green,3,2,619.68777079743,419.68777079743,980.31222920257,419.68777079743,980.31222920257,780.31222920257,980.31222920257,419.68777079743,619.68777079743,419.68777079743,619.68777079743,780.31222920257,0,5,4,6,vertical,horizontal,vertical,horizontal
2a,2,100250,3,7,71,18,F,NA,variable,heterogeneous,4,present,0.931548118591309,1,horizontal,horizontal,1,3,green,4,1,619.68777079743,780.31222920257,980.31222920257,780.31222920257,980.31222920257,780.31222920257,980.31222920257,419.68777079743,619.68777079743,419.68777079743,619.68777079743,780.31222920257,5,6,3,4,horizontal,horizontal,vertical,horizontal
2a,2,100250,3,8,72,18,F,NA,variable,heterogeneous,4,absent,0.934656143188477,1,vertical,vertical,1,8,red,3,NaN,619.68777079743,419.68777079743,NaN,NaN,980.31222920257,780.31222920257,980.31222920257,419.68777079743,619.68777079743,419.68777079743,619.68777079743,780.31222920257,6,5,4,0,vertical,vertical,vertical,vertical
2a,2,100250,3,9,73,18,F,NA,variable,heterogeneous,4,present,1.70537495613098,1,horizontal,horizontal,1,2,red,2,4,980.31222920257,419.68777079743,619.68777079743,780.31222920257,980.31222920257,780.31222920257,980.31222920257,419.68777079743,619.68777079743,419.68777079743,619.68777079743,780.31222920257,3,4,6,5,vertical,horizontal,horizontal,horizontal
2a,2,100250,3,10,74,18,F,NA,variable,heterogeneous,4,absent,1.05168986320496,0,vertical,horizontal,1,5,red,3,NaN,619.68777079743,419.68777079743,NaN,NaN,980.31222920257,780.31222920257,980.31222920257,419.68777079743,619.68777079743,419.68777079743,619.68777079743,780.31222920257,5,3,4,6,horizontal,horizontal,vertical,vertical
2a,2,100250,3,11,75,18,F,NA,variable,heterogeneous,4,absent,1.62501406669617,1,horizontal,horizontal,1,2,red,2,NaN,980.31222920257,419.68777079743,NaN,NaN,980.31222920257,780.31222920257,980.31222920257,419.68777079743,619.68777079743,419.68777079743,619.68777079743,780.31222920257,6,4,5,0,horizontal,horizontal,vertical,horizontal
2a,2,100250,3,12,76,18,F,NA,variable,heterogeneous,4,absent,NaN,0,horizontal,none,0,5,green,1,NaN,980.31222920257,780.31222920257,NaN,NaN,980.31222920257,780.31222920257,980.31222920257,419.68777079743,619.68777079743,419.68777079743,619.68777079743,780.31222920257,4,6,3,0,horizontal,vertical,vertical,horizontal
2a,2,100250,3,13,77,18,F,NA,variable,heterogeneous,4,present,1.01820302009583,1,vertical,vertical,1,5,green,3,4,619.68777079743,419.68777079743,619.68777079743,780.31222920257,980.31222920257,780.31222920257,980.31222920257,419.68777079743,619.68777079743,419.68777079743,619.68777079743,780.31222920257,6,0,4,3,vertical,vertical,vertical,horizontal
2a,2,100250,3,14,78,18,F,NA,variable,heterogeneous,4,present,NaN,0,vertical,none,0,5,red,3,2,619.68777079743,419.68777079743,980.31222920257,419.68777079743,980.31222920257,780.31222920257,980.31222920257,419.68777079743,619.68777079743,419.68777079743,619.68777079743,780.31222920257,6,5,4,3,vertical,horizontal,vertical,vertical
2a,2,100250,3,15,79,18,F,NA,variable,heterogeneous,4,absent,1.39114117622375,1,vertical,vertical,1,3,green,2,NaN,980.31222920257,419.68777079743,NaN,NaN,980.31222920257,780.31222920257,980.31222920257,419.68777079743,619.68777079743,419.68777079743,619.68777079743,780.31222920257,5,4,0,6,vertical,vertical,horizontal,vertical
2a,2,100250,3,16,80,18,F,NA,variable,heterogeneous,4,present,1.47916913032532,1,horizontal,horizontal,1,2,green,3,2,619.68777079743,419.68777079743,980.31222920257,419.68777079743,980.31222920257,780.31222920257,980.31222920257,419.68777079743,619.68777079743,419.68777079743,619.68777079743,780.31222920257,6,3,4,0,vertical,horizontal,horizontal,horizontal
2a,2,100250,3,17,81,18,F,NA,variable,heterogeneous,4,absent,1.42879915237427,1,vertical,vertical,1,3,green,2,NaN,980.31222920257,419.68777079743,NaN,NaN,980.31222920257,780.31222920257,980.31222920257,419.68777079743,619.68777079743,419.68777079743,619.68777079743,780.31222920257,3,4,6,0,vertical,vertical,horizontal,horizontal
2a,2,100250,3,18,82,18,F,NA,variable,heterogeneous,4,absent,0.865568876266479,1,horizontal,horizontal,1,5,red,1,NaN,980.31222920257,780.31222920257,NaN,NaN,980.31222920257,780.31222920257,980.31222920257,419.68777079743,619.68777079743,419.68777079743,619.68777079743,780.31222920257,4,5,6,3,horizontal,horizontal,horizontal,horizontal
2a,2,100250,3,19,83,18,F,NA,variable,heterogeneous,4,present,1.17929911613464,1,vertical,vertical,1,2,red,3,1,619.68777079743,419.68777079743,980.31222920257,780.31222920257,980.31222920257,780.31222920257,980.31222920257,419.68777079743,619.68777079743,419.68777079743,619.68777079743,780.31222920257,0,6,4,5,vertical,horizontal,vertical,vertical
2a,2,100250,3,20,84,18,F,NA,variable,heterogeneous,4,present,1.11141204833984,0,horizontal,vertical,1,2,red,3,2,619.68777079743,419.68777079743,980.31222920257,419.68777079743,980.31222920257,780.31222920257,980.31222920257,419.68777079743,619.68777079743,419.68777079743,619.68777079743,780.31222920257,0,6,4,3,horizontal,horizontal,horizontal,horizontal
2a,2,100250,3,21,85,18,F,NA,variable,heterogeneous,4,present,0.977395057678223,1,horizontal,horizontal,1,3,red,3,1,619.68777079743,419.68777079743,980.31222920257,780.31222920257,980.31222920257,780.31222920257,980.31222920257,419.68777079743,619.68777079743,419.68777079743,619.68777079743,780.31222920257,5,3,4,6,vertical,vertical,horizontal,horizontal
2a,2,100250,3,22,86,18,F,NA,variable,heterogeneous,4,absent,1.36523103713989,1,horizontal,horizontal,1,8,red,4,NaN,619.68777079743,780.31222920257,NaN,NaN,980.31222920257,780.31222920257,980.31222920257,419.68777079743,619.68777079743,419.68777079743,619.68777079743,780.31222920257,6,3,5,4,vertical,vertical,vertical,horizontal
2a,2,100250,3,23,87,18,F,NA,variable,heterogeneous,4,absent,1.48506999015808,0,vertical,horizontal,1,5,red,2,NaN,980.31222920257,419.68777079743,NaN,NaN,980.31222920257,780.31222920257,980.31222920257,419.68777079743,619.68777079743,419.68777079743,619.68777079743,780.31222920257,3,4,6,0,horizontal,vertical,vertical,vertical
2a,2,100250,3,24,88,18,F,NA,variable,heterogeneous,4,absent,1.29508090019226,1,horizontal,horizontal,1,3,green,4,NaN,619.68777079743,780.31222920257,NaN,NaN,980.31222920257,780.31222920257,980.31222920257,419.68777079743,619.68777079743,419.68777079743,619.68777079743,780.31222920257,0,3,5,4,vertical,horizontal,horizontal,horizontal
2a,2,100250,3,25,89,18,F,NA,variable,heterogeneous,4,present,1.44506788253784,1,vertical,vertical,1,8,green,3,1,619.68777079743,419.68777079743,980.31222920257,780.31222920257,980.31222920257,780.31222920257,980.31222920257,419.68777079743,619.68777079743,419.68777079743,619.68777079743,780.31222920257,5,6,4,3,vertical,vertical,vertical,horizontal
2a,2,100250,3,26,90,18,F,NA,variable,heterogeneous,4,absent,NaN,0,vertical,none,0,2,red,2,NaN,980.31222920257,419.68777079743,NaN,NaN,980.31222920257,780.31222920257,980.31222920257,419.68777079743,619.68777079743,419.68777079743,619.68777079743,780.31222920257,3,4,5,0,horizontal,vertical,horizontal,vertical
2a,2,100250,3,27,91,18,F,NA,variable,heterogeneous,4,absent,NaN,0,horizontal,none,0,3,red,2,NaN,980.31222920257,419.68777079743,NaN,NaN,980.31222920257,780.31222920257,980.31222920257,419.68777079743,619.68777079743,419.68777079743,619.68777079743,780.31222920257,0,4,3,5,vertical,horizontal,horizontal,vertical
2a,2,100250,3,28,92,18,F,NA,variable,heterogeneous,4,absent,1.63110208511353,1,horizontal,horizontal,1,2,red,1,NaN,980.31222920257,780.31222920257,NaN,NaN,980.31222920257,780.31222920257,980.31222920257,419.68777079743,619.68777079743,419.68777079743,619.68777079743,780.31222920257,4,5,6,0,horizontal,vertical,vertical,horizontal
2a,2,100250,3,29,93,18,F,NA,variable,heterogeneous,4,present,1.23553800582886,0,vertical,horizontal,1,3,green,3,1,619.68777079743,419.68777079743,980.31222920257,780.31222920257,980.31222920257,780.31222920257,980.31222920257,419.68777079743,619.68777079743,419.68777079743,619.68777079743,780.31222920257,5,3,4,6,vertical,vertical,vertical,vertical
2a,2,100250,3,30,94,18,F,NA,variable,heterogeneous,4,absent,1.60447597503662,1,horizontal,horizontal,1,2,red,1,NaN,980.31222920257,780.31222920257,NaN,NaN,980.31222920257,780.31222920257,980.31222920257,419.68777079743,619.68777079743,419.68777079743,619.68777079743,780.31222920257,4,6,0,5,horizontal,vertical,horizontal,vertical
2a,2,100250,3,31,95,18,F,NA,variable,heterogeneous,4,absent,1.78466391563416,1,vertical,vertical,1,2,red,2,NaN,980.31222920257,419.68777079743,NaN,NaN,980.31222920257,780.31222920257,980.31222920257,419.68777079743,619.68777079743,419.68777079743,619.68777079743,780.31222920257,5,4,6,0,horizontal,vertical,horizontal,horizontal
2a,2,100250,3,32,96,18,F,NA,variable,heterogeneous,4,present,1.13283395767212,1,vertical,vertical,1,2,red,2,1,980.31222920257,419.68777079743,980.31222920257,780.31222920257,980.31222920257,780.31222920257,980.31222920257,419.68777079743,619.68777079743,419.68777079743,619.68777079743,780.31222920257,5,4,3,0,vertical,vertical,vertical,vertical
2a,2,100250,4,1,97,18,F,NA,variable,heterogeneous,4,absent,1.63820886611938,1,horizontal,horizontal,1,5,green,1,NaN,980.31222920257,780.31222920257,NaN,NaN,980.31222920257,780.31222920257,980.31222920257,419.68777079743,619.68777079743,419.68777079743,619.68777079743,780.31222920257,4,6,0,3,horizontal,vertical,vertical,horizontal
2a,2,100250,4,2,98,18,F,NA,variable,heterogeneous,4,present,1.22280597686768,1,vertical,vertical,1,2,green,4,1,619.68777079743,780.31222920257,980.31222920257,780.31222920257,980.31222920257,780.31222920257,980.31222920257,419.68777079743,619.68777079743,419.68777079743,619.68777079743,780.31222920257,0,6,3,4,horizontal,horizontal,horizontal,vertical
2a,2,100250,4,3,99,18,F,NA,variable,heterogeneous,4,absent,NaN,0,vertical,none,0,5,green,2,NaN,980.31222920257,419.68777079743,NaN,NaN,980.31222920257,780.31222920257,980.31222920257,419.68777079743,619.68777079743,419.68777079743,619.68777079743,780.31222920257,3,4,5,0,vertical,vertical,vertical,vertical
2a,2,100250,4,4,100,18,F,NA,variable,heterogeneous,4,absent,0.88808012008667,1,vertical,vertical,1,3,red,2,NaN,980.31222920257,419.68777079743,NaN,NaN,980.31222920257,780.31222920257,980.31222920257,419.68777079743,619.68777079743,419.68777079743,619.68777079743,780.31222920257,0,4,6,5,vertical,vertical,vertical,vertical
2a,2,100250,4,5,101,18,F,NA,variable,heterogeneous,4,absent,1.22619104385376,1,horizontal,horizontal,1,2,green,4,NaN,619.68777079743,780.31222920257,NaN,NaN,980.31222920257,780.31222920257,980.31222920257,419.68777079743,619.68777079743,419.68777079743,619.68777079743,780.31222920257,3,0,6,4,horizontal,horizontal,vertical,horizontal
2a,2,100250,4,6,102,18,F,NA,variable,heterogeneous,4,absent,1.14281296730042,1,vertical,vertical,1,2,green,2,NaN,980.31222920257,419.68777079743,NaN,NaN,980.31222920257,780.31222920257,980.31222920257,419.68777079743,619.68777079743,419.68777079743,619.68777079743,780.31222920257,5,4,6,3,horizontal,vertical,horizontal,horizontal
2a,2,100250,4,7,103,18,F,NA,variable,heterogeneous,4,absent,NaN,0,horizontal,none,0,3,green,1,NaN,980.31222920257,780.31222920257,NaN,NaN,980.31222920257,780.31222920257,980.31222920257,419.68777079743,619.68777079743,419.68777079743,619.68777079743,780.31222920257,4,0,6,3,horizontal,vertical,vertical,vertical
2a,2,100250,4,8,104,18,F,NA,variable,heterogeneous,4,present,1.42621612548828,1,horizontal,horizontal,1,2,red,3,2,619.68777079743,419.68777079743,980.31222920257,419.68777079743,980.31222920257,780.31222920257,980.31222920257,419.68777079743,619.68777079743,419.68777079743,619.68777079743,780.31222920257,6,5,4,3,horizontal,vertical,horizontal,vertical
2a,2,100250,4,9,105,18,F,NA,variable,heterogeneous,4,present,0.846940040588379,1,vertical,vertical,1,5,red,1,4,980.31222920257,780.31222920257,619.68777079743,780.31222920257,980.31222920257,780.31222920257,980.31222920257,419.68777079743,619.68777079743,419.68777079743,619.68777079743,780.31222920257,4,3,6,0,vertical,horizontal,horizontal,horizontal
2a,2,100250,4,10,106,18,F,NA,variable,heterogeneous,4,absent,0.780218124389648,0,vertical,horizontal,1,5,red,3,NaN,619.68777079743,419.68777079743,NaN,NaN,980.31222920257,780.31222920257,980.31222920257,419.68777079743,619.68777079743,419.68777079743,619.68777079743,780.31222920257,0,3,4,5,horizontal,horizontal,vertical,vertical
2a,2,100250,4,11,107,18,F,NA,variable,heterogeneous,4,present,1.48814606666565,1,horizontal,horizontal,1,5,red,1,2,980.31222920257,780.31222920257,980.31222920257,419.68777079743,980.31222920257,780.31222920257,980.31222920257,419.68777079743,619.68777079743,419.68777079743,619.68777079743,780.31222920257,4,0,3,5,horizontal,horizontal,horizontal,vertical
2a,2,100250,4,12,108,18,F,NA,variable,heterogeneous,4,present,NaN,0,vertical,none,0,3,green,2,4,980.31222920257,419.68777079743,619.68777079743,780.31222920257,980.31222920257,780.31222920257,980.31222920257,419.68777079743,619.68777079743,419.68777079743,619.68777079743,780.31222920257,6,4,0,3,horizontal,vertical,vertical,vertical
2a,2,100250,4,13,109,18,F,NA,variable,heterogeneous,4,present,1.39026999473572,1,horizontal,horizontal,1,5,green,2,4,980.31222920257,419.68777079743,619.68777079743,780.31222920257,980.31222920257,780.31222920257,980.31222920257,419.68777079743,619.68777079743,419.68777079743,619.68777079743,780.31222920257,6,4,3,5,horizontal,horizontal,horizontal,horizontal
2a,2,100250,4,14,110,18,F,NA,variable,heterogeneous,4,present,NaN,0,vertical,none,0,2,green,3,4,619.68777079743,419.68777079743,619.68777079743,780.31222920257,980.31222920257,780.31222920257,980.31222920257,419.68777079743,619.68777079743,419.68777079743,619.68777079743,780.31222920257,5,3,4,6,vertical,horizontal,vertical,horizontal
2a,2,100250,4,15,111,18,F,NA,variable,heterogeneous,4,present,1.03502106666565,1,horizontal,horizontal,1,2,green,4,3,619.68777079743,780.31222920257,619.68777079743,419.68777079743,980.31222920257,780.31222920257,980.31222920257,419.68777079743,619.68777079743,419.68777079743,619.68777079743,780.31222920257,0,6,3,4,horizontal,horizontal,vertical,horizontal
2a,2,100250,4,16,112,18,F,NA,variable,heterogeneous,4,absent,1.92367696762085,1,vertical,vertical,1,2,red,2,NaN,980.31222920257,419.68777079743,NaN,NaN,980.31222920257,780.31222920257,980.31222920257,419.68777079743,619.68777079743,419.68777079743,619.68777079743,780.31222920257,6,4,3,5,vertical,vertical,horizontal,vertical
2a,2,100250,4,17,113,18,F,NA,variable,heterogeneous,4,absent,1.51439881324768,0,vertical,horizontal,1,2,red,4,NaN,619.68777079743,780.31222920257,NaN,NaN,980.31222920257,780.31222920257,980.31222920257,419.68777079743,619.68777079743,419.68777079743,619.68777079743,780.31222920257,3,5,6,4,horizontal,vertical,vertical,vertical
2a,2,100250,4,18,114,18,F,NA,variable,heterogeneous,4,absent,1.03681111335754,1,horizontal,horizontal,1,2,red,4,NaN,619.68777079743,780.31222920257,NaN,NaN,980.31222920257,780.31222920257,980.31222920257,419.68777079743,619.68777079743,419.68777079743,619.68777079743,780.31222920257,6,5,0,4,vertical,vertical,vertical,horizontal
2a,2,100250,4,19,115,18,F,NA,variable,heterogeneous,4,present,1.28610992431641,1,vertical,vertical,1,8,green,1,3,980.31222920257,780.31222920257,619.68777079743,419.68777079743,980.31222920257,780.31222920257,980.31222920257,419.68777079743,619.68777079743,419.68777079743,619.68777079743,780.31222920257,4,0,5,6,vertical,horizontal,horizontal,horizontal
2a,2,100250,4,20,116,18,F,NA,variable,heterogeneous,4,absent,1.74383115768433,1,vertical,vertical,1,3,green,2,NaN,980.31222920257,419.68777079743,NaN,NaN,980.31222920257,780.31222920257,980.31222920257,419.68777079743,619.68777079743,419.68777079743,619.68777079743,780.31222920257,3,4,5,6,horizontal,vertical,horizontal,vertical
2a,2,100250,4,21,117,18,F,NA,variable,heterogeneous,4,present,0.0635690689086914,0,horizontal,vertical,1,3,green,3,4,619.68777079743,419.68777079743,619.68777079743,780.31222920257,980.31222920257,780.31222920257,980.31222920257,419.68777079743,619.68777079743,419.68777079743,619.68777079743,780.31222920257,0,5,4,6,vertical,vertical,horizontal,vertical
2a,2,100250,4,22,118,18,F,NA,variable,heterogeneous,4,present,0.976609945297241,0,vertical,horizontal,1,3,green,3,4,619.68777079743,419.68777079743,619.68777079743,780.31222920257,980.31222920257,780.31222920257,980.31222920257,419.68777079743,619.68777079743,419.68777079743,619.68777079743,780.31222920257,3,5,4,0,horizontal,horizontal,vertical,vertical
2a,2,100250,4,23,119,18,F,NA,variable,heterogeneous,4,present,NaN,0,horizontal,none,0,3,red,2,3,980.31222920257,419.68777079743,619.68777079743,419.68777079743,980.31222920257,780.31222920257,980.31222920257,419.68777079743,619.68777079743,419.68777079743,619.68777079743,780.31222920257,6,4,3,0,horizontal,horizontal,horizontal,vertical
2a,2,100250,4,24,120,18,F,NA,variable,heterogeneous,4,present,1.44090294837952,1,vertical,vertical,1,2,red,1,2,980.31222920257,780.31222920257,980.31222920257,419.68777079743,980.31222920257,780.31222920257,980.31222920257,419.68777079743,619.68777079743,419.68777079743,619.68777079743,780.31222920257,4,5,6,3,vertical,vertical,vertical,vertical
2a,2,100250,4,25,121,18,F,NA,variable,heterogeneous,4,absent,1.22582817077637,1,vertical,vertical,1,8,red,1,NaN,980.31222920257,780.31222920257,NaN,NaN,980.31222920257,780.31222920257,980.31222920257,419.68777079743,619.68777079743,419.68777079743,619.68777079743,780.31222920257,4,3,0,5,vertical,vertical,vertical,vertical
2a,2,100250,4,26,122,18,F,NA,variable,heterogeneous,4,absent,1.83860301971436,1,horizontal,horizontal,1,3,green,2,NaN,980.31222920257,419.68777079743,NaN,NaN,980.31222920257,780.31222920257,980.31222920257,419.68777079743,619.68777079743,419.68777079743,619.68777079743,780.31222920257,5,4,6,3,horizontal,horizontal,horizontal,vertical
2a,2,100250,4,27,123,18,F,NA,variable,heterogeneous,4,absent,NaN,0,horizontal,none,0,8,green,1,NaN,980.31222920257,780.31222920257,NaN,NaN,980.31222920257,780.31222920257,980.31222920257,419.68777079743,619.68777079743,419.68777079743,619.68777079743,780.31222920257,4,0,6,5,horizontal,horizontal,horizontal,horizontal
2a,2,100250,4,28,124,18,F,NA,variable,heterogeneous,4,present,1.22820019721985,1,horizontal,horizontal,1,2,green,4,3,619.68777079743,780.31222920257,619.68777079743,419.68777079743,980.31222920257,780.31222920257,980.31222920257,419.68777079743,619.68777079743,419.68777079743,619.68777079743,780.31222920257,0,5,6,4,vertical,vertical,horizontal,horizontal
2a,2,100250,4,29,125,18,F,NA,variable,heterogeneous,4,present,1.0007061958313,1,horizontal,horizontal,1,8,red,4,2,619.68777079743,780.31222920257,980.31222920257,419.68777079743,980.31222920257,780.31222920257,980.31222920257,419.68777079743,619.68777079743,419.68777079743,619.68777079743,780.31222920257,0,3,6,4,vertical,horizontal,vertical,horizontal
2a,2,100250,4,30,126,18,F,NA,variable,heterogeneous,4,absent,0.732958078384399,1,horizontal,horizontal,1,5,green,4,NaN,619.68777079743,780.31222920257,NaN,NaN,980.31222920257,780.31222920257,980.31222920257,419.68777079743,619.68777079743,419.68777079743,619.68777079743,780.31222920257,3,5,0,4,vertical,horizontal,horizontal,horizontal
2a,2,100250,4,31,127,18,F,NA,variable,heterogeneous,4,present,1.6319420337677,1,vertical,vertical,1,5,green,2,1,980.31222920257,419.68777079743,980.31222920257,780.31222920257,980.31222920257,780.31222920257,980.31222920257,419.68777079743,619.68777079743,419.68777079743,619.68777079743,780.31222920257,3,4,0,6,vertical,vertical,horizontal,horizontal
2a,2,100250,4,32,128,18,F,NA,variable,heterogeneous,4,absent,1.37299394607544,1,horizontal,horizontal,1,2,green,4,NaN,619.68777079743,780.31222920257,NaN,NaN,980.31222920257,780.31222920257,980.31222920257,419.68777079743,619.68777079743,419.68777079743,619.68777079743,780.31222920257,0,5,3,4,horizontal,vertical,vertical,horizontal
2a,2,100250,5,1,129,18,F,NA,variable,heterogeneous,4,absent,1.18986701965332,0,vertical,horizontal,1,3,red,2,NaN,980.31222920257,419.68777079743,NaN,NaN,980.31222920257,780.31222920257,980.31222920257,419.68777079743,619.68777079743,419.68777079743,619.68777079743,780.31222920257,3,4,6,0,vertical,vertical,horizontal,horizontal
2a,2,100250,5,2,130,18,F,NA,variable,heterogeneous,4,present,1.50215411186218,1,vertical,vertical,1,5,red,2,1,980.31222920257,419.68777079743,980.31222920257,780.31222920257,980.31222920257,780.31222920257,980.31222920257,419.68777079743,619.68777079743,419.68777079743,619.68777079743,780.31222920257,3,4,5,6,vertical,vertical,horizontal,horizontal
2a,2,100250,5,3,131,18,F,NA,variable,heterogeneous,4,absent,0.948256015777588,1,horizontal,horizontal,1,3,red,2,NaN,980.31222920257,419.68777079743,NaN,NaN,980.31222920257,780.31222920257,980.31222920257,419.68777079743,619.68777079743,419.68777079743,619.68777079743,780.31222920257,0,4,6,5,vertical,horizontal,vertical,horizontal
2a,2,100250,5,4,132,18,F,NA,variable,heterogeneous,4,absent,0.939311981201172,1,vertical,vertical,1,8,red,4,NaN,619.68777079743,780.31222920257,NaN,NaN,980.31222920257,780.31222920257,980.31222920257,419.68777079743,619.68777079743,419.68777079743,619.68777079743,780.31222920257,3,6,0,4,vertical,vertical,vertical,vertical
2a,2,100250,5,5,133,18,F,NA,variable,heterogeneous,4,present,1.27020597457886,1,horizontal,horizontal,1,5,red,1,3,980.31222920257,780.31222920257,619.68777079743,419.68777079743,980.31222920257,780.31222920257,980.31222920257,419.68777079743,619.68777079743,419.68777079743,619.68777079743,780.31222920257,4,3,5,6,horizontal,vertical,vertical,horizontal
2a,2,100250,5,6,134,18,F,NA,variable,heterogeneous,4,present,0.932240962982178,1,vertical,vertical,1,2,red,4,3,619.68777079743,780.31222920257,619.68777079743,419.68777079743,980.31222920257,780.31222920257,980.31222920257,419.68777079743,619.68777079743,419.68777079743,619.68777079743,780.31222920257,3,5,6,4,vertical,vertical,vertical,vertical
2a,2,100250,5,7,135,18,F,NA,variable,heterogeneous,4,absent,1.11074304580688,1,vertical,vertical,1,2,red,1,NaN,980.31222920257,780.31222920257,NaN,NaN,980.31222920257,780.31222920257,980.31222920257,419.68777079743,619.68777079743,419.68777079743,619.68777079743,780.31222920257,4,5,6,0,vertical,horizontal,horizontal,vertical
2a,2,100250,5,8,136,18,F,NA,variable,heterogeneous,4,present,1.01739096641541,1,vertical,vertical,1,8,green,4,3,619.68777079743,780.31222920257,619.68777079743,419.68777079743,980.31222920257,780.31222920257,980.31222920257,419.68777079743,619.68777079743,419.68777079743,619.68777079743,780.31222920257,3,5,0,4,horizontal,horizontal,horizontal,vertical
2a,2,100250,5,9,137,18,F,NA,variable,heterogeneous,4,present,0.922079086303711,1,horizontal,horizontal,1,2,green,4,1,619.68777079743,780.31222920257,980.31222920257,780.31222920257,980.31222920257,780.31222920257,980.31222920257,419.68777079743,619.68777079743,419.68777079743,619.68777079743,780.31222920257,0,6,3,4,horizontal,horizontal,vertical,horizontal
2a,2,100250,5,10,138,18,F,NA,variable,heterogeneous,4,absent,1.23271989822388,1,horizontal,horizontal,1,3,green,3,NaN,619.68777079743,419.68777079743,NaN,NaN,980.31222920257,780.31222920257,980.31222920257,419.68777079743,619.68777079743,419.68777079743,619.68777079743,780.31222920257,0,3,4,6,vertical,vertical,horizontal,vertical
2a,2,100250,5,11,139,18,F,NA,variable,heterogeneous,4,absent,1.37333202362061,1,horizontal,horizontal,1,2,green,1,NaN,980.31222920257,780.31222920257,NaN,NaN,980.31222920257,780.31222920257,980.31222920257,419.68777079743,619.68777079743,419.68777079743,619.68777079743,780.31222920257,4,3,5,0,horizontal,horizontal,vertical,horizontal
2a,2,100250,5,12,140,18,F,NA,variable,heterogeneous,4,present,1.33288908004761,1,vertical,vertical,1,3,red,3,4,619.68777079743,419.68777079743,619.68777079743,780.31222920257,980.31222920257,780.31222920257,980.31222920257,419.68777079743,619.68777079743,419.68777079743,619.68777079743,780.31222920257,0,5,4,3,vertical,vertical,vertical,horizontal
2a,2,100250,5,13,141,18,F,NA,variable,heterogeneous,4,absent,0.96777606010437,1,horizontal,horizontal,1,2,red,4,NaN,619.68777079743,780.31222920257,NaN,NaN,980.31222920257,780.31222920257,980.31222920257,419.68777079743,619.68777079743,419.68777079743,619.68777079743,780.31222920257,3,5,6,4,vertical,vertical,horizontal,horizontal
2a,2,100250,5,14,142,18,F,NA,variable,heterogeneous,4,absent,0.831717967987061,1,horizontal,horizontal,1,5,green,4,NaN,619.68777079743,780.31222920257,NaN,NaN,980.31222920257,780.31222920257,980.31222920257,419.68777079743,619.68777079743,419.68777079743,619.68777079743,780.31222920257,0,6,3,4,horizontal,vertical,vertical,horizontal
2a,2,100250,5,15,143,18,F,NA,variable,heterogeneous,4,present,0.964152097702026,1,vertical,vertical,1,5,red,4,3,619.68777079743,780.31222920257,619.68777079743,419.68777079743,980.31222920257,780.31222920257,980.31222920257,419.68777079743,619.68777079743,419.68777079743,619.68777079743,780.31222920257,6,3,0,4,horizontal,vertical,horizontal,vertical
2a,2,100250,5,16,144,18,F,NA,variable,heterogeneous,4,present,1.72381496429443,0,vertical,horizontal,1,3,green,2,4,980.31222920257,419.68777079743,619.68777079743,780.31222920257,980.31222920257,780.31222920257,980.31222920257,419.68777079743,619.68777079743,419.68777079743,619.68777079743,780.31222920257,0,4,3,6,vertical,vertical,vertical,vertical
2a,2,100250,5,17,145,18,F,NA,variable,heterogeneous,4,present,1.50663495063782,1,horizontal,horizontal,1,3,red,3,4,619.68777079743,419.68777079743,619.68777079743,780.31222920257,980.31222920257,780.31222920257,980.31222920257,419.68777079743,619.68777079743,419.68777079743,619.68777079743,780.31222920257,3,0,4,5,horizontal,horizontal,horizontal,vertical
2a,2,100250,5,18,146,18,F,NA,variable,heterogeneous,4,absent,1.26908206939697,1,vertical,vertical,1,2,red,4,NaN,619.68777079743,780.31222920257,NaN,NaN,980.31222920257,780.31222920257,980.31222920257,419.68777079743,619.68777079743,419.68777079743,619.68777079743,780.31222920257,5,6,0,4,vertical,horizontal,vertical,vertical
2a,2,100250,5,19,147,18,F,NA,variable,heterogeneous,4,absent,1.74246501922607,1,horizontal,horizontal,1,8,red,1,NaN,980.31222920257,780.31222920257,NaN,NaN,980.31222920257,780.31222920257,980.31222920257,419.68777079743,619.68777079743,419.68777079743,619.68777079743,780.31222920257,4,3,0,6,horizontal,vertical,horizontal,horizontal
2a,2,100250,5,20,148,18,F,NA,variable,heterogeneous,4,absent,1.35773491859436,1,vertical,vertical,1,5,red,1,NaN,980.31222920257,780.31222920257,NaN,NaN,980.31222920257,780.31222920257,980.31222920257,419.68777079743,619.68777079743,419.68777079743,619.68777079743,780.31222920257,4,3,6,0,vertical,horizontal,horizontal,horizontal
2a,2,100250,5,21,149,18,F,NA,variable,heterogeneous,4,present,1.35284304618835,1,horizontal,horizontal,1,2,red,1,4,980.31222920257,780.31222920257,619.68777079743,780.31222920257,980.31222920257,780.31222920257,980.31222920257,419.68777079743,619.68777079743,419.68777079743,619.68777079743,780.31222920257,4,5,3,6,horizontal,horizontal,horizontal,vertical
2a,2,100250,5,22,150,18,F,NA,variable,heterogeneous,4,present,1.38029408454895,1,vertical,vertical,1,2,red,4,3,619.68777079743,780.31222920257,619.68777079743,419.68777079743,980.31222920257,780.31222920257,980.31222920257,419.68777079743,619.68777079743,419.68777079743,619.68777079743,780.31222920257,6,0,5,4,vertical,vertical,horizontal,vertical
2a,2,100250,5,23,151,18,F,NA,variable,heterogeneous,4,present,1.61604905128479,1,horizontal,horizontal,1,5,green,2,3,980.31222920257,419.68777079743,619.68777079743,419.68777079743,980.31222920257,780.31222920257,980.31222920257,419.68777079743,619.68777079743,419.68777079743,619.68777079743,780.31222920257,5,4,0,6,horizontal,horizontal,vertical,vertical
2a,2,100250,5,24,152,18,F,NA,variable,heterogeneous,4,present,1.79292392730713,1,horizontal,horizontal,1,3,green,3,4,619.68777079743,419.68777079743,619.68777079743,780.31222920257,980.31222920257,780.31222920257,980.31222920257,419.68777079743,619.68777079743,419.68777079743,619.68777079743,780.31222920257,5,0,4,3,vertical,vertical,horizontal,horizontal
2a,2,100250,5,25,153,18,F,NA,variable,heterogeneous,4,present,0.792949914932251,1,vertical,vertical,1,2,red,3,1,619.68777079743,419.68777079743,980.31222920257,780.31222920257,980.31222920257,780.31222920257,980.31222920257,419.68777079743,619.68777079743,419.68777079743,619.68777079743,780.31222920257,3,0,4,5,vertical,vertical,vertical,vertical
2a,2,100250,5,26,154,18,F,NA,variable,heterogeneous,4,absent,1.32885599136353,1,vertical,vertical,1,5,green,4,NaN,619.68777079743,780.31222920257,NaN,NaN,980.31222920257,780.31222920257,980.31222920257,419.68777079743,619.68777079743,419.68777079743,619.68777079743,780.31222920257,5,6,3,4,horizontal,horizontal,horizontal,vertical
2a,2,100250,5,27,155,18,F,NA,variable,heterogeneous,4,absent,NaN,0,horizontal,none,0,2,red,1,NaN,980.31222920257,780.31222920257,NaN,NaN,980.31222920257,780.31222920257,980.31222920257,419.68777079743,619.68777079743,419.68777079743,619.68777079743,780.31222920257,4,3,5,6,horizontal,horizontal,vertical,horizontal
2a,2,100250,5,28,156,18,F,NA,variable,heterogeneous,4,present,0.872294187545776,1,horizontal,horizontal,1,2,red,1,3,980.31222920257,780.31222920257,619.68777079743,419.68777079743,980.31222920257,780.31222920257,980.31222920257,419.68777079743,619.68777079743,419.68777079743,619.68777079743,780.31222920257,4,5,6,0,horizontal,vertical,horizontal,vertical
2a,2,100250,5,29,157,18,F,NA,variable,heterogeneous,4,absent,1.77378988265991,1,horizontal,horizontal,1,5,red,2,NaN,980.31222920257,419.68777079743,NaN,NaN,980.31222920257,780.31222920257,980.31222920257,419.68777079743,619.68777079743,419.68777079743,619.68777079743,780.31222920257,3,4,5,6,horizontal,horizontal,vertical,vertical
2a,2,100250,5,30,158,18,F,NA,variable,heterogeneous,4,absent,1.32540798187256,1,vertical,vertical,1,2,green,4,NaN,619.68777079743,780.31222920257,NaN,NaN,980.31222920257,780.31222920257,980.31222920257,419.68777079743,619.68777079743,419.68777079743,619.68777079743,780.31222920257,3,0,6,4,horizontal,horizontal,horizontal,vertical
2a,2,100250,5,31,159,18,F,NA,variable,heterogeneous,4,absent,0.708194971084595,1,vertical,vertical,1,3,red,4,NaN,619.68777079743,780.31222920257,NaN,NaN,980.31222920257,780.31222920257,980.31222920257,419.68777079743,619.68777079743,419.68777079743,619.68777079743,780.31222920257,6,5,0,4,vertical,vertical,vertical,vertical
2a,2,100250,5,32,160,18,F,NA,variable,heterogeneous,4,present,1.49488306045532,1,horizontal,horizontal,1,8,red,2,3,980.31222920257,419.68777079743,619.68777079743,419.68777079743,980.31222920257,780.31222920257,980.31222920257,419.68777079743,619.68777079743,419.68777079743,619.68777079743,780.31222920257,6,4,3,0,vertical,horizontal,vertical,vertical
2a,2,100250,6,1,161,18,F,NA,variable,heterogeneous,4,absent,0.948485136032104,0,vertical,horizontal,1,3,red,2,NaN,980.31222920257,419.68777079743,NaN,NaN,980.31222920257,780.31222920257,980.31222920257,419.68777079743,619.68777079743,419.68777079743,619.68777079743,780.31222920257,3,4,6,5,vertical,vertical,horizontal,horizontal
2a,2,100250,6,2,162,18,F,NA,variable,heterogeneous,4,present,1.14759421348572,1,horizontal,horizontal,1,8,green,2,1,980.31222920257,419.68777079743,980.31222920257,780.31222920257,980.31222920257,780.31222920257,980.31222920257,419.68777079743,619.68777079743,419.68777079743,619.68777079743,780.31222920257,5,4,3,0,vertical,horizontal,vertical,vertical
2a,2,100250,6,3,163,18,F,NA,variable,heterogeneous,4,absent,1.08291101455688,1,horizontal,horizontal,1,2,green,3,NaN,619.68777079743,419.68777079743,NaN,NaN,980.31222920257,780.31222920257,980.31222920257,419.68777079743,619.68777079743,419.68777079743,619.68777079743,780.31222920257,0,3,4,5,horizontal,vertical,horizontal,horizontal
2a,2,100250,6,4,164,18,F,NA,variable,heterogeneous,4,present,0.716861963272095,1,vertical,vertical,1,3,red,3,4,619.68777079743,419.68777079743,619.68777079743,780.31222920257,980.31222920257,780.31222920257,980.31222920257,419.68777079743,619.68777079743,419.68777079743,619.68777079743,780.31222920257,0,6,4,3,horizontal,horizontal,vertical,vertical
2a,2,100250,6,5,165,18,F,NA,variable,heterogeneous,4,present,1.47546100616455,0,vertical,horizontal,1,8,red,4,1,619.68777079743,780.31222920257,980.31222920257,780.31222920257,980.31222920257,780.31222920257,980.31222920257,419.68777079743,619.68777079743,419.68777079743,619.68777079743,780.31222920257,3,6,0,4,vertical,vertical,vertical,vertical
2a,2,100250,6,6,166,18,F,NA,variable,heterogeneous,4,present,1.87313508987427,1,horizontal,horizontal,1,5,green,1,3,980.31222920257,780.31222920257,619.68777079743,419.68777079743,980.31222920257,780.31222920257,980.31222920257,419.68777079743,619.68777079743,419.68777079743,619.68777079743,780.31222920257,4,5,0,3,horizontal,horizontal,vertical,horizontal
2a,2,100250,6,7,167,18,F,NA,variable,heterogeneous,4,absent,1.00717210769653,1,vertical,vertical,1,3,red,3,NaN,619.68777079743,419.68777079743,NaN,NaN,980.31222920257,780.31222920257,980.31222920257,419.68777079743,619.68777079743,419.68777079743,619.68777079743,780.31222920257,3,0,4,5,vertical,horizontal,vertical,horizontal
2a,2,100250,6,8,168,18,F,NA,variable,heterogeneous,4,present,0.731415033340454,1,vertical,vertical,1,2,green,3,1,619.68777079743,419.68777079743,980.31222920257,780.31222920257,980.31222920257,780.31222920257,980.31222920257,419.68777079743,619.68777079743,419.68777079743,619.68777079743,780.31222920257,5,3,4,0,vertical,vertical,vertical,vertical
2a,2,100250,6,9,169,18,F,NA,variable,heterogeneous,4,absent,0.918056964874268,1,vertical,vertical,1,2,red,3,NaN,619.68777079743,419.68777079743,NaN,NaN,980.31222920257,780.31222920257,980.31222920257,419.68777079743,619.68777079743,419.68777079743,619.68777079743,780.31222920257,5,0,4,3,horizontal,horizontal,vertical,vertical
2a,2,100250,6,10,170,18,F,NA,variable,heterogeneous,4,present,1.60478377342224,1,horizontal,horizontal,1,2,green,4,2,619.68777079743,780.31222920257,980.31222920257,419.68777079743,980.31222920257,780.31222920257,980.31222920257,419.68777079743,619.68777079743,419.68777079743,619.68777079743,780.31222920257,6,3,0,4,horizontal,vertical,vertical,horizontal
2a,2,100250,6,11,171,18,F,NA,variable,heterogeneous,4,present,1.6411190032959,1,horizontal,horizontal,1,2,green,1,4,980.31222920257,780.31222920257,619.68777079743,780.31222920257,980.31222920257,780.31222920257,980.31222920257,419.68777079743,619.68777079743,419.68777079743,619.68777079743,780.31222920257,4,5,0,3,horizontal,horizontal,horizontal,vertical
2a,2,100250,6,12,172,18,F,NA,variable,heterogeneous,4,absent,1.0342481136322,1,vertical,vertical,1,2,red,4,NaN,619.68777079743,780.31222920257,NaN,NaN,980.31222920257,780.31222920257,980.31222920257,419.68777079743,619.68777079743,419.68777079743,619.68777079743,780.31222920257,0,3,5,4,vertical,horizontal,horizontal,vertical
2a,2,100250,6,13,173,18,F,NA,variable,heterogeneous,4,absent,1.81105995178223,1,vertical,vertical,1,8,red,1,NaN,980.31222920257,780.31222920257,NaN,NaN,980.31222920257,780.31222920257,980.31222920257,419.68777079743,619.68777079743,419.68777079743,619.68777079743,780.31222920257,4,3,5,6,vertical,horizontal,vertical,vertical
2a,2,100250,6,14,174,18,F,NA,variable,heterogeneous,4,absent,1.25178790092468,1,horizontal,horizontal,1,2,red,3,NaN,619.68777079743,419.68777079743,NaN,NaN,980.31222920257,780.31222920257,980.31222920257,419.68777079743,619.68777079743,419.68777079743,619.68777079743,780.31222920257,6,3,4,0,horizontal,vertical,horizontal,vertical
2a,2,100250,6,15,175,18,F,NA,variable,heterogeneous,4,present,1.19278407096863,1,horizontal,horizontal,1,2,green,4,1,619.68777079743,780.31222920257,980.31222920257,780.31222920257,980.31222920257,780.31222920257,980.31222920257,419.68777079743,619.68777079743,419.68777079743,619.68777079743,780.31222920257,6,3,0,4,vertical,horizontal,vertical,horizontal
2a,2,100250,6,16,176,18,F,NA,variable,heterogeneous,4,present,1.45725107192993,1,vertical,vertical,1,5,red,2,1,980.31222920257,419.68777079743,980.31222920257,780.31222920257,980.31222920257,780.31222920257,980.31222920257,419.68777079743,619.68777079743,419.68777079743,619.68777079743,780.31222920257,0,4,3,6,vertical,vertical,horizontal,vertical
2a,2,100250,6,17,177,18,F,NA,variable,heterogeneous,4,absent,1.19021892547607,1,vertical,vertical,1,5,red,2,NaN,980.31222920257,419.68777079743,NaN,NaN,980.31222920257,780.31222920257,980.31222920257,419.68777079743,619.68777079743,419.68777079743,619.68777079743,780.31222920257,6,4,3,0,horizontal,vertical,horizontal,vertical
2a,2,100250,6,18,178,18,F,NA,variable,heterogeneous,4,absent,0.990180015563965,1,vertical,vertical,1,5,red,3,NaN,619.68777079743,419.68777079743,NaN,NaN,980.31222920257,780.31222920257,980.31222920257,419.68777079743,619.68777079743,419.68777079743,619.68777079743,780.31222920257,3,5,4,0,horizontal,vertical,vertical,vertical
2a,2,100250,6,19,179,18,F,NA,variable,heterogeneous,4,present,1.54238605499268,1,vertical,vertical,1,2,red,2,1,980.31222920257,419.68777079743,980.31222920257,780.31222920257,980.31222920257,780.31222920257,980.31222920257,419.68777079743,619.68777079743,419.68777079743,619.68777079743,780.31222920257,0,4,6,3,horizontal,vertical,horizontal,vertical
2a,2,100250,6,20,180,18,F,NA,variable,heterogeneous,4,absent,0.789700984954834,1,vertical,vertical,1,2,red,4,NaN,619.68777079743,780.31222920257,NaN,NaN,980.31222920257,780.31222920257,980.31222920257,419.68777079743,619.68777079743,419.68777079743,619.68777079743,780.31222920257,6,5,0,4,horizontal,vertical,horizontal,vertical
2a,2,100250,6,21,181,18,F,NA,variable,heterogeneous,4,present,1.03752493858337,1,vertical,vertical,1,3,green,3,4,619.68777079743,419.68777079743,619.68777079743,780.31222920257,980.31222920257,780.31222920257,980.31222920257,419.68777079743,619.68777079743,419.68777079743,619.68777079743,780.31222920257,6,3,4,5,vertical,horizontal,vertical,vertical
2a,2,100250,6,22,182,18,F,NA,variable,heterogeneous,4,absent,1.29450488090515,0,horizontal,vertical,1,5,green,2,NaN,980.31222920257,419.68777079743,NaN,NaN,980.31222920257,780.31222920257,980.31222920257,419.68777079743,619.68777079743,419.68777079743,619.68777079743,780.31222920257,0,4,5,3,vertical,horizontal,horizontal,horizontal
2a,2,100250,6,23,183,18,F,NA,variable,heterogeneous,4,present,0.97266697883606,1,horizontal,horizontal,1,3,red,3,2,619.68777079743,419.68777079743,980.31222920257,419.68777079743,980.31222920257,780.31222920257,980.31222920257,419.68777079743,619.68777079743,419.68777079743,619.68777079743,780.31222920257,0,6,4,5,horizontal,horizontal,horizontal,horizontal
2a,2,100250,6,24,184,18,F,NA,variable,heterogeneous,4,present,1.31639790534973,1,vertical,vertical,1,5,red,3,4,619.68777079743,419.68777079743,619.68777079743,780.31222920257,980.31222920257,780.31222920257,980.31222920257,419.68777079743,619.68777079743,419.68777079743,619.68777079743,780.31222920257,3,0,4,6,vertical,vertical,vertical,vertical
2a,2,100250,6,25,185,18,F,NA,variable,heterogeneous,4,absent,1.37125396728516,1,horizontal,horizontal,1,3,red,3,NaN,619.68777079743,419.68777079743,NaN,NaN,980.31222920257,780.31222920257,980.31222920257,419.68777079743,619.68777079743,419.68777079743,619.68777079743,780.31222920257,5,3,4,0,horizontal,vertical,horizontal,horizontal
2a,2,100250,6,26,186,18,F,NA,variable,heterogeneous,4,absent,1.25861215591431,1,horizontal,horizontal,1,8,green,4,NaN,619.68777079743,780.31222920257,NaN,NaN,980.31222920257,780.31222920257,980.31222920257,419.68777079743,619.68777079743,419.68777079743,619.68777079743,780.31222920257,5,3,6,4,horizontal,vertical,vertical,horizontal
2a,2,100250,6,27,187,18,F,NA,variable,heterogeneous,4,present,1.73233795166016,1,vertical,vertical,1,2,green,2,3,980.31222920257,419.68777079743,619.68777079743,419.68777079743,980.31222920257,780.31222920257,980.31222920257,419.68777079743,619.68777079743,419.68777079743,619.68777079743,780.31222920257,6,4,5,0,horizontal,vertical,vertical,vertical
2a,2,100250,6,28,188,18,F,NA,variable,heterogeneous,4,absent,1.86346197128296,1,horizontal,horizontal,1,2,red,2,NaN,980.31222920257,419.68777079743,NaN,NaN,980.31222920257,780.31222920257,980.31222920257,419.68777079743,619.68777079743,419.68777079743,619.68777079743,780.31222920257,6,4,5,0,horizontal,horizontal,horizontal,horizontal
2a,2,100250,6,29,189,18,F,NA,variable,heterogeneous,4,absent,1.07256197929382,1,horizontal,horizontal,1,3,red,4,NaN,619.68777079743,780.31222920257,NaN,NaN,980.31222920257,780.31222920257,980.31222920257,419.68777079743,619.68777079743,419.68777079743,619.68777079743,780.31222920257,5,0,3,4,vertical,vertical,horizontal,horizontal
2a,2,100250,6,30,190,18,F,NA,variable,heterogeneous,4,absent,1.11842799186707,1,horizontal,horizontal,1,5,red,3,NaN,619.68777079743,419.68777079743,NaN,NaN,980.31222920257,780.31222920257,980.31222920257,419.68777079743,619.68777079743,419.68777079743,619.68777079743,780.31222920257,5,3,4,0,vertical,horizontal,horizontal,horizontal
2a,2,100250,6,31,191,18,F,NA,variable,heterogeneous,4,present,1.56500601768494,1,horizontal,horizontal,1,3,red,4,2,619.68777079743,780.31222920257,980.31222920257,419.68777079743,980.31222920257,780.31222920257,980.31222920257,419.68777079743,619.68777079743,419.68777079743,619.68777079743,780.31222920257,0,5,3,4,horizontal,horizontal,horizontal,horizontal
2a,2,100250,6,32,192,18,F,NA,variable,heterogeneous,4,present,NaN,0,horizontal,none,0,5,red,1,2,980.31222920257,780.31222920257,980.31222920257,419.68777079743,980.31222920257,780.31222920257,980.31222920257,419.68777079743,619.68777079743,419.68777079743,619.68777079743,780.31222920257,4,0,5,3,horizontal,vertical,horizontal,horizontal
2a,2,100250,7,1,193,18,F,NA,variable,heterogeneous,4,present,1.7085440158844,1,horizontal,horizontal,1,5,green,1,2,980.31222920257,780.31222920257,980.31222920257,419.68777079743,980.31222920257,780.31222920257,980.31222920257,419.68777079743,619.68777079743,419.68777079743,619.68777079743,780.31222920257,4,6,0,5,horizontal,vertical,horizontal,horizontal
2a,2,100250,7,2,194,18,F,NA,variable,heterogeneous,4,absent,0.935076951980591,1,vertical,vertical,1,2,green,4,NaN,619.68777079743,780.31222920257,NaN,NaN,980.31222920257,780.31222920257,980.31222920257,419.68777079743,619.68777079743,419.68777079743,619.68777079743,780.31222920257,3,6,0,4,vertical,horizontal,vertical,vertical
2a,2,100250,7,3,195,18,F,NA,variable,heterogeneous,4,present,0.921883106231689,1,horizontal,horizontal,1,2,red,3,4,619.68777079743,419.68777079743,619.68777079743,780.31222920257,980.31222920257,780.31222920257,980.31222920257,419.68777079743,619.68777079743,419.68777079743,619.68777079743,780.31222920257,5,0,4,6,vertical,vertical,horizontal,vertical
2a,2,100250,7,4,196,18,F,NA,variable,heterogeneous,4,present,0.872549057006836,1,horizontal,horizontal,1,8,red,4,3,619.68777079743,780.31222920257,619.68777079743,419.68777079743,980.31222920257,780.31222920257,980.31222920257,419.68777079743,619.68777079743,419.68777079743,619.68777079743,780.31222920257,6,0,5,4,vertical,vertical,horizontal,horizontal
2a,2,100250,7,5,197,18,F,NA,variable,heterogeneous,4,absent,0.966384887695312,1,horizontal,horizontal,1,2,red,3,NaN,619.68777079743,419.68777079743,NaN,NaN,980.31222920257,780.31222920257,980.31222920257,419.68777079743,619.68777079743,419.68777079743,619.68777079743,780.31222920257,6,3,4,5,vertical,horizontal,horizontal,horizontal
2a,2,100250,7,6,198,18,F,NA,variable,heterogeneous,4,absent,1.53391289710999,1,vertical,vertical,1,3,red,2,NaN,980.31222920257,419.68777079743,NaN,NaN,980.31222920257,780.31222920257,980.31222920257,419.68777079743,619.68777079743,419.68777079743,619.68777079743,780.31222920257,5,4,6,3,vertical,vertical,vertical,horizontal
2a,2,100250,7,7,199,18,F,NA,variable,heterogeneous,4,present,0.912591934204102,1,vertical,vertical,1,3,red,4,2,619.68777079743,780.31222920257,980.31222920257,419.68777079743,980.31222920257,780.31222920257,980.31222920257,419.68777079743,619.68777079743,419.68777079743,619.68777079743,780.31222920257,0,6,5,4,vertical,horizontal,vertical,vertical
2a,2,100250,7,8,200,18,F,NA,variable,heterogeneous,4,absent,1.15506291389465,1,vertical,vertical,1,5,red,1,NaN,980.31222920257,780.31222920257,NaN,NaN,980.31222920257,780.31222920257,980.31222920257,419.68777079743,619.68777079743,419.68777079743,619.68777079743,780.31222920257,4,5,0,3,vertical,vertical,vertical,horizontal
2a,2,100250,7,9,201,18,F,NA,variable,heterogeneous,4,present,0.838549137115479,1,vertical,vertical,1,2,green,1,2,980.31222920257,780.31222920257,980.31222920257,419.68777079743,980.31222920257,780.31222920257,980.31222920257,419.68777079743,619.68777079743,419.68777079743,619.68777079743,780.31222920257,4,5,0,3,vertical,horizontal,vertical,horizontal
2a,2,100250,7,10,202,18,F,NA,variable,heterogeneous,4,absent,0.975630044937134,1,horizontal,horizontal,1,5,green,4,NaN,619.68777079743,780.31222920257,NaN,NaN,980.31222920257,780.31222920257,980.31222920257,419.68777079743,619.68777079743,419.68777079743,619.68777079743,780.31222920257,6,5,3,4,horizontal,horizontal,horizontal,horizontal
2a,2,100250,7,11,203,18,F,NA,variable,heterogeneous,4,absent,1.61130809783936,1,horizontal,horizontal,1,5,red,3,NaN,619.68777079743,419.68777079743,NaN,NaN,980.31222920257,780.31222920257,980.31222920257,419.68777079743,619.68777079743,419.68777079743,619.68777079743,780.31222920257,6,3,4,5,vertical,vertical,horizontal,horizontal
2a,2,100250,7,12,204,18,F,NA,variable,heterogeneous,4,present,1.05190205574036,1,horizontal,horizontal,1,3,red,4,1,619.68777079743,780.31222920257,980.31222920257,780.31222920257,980.31222920257,780.31222920257,980.31222920257,419.68777079743,619.68777079743,419.68777079743,619.68777079743,780.31222920257,0,6,5,4,horizontal,horizontal,vertical,horizontal
2a,2,100250,7,13,205,18,F,NA,variable,heterogeneous,4,absent,1.0411069393158,1,vertical,vertical,1,3,green,3,NaN,619.68777079743,419.68777079743,NaN,NaN,980.31222920257,780.31222920257,980.31222920257,419.68777079743,619.68777079743,419.68777079743,619.68777079743,780.31222920257,0,3,4,6,horizontal,vertical,vertical,vertical
2a,2,100250,7,14,206,18,F,NA,variable,heterogeneous,4,present,1.39412808418274,1,horizontal,horizontal,1,5,red,4,2,619.68777079743,780.31222920257,980.31222920257,419.68777079743,980.31222920257,780.31222920257,980.31222920257,419.68777079743,619.68777079743,419.68777079743,619.68777079743,780.31222920257,6,0,3,4,horizontal,horizontal,horizontal,horizontal
2a,2,100250,7,15,207,18,F,NA,variable,heterogeneous,4,absent,0.818190097808838,1,horizontal,horizontal,1,3,green,4,NaN,619.68777079743,780.31222920257,NaN,NaN,980.31222920257,780.31222920257,980.31222920257,419.68777079743,619.68777079743,419.68777079743,619.68777079743,780.31222920257,3,5,0,4,vertical,horizontal,horizontal,horizontal
2a,2,100250,7,16,208,18,F,NA,variable,heterogeneous,4,present,1.60298895835876,0,horizontal,vertical,1,3,red,1,2,980.31222920257,780.31222920257,980.31222920257,419.68777079743,980.31222920257,780.31222920257,980.31222920257,419.68777079743,619.68777079743,419.68777079743,619.68777079743,780.31222920257,4,3,5,6,horizontal,horizontal,vertical,vertical
2a,2,100250,7,17,209,18,F,NA,variable,heterogeneous,4,present,0.871139049530029,1,vertical,vertical,1,8,green,4,1,619.68777079743,780.31222920257,980.31222920257,780.31222920257,980.31222920257,780.31222920257,980.31222920257,419.68777079743,619.68777079743,419.68777079743,619.68777079743,780.31222920257,3,0,6,4,vertical,vertical,horizontal,vertical
2a,2,100250,7,18,210,18,F,NA,variable,heterogeneous,4,absent,0.949069976806641,1,horizontal,horizontal,1,2,green,4,NaN,619.68777079743,780.31222920257,NaN,NaN,980.31222920257,780.31222920257,980.31222920257,419.68777079743,619.68777079743,419.68777079743,619.68777079743,780.31222920257,3,5,0,4,vertical,horizontal,vertical,horizontal
2a,2,100250,7,19,211,18,F,NA,variable,heterogeneous,4,absent,0.828039169311523,0,vertical,horizontal,1,2,red,4,NaN,619.68777079743,780.31222920257,NaN,NaN,980.31222920257,780.31222920257,980.31222920257,419.68777079743,619.68777079743,419.68777079743,619.68777079743,780.31222920257,5,0,3,4,vertical,vertical,horizontal,vertical
2a,2,100250,7,20,212,18,F,NA,variable,heterogeneous,4,present,0.712875843048096,1,vertical,vertical,1,2,red,4,1,619.68777079743,780.31222920257,980.31222920257,780.31222920257,980.31222920257,780.31222920257,980.31222920257,419.68777079743,619.68777079743,419.68777079743,619.68777079743,780.31222920257,6,3,0,4,horizontal,vertical,vertical,vertical
2a,2,100250,7,21,213,18,F,NA,variable,heterogeneous,4,absent,0.699124097824097,1,horizontal,horizontal,1,2,red,2,NaN,980.31222920257,419.68777079743,NaN,NaN,980.31222920257,780.31222920257,980.31222920257,419.68777079743,619.68777079743,419.68777079743,619.68777079743,780.31222920257,6,4,5,3,vertical,horizontal,horizontal,horizontal
2a,2,100250,7,22,214,18,F,NA,variable,heterogeneous,4,present,1.54539585113525,1,horizontal,horizontal,1,2,red,1,4,980.31222920257,780.31222920257,619.68777079743,780.31222920257,980.31222920257,780.31222920257,980.31222920257,419.68777079743,619.68777079743,419.68777079743,619.68777079743,780.31222920257,4,3,5,0,horizontal,horizontal,vertical,vertical
2a,2,100250,7,23,215,18,F,NA,variable,heterogeneous,4,absent,1.81666302680969,1,horizontal,horizontal,1,8,red,1,NaN,980.31222920257,780.31222920257,NaN,NaN,980.31222920257,780.31222920257,980.31222920257,419.68777079743,619.68777079743,419.68777079743,619.68777079743,780.31222920257,4,6,0,5,horizontal,horizontal,vertical,vertical
2a,2,100250,7,24,216,18,F,NA,variable,heterogeneous,4,present,0.84123682975769,1,vertical,vertical,1,2,red,4,3,619.68777079743,780.31222920257,619.68777079743,419.68777079743,980.31222920257,780.31222920257,980.31222920257,419.68777079743,619.68777079743,419.68777079743,619.68777079743,780.31222920257,3,6,5,4,vertical,vertical,horizontal,vertical
2a,2,100250,7,25,217,18,F,NA,variable,heterogeneous,4,present,NaN,0,horizontal,none,0,2,green,1,3,980.31222920257,780.31222920257,619.68777079743,419.68777079743,980.31222920257,780.31222920257,980.31222920257,419.68777079743,619.68777079743,419.68777079743,619.68777079743,780.31222920257,4,5,3,0,horizontal,horizontal,vertical,horizontal
2a,2,100250,7,26,218,18,F,NA,variable,heterogeneous,4,absent,0.95035195350647,0,horizontal,vertical,1,3,green,1,NaN,980.31222920257,780.31222920257,NaN,NaN,980.31222920257,780.31222920257,980.31222920257,419.68777079743,619.68777079743,419.68777079743,619.68777079743,780.31222920257,4,3,5,0,horizontal,vertical,vertical,vertical
2a,2,100250,7,27,219,18,F,NA,variable,heterogeneous,4,present,1.57354187965393,0,vertical,horizontal,1,5,red,3,2,619.68777079743,419.68777079743,980.31222920257,419.68777079743,980.31222920257,780.31222920257,980.31222920257,419.68777079743,619.68777079743,419.68777079743,619.68777079743,780.31222920257,0,6,4,3,vertical,vertical,vertical,horizontal
2a,2,100250,7,28,220,18,F,NA,variable,heterogeneous,4,absent,1.40548396110535,1,vertical,vertical,1,8,green,3,NaN,619.68777079743,419.68777079743,NaN,NaN,980.31222920257,780.31222920257,980.31222920257,419.68777079743,619.68777079743,419.68777079743,619.68777079743,780.31222920257,3,0,4,5,vertical,horizontal,vertical,horizontal
2a,2,100250,7,29,221,18,F,NA,variable,heterogeneous,4,present,0.753582000732422,1,vertical,vertical,1,5,green,3,4,619.68777079743,419.68777079743,619.68777079743,780.31222920257,980.31222920257,780.31222920257,980.31222920257,419.68777079743,619.68777079743,419.68777079743,619.68777079743,780.31222920257,6,0,4,3,horizontal,vertical,vertical,vertical
2a,2,100250,7,30,222,18,F,NA,variable,heterogeneous,4,present,1.0049569606781,1,vertical,vertical,1,3,green,4,1,619.68777079743,780.31222920257,980.31222920257,780.31222920257,980.31222920257,780.31222920257,980.31222920257,419.68777079743,619.68777079743,419.68777079743,619.68777079743,780.31222920257,3,6,0,4,horizontal,vertical,horizontal,vertical
2a,2,100250,7,31,223,18,F,NA,variable,heterogeneous,4,absent,1.60945916175842,1,vertical,vertical,1,2,green,3,NaN,619.68777079743,419.68777079743,NaN,NaN,980.31222920257,780.31222920257,980.31222920257,419.68777079743,619.68777079743,419.68777079743,619.68777079743,780.31222920257,3,0,4,6,vertical,horizontal,vertical,vertical
2a,2,100250,7,32,224,18,F,NA,variable,heterogeneous,4,absent,0.613545894622803,1,vertical,vertical,1,5,red,3,NaN,619.68777079743,419.68777079743,NaN,NaN,980.31222920257,780.31222920257,980.31222920257,419.68777079743,619.68777079743,419.68777079743,619.68777079743,780.31222920257,0,3,4,5,horizontal,horizontal,vertical,horizontal
2a,2,100250,8,1,225,18,F,NA,variable,heterogeneous,4,present,0.95095419883728,0,horizontal,vertical,1,2,red,1,2,980.31222920257,780.31222920257,980.31222920257,419.68777079743,980.31222920257,780.31222920257,980.31222920257,419.68777079743,619.68777079743,419.68777079743,619.68777079743,780.31222920257,4,3,6,0,horizontal,vertical,vertical,vertical
2a,2,100250,8,2,226,18,F,NA,variable,heterogeneous,4,present,1.54978394508362,1,horizontal,horizontal,1,8,green,2,1,980.31222920257,419.68777079743,980.31222920257,780.31222920257,980.31222920257,780.31222920257,980.31222920257,419.68777079743,619.68777079743,419.68777079743,619.68777079743,780.31222920257,3,4,0,6,vertical,horizontal,horizontal,horizontal
2a,2,100250,8,3,227,18,F,NA,variable,heterogeneous,4,absent,1.00507998466492,1,horizontal,horizontal,1,2,red,1,NaN,980.31222920257,780.31222920257,NaN,NaN,980.31222920257,780.31222920257,980.31222920257,419.68777079743,619.68777079743,419.68777079743,619.68777079743,780.31222920257,4,6,5,0,horizontal,horizontal,vertical,horizontal
2a,2,100250,8,4,228,18,F,NA,variable,heterogeneous,4,absent,1.37717199325562,1,vertical,vertical,1,3,green,3,NaN,619.68777079743,419.68777079743,NaN,NaN,980.31222920257,780.31222920257,980.31222920257,419.68777079743,619.68777079743,419.68777079743,619.68777079743,780.31222920257,5,3,4,6,vertical,horizontal,vertical,horizontal
2a,2,100250,8,5,229,18,F,NA,variable,heterogeneous,4,present,1.50901222229004,1,vertical,vertical,1,2,green,1,2,980.31222920257,780.31222920257,980.31222920257,419.68777079743,980.31222920257,780.31222920257,980.31222920257,419.68777079743,619.68777079743,419.68777079743,619.68777079743,780.31222920257,4,3,6,0,vertical,vertical,horizontal,horizontal
2a,2,100250,8,6,230,18,F,NA,variable,heterogeneous,4,present,0.583576202392578,1,vertical,vertical,1,2,red,1,3,980.31222920257,780.31222920257,619.68777079743,419.68777079743,980.31222920257,780.31222920257,980.31222920257,419.68777079743,619.68777079743,419.68777079743,619.68777079743,780.31222920257,4,0,5,3,vertical,horizontal,horizontal,horizontal
2a,2,100250,8,7,231,18,F,NA,variable,heterogeneous,4,absent,0.491192102432251,1,vertical,vertical,1,2,red,1,NaN,980.31222920257,780.31222920257,NaN,NaN,980.31222920257,780.31222920257,980.31222920257,419.68777079743,619.68777079743,419.68777079743,619.68777079743,780.31222920257,4,5,3,6,vertical,horizontal,vertical,vertical
2a,2,100250,8,8,232,18,F,NA,variable,heterogeneous,4,present,0.445304155349731,0,horizontal,vertical,1,2,red,2,4,980.31222920257,419.68777079743,619.68777079743,780.31222920257,980.31222920257,780.31222920257,980.31222920257,419.68777079743,619.68777079743,419.68777079743,619.68777079743,780.31222920257,3,4,6,5,vertical,horizontal,vertical,horizontal
2a,2,100250,8,9,233,18,F,NA,variable,heterogeneous,4,absent,1.758131980896,1,horizontal,horizontal,1,8,green,2,NaN,980.31222920257,419.68777079743,NaN,NaN,980.31222920257,780.31222920257,980.31222920257,419.68777079743,619.68777079743,419.68777079743,619.68777079743,780.31222920257,0,4,5,6,horizontal,horizontal,horizontal,vertical
2a,2,100250,8,10,234,18,F,NA,variable,heterogeneous,4,absent,NaN,0,horizontal,none,0,3,red,4,NaN,619.68777079743,780.31222920257,NaN,NaN,980.31222920257,780.31222920257,980.31222920257,419.68777079743,619.68777079743,419.68777079743,619.68777079743,780.31222920257,0,6,5,4,horizontal,vertical,vertical,horizontal
2a,2,100250,8,11,235,18,F,NA,variable,heterogeneous,4,present,1.24588489532471,1,horizontal,horizontal,1,3,green,2,1,980.31222920257,419.68777079743,980.31222920257,780.31222920257,980.31222920257,780.31222920257,980.31222920257,419.68777079743,619.68777079743,419.68777079743,619.68777079743,780.31222920257,5,4,0,6,horizontal,horizontal,vertical,vertical
2a,2,100250,8,12,236,18,F,NA,variable,heterogeneous,4,absent,0.731384038925171,1,horizontal,horizontal,1,5,red,4,NaN,619.68777079743,780.31222920257,NaN,NaN,980.31222920257,780.31222920257,980.31222920257,419.68777079743,619.68777079743,419.68777079743,619.68777079743,780.31222920257,5,6,0,4,vertical,horizontal,horizontal,horizontal
2a,2,100250,8,13,237,18,F,NA,variable,heterogeneous,4,absent,1.36591291427612,1,horizontal,horizontal,1,2,green,2,NaN,980.31222920257,419.68777079743,NaN,NaN,980.31222920257,780.31222920257,980.31222920257,419.68777079743,619.68777079743,419.68777079743,619.68777079743,780.31222920257,3,4,6,0,vertical,horizontal,horizontal,horizontal
2a,2,100250,8,14,238,18,F,NA,variable,heterogeneous,4,present,0.877755880355835,1,horizontal,horizontal,1,3,red,4,1,619.68777079743,780.31222920257,980.31222920257,780.31222920257,980.31222920257,780.31222920257,980.31222920257,419.68777079743,619.68777079743,419.68777079743,619.68777079743,780.31222920257,3,5,6,4,vertical,vertical,vertical,horizontal
2a,2,100250,8,15,239,18,F,NA,variable,heterogeneous,4,absent,1.28368592262268,1,horizontal,horizontal,1,3,green,1,NaN,980.31222920257,780.31222920257,NaN,NaN,980.31222920257,780.31222920257,980.31222920257,419.68777079743,619.68777079743,419.68777079743,619.68777079743,780.31222920257,4,0,3,5,horizontal,horizontal,horizontal,horizontal
2a,2,100250,8,16,240,18,F,NA,variable,heterogeneous,4,absent,1.28510189056396,1,vertical,vertical,1,2,green,2,NaN,980.31222920257,419.68777079743,NaN,NaN,980.31222920257,780.31222920257,980.31222920257,419.68777079743,619.68777079743,419.68777079743,619.68777079743,780.31222920257,0,4,6,3,vertical,vertical,vertical,horizontal
2a,2,100250,8,17,241,18,F,NA,variable,heterogeneous,4,present,1.9832808971405,1,horizontal,horizontal,1,5,green,2,4,980.31222920257,419.68777079743,619.68777079743,780.31222920257,980.31222920257,780.31222920257,980.31222920257,419.68777079743,619.68777079743,419.68777079743,619.68777079743,780.31222920257,3,4,5,6,horizontal,horizontal,horizontal,horizontal
2a,2,100250,8,18,242,18,F,NA,variable,heterogeneous,4,present,1.42728304862976,1,vertical,vertical,1,3,red,1,3,980.31222920257,780.31222920257,619.68777079743,419.68777079743,980.31222920257,780.31222920257,980.31222920257,419.68777079743,619.68777079743,419.68777079743,619.68777079743,780.31222920257,4,0,6,3,vertical,horizontal,horizontal,vertical
2a,2,100250,8,19,243,18,F,NA,variable,heterogeneous,4,absent,0.984100103378296,1,vertical,vertical,1,2,red,4,NaN,619.68777079743,780.31222920257,NaN,NaN,980.31222920257,780.31222920257,980.31222920257,419.68777079743,619.68777079743,419.68777079743,619.68777079743,780.31222920257,5,3,0,4,vertical,vertical,horizontal,vertical
2a,2,100250,8,20,244,18,F,NA,variable,heterogeneous,4,absent,1.50775909423828,1,vertical,vertical,1,5,red,1,NaN,980.31222920257,780.31222920257,NaN,NaN,980.31222920257,780.31222920257,980.31222920257,419.68777079743,619.68777079743,419.68777079743,619.68777079743,780.31222920257,4,6,3,5,vertical,vertical,vertical,vertical
2a,2,100250,8,21,245,18,F,NA,variable,heterogeneous,4,absent,1.27828407287598,0,horizontal,vertical,1,5,red,1,NaN,980.31222920257,780.31222920257,NaN,NaN,980.31222920257,780.31222920257,980.31222920257,419.68777079743,619.68777079743,419.68777079743,619.68777079743,780.31222920257,4,6,5,3,horizontal,horizontal,vertical,horizontal
2a,2,100250,8,22,246,18,F,NA,variable,heterogeneous,4,absent,1.41201400756836,1,vertical,vertical,1,3,red,3,NaN,619.68777079743,419.68777079743,NaN,NaN,980.31222920257,780.31222920257,980.31222920257,419.68777079743,619.68777079743,419.68777079743,619.68777079743,780.31222920257,6,3,4,0,horizontal,vertical,vertical,vertical
2a,2,100250,8,23,247,18,F,NA,variable,heterogeneous,4,absent,1.05270504951477,1,vertical,vertical,1,5,red,1,NaN,980.31222920257,780.31222920257,NaN,NaN,980.31222920257,780.31222920257,980.31222920257,419.68777079743,619.68777079743,419.68777079743,619.68777079743,780.31222920257,4,5,6,3,vertical,horizontal,horizontal,horizontal
2a,2,100250,8,24,248,18,F,NA,variable,heterogeneous,4,present,1.02567505836487,1,vertical,vertical,1,5,green,3,2,619.68777079743,419.68777079743,980.31222920257,419.68777079743,980.31222920257,780.31222920257,980.31222920257,419.68777079743,619.68777079743,419.68777079743,619.68777079743,780.31222920257,0,6,4,3,horizontal,horizontal,vertical,horizontal
2a,2,100250,8,25,249,18,F,NA,variable,heterogeneous,4,present,1.83844399452209,1,vertical,vertical,1,3,red,4,3,619.68777079743,780.31222920257,619.68777079743,419.68777079743,980.31222920257,780.31222920257,980.31222920257,419.68777079743,619.68777079743,419.68777079743,619.68777079743,780.31222920257,0,5,3,4,horizontal,vertical,horizontal,vertical
2a,2,100250,8,26,250,18,F,NA,variable,heterogeneous,4,present,0.82361102104187,1,vertical,vertical,1,2,red,4,1,619.68777079743,780.31222920257,980.31222920257,780.31222920257,980.31222920257,780.31222920257,980.31222920257,419.68777079743,619.68777079743,419.68777079743,619.68777079743,780.31222920257,3,0,5,4,vertical,horizontal,vertical,vertical
2a,2,100250,8,27,251,18,F,NA,variable,heterogeneous,4,absent,1.55621790885925,1,horizontal,horizontal,1,2,red,3,NaN,619.68777079743,419.68777079743,NaN,NaN,980.31222920257,780.31222920257,980.31222920257,419.68777079743,619.68777079743,419.68777079743,619.68777079743,780.31222920257,5,6,4,0,horizontal,vertical,horizontal,vertical
2a,2,100250,8,28,252,18,F,NA,variable,heterogeneous,4,absent,0.775713920593262,1,vertical,vertical,1,8,green,3,NaN,619.68777079743,419.68777079743,NaN,NaN,980.31222920257,780.31222920257,980.31222920257,419.68777079743,619.68777079743,419.68777079743,619.68777079743,780.31222920257,5,3,4,0,horizontal,vertical,vertical,vertical
2a,2,100250,8,29,253,18,F,NA,variable,heterogeneous,4,present,1.16393780708313,1,vertical,vertical,1,5,green,2,4,980.31222920257,419.68777079743,619.68777079743,780.31222920257,980.31222920257,780.31222920257,980.31222920257,419.68777079743,619.68777079743,419.68777079743,619.68777079743,780.31222920257,6,4,5,0,horizontal,vertical,vertical,vertical
2a,2,100250,8,30,254,18,F,NA,variable,heterogeneous,4,present,1.37952995300293,1,horizontal,horizontal,1,2,green,4,1,619.68777079743,780.31222920257,980.31222920257,780.31222920257,980.31222920257,780.31222920257,980.31222920257,419.68777079743,619.68777079743,419.68777079743,619.68777079743,780.31222920257,0,5,3,4,vertical,horizontal,vertical,horizontal
2a,2,100250,8,31,255,18,F,NA,variable,heterogeneous,4,present,1.69499611854553,1,horizontal,horizontal,1,5,red,2,3,980.31222920257,419.68777079743,619.68777079743,419.68777079743,980.31222920257,780.31222920257,980.31222920257,419.68777079743,619.68777079743,419.68777079743,619.68777079743,780.31222920257,3,4,5,0,vertical,horizontal,vertical,vertical
2a,2,100250,8,32,256,18,F,NA,variable,heterogeneous,4,present,1.49350881576538,1,vertical,vertical,1,8,green,4,3,619.68777079743,780.31222920257,619.68777079743,419.68777079743,980.31222920257,780.31222920257,980.31222920257,419.68777079743,619.68777079743,419.68777079743,619.68777079743,780.31222920257,6,3,0,4,horizontal,horizontal,horizontal,vertical
2a,2,100250,9,1,257,18,F,NA,variable,heterogeneous,4,absent,0.922123908996582,1,vertical,vertical,1,2,red,3,NaN,619.68777079743,419.68777079743,NaN,NaN,980.31222920257,780.31222920257,980.31222920257,419.68777079743,619.68777079743,419.68777079743,619.68777079743,780.31222920257,3,6,4,0,horizontal,horizontal,vertical,horizontal
2a,2,100250,9,2,258,18,F,NA,variable,heterogeneous,4,absent,0.944562911987305,1,vertical,vertical,1,5,red,3,NaN,619.68777079743,419.68777079743,NaN,NaN,980.31222920257,780.31222920257,980.31222920257,419.68777079743,619.68777079743,419.68777079743,619.68777079743,780.31222920257,6,0,4,5,horizontal,vertical,vertical,vertical
2a,2,100250,9,3,259,18,F,NA,variable,heterogeneous,4,present,0.591892957687378,1,vertical,vertical,1,3,red,3,2,619.68777079743,419.68777079743,980.31222920257,419.68777079743,980.31222920257,780.31222920257,980.31222920257,419.68777079743,619.68777079743,419.68777079743,619.68777079743,780.31222920257,0,5,4,3,horizontal,horizontal,vertical,vertical
2a,2,100250,9,4,260,18,F,NA,variable,heterogeneous,4,absent,1.29585194587708,1,vertical,vertical,1,5,green,1,NaN,980.31222920257,780.31222920257,NaN,NaN,980.31222920257,780.31222920257,980.31222920257,419.68777079743,619.68777079743,419.68777079743,619.68777079743,780.31222920257,4,5,0,6,vertical,horizontal,horizontal,horizontal
2a,2,100250,9,5,261,18,F,NA,variable,heterogeneous,4,present,1.63824200630188,0,vertical,horizontal,1,2,green,3,1,619.68777079743,419.68777079743,980.31222920257,780.31222920257,980.31222920257,780.31222920257,980.31222920257,419.68777079743,619.68777079743,419.68777079743,619.68777079743,780.31222920257,0,3,4,5,horizontal,horizontal,vertical,horizontal
2a,2,100250,9,6,262,18,F,NA,variable,heterogeneous,4,absent,1.33515810966492,1,vertical,vertical,1,2,red,2,NaN,980.31222920257,419.68777079743,NaN,NaN,980.31222920257,780.31222920257,980.31222920257,419.68777079743,619.68777079743,419.68777079743,619.68777079743,780.31222920257,5,4,6,0,vertical,vertical,vertical,horizontal
2a,2,100250,9,7,263,18,F,NA,variable,heterogeneous,4,present,1.35395193099976,1,vertical,vertical,1,8,green,1,4,980.31222920257,780.31222920257,619.68777079743,780.31222920257,980.31222920257,780.31222920257,980.31222920257,419.68777079743,619.68777079743,419.68777079743,619.68777079743,780.31222920257,4,5,3,0,vertical,vertical,vertical,vertical
2a,2,100250,9,8,264,18,F,NA,variable,heterogeneous,4,absent,0.909377098083496,0,horizontal,vertical,1,5,red,3,NaN,619.68777079743,419.68777079743,NaN,NaN,980.31222920257,780.31222920257,980.31222920257,419.68777079743,619.68777079743,419.68777079743,619.68777079743,780.31222920257,5,0,4,6,vertical,horizontal,horizontal,vertical
2a,2,100250,9,9,265,18,F,NA,variable,heterogeneous,4,present,1.67171096801758,1,vertical,vertical,1,2,green,2,1,980.31222920257,419.68777079743,980.31222920257,780.31222920257,980.31222920257,780.31222920257,980.31222920257,419.68777079743,619.68777079743,419.68777079743,619.68777079743,780.31222920257,3,4,5,6,vertical,vertical,horizontal,horizontal
2a,2,100250,9,10,266,18,F,NA,variable,heterogeneous,4,present,1.35778093338013,1,horizontal,horizontal,1,3,red,3,1,619.68777079743,419.68777079743,980.31222920257,780.31222920257,980.31222920257,780.31222920257,980.31222920257,419.68777079743,619.68777079743,419.68777079743,619.68777079743,780.31222920257,5,3,4,6,vertical,vertical,horizontal,horizontal
2a,2,100250,9,11,267,18,F,NA,variable,heterogeneous,4,absent,0.857026100158691,1,vertical,vertical,1,8,red,2,NaN,980.31222920257,419.68777079743,NaN,NaN,980.31222920257,780.31222920257,980.31222920257,419.68777079743,619.68777079743,419.68777079743,619.68777079743,780.31222920257,3,4,0,5,horizontal,vertical,vertical,vertical
2a,2,100250,9,12,268,18,F,NA,variable,heterogeneous,4,absent,0.92643404006958,1,horizontal,horizontal,1,2,red,2,NaN,980.31222920257,419.68777079743,NaN,NaN,980.31222920257,780.31222920257,980.31222920257,419.68777079743,619.68777079743,419.68777079743,619.68777079743,780.31222920257,3,4,5,0,horizontal,horizontal,vertical,vertical
2a,2,100250,9,13,269,18,F,NA,variable,heterogeneous,4,present,0.86103081703186,0,horizontal,vertical,1,2,red,2,4,980.31222920257,419.68777079743,619.68777079743,780.31222920257,980.31222920257,780.31222920257,980.31222920257,419.68777079743,619.68777079743,419.68777079743,619.68777079743,780.31222920257,5,4,6,3,vertical,horizontal,horizontal,vertical
2a,2,100250,9,14,270,18,F,NA,variable,heterogeneous,4,absent,0.934576034545898,1,horizontal,horizontal,1,8,red,4,NaN,619.68777079743,780.31222920257,NaN,NaN,980.31222920257,780.31222920257,980.31222920257,419.68777079743,619.68777079743,419.68777079743,619.68777079743,780.31222920257,5,0,6,4,vertical,vertical,vertical,horizontal
2a,2,100250,9,15,271,18,F,NA,variable,heterogeneous,4,absent,1.07336497306824,1,vertical,vertical,1,3,red,4,NaN,619.68777079743,780.31222920257,NaN,NaN,980.31222920257,780.31222920257,980.31222920257,419.68777079743,619.68777079743,419.68777079743,619.68777079743,780.31222920257,6,0,3,4,vertical,horizontal,vertical,vertical
2a,2,100250,9,16,272,18,F,NA,variable,heterogeneous,4,present,0.958985805511475,1,horizontal,horizontal,1,3,green,4,3,619.68777079743,780.31222920257,619.68777079743,419.68777079743,980.31222920257,780.31222920257,980.31222920257,419.68777079743,619.68777079743,419.68777079743,619.68777079743,780.31222920257,0,3,5,4,vertical,vertical,vertical,horizontal
2a,2,100250,9,17,273,18,F,NA,variable,heterogeneous,4,absent,0.818542957305908,1,horizontal,horizontal,1,3,red,4,NaN,619.68777079743,780.31222920257,NaN,NaN,980.31222920257,780.31222920257,980.31222920257,419.68777079743,619.68777079743,419.68777079743,619.68777079743,780.31222920257,5,3,0,4,vertical,horizontal,horizontal,horizontal
2a,2,100250,9,18,274,18,F,NA,variable,heterogeneous,4,present,0.690921068191528,1,horizontal,horizontal,1,5,green,4,2,619.68777079743,780.31222920257,980.31222920257,419.68777079743,980.31222920257,780.31222920257,980.31222920257,419.68777079743,619.68777079743,419.68777079743,619.68777079743,780.31222920257,0,5,3,4,horizontal,vertical,vertical,horizontal
2a,2,100250,9,19,275,18,F,NA,variable,heterogeneous,4,present,1.18886709213257,1,horizontal,horizontal,1,5,green,1,2,980.31222920257,780.31222920257,980.31222920257,419.68777079743,980.31222920257,780.31222920257,980.31222920257,419.68777079743,619.68777079743,419.68777079743,619.68777079743,780.31222920257,4,3,0,5,horizontal,vertical,vertical,vertical
2a,2,100250,9,20,276,18,F,NA,variable,heterogeneous,4,present,1.59698510169983,1,vertical,vertical,1,5,red,3,4,619.68777079743,419.68777079743,619.68777079743,780.31222920257,980.31222920257,780.31222920257,980.31222920257,419.68777079743,619.68777079743,419.68777079743,619.68777079743,780.31222920257,6,0,4,5,vertical,vertical,vertical,vertical
2a,2,100250,9,21,277,18,F,NA,variable,heterogeneous,4,absent,1.27695298194885,1,horizontal,horizontal,1,2,red,1,NaN,980.31222920257,780.31222920257,NaN,NaN,980.31222920257,780.31222920257,980.31222920257,419.68777079743,619.68777079743,419.68777079743,619.68777079743,780.31222920257,4,5,3,0,horizontal,vertical,horizontal,horizontal
2a,2,100250,9,22,278,18,F,NA,variable,heterogeneous,4,present,1.43479204177856,1,vertical,vertical,1,2,green,3,2,619.68777079743,419.68777079743,980.31222920257,419.68777079743,980.31222920257,780.31222920257,980.31222920257,419.68777079743,619.68777079743,419.68777079743,619.68777079743,780.31222920257,6,0,4,5,horizontal,vertical,vertical,horizontal
2a,2,100250,9,23,279,18,F,NA,variable,heterogeneous,4,present,0.803858995437622,1,horizontal,horizontal,1,8,green,3,2,619.68777079743,419.68777079743,980.31222920257,419.68777079743,980.31222920257,780.31222920257,980.31222920257,419.68777079743,619.68777079743,419.68777079743,619.68777079743,780.31222920257,0,3,4,6,vertical,horizontal,horizontal,horizontal
2a,2,100250,9,24,280,18,F,NA,variable,heterogeneous,4,absent,0.896327018737793,1,vertical,vertical,1,3,red,4,NaN,619.68777079743,780.31222920257,NaN,NaN,980.31222920257,780.31222920257,980.31222920257,419.68777079743,619.68777079743,419.68777079743,619.68777079743,780.31222920257,6,0,5,4,horizontal,horizontal,vertical,vertical
2a,2,100250,9,25,281,18,F,NA,variable,heterogeneous,4,absent,1.73440504074097,1,vertical,vertical,1,2,green,3,NaN,619.68777079743,419.68777079743,NaN,NaN,980.31222920257,780.31222920257,980.31222920257,419.68777079743,619.68777079743,419.68777079743,619.68777079743,780.31222920257,6,3,4,5,vertical,vertical,vertical,vertical
2a,2,100250,9,26,282,18,F,NA,variable,heterogeneous,4,present,1.09737801551819,1,horizontal,horizontal,1,2,green,4,1,619.68777079743,780.31222920257,980.31222920257,780.31222920257,980.31222920257,780.31222920257,980.31222920257,419.68777079743,619.68777079743,419.68777079743,619.68777079743,780.31222920257,0,3,5,4,vertical,vertical,horizontal,horizontal
2a,2,100250,9,27,283,18,F,NA,variable,heterogeneous,4,absent,1.46368408203125,1,horizontal,horizontal,1,2,green,3,NaN,619.68777079743,419.68777079743,NaN,NaN,980.31222920257,780.31222920257,980.31222920257,419.68777079743,619.68777079743,419.68777079743,619.68777079743,780.31222920257,5,3,4,0,vertical,vertical,horizontal,vertical
2a,2,100250,9,28,284,18,F,NA,variable,heterogeneous,4,absent,0.752923011779785,1,horizontal,horizontal,1,5,green,3,NaN,619.68777079743,419.68777079743,NaN,NaN,980.31222920257,780.31222920257,980.31222920257,419.68777079743,619.68777079743,419.68777079743,619.68777079743,780.31222920257,0,5,4,6,horizontal,vertical,horizontal,horizontal
2a,2,100250,9,29,285,18,F,NA,variable,heterogeneous,4,present,0.892262935638428,1,vertical,vertical,1,3,green,3,1,619.68777079743,419.68777079743,980.31222920257,780.31222920257,980.31222920257,780.31222920257,980.31222920257,419.68777079743,619.68777079743,419.68777079743,619.68777079743,780.31222920257,5,3,4,6,vertical,horizontal,vertical,vertical
2a,2,100250,9,30,286,18,F,NA,variable,heterogeneous,4,present,NaN,0,horizontal,none,0,2,red,3,4,619.68777079743,419.68777079743,619.68777079743,780.31222920257,980.31222920257,780.31222920257,980.31222920257,419.68777079743,619.68777079743,419.68777079743,619.68777079743,780.31222920257,3,5,4,6,horizontal,vertical,horizontal,vertical
2a,2,100250,9,31,287,18,F,NA,variable,heterogeneous,4,present,0.890698909759521,1,vertical,vertical,1,5,green,4,1,619.68777079743,780.31222920257,980.31222920257,780.31222920257,980.31222920257,780.31222920257,980.31222920257,419.68777079743,619.68777079743,419.68777079743,619.68777079743,780.31222920257,3,0,6,4,vertical,horizontal,horizontal,vertical
2a,2,100250,9,32,288,18,F,NA,variable,heterogeneous,4,absent,1.14078998565674,0,horizontal,vertical,1,3,green,1,NaN,980.31222920257,780.31222920257,NaN,NaN,980.31222920257,780.31222920257,980.31222920257,419.68777079743,619.68777079743,419.68777079743,619.68777079743,780.31222920257,4,0,5,6,horizontal,vertical,vertical,horizontal
2a,2,100250,10,1,289,18,F,NA,variable,heterogeneous,4,absent,0.754498958587646,1,vertical,vertical,1,2,red,1,NaN,980.31222920257,780.31222920257,NaN,NaN,980.31222920257,780.31222920257,980.31222920257,419.68777079743,619.68777079743,419.68777079743,619.68777079743,780.31222920257,4,0,5,3,vertical,horizontal,vertical,vertical
2a,2,100250,10,2,290,18,F,NA,variable,heterogeneous,4,absent,1.2459990978241,0,horizontal,vertical,1,5,green,1,NaN,980.31222920257,780.31222920257,NaN,NaN,980.31222920257,780.31222920257,980.31222920257,419.68777079743,619.68777079743,419.68777079743,619.68777079743,780.31222920257,4,5,0,6,horizontal,horizontal,horizontal,vertical
2a,2,100250,10,3,291,18,F,NA,variable,heterogeneous,4,present,0.851279020309448,1,vertical,vertical,1,8,green,3,4,619.68777079743,419.68777079743,619.68777079743,780.31222920257,980.31222920257,780.31222920257,980.31222920257,419.68777079743,619.68777079743,419.68777079743,619.68777079743,780.31222920257,6,5,4,0,vertical,horizontal,vertical,horizontal
2a,2,100250,10,4,292,18,F,NA,variable,heterogeneous,4,present,1.44838285446167,1,horizontal,horizontal,1,2,red,4,3,619.68777079743,780.31222920257,619.68777079743,419.68777079743,980.31222920257,780.31222920257,980.31222920257,419.68777079743,619.68777079743,419.68777079743,619.68777079743,780.31222920257,6,5,0,4,horizontal,vertical,vertical,horizontal
