experiment,subject,uniqueID,block,trial,trial_cumulative,age,gender,color_cond_blocking,color_history,shape_type,set_size,distractor,rt,acc,target_orient,response_key,response_made,iti,target_color,target_item,distractor_item,target_X,target_Y,distractor_X,distractor_Y,item1_X,item1_Y,item2_X,item2_Y,item3_X,item3_Y,item4_X,item4_Y,item1_shape,item2_shape,item3_shape,item4_shape,item1_line,item2_line,item3_line,item4_line
2a,4,100257,1,1,1,20,M,NA,variable,heterogeneous,4,absent,1.85859084129333,1,horizontal,horizontal,1,8,red,2,NaN,980.31222920257,419.68777079743,NaN,NaN,980.31222920257,780.31222920257,980.31222920257,419.68777079743,619.68777079743,419.68777079743,619.68777079743,780.31222920257,5,4,0,6,horizontal,horizontal,vertical,vertical
2a,4,100257,1,2,2,20,M,NA,variable,heterogeneous,4,absent,NaN,0,horizontal,none,0,2,red,1,NaN,980.31222920257,780.31222920257,NaN,NaN,980.31222920257,780.31222920257,980.31222920257,419.68777079743,619.68777079743,419.68777079743,619.68777079743,780.31222920257,4,6,3,5,horizontal,horizontal,vertical,horizontal
2a,4,100257,1,3,3,20,M,NA,variable,heterogeneous,4,absent,1.55203819274902,1,horizontal,horizontal,1,3,green,1,NaN,980.31222920257,780.31222920257,NaN,NaN,980.31222920257,780.31222920257,980.31222920257,419.68777079743,619.68777079743,419.68777079743,619.68777079743,780.31222920257,4,0,6,3,horizontal,horizontal,horizontal,vertical
2a,4,100257,1,4,4,20,M,NA,variable,heterogeneous,4,present,0.923265933990479,1,horizontal,horizontal,1,5,green,3,1,619.68777079743,419.68777079743,980.31222920257,780.31222920257,980.31222920257,780.31222920257,980.31222920257,419.68777079743,619.68777079743,419.68777079743,619.68777079743,780.31222920257,6,0,4,5,horizontal,horizontal,horizontal,vertical
2a,4,100257,1,5,5,20,M,NA,variable,heterogeneous,4,absent,1.04194808006287,1,horizontal,horizontal,1,5,green,3,NaN,619.68777079743,419.68777079743,NaN,NaN,980.31222920257,780.31222920257,980.31222920257,419.68777079743,619.68777079743,419.68777079743,619.68777079743,780.31222920257,6,0,4,3,vertical,horizontal,horizontal,vertical
2a,4,100257,1,6,6,20,M,NA,variable,heterogeneous,4,absent,1.43526601791382,1,vertical,vertical,1,3,red,1,NaN,980.31222920257,780.31222920257,NaN,NaN,980.31222920257,780.31222920257,980.31222920257,419.68777079743,619.68777079743,419.68777079743,619.68777079743,780.31222920257,4,6,5,0,vertical,vertical,vertical,vertical
2a,4,100257,1,7,7,20,M,NA,variable,heterogeneous,4,present,1.73197412490845,1,horizontal,horizontal,1,3,red,1,3,980.31222920257,780.31222920257,619.68777079743,419.68777079743,980.31222920257,780.31222920257,980.31222920257,419.68777079743,619.68777079743,419.68777079743,619.68777079743,780.31222920257,4,6,3,5,horizontal,vertical,vertical,horizontal
2a,4,100257,1,8,8,20,M,NA,variable,heterogeneous,4,present,1.66275882720947,1,horizontal,horizontal,1,2,green,1,4,980.31222920257,780.31222920257,619.68777079743,780.31222920257,980.31222920257,780.31222920257,980.31222920257,419.68777079743,619.68777079743,419.68777079743,619.68777079743,780.31222920257,4,3,6,5,horizontal,vertical,horizontal,horizontal
2a,4,100257,1,9,9,20,M,NA,variable,heterogeneous,4,present,1.05640196800232,1,vertical,vertical,1,3,red,1,2,980.31222920257,780.31222920257,980.31222920257,419.68777079743,980.31222920257,780.31222920257,980.31222920257,419.68777079743,619.68777079743,419.68777079743,619.68777079743,780.31222920257,4,6,0,3,vertical,horizontal,horizontal,horizontal
2a,4,100257,1,10,10,20,M,NA,variable,heterogeneous,4,present,1.46974897384644,0,vertical,horizontal,1,2,red,3,2,619.68777079743,419.68777079743,980.31222920257,419.68777079743,980.31222920257,780.31222920257,980.31222920257,419.68777079743,619.68777079743,419.68777079743,619.68777079743,780.31222920257,5,3,4,0,horizontal,vertical,vertical,vertical
2a,4,100257,1,11,11,20,M,NA,variable,heterogeneous,4,present,1.09928607940674,0,vertical,horizontal,1,8,green,3,4,619.68777079743,419.68777079743,619.68777079743,780.31222920257,980.31222920257,780.31222920257,980.31222920257,419.68777079743,619.68777079743,419.68777079743,619.68777079743,780.31222920257,6,3,4,5,vertical,vertical,vertical,vertical
2a,4,100257,1,12,12,20,M,NA,variable,heterogeneous,4,absent,0.961787939071655,1,horizontal,horizontal,1,2,green,3,NaN,619.68777079743,419.68777079743,NaN,NaN,980.31222920257,780.31222920257,980.31222920257,419.68777079743,619.68777079743,419.68777079743,619.68777079743,780.31222920257,0,3,4,5,horizontal,horizontal,horizontal,horizontal
2a,4,100257,1,13,13,20,M,NA,variable,heterogeneous,4,absent,0.916948795318604,1,horizontal,horizontal,1,2,green,3,NaN,619.68777079743,419.68777079743,NaN,NaN,980.31222920257,780.31222920257,980.31222920257,419.68777079743,619.68777079743,419.68777079743,619.68777079743,780.31222920257,0,6,4,5,horizontal,horizontal,horizontal,horizontal
2a,4,100257,1,14,14,20,M,NA,variable,heterogeneous,4,present,1.6115620136261,1,horizontal,horizontal,1,2,green,4,1,619.68777079743,780.31222920257,980.31222920257,780.31222920257,980.31222920257,780.31222920257,980.31222920257,419.68777079743,619.68777079743,419.68777079743,619.68777079743,780.31222920257,3,5,0,4,vertical,horizontal,horizontal,horizontal
2a,4,100257,1,15,15,20,M,NA,variable,heterogeneous,4,present,1.26015686988831,1,vertical,vertical,1,3,red,1,2,980.31222920257,780.31222920257,980.31222920257,419.68777079743,980.31222920257,780.31222920257,980.31222920257,419.68777079743,619.68777079743,419.68777079743,619.68777079743,780.31222920257,4,3,0,6,vertical,vertical,vertical,vertical
2a,4,100257,1,16,16,20,M,NA,variable,heterogeneous,4,absent,1.30978608131409,0,vertical,horizontal,1,3,red,4,NaN,619.68777079743,780.31222920257,NaN,NaN,980.31222920257,780.31222920257,980.31222920257,419.68777079743,619.68777079743,419.68777079743,619.68777079743,780.31222920257,5,6,0,4,vertical,horizontal,vertical,vertical
2a,4,100257,1,17,17,20,M,NA,variable,heterogeneous,4,present,NaN,0,horizontal,none,0,2,green,1,2,980.31222920257,780.31222920257,980.31222920257,419.68777079743,980.31222920257,780.31222920257,980.31222920257,419.68777079743,619.68777079743,419.68777079743,619.68777079743,780.31222920257,4,0,5,6,horizontal,vertical,vertical,horizontal
2a,4,100257,1,18,18,20,M,NA,variable,heterogeneous,4,present,1.26028895378113,1,vertical,vertical,1,2,green,2,1,980.31222920257,419.68777079743,980.31222920257,780.31222920257,980.31222920257,780.31222920257,980.31222920257,419.68777079743,619.68777079743,419.68777079743,619.68777079743,780.31222920257,3,4,0,5,vertical,vertical,vertical,horizontal
2a,4,100257,1,19,19,20,M,NA,variable,heterogeneous,4,present,1.10199499130249,0,vertical,horizontal,1,5,green,4,2,619.68777079743,780.31222920257,980.31222920257,419.68777079743,980.31222920257,780.31222920257,980.31222920257,419.68777079743,619.68777079743,419.68777079743,619.68777079743,780.31222920257,3,5,0,4,vertical,vertical,vertical,vertical
2a,4,100257,1,20,20,20,M,NA,variable,heterogeneous,4,present,1.09997916221619,1,vertical,vertical,1,5,green,2,3,980.31222920257,419.68777079743,619.68777079743,419.68777079743,980.31222920257,780.31222920257,980.31222920257,419.68777079743,619.68777079743,419.68777079743,619.68777079743,780.31222920257,0,4,5,6,horizontal,vertical,vertical,vertical
2a,4,100257,1,21,21,20,M,NA,variable,heterogeneous,4,absent,1.65829396247864,1,vertical,vertical,1,2,red,1,NaN,980.31222920257,780.31222920257,NaN,NaN,980.31222920257,780.31222920257,980.31222920257,419.68777079743,619.68777079743,419.68777079743,619.68777079743,780.31222920257,4,5,6,3,vertical,vertical,horizontal,vertical
2a,4,100257,1,22,22,20,M,NA,variable,heterogeneous,4,absent,0.875948190689087,1,vertical,vertical,1,5,green,1,NaN,980.31222920257,780.31222920257,NaN,NaN,980.31222920257,780.31222920257,980.31222920257,419.68777079743,619.68777079743,419.68777079743,619.68777079743,780.31222920257,4,0,6,5,vertical,horizontal,horizontal,vertical
2a,4,100257,1,23,23,20,M,NA,variable,heterogeneous,4,present,1.33752393722534,1,horizontal,horizontal,1,8,red,4,2,619.68777079743,780.31222920257,980.31222920257,419.68777079743,980.31222920257,780.31222920257,980.31222920257,419.68777079743,619.68777079743,419.68777079743,619.68777079743,780.31222920257,3,0,5,4,vertical,vertical,vertical,horizontal
2a,4,100257,1,24,24,20,M,NA,variable,heterogeneous,4,absent,1.69254803657532,1,vertical,vertical,1,5,green,4,NaN,619.68777079743,780.31222920257,NaN,NaN,980.31222920257,780.31222920257,980.31222920257,419.68777079743,619.68777079743,419.68777079743,619.68777079743,780.31222920257,0,6,5,4,vertical,vertical,horizontal,vertical
2a,4,100257,1,25,25,20,M,NA,variable,heterogeneous,4,absent,1.75855207443237,1,horizontal,horizontal,1,3,green,3,NaN,619.68777079743,419.68777079743,NaN,NaN,980.31222920257,780.31222920257,980.31222920257,419.68777079743,619.68777079743,419.68777079743,619.68777079743,780.31222920257,3,0,4,5,horizontal,vertical,horizontal,vertical
2a,4,100257,1,26,26,20,M,NA,variable,heterogeneous,4,present,1.92227411270142,1,horizontal,horizontal,1,5,green,2,3,980.31222920257,419.68777079743,619.68777079743,419.68777079743,980.31222920257,780.31222920257,980.31222920257,419.68777079743,619.68777079743,419.68777079743,619.68777079743,780.31222920257,0,4,5,6,horizontal,horizontal,vertical,horizontal
2a,4,100257,1,27,27,20,M,NA,variable,heterogeneous,4,present,1.75254893302917,0,horizontal,vertical,1,3,red,2,3,980.31222920257,419.68777079743,619.68777079743,419.68777079743,980.31222920257,780.31222920257,980.31222920257,419.68777079743,619.68777079743,419.68777079743,619.68777079743,780.31222920257,3,4,0,5,horizontal,horizontal,vertical,horizontal
2a,4,100257,1,28,28,20,M,NA,variable,heterogeneous,4,absent,1.7320191860199,1,horizontal,horizontal,1,5,green,4,NaN,619.68777079743,780.31222920257,NaN,NaN,980.31222920257,780.31222920257,980.31222920257,419.68777079743,619.68777079743,419.68777079743,619.68777079743,780.31222920257,3,0,5,4,vertical,vertical,vertical,horizontal
2a,4,100257,1,29,29,20,M,NA,variable,heterogeneous,4,absent,1.21501803398132,1,vertical,vertical,1,8,red,1,NaN,980.31222920257,780.31222920257,NaN,NaN,980.31222920257,780.31222920257,980.31222920257,419.68777079743,619.68777079743,419.68777079743,619.68777079743,780.31222920257,4,0,6,3,vertical,horizontal,horizontal,horizontal
2a,4,100257,1,30,30,20,M,NA,variable,heterogeneous,4,absent,1.23937487602234,1,vertical,vertical,1,2,red,1,NaN,980.31222920257,780.31222920257,NaN,NaN,980.31222920257,780.31222920257,980.31222920257,419.68777079743,619.68777079743,419.68777079743,619.68777079743,780.31222920257,4,0,6,3,vertical,vertical,horizontal,horizontal
2a,4,100257,1,31,31,20,M,NA,variable,heterogeneous,4,absent,1.20063805580139,1,vertical,vertical,1,2,green,3,NaN,619.68777079743,419.68777079743,NaN,NaN,980.31222920257,780.31222920257,980.31222920257,419.68777079743,619.68777079743,419.68777079743,619.68777079743,780.31222920257,3,0,4,5,vertical,vertical,vertical,horizontal
2a,4,100257,1,32,32,20,M,NA,variable,heterogeneous,4,present,1.30071711540222,1,vertical,vertical,1,2,green,2,1,980.31222920257,419.68777079743,980.31222920257,780.31222920257,980.31222920257,780.31222920257,980.31222920257,419.68777079743,619.68777079743,419.68777079743,619.68777079743,780.31222920257,5,4,0,3,horizontal,vertical,horizontal,horizontal
2a,4,100257,2,1,33,20,M,NA,variable,heterogeneous,4,present,1.86621689796448,1,vertical,vertical,1,3,red,2,3,980.31222920257,419.68777079743,619.68777079743,419.68777079743,980.31222920257,780.31222920257,980.31222920257,419.68777079743,619.68777079743,419.68777079743,619.68777079743,780.31222920257,6,4,0,5,vertical,vertical,vertical,vertical
2a,4,100257,2,2,34,20,M,NA,variable,heterogeneous,4,absent,0.74768590927124,1,vertical,vertical,1,8,green,2,NaN,980.31222920257,419.68777079743,NaN,NaN,980.31222920257,780.31222920257,980.31222920257,419.68777079743,619.68777079743,419.68777079743,619.68777079743,780.31222920257,6,4,5,0,vertical,vertical,vertical,horizontal
2a,4,100257,2,3,35,20,M,NA,variable,heterogeneous,4,absent,1.17892599105835,1,horizontal,horizontal,1,2,green,4,NaN,619.68777079743,780.31222920257,NaN,NaN,980.31222920257,780.31222920257,980.31222920257,419.68777079743,619.68777079743,419.68777079743,619.68777079743,780.31222920257,5,6,3,4,vertical,vertical,vertical,horizontal
2a,4,100257,2,4,36,20,M,NA,variable,heterogeneous,4,absent,1.10268402099609,1,horizontal,horizontal,1,3,red,4,NaN,619.68777079743,780.31222920257,NaN,NaN,980.31222920257,780.31222920257,980.31222920257,419.68777079743,619.68777079743,419.68777079743,619.68777079743,780.31222920257,0,5,6,4,horizontal,vertical,horizontal,horizontal
2a,4,100257,2,5,37,20,M,NA,variable,heterogeneous,4,present,0.973077058792114,1,vertical,vertical,1,2,green,1,4,980.31222920257,780.31222920257,619.68777079743,780.31222920257,980.31222920257,780.31222920257,980.31222920257,419.68777079743,619.68777079743,419.68777079743,619.68777079743,780.31222920257,4,6,0,3,vertical,vertical,horizontal,horizontal
2a,4,100257,2,6,38,20,M,NA,variable,heterogeneous,4,absent,1.36436700820923,1,horizontal,horizontal,1,5,green,3,NaN,619.68777079743,419.68777079743,NaN,NaN,980.31222920257,780.31222920257,980.31222920257,419.68777079743,619.68777079743,419.68777079743,619.68777079743,780.31222920257,6,5,4,0,vertical,horizontal,horizontal,vertical
2a,4,100257,2,7,39,20,M,NA,variable,heterogeneous,4,absent,1.17227792739868,1,vertical,vertical,1,5,red,3,NaN,619.68777079743,419.68777079743,NaN,NaN,980.31222920257,780.31222920257,980.31222920257,419.68777079743,619.68777079743,419.68777079743,619.68777079743,780.31222920257,0,5,4,3,vertical,vertical,vertical,vertical
2a,4,100257,2,8,40,20,M,NA,variable,heterogeneous,4,absent,NaN,0,horizontal,none,0,2,red,1,NaN,980.31222920257,780.31222920257,NaN,NaN,980.31222920257,780.31222920257,980.31222920257,419.68777079743,619.68777079743,419.68777079743,619.68777079743,780.31222920257,4,3,5,6,horizontal,horizontal,vertical,vertical
2a,4,100257,2,9,41,20,M,NA,variable,heterogeneous,4,present,1.36820006370544,1,horizontal,horizontal,1,2,red,3,2,619.68777079743,419.68777079743,980.31222920257,419.68777079743,980.31222920257,780.31222920257,980.31222920257,419.68777079743,619.68777079743,419.68777079743,619.68777079743,780.31222920257,3,5,4,6,vertical,horizontal,horizontal,vertical
2a,4,100257,2,10,42,20,M,NA,variable,heterogeneous,4,present,NaN,0,horizontal,none,0,5,green,2,1,980.31222920257,419.68777079743,980.31222920257,780.31222920257,980.31222920257,780.31222920257,980.31222920257,419.68777079743,619.68777079743,419.68777079743,619.68777079743,780.31222920257,0,4,6,5,vertical,horizontal,horizontal,vertical
2a,4,100257,2,11,43,20,M,NA,variable,heterogeneous,4,absent,1.45210719108582,1,horizontal,horizontal,1,5,green,1,NaN,980.31222920257,780.31222920257,NaN,NaN,980.31222920257,780.31222920257,980.31222920257,419.68777079743,619.68777079743,419.68777079743,619.68777079743,780.31222920257,4,0,3,6,horizontal,horizontal,vertical,vertical
2a,4,100257,2,12,44,20,M,NA,variable,heterogeneous,4,present,1.06545519828796,1,vertical,vertical,1,3,green,4,2,619.68777079743,780.31222920257,980.31222920257,419.68777079743,980.31222920257,780.31222920257,980.31222920257,419.68777079743,619.68777079743,419.68777079743,619.68777079743,780.31222920257,6,5,3,4,vertical,vertical,horizontal,vertical
2a,4,100257,2,13,45,20,M,NA,variable,heterogeneous,4,present,1.08291220664978,0,vertical,horizontal,1,8,red,3,4,619.68777079743,419.68777079743,619.68777079743,780.31222920257,980.31222920257,780.31222920257,980.31222920257,419.68777079743,619.68777079743,419.68777079743,619.68777079743,780.31222920257,0,3,4,6,horizontal,horizontal,vertical,vertical
2a,4,100257,2,14,46,20,M,NA,variable,heterogeneous,4,present,1.28497719764709,1,horizontal,horizontal,1,8,red,1,3,980.31222920257,780.31222920257,619.68777079743,419.68777079743,980.31222920257,780.31222920257,980.31222920257,419.68777079743,619.68777079743,419.68777079743,619.68777079743,780.31222920257,4,3,6,0,horizontal,vertical,vertical,horizontal
2a,4,100257,2,15,47,20,M,NA,variable,heterogeneous,4,absent,1.30292987823486,1,horizontal,horizontal,1,2,red,3,NaN,619.68777079743,419.68777079743,NaN,NaN,980.31222920257,780.31222920257,980.31222920257,419.68777079743,619.68777079743,419.68777079743,619.68777079743,780.31222920257,3,6,4,5,vertical,vertical,horizontal,vertical
2a,4,100257,2,16,48,20,M,NA,variable,heterogeneous,4,present,1.05314993858337,1,horizontal,horizontal,1,3,red,1,2,980.31222920257,780.31222920257,980.31222920257,419.68777079743,980.31222920257,780.31222920257,980.31222920257,419.68777079743,619.68777079743,419.68777079743,619.68777079743,780.31222920257,4,6,5,0,horizontal,vertical,vertical,horizontal
2a,4,100257,2,17,49,20,M,NA,variable,heterogeneous,4,present,0.994342088699341,1,horizontal,horizontal,1,5,red,1,3,980.31222920257,780.31222920257,619.68777079743,419.68777079743,980.31222920257,780.31222920257,980.31222920257,419.68777079743,619.68777079743,419.68777079743,619.68777079743,780.31222920257,4,3,5,0,horizontal,horizontal,horizontal,vertical
2a,4,100257,2,18,50,20,M,NA,variable,heterogeneous,4,present,1.07431101799011,1,horizontal,horizontal,1,2,red,4,3,619.68777079743,780.31222920257,619.68777079743,419.68777079743,980.31222920257,780.31222920257,980.31222920257,419.68777079743,619.68777079743,419.68777079743,619.68777079743,780.31222920257,0,5,6,4,horizontal,vertical,vertical,horizontal
2a,4,100257,2,19,51,20,M,NA,variable,heterogeneous,4,absent,0.680095911026001,1,vertical,vertical,1,5,green,1,NaN,980.31222920257,780.31222920257,NaN,NaN,980.31222920257,780.31222920257,980.31222920257,419.68777079743,619.68777079743,419.68777079743,619.68777079743,780.31222920257,4,5,0,3,vertical,vertical,horizontal,horizontal
2a,4,100257,2,20,52,20,M,NA,variable,heterogeneous,4,absent,0.853821992874146,1,vertical,vertical,1,3,green,1,NaN,980.31222920257,780.31222920257,NaN,NaN,980.31222920257,780.31222920257,980.31222920257,419.68777079743,619.68777079743,419.68777079743,619.68777079743,780.31222920257,4,3,6,0,vertical,horizontal,horizontal,vertical
2a,4,100257,2,21,53,20,M,NA,variable,heterogeneous,4,absent,0.987125873565674,1,horizontal,horizontal,1,3,red,3,NaN,619.68777079743,419.68777079743,NaN,NaN,980.31222920257,780.31222920257,980.31222920257,419.68777079743,619.68777079743,419.68777079743,619.68777079743,780.31222920257,0,3,4,5,vertical,vertical,horizontal,vertical
2a,4,100257,2,22,54,20,M,NA,variable,heterogeneous,4,present,1.02715492248535,1,horizontal,horizontal,1,2,red,2,4,980.31222920257,419.68777079743,619.68777079743,780.31222920257,980.31222920257,780.31222920257,980.31222920257,419.68777079743,619.68777079743,419.68777079743,619.68777079743,780.31222920257,3,4,6,0,horizontal,horizontal,vertical,horizontal
2a,4,100257,2,23,55,20,M,NA,variable,heterogeneous,4,absent,0.847928047180176,1,vertical,vertical,1,3,red,1,NaN,980.31222920257,780.31222920257,NaN,NaN,980.31222920257,780.31222920257,980.31222920257,419.68777079743,619.68777079743,419.68777079743,619.68777079743,780.31222920257,4,3,0,5,vertical,horizontal,horizontal,horizontal
2a,4,100257,2,24,56,20,M,NA,variable,heterogeneous,4,absent,1.16528797149658,1,vertical,vertical,1,2,green,2,NaN,980.31222920257,419.68777079743,NaN,NaN,980.31222920257,780.31222920257,980.31222920257,419.68777079743,619.68777079743,419.68777079743,619.68777079743,780.31222920257,0,4,5,3,horizontal,vertical,vertical,vertical
2a,4,100257,2,25,57,20,M,NA,variable,heterogeneous,4,present,0.924842834472656,0,vertical,horizontal,1,2,green,4,1,619.68777079743,780.31222920257,980.31222920257,780.31222920257,980.31222920257,780.31222920257,980.31222920257,419.68777079743,619.68777079743,419.68777079743,619.68777079743,780.31222920257,0,5,3,4,horizontal,horizontal,horizontal,vertical
2a,4,100257,2,26,58,20,M,NA,variable,heterogeneous,4,present,1.41146898269653,1,vertical,vertical,1,5,red,3,1,619.68777079743,419.68777079743,980.31222920257,780.31222920257,980.31222920257,780.31222920257,980.31222920257,419.68777079743,619.68777079743,419.68777079743,619.68777079743,780.31222920257,0,5,4,3,vertical,horizontal,vertical,vertical
2a,4,100257,2,27,59,20,M,NA,variable,heterogeneous,4,absent,1.14010214805603,1,horizontal,horizontal,1,8,green,2,NaN,980.31222920257,419.68777079743,NaN,NaN,980.31222920257,780.31222920257,980.31222920257,419.68777079743,619.68777079743,419.68777079743,619.68777079743,780.31222920257,0,4,3,6,vertical,horizontal,horizontal,vertical
2a,4,100257,2,28,60,20,M,NA,variable,heterogeneous,4,present,0.835336923599243,0,vertical,horizontal,1,5,green,3,4,619.68777079743,419.68777079743,619.68777079743,780.31222920257,980.31222920257,780.31222920257,980.31222920257,419.68777079743,619.68777079743,419.68777079743,619.68777079743,780.31222920257,5,3,4,0,horizontal,horizontal,vertical,horizontal
2a,4,100257,2,29,61,20,M,NA,variable,heterogeneous,4,present,1.66844701766968,1,horizontal,horizontal,1,3,red,1,3,980.31222920257,780.31222920257,619.68777079743,419.68777079743,980.31222920257,780.31222920257,980.31222920257,419.68777079743,619.68777079743,419.68777079743,619.68777079743,780.31222920257,4,3,6,5,horizontal,horizontal,horizontal,vertical
2a,4,100257,2,30,62,20,M,NA,variable,heterogeneous,4,present,0.853753805160522,1,vertical,vertical,1,2,red,2,1,980.31222920257,419.68777079743,980.31222920257,780.31222920257,980.31222920257,780.31222920257,980.31222920257,419.68777079743,619.68777079743,419.68777079743,619.68777079743,780.31222920257,5,4,6,0,horizontal,vertical,horizontal,vertical
2a,4,100257,2,31,63,20,M,NA,variable,heterogeneous,4,absent,1.147136926651,1,vertical,vertical,1,2,green,2,NaN,980.31222920257,419.68777079743,NaN,NaN,980.31222920257,780.31222920257,980.31222920257,419.68777079743,619.68777079743,419.68777079743,619.68777079743,780.31222920257,5,4,0,6,vertical,vertical,vertical,horizontal
2a,4,100257,2,32,64,20,M,NA,variable,heterogeneous,4,absent,0.70623517036438,1,vertical,vertical,1,2,green,2,NaN,980.31222920257,419.68777079743,NaN,NaN,980.31222920257,780.31222920257,980.31222920257,419.68777079743,619.68777079743,419.68777079743,619.68777079743,780.31222920257,6,4,3,5,horizontal,vertical,horizontal,horizontal
2a,4,100257,3,1,65,20,M,NA,variable,heterogeneous,4,absent,0.843858003616333,1,vertical,vertical,1,8,green,2,NaN,980.31222920257,419.68777079743,NaN,NaN,980.31222920257,780.31222920257,980.31222920257,419.68777079743,619.68777079743,419.68777079743,619.68777079743,780.31222920257,0,4,5,6,horizontal,vertical,vertical,horizontal
2a,4,100257,3,2,66,20,M,NA,variable,heterogeneous,4,present,1.60494899749756,0,horizontal,vertical,1,3,green,1,4,980.31222920257,780.31222920257,619.68777079743,780.31222920257,980.31222920257,780.31222920257,980.31222920257,419.68777079743,619.68777079743,419.68777079743,619.68777079743,780.31222920257,4,5,6,0,horizontal,vertical,horizontal,vertical
2a,4,100257,3,3,67,20,M,NA,variable,heterogeneous,4,absent,1.49733304977417,1,vertical,vertical,1,2,green,1,NaN,980.31222920257,780.31222920257,NaN,NaN,980.31222920257,780.31222920257,980.31222920257,419.68777079743,619.68777079743,419.68777079743,619.68777079743,780.31222920257,4,0,5,3,vertical,horizontal,horizontal,vertical
2a,4,100257,3,4,68,20,M,NA,variable,heterogeneous,4,present,1.03939914703369,1,vertical,vertical,1,2,green,4,1,619.68777079743,780.31222920257,980.31222920257,780.31222920257,980.31222920257,780.31222920257,980.31222920257,419.68777079743,619.68777079743,419.68777079743,619.68777079743,780.31222920257,6,5,0,4,vertical,horizontal,vertical,vertical
2a,4,100257,3,5,69,20,M,NA,variable,heterogeneous,4,present,1.49628114700317,1,horizontal,horizontal,1,5,red,2,4,980.31222920257,419.68777079743,619.68777079743,780.31222920257,980.31222920257,780.31222920257,980.31222920257,419.68777079743,619.68777079743,419.68777079743,619.68777079743,780.31222920257,6,4,5,0,horizontal,horizontal,vertical,vertical
2a,4,100257,3,6,70,20,M,NA,variable,heterogeneous,4,present,1.01472997665405,1,horizontal,horizontal,1,8,green,4,3,619.68777079743,780.31222920257,619.68777079743,419.68777079743,980.31222920257,780.31222920257,980.31222920257,419.68777079743,619.68777079743,419.68777079743,619.68777079743,780.31222920257,6,3,0,4,horizontal,horizontal,vertical,horizontal
2a,4,100257,3,7,71,20,M,NA,variable,heterogeneous,4,present,1.95117688179016,1,horizontal,horizontal,1,2,green,3,2,619.68777079743,419.68777079743,980.31222920257,419.68777079743,980.31222920257,780.31222920257,980.31222920257,419.68777079743,619.68777079743,419.68777079743,619.68777079743,780.31222920257,5,0,4,6,vertical,horizontal,horizontal,vertical
2a,4,100257,3,8,72,20,M,NA,variable,heterogeneous,4,present,1.23057985305786,1,horizontal,horizontal,1,5,green,3,1,619.68777079743,419.68777079743,980.31222920257,780.31222920257,980.31222920257,780.31222920257,980.31222920257,419.68777079743,619.68777079743,419.68777079743,619.68777079743,780.31222920257,3,5,4,0,horizontal,horizontal,horizontal,horizontal
2a,4,100257,3,9,73,20,M,NA,variable,heterogeneous,4,absent,1.01943612098694,1,horizontal,horizontal,1,5,green,4,NaN,619.68777079743,780.31222920257,NaN,NaN,980.31222920257,780.31222920257,980.31222920257,419.68777079743,619.68777079743,419.68777079743,619.68777079743,780.31222920257,0,3,5,4,horizontal,horizontal,horizontal,horizontal
2a,4,100257,3,10,74,20,M,NA,variable,heterogeneous,4,absent,1.09983801841736,1,vertical,vertical,1,5,green,2,NaN,980.31222920257,419.68777079743,NaN,NaN,980.31222920257,780.31222920257,980.31222920257,419.68777079743,619.68777079743,419.68777079743,619.68777079743,780.31222920257,6,4,3,0,vertical,vertical,horizontal,horizontal
2a,4,100257,3,11,75,20,M,NA,variable,heterogeneous,4,absent,1.25796794891357,1,vertical,vertical,1,2,red,4,NaN,619.68777079743,780.31222920257,NaN,NaN,980.31222920257,780.31222920257,980.31222920257,419.68777079743,619.68777079743,419.68777079743,619.68777079743,780.31222920257,5,6,0,4,vertical,vertical,horizontal,vertical
2a,4,100257,3,12,76,20,M,NA,variable,heterogeneous,4,absent,1.66751384735107,1,horizontal,horizontal,1,3,green,2,NaN,980.31222920257,419.68777079743,NaN,NaN,980.31222920257,780.31222920257,980.31222920257,419.68777079743,619.68777079743,419.68777079743,619.68777079743,780.31222920257,3,4,5,0,horizontal,horizontal,vertical,horizontal
2a,4,100257,3,13,77,20,M,NA,variable,heterogeneous,4,absent,1.36506319046021,0,horizontal,vertical,1,8,green,1,NaN,980.31222920257,780.31222920257,NaN,NaN,980.31222920257,780.31222920257,980.31222920257,419.68777079743,619.68777079743,419.68777079743,619.68777079743,780.31222920257,4,3,0,5,horizontal,horizontal,horizontal,vertical
2a,4,100257,3,14,78,20,M,NA,variable,heterogeneous,4,absent,0.892518997192383,1,horizontal,horizontal,1,2,green,1,NaN,980.31222920257,780.31222920257,NaN,NaN,980.31222920257,780.31222920257,980.31222920257,419.68777079743,619.68777079743,419.68777079743,619.68777079743,780.31222920257,4,3,6,5,horizontal,horizontal,vertical,vertical
2a,4,100257,3,15,79,20,M,NA,variable,heterogeneous,4,present,1.27849102020264,1,vertical,vertical,1,2,green,3,1,619.68777079743,419.68777079743,980.31222920257,780.31222920257,980.31222920257,780.31222920257,980.31222920257,419.68777079743,619.68777079743,419.68777079743,619.68777079743,780.31222920257,3,6,4,5,horizontal,horizontal,vertical,vertical
2a,4,100257,3,16,80,20,M,NA,variable,heterogeneous,4,absent,0.972253084182739,1,vertical,vertical,1,5,green,4,NaN,619.68777079743,780.31222920257,NaN,NaN,980.31222920257,780.31222920257,980.31222920257,419.68777079743,619.68777079743,419.68777079743,619.68777079743,780.31222920257,6,3,0,4,horizontal,vertical,horizontal,vertical
2a,4,100257,3,17,81,20,M,NA,variable,heterogeneous,4,present,0.97990894317627,0,vertical,horizontal,1,3,green,4,3,619.68777079743,780.31222920257,619.68777079743,419.68777079743,980.31222920257,780.31222920257,980.31222920257,419.68777079743,619.68777079743,419.68777079743,619.68777079743,780.31222920257,6,5,0,4,horizontal,horizontal,horizontal,vertical
2a,4,100257,3,18,82,20,M,NA,variable,heterogeneous,4,absent,1.24770188331604,1,vertical,vertical,1,3,red,2,NaN,980.31222920257,419.68777079743,NaN,NaN,980.31222920257,780.31222920257,980.31222920257,419.68777079743,619.68777079743,419.68777079743,619.68777079743,780.31222920257,5,4,0,6,vertical,vertical,vertical,vertical
2a,4,100257,3,19,83,20,M,NA,variable,heterogeneous,4,absent,0.893004894256592,1,horizontal,horizontal,1,2,green,1,NaN,980.31222920257,780.31222920257,NaN,NaN,980.31222920257,780.31222920257,980.31222920257,419.68777079743,619.68777079743,419.68777079743,619.68777079743,780.31222920257,4,0,6,5,horizontal,horizontal,horizontal,horizontal
2a,4,100257,3,20,84,20,M,NA,variable,heterogeneous,4,absent,1.02751111984253,1,vertical,vertical,1,3,red,1,NaN,980.31222920257,780.31222920257,NaN,NaN,980.31222920257,780.31222920257,980.31222920257,419.68777079743,619.68777079743,419.68777079743,619.68777079743,780.31222920257,4,0,6,3,vertical,horizontal,vertical,vertical
2a,4,100257,3,21,85,20,M,NA,variable,heterogeneous,4,present,0.951997041702271,1,vertical,vertical,1,3,red,3,1,619.68777079743,419.68777079743,980.31222920257,780.31222920257,980.31222920257,780.31222920257,980.31222920257,419.68777079743,619.68777079743,419.68777079743,619.68777079743,780.31222920257,3,6,4,0,horizontal,horizontal,vertical,horizontal
2a,4,100257,3,22,86,20,M,NA,variable,heterogeneous,4,absent,1.09138703346252,1,horizontal,horizontal,1,2,green,2,NaN,980.31222920257,419.68777079743,NaN,NaN,980.31222920257,780.31222920257,980.31222920257,419.68777079743,619.68777079743,419.68777079743,619.68777079743,780.31222920257,6,4,0,5,vertical,horizontal,horizontal,horizontal
2a,4,100257,3,23,87,20,M,NA,variable,heterogeneous,4,present,0.853446006774902,1,vertical,vertical,1,5,green,3,2,619.68777079743,419.68777079743,980.31222920257,419.68777079743,980.31222920257,780.31222920257,980.31222920257,419.68777079743,619.68777079743,419.68777079743,619.68777079743,780.31222920257,5,0,4,6,vertical,horizontal,vertical,vertical
2a,4,100257,3,24,88,20,M,NA,variable,heterogeneous,4,absent,0.610663890838623,1,vertical,vertical,1,2,green,3,NaN,619.68777079743,419.68777079743,NaN,NaN,980.31222920257,780.31222920257,980.31222920257,419.68777079743,619.68777079743,419.68777079743,619.68777079743,780.31222920257,5,3,4,6,horizontal,horizontal,vertical,vertical
2a,4,100257,3,25,89,20,M,NA,variable,heterogeneous,4,present,1.12322998046875,1,horizontal,horizontal,1,3,green,4,1,619.68777079743,780.31222920257,980.31222920257,780.31222920257,980.31222920257,780.31222920257,980.31222920257,419.68777079743,619.68777079743,419.68777079743,619.68777079743,780.31222920257,5,0,3,4,vertical,horizontal,vertical,horizontal
2a,4,100257,3,26,90,20,M,NA,variable,heterogeneous,4,absent,1.04181981086731,1,horizontal,horizontal,1,5,red,4,NaN,619.68777079743,780.31222920257,NaN,NaN,980.31222920257,780.31222920257,980.31222920257,419.68777079743,619.68777079743,419.68777079743,619.68777079743,780.31222920257,6,0,3,4,vertical,vertical,horizontal,horizontal
2a,4,100257,3,27,91,20,M,NA,variable,heterogeneous,4,absent,NaN,0,horizontal,none,0,3,red,1,NaN,980.31222920257,780.31222920257,NaN,NaN,980.31222920257,780.31222920257,980.31222920257,419.68777079743,619.68777079743,419.68777079743,619.68777079743,780.31222920257,4,6,5,3,horizontal,vertical,vertical,vertical
2a,4,100257,3,28,92,20,M,NA,variable,heterogeneous,4,present,1.33510112762451,1,vertical,vertical,1,8,green,2,3,980.31222920257,419.68777079743,619.68777079743,419.68777079743,980.31222920257,780.31222920257,980.31222920257,419.68777079743,619.68777079743,419.68777079743,619.68777079743,780.31222920257,0,4,6,3,vertical,vertical,vertical,horizontal
2a,4,100257,3,29,93,20,M,NA,variable,heterogeneous,4,present,1.06616306304932,1,horizontal,horizontal,1,2,green,2,3,980.31222920257,419.68777079743,619.68777079743,419.68777079743,980.31222920257,780.31222920257,980.31222920257,419.68777079743,619.68777079743,419.68777079743,619.68777079743,780.31222920257,0,4,6,3,vertical,horizontal,vertical,vertical
2a,4,100257,3,30,94,20,M,NA,variable,heterogeneous,4,present,0.891732215881348,0,vertical,horizontal,1,2,green,3,1,619.68777079743,419.68777079743,980.31222920257,780.31222920257,980.31222920257,780.31222920257,980.31222920257,419.68777079743,619.68777079743,419.68777079743,619.68777079743,780.31222920257,6,0,4,5,horizontal,horizontal,vertical,horizontal
2a,4,100257,3,31,95,20,M,NA,variable,heterogeneous,4,present,0.989524841308594,1,horizontal,horizontal,1,2,green,3,2,619.68777079743,419.68777079743,980.31222920257,419.68777079743,980.31222920257,780.31222920257,980.31222920257,419.68777079743,619.68777079743,419.68777079743,619.68777079743,780.31222920257,5,3,4,6,horizontal,vertical,horizontal,horizontal
2a,4,100257,3,32,96,20,M,NA,variable,heterogeneous,4,present,1.20543789863586,0,vertical,horizontal,1,5,green,4,1,619.68777079743,780.31222920257,980.31222920257,780.31222920257,980.31222920257,780.31222920257,980.31222920257,419.68777079743,619.68777079743,419.68777079743,619.68777079743,780.31222920257,0,3,5,4,vertical,horizontal,vertical,vertical
2a,4,100257,4,1,97,20,M,NA,variable,heterogeneous,4,absent,1.15818405151367,1,vertical,vertical,1,3,red,3,NaN,619.68777079743,419.68777079743,NaN,NaN,980.31222920257,780.31222920257,980.31222920257,419.68777079743,619.68777079743,419.68777079743,619.68777079743,780.31222920257,6,3,4,0,horizontal,horizontal,vertical,horizontal
2a,4,100257,4,2,98,20,M,NA,variable,heterogeneous,4,absent,0.985695123672485,1,horizontal,horizontal,1,2,green,3,NaN,619.68777079743,419.68777079743,NaN,NaN,980.31222920257,780.31222920257,980.31222920257,419.68777079743,619.68777079743,419.68777079743,619.68777079743,780.31222920257,6,5,4,0,vertical,vertical,horizontal,vertical
2a,4,100257,4,3,99,20,M,NA,variable,heterogeneous,4,absent,1.33351397514343,1,vertical,vertical,1,5,green,4,NaN,619.68777079743,780.31222920257,NaN,NaN,980.31222920257,780.31222920257,980.31222920257,419.68777079743,619.68777079743,419.68777079743,619.68777079743,780.31222920257,3,5,6,4,vertical,horizontal,vertical,vertical
2a,4,100257,4,4,100,20,M,NA,variable,heterogeneous,4,present,1.16037702560425,1,horizontal,horizontal,1,5,green,1,2,980.31222920257,780.31222920257,980.31222920257,419.68777079743,980.31222920257,780.31222920257,980.31222920257,419.68777079743,619.68777079743,419.68777079743,619.68777079743,780.31222920257,4,3,0,6,horizontal,horizontal,vertical,horizontal
2a,4,100257,4,5,101,20,M,NA,variable,heterogeneous,4,present,1.9957640171051,1,horizontal,horizontal,1,2,green,1,3,980.31222920257,780.31222920257,619.68777079743,419.68777079743,980.31222920257,780.31222920257,980.31222920257,419.68777079743,619.68777079743,419.68777079743,619.68777079743,780.31222920257,4,3,6,5,horizontal,vertical,horizontal,vertical
2a,4,100257,4,6,102,20,M,NA,variable,heterogeneous,4,absent,0.995909929275513,1,horizontal,horizontal,1,2,red,2,NaN,980.31222920257,419.68777079743,NaN,NaN,980.31222920257,780.31222920257,980.31222920257,419.68777079743,619.68777079743,419.68777079743,619.68777079743,780.31222920257,6,4,0,3,vertical,horizontal,vertical,horizontal
2a,4,100257,4,7,103,20,M,NA,variable,heterogeneous,4,present,1.4519350528717,1,vertical,vertical,1,2,green,1,4,980.31222920257,780.31222920257,619.68777079743,780.31222920257,980.31222920257,780.31222920257,980.31222920257,419.68777079743,619.68777079743,419.68777079743,619.68777079743,780.31222920257,4,5,3,0,vertical,vertical,vertical,vertical
2a,4,100257,4,8,104,20,M,NA,variable,heterogeneous,4,present,1.17722606658936,1,vertical,vertical,1,5,green,1,4,980.31222920257,780.31222920257,619.68777079743,780.31222920257,980.31222920257,780.31222920257,980.31222920257,419.68777079743,619.68777079743,419.68777079743,619.68777079743,780.31222920257,4,3,6,5,vertical,vertical,horizontal,vertical
2a,4,100257,4,9,105,20,M,NA,variable,heterogeneous,4,absent,0.780941009521484,1,horizontal,horizontal,1,3,red,3,NaN,619.68777079743,419.68777079743,NaN,NaN,980.31222920257,780.31222920257,980.31222920257,419.68777079743,619.68777079743,419.68777079743,619.68777079743,780.31222920257,3,0,4,6,horizontal,horizontal,horizontal,vertical
2a,4,100257,4,10,106,20,M,NA,variable,heterogeneous,4,present,1.15281200408936,1,horizontal,horizontal,1,5,red,1,4,980.31222920257,780.31222920257,619.68777079743,780.31222920257,980.31222920257,780.31222920257,980.31222920257,419.68777079743,619.68777079743,419.68777079743,619.68777079743,780.31222920257,4,5,6,3,horizontal,vertical,vertical,horizontal
2a,4,100257,4,11,107,20,M,NA,variable,heterogeneous,4,absent,0.988174915313721,1,horizontal,horizontal,1,5,green,4,NaN,619.68777079743,780.31222920257,NaN,NaN,980.31222920257,780.31222920257,980.31222920257,419.68777079743,619.68777079743,419.68777079743,619.68777079743,780.31222920257,3,6,5,4,vertical,vertical,horizontal,horizontal
2a,4,100257,4,12,108,20,M,NA,variable,heterogeneous,4,absent,1.07659101486206,1,vertical,vertical,1,2,green,3,NaN,619.68777079743,419.68777079743,NaN,NaN,980.31222920257,780.31222920257,980.31222920257,419.68777079743,619.68777079743,419.68777079743,619.68777079743,780.31222920257,5,3,4,0,vertical,horizontal,vertical,horizontal
2a,4,100257,4,13,109,20,M,NA,variable,heterogeneous,4,present,1.63412714004517,1,horizontal,horizontal,1,3,red,4,2,619.68777079743,780.31222920257,980.31222920257,419.68777079743,980.31222920257,780.31222920257,980.31222920257,419.68777079743,619.68777079743,419.68777079743,619.68777079743,780.31222920257,6,5,3,4,horizontal,vertical,horizontal,horizontal
2a,4,100257,4,14,110,20,M,NA,variable,heterogeneous,4,absent,1.08314895629883,1,horizontal,horizontal,1,8,red,1,NaN,980.31222920257,780.31222920257,NaN,NaN,980.31222920257,780.31222920257,980.31222920257,419.68777079743,619.68777079743,419.68777079743,619.68777079743,780.31222920257,4,3,6,5,horizontal,horizontal,horizontal,horizontal
2a,4,100257,4,15,111,20,M,NA,variable,heterogeneous,4,absent,1.15736198425293,1,horizontal,horizontal,1,3,red,4,NaN,619.68777079743,780.31222920257,NaN,NaN,980.31222920257,780.31222920257,980.31222920257,419.68777079743,619.68777079743,419.68777079743,619.68777079743,780.31222920257,3,0,6,4,vertical,vertical,horizontal,horizontal
2a,4,100257,4,16,112,20,M,NA,variable,heterogeneous,4,present,1.38446187973022,1,vertical,vertical,1,5,red,2,1,980.31222920257,419.68777079743,980.31222920257,780.31222920257,980.31222920257,780.31222920257,980.31222920257,419.68777079743,619.68777079743,419.68777079743,619.68777079743,780.31222920257,5,4,3,6,horizontal,vertical,horizontal,vertical
2a,4,100257,4,17,113,20,M,NA,variable,heterogeneous,4,present,0.652658939361572,1,vertical,vertical,1,8,green,2,1,980.31222920257,419.68777079743,980.31222920257,780.31222920257,980.31222920257,780.31222920257,980.31222920257,419.68777079743,619.68777079743,419.68777079743,619.68777079743,780.31222920257,3,4,0,6,horizontal,vertical,horizontal,vertical
2a,4,100257,4,18,114,20,M,NA,variable,heterogeneous,4,present,0.857978105545044,1,vertical,vertical,1,3,red,1,2,980.31222920257,780.31222920257,980.31222920257,419.68777079743,980.31222920257,780.31222920257,980.31222920257,419.68777079743,619.68777079743,419.68777079743,619.68777079743,780.31222920257,4,5,6,0,vertical,vertical,vertical,horizontal
2a,4,100257,4,19,115,20,M,NA,variable,heterogeneous,4,present,1.14707779884338,1,horizontal,horizontal,1,2,green,3,1,619.68777079743,419.68777079743,980.31222920257,780.31222920257,980.31222920257,780.31222920257,980.31222920257,419.68777079743,619.68777079743,419.68777079743,619.68777079743,780.31222920257,3,5,4,0,horizontal,horizontal,horizontal,vertical
2a,4,100257,4,20,116,20,M,NA,variable,heterogeneous,4,present,1.59455299377441,1,horizontal,horizontal,1,2,red,4,2,619.68777079743,780.31222920257,980.31222920257,419.68777079743,980.31222920257,780.31222920257,980.31222920257,419.68777079743,619.68777079743,419.68777079743,619.68777079743,780.31222920257,3,5,0,4,horizontal,vertical,vertical,horizontal
2a,4,100257,4,21,117,20,M,NA,variable,heterogeneous,4,present,1.37051296234131,1,horizontal,horizontal,1,3,red,3,2,619.68777079743,419.68777079743,980.31222920257,419.68777079743,980.31222920257,780.31222920257,980.31222920257,419.68777079743,619.68777079743,419.68777079743,619.68777079743,780.31222920257,5,3,4,0,vertical,vertical,horizontal,horizontal
2a,4,100257,4,22,118,20,M,NA,variable,heterogeneous,4,absent,0.794049978256226,1,vertical,vertical,1,5,green,2,NaN,980.31222920257,419.68777079743,NaN,NaN,980.31222920257,780.31222920257,980.31222920257,419.68777079743,619.68777079743,419.68777079743,619.68777079743,780.31222920257,3,4,6,0,vertical,vertical,vertical,horizontal
2a,4,100257,4,23,119,20,M,NA,variable,heterogeneous,4,absent,1.48198199272156,1,horizontal,horizontal,1,5,green,2,NaN,980.31222920257,419.68777079743,NaN,NaN,980.31222920257,780.31222920257,980.31222920257,419.68777079743,619.68777079743,419.68777079743,619.68777079743,780.31222920257,0,4,5,3,horizontal,horizontal,horizontal,vertical
2a,4,100257,4,24,120,20,M,NA,variable,heterogeneous,4,present,1.36413812637329,1,horizontal,horizontal,1,8,red,1,4,980.31222920257,780.31222920257,619.68777079743,780.31222920257,980.31222920257,780.31222920257,980.31222920257,419.68777079743,619.68777079743,419.68777079743,619.68777079743,780.31222920257,4,6,0,5,horizontal,horizontal,horizontal,horizontal
2a,4,100257,4,25,121,20,M,NA,variable,heterogeneous,4,absent,1.451740026474,1,vertical,vertical,1,2,red,2,NaN,980.31222920257,419.68777079743,NaN,NaN,980.31222920257,780.31222920257,980.31222920257,419.68777079743,619.68777079743,419.68777079743,619.68777079743,780.31222920257,0,4,3,6,horizontal,vertical,vertical,horizontal
2a,4,100257,4,26,122,20,M,NA,variable,heterogeneous,4,present,0.73704981803894,1,vertical,vertical,1,3,green,2,1,980.31222920257,419.68777079743,980.31222920257,780.31222920257,980.31222920257,780.31222920257,980.31222920257,419.68777079743,619.68777079743,419.68777079743,619.68777079743,780.31222920257,5,4,0,6,horizontal,vertical,vertical,vertical
2a,4,100257,4,27,123,20,M,NA,variable,heterogeneous,4,present,1.51602292060852,1,vertical,vertical,1,2,green,1,2,980.31222920257,780.31222920257,980.31222920257,419.68777079743,980.31222920257,780.31222920257,980.31222920257,419.68777079743,619.68777079743,419.68777079743,619.68777079743,780.31222920257,4,6,3,0,vertical,vertical,vertical,vertical
2a,4,100257,4,28,124,20,M,NA,variable,heterogeneous,4,absent,0.902472972869873,1,vertical,vertical,1,8,red,3,NaN,619.68777079743,419.68777079743,NaN,NaN,980.31222920257,780.31222920257,980.31222920257,419.68777079743,619.68777079743,419.68777079743,619.68777079743,780.31222920257,5,3,4,6,horizontal,vertical,vertical,vertical
2a,4,100257,4,29,125,20,M,NA,variable,heterogeneous,4,absent,0.676656007766724,1,vertical,vertical,1,2,red,3,NaN,619.68777079743,419.68777079743,NaN,NaN,980.31222920257,780.31222920257,980.31222920257,419.68777079743,619.68777079743,419.68777079743,619.68777079743,780.31222920257,6,3,4,5,vertical,horizontal,vertical,vertical
2a,4,100257,4,30,126,20,M,NA,variable,heterogeneous,4,present,1.29031801223755,1,vertical,vertical,1,2,green,1,4,980.31222920257,780.31222920257,619.68777079743,780.31222920257,980.31222920257,780.31222920257,980.31222920257,419.68777079743,619.68777079743,419.68777079743,619.68777079743,780.31222920257,4,3,0,5,vertical,vertical,horizontal,vertical
2a,4,100257,4,31,127,20,M,NA,variable,heterogeneous,4,absent,0.852112054824829,1,vertical,vertical,1,3,red,3,NaN,619.68777079743,419.68777079743,NaN,NaN,980.31222920257,780.31222920257,980.31222920257,419.68777079743,619.68777079743,419.68777079743,619.68777079743,780.31222920257,5,0,4,6,vertical,vertical,vertical,vertical
2a,4,100257,4,32,128,20,M,NA,variable,heterogeneous,4,absent,1.17774701118469,1,horizontal,horizontal,1,2,red,4,NaN,619.68777079743,780.31222920257,NaN,NaN,980.31222920257,780.31222920257,980.31222920257,419.68777079743,619.68777079743,419.68777079743,619.68777079743,780.31222920257,5,3,0,4,vertical,vertical,vertical,horizontal
2a,4,100257,5,1,129,20,M,NA,variable,heterogeneous,4,absent,1.3978271484375,1,horizontal,horizontal,1,3,green,4,NaN,619.68777079743,780.31222920257,NaN,NaN,980.31222920257,780.31222920257,980.31222920257,419.68777079743,619.68777079743,419.68777079743,619.68777079743,780.31222920257,6,0,3,4,horizontal,vertical,vertical,horizontal
2a,4,100257,5,2,130,20,M,NA,variable,heterogeneous,4,present,0.933902978897095,1,vertical,vertical,1,2,green,2,3,980.31222920257,419.68777079743,619.68777079743,419.68777079743,980.31222920257,780.31222920257,980.31222920257,419.68777079743,619.68777079743,419.68777079743,619.68777079743,780.31222920257,6,4,5,0,vertical,vertical,horizontal,horizontal
2a,4,100257,5,3,131,20,M,NA,variable,heterogeneous,4,absent,1.66486310958862,1,vertical,vertical,1,2,red,4,NaN,619.68777079743,780.31222920257,NaN,NaN,980.31222920257,780.31222920257,980.31222920257,419.68777079743,619.68777079743,419.68777079743,619.68777079743,780.31222920257,6,5,3,4,horizontal,horizontal,horizontal,vertical
2a,4,100257,5,4,132,20,M,NA,variable,heterogeneous,4,present,1.05835604667664,1,vertical,vertical,1,2,green,4,1,619.68777079743,780.31222920257,980.31222920257,780.31222920257,980.31222920257,780.31222920257,980.31222920257,419.68777079743,619.68777079743,419.68777079743,619.68777079743,780.31222920257,0,3,5,4,vertical,vertical,horizontal,vertical
2a,4,100257,5,5,133,20,M,NA,variable,heterogeneous,4,absent,1.07572913169861,1,vertical,vertical,1,5,red,4,NaN,619.68777079743,780.31222920257,NaN,NaN,980.31222920257,780.31222920257,980.31222920257,419.68777079743,619.68777079743,419.68777079743,619.68777079743,780.31222920257,5,0,6,4,vertical,horizontal,vertical,vertical
2a,4,100257,5,6,134,20,M,NA,variable,heterogeneous,4,present,1.59339308738708,1,vertical,vertical,1,5,red,1,4,980.31222920257,780.31222920257,619.68777079743,780.31222920257,980.31222920257,780.31222920257,980.31222920257,419.68777079743,619.68777079743,419.68777079743,619.68777079743,780.31222920257,4,3,6,5,vertical,vertical,horizontal,horizontal
2a,4,100257,5,7,135,20,M,NA,variable,heterogeneous,4,present,1.17770290374756,1,horizontal,horizontal,1,2,green,3,2,619.68777079743,419.68777079743,980.31222920257,419.68777079743,980.31222920257,780.31222920257,980.31222920257,419.68777079743,619.68777079743,419.68777079743,619.68777079743,780.31222920257,3,5,4,0,horizontal,vertical,horizontal,vertical
2a,4,100257,5,8,136,20,M,NA,variable,heterogeneous,4,present,1.66170907020569,1,horizontal,horizontal,1,3,red,2,4,980.31222920257,419.68777079743,619.68777079743,780.31222920257,980.31222920257,780.31222920257,980.31222920257,419.68777079743,619.68777079743,419.68777079743,619.68777079743,780.31222920257,6,4,0,3,horizontal,horizontal,horizontal,horizontal
2a,4,100257,5,9,137,20,M,NA,variable,heterogeneous,4,absent,0.927209854125977,1,vertical,vertical,1,8,red,3,NaN,619.68777079743,419.68777079743,NaN,NaN,980.31222920257,780.31222920257,980.31222920257,419.68777079743,619.68777079743,419.68777079743,619.68777079743,780.31222920257,0,5,4,6,horizontal,vertical,vertical,horizontal
2a,4,100257,5,10,138,20,M,NA,variable,heterogeneous,4,present,1.23772120475769,1,horizontal,horizontal,1,5,green,1,3,980.31222920257,780.31222920257,619.68777079743,419.68777079743,980.31222920257,780.31222920257,980.31222920257,419.68777079743,619.68777079743,419.68777079743,619.68777079743,780.31222920257,4,6,5,0,horizontal,vertical,horizontal,vertical
2a,4,100257,5,11,139,20,M,NA,variable,heterogeneous,4,present,1.30281686782837,1,vertical,vertical,1,8,green,1,2,980.31222920257,780.31222920257,980.31222920257,419.68777079743,980.31222920257,780.31222920257,980.31222920257,419.68777079743,619.68777079743,419.68777079743,619.68777079743,780.31222920257,4,0,3,5,vertical,vertical,vertical,vertical
2a,4,100257,5,12,140,20,M,NA,variable,heterogeneous,4,present,1.02090716362,1,horizontal,horizontal,1,2,green,4,3,619.68777079743,780.31222920257,619.68777079743,419.68777079743,980.31222920257,780.31222920257,980.31222920257,419.68777079743,619.68777079743,419.68777079743,619.68777079743,780.31222920257,3,6,0,4,vertical,horizontal,vertical,horizontal
2a,4,100257,5,13,141,20,M,NA,variable,heterogeneous,4,present,1.2375020980835,1,horizontal,horizontal,1,2,red,3,4,619.68777079743,419.68777079743,619.68777079743,780.31222920257,980.31222920257,780.31222920257,980.31222920257,419.68777079743,619.68777079743,419.68777079743,619.68777079743,780.31222920257,3,5,4,0,horizontal,vertical,horizontal,vertical
2a,4,100257,5,14,142,20,M,NA,variable,heterogeneous,4,absent,0.98275899887085,1,horizontal,horizontal,1,8,green,3,NaN,619.68777079743,419.68777079743,NaN,NaN,980.31222920257,780.31222920257,980.31222920257,419.68777079743,619.68777079743,419.68777079743,619.68777079743,780.31222920257,3,0,4,6,vertical,vertical,horizontal,vertical
2a,4,100257,5,15,143,20,M,NA,variable,heterogeneous,4,present,1.27442288398743,1,horizontal,horizontal,1,8,red,2,3,980.31222920257,419.68777079743,619.68777079743,419.68777079743,980.31222920257,780.31222920257,980.31222920257,419.68777079743,619.68777079743,419.68777079743,619.68777079743,780.31222920257,6,4,5,0,vertical,horizontal,vertical,horizontal
2a,4,100257,5,16,144,20,M,NA,variable,heterogeneous,4,present,0.728107929229736,1,vertical,vertical,1,2,green,2,1,980.31222920257,419.68777079743,980.31222920257,780.31222920257,980.31222920257,780.31222920257,980.31222920257,419.68777079743,619.68777079743,419.68777079743,619.68777079743,780.31222920257,3,4,0,6,vertical,vertical,horizontal,vertical
2a,4,100257,5,17,145,20,M,NA,variable,heterogeneous,4,present,1.07542300224304,1,horizontal,horizontal,1,3,red,3,4,619.68777079743,419.68777079743,619.68777079743,780.31222920257,980.31222920257,780.31222920257,980.31222920257,419.68777079743,619.68777079743,419.68777079743,619.68777079743,780.31222920257,0,5,4,6,vertical,vertical,horizontal,vertical
2a,4,100257,5,18,146,20,M,NA,variable,heterogeneous,4,absent,0.656845092773438,0,vertical,horizontal,1,3,red,3,NaN,619.68777079743,419.68777079743,NaN,NaN,980.31222920257,780.31222920257,980.31222920257,419.68777079743,619.68777079743,419.68777079743,619.68777079743,780.31222920257,0,6,4,3,horizontal,vertical,vertical,horizontal
2a,4,100257,5,19,147,20,M,NA,variable,heterogeneous,4,present,0.934106111526489,1,vertical,vertical,1,3,red,1,3,980.31222920257,780.31222920257,619.68777079743,419.68777079743,980.31222920257,780.31222920257,980.31222920257,419.68777079743,619.68777079743,419.68777079743,619.68777079743,780.31222920257,4,6,0,5,vertical,horizontal,vertical,horizontal
2a,4,100257,5,20,148,20,M,NA,variable,heterogeneous,4,absent,0.737259149551392,1,horizontal,horizontal,1,5,green,2,NaN,980.31222920257,419.68777079743,NaN,NaN,980.31222920257,780.31222920257,980.31222920257,419.68777079743,619.68777079743,419.68777079743,619.68777079743,780.31222920257,6,4,0,5,vertical,horizontal,horizontal,vertical
2a,4,100257,5,21,149,20,M,NA,variable,heterogeneous,4,absent,1.75592589378357,1,horizontal,horizontal,1,3,green,1,NaN,980.31222920257,780.31222920257,NaN,NaN,980.31222920257,780.31222920257,980.31222920257,419.68777079743,619.68777079743,419.68777079743,619.68777079743,780.31222920257,4,3,6,0,horizontal,horizontal,vertical,horizontal
2a,4,100257,5,22,150,20,M,NA,variable,heterogeneous,4,present,0.86324405670166,1,vertical,vertical,1,5,red,3,1,619.68777079743,419.68777079743,980.31222920257,780.31222920257,980.31222920257,780.31222920257,980.31222920257,419.68777079743,619.68777079743,419.68777079743,619.68777079743,780.31222920257,0,3,4,6,vertical,horizontal,vertical,vertical
2a,4,100257,5,23,151,20,M,NA,variable,heterogeneous,4,absent,1.55295300483704,1,horizontal,horizontal,1,5,green,2,NaN,980.31222920257,419.68777079743,NaN,NaN,980.31222920257,780.31222920257,980.31222920257,419.68777079743,619.68777079743,419.68777079743,619.68777079743,780.31222920257,3,4,6,5,horizontal,horizontal,horizontal,horizontal
2a,4,100257,5,24,152,20,M,NA,variable,heterogeneous,4,absent,1.10841512680054,1,vertical,vertical,1,5,red,3,NaN,619.68777079743,419.68777079743,NaN,NaN,980.31222920257,780.31222920257,980.31222920257,419.68777079743,619.68777079743,419.68777079743,619.68777079743,780.31222920257,6,0,4,5,vertical,vertical,vertical,vertical
2a,4,100257,5,25,153,20,M,NA,variable,heterogeneous,4,present,1.21470189094543,1,vertical,vertical,1,3,green,4,3,619.68777079743,780.31222920257,619.68777079743,419.68777079743,980.31222920257,780.31222920257,980.31222920257,419.68777079743,619.68777079743,419.68777079743,619.68777079743,780.31222920257,5,0,6,4,vertical,horizontal,horizontal,vertical
2a,4,100257,5,26,154,20,M,NA,variable,heterogeneous,4,absent,NaN,0,horizontal,none,0,2,red,1,NaN,980.31222920257,780.31222920257,NaN,NaN,980.31222920257,780.31222920257,980.31222920257,419.68777079743,619.68777079743,419.68777079743,619.68777079743,780.31222920257,4,0,5,3,horizontal,horizontal,vertical,vertical
2a,4,100257,5,27,155,20,M,NA,variable,heterogeneous,4,absent,1.09157586097717,1,horizontal,horizontal,1,2,red,3,NaN,619.68777079743,419.68777079743,NaN,NaN,980.31222920257,780.31222920257,980.31222920257,419.68777079743,619.68777079743,419.68777079743,619.68777079743,780.31222920257,5,3,4,0,horizontal,horizontal,horizontal,vertical
2a,4,100257,5,28,156,20,M,NA,variable,heterogeneous,4,present,1.0934751033783,1,horizontal,horizontal,1,5,green,1,4,980.31222920257,780.31222920257,619.68777079743,780.31222920257,980.31222920257,780.31222920257,980.31222920257,419.68777079743,619.68777079743,419.68777079743,619.68777079743,780.31222920257,4,0,3,6,horizontal,horizontal,horizontal,vertical
2a,4,100257,5,29,157,20,M,NA,variable,heterogeneous,4,absent,0.955693006515503,1,horizontal,horizontal,1,2,green,4,NaN,619.68777079743,780.31222920257,NaN,NaN,980.31222920257,780.31222920257,980.31222920257,419.68777079743,619.68777079743,419.68777079743,619.68777079743,780.31222920257,6,3,5,4,horizontal,horizontal,horizontal,horizontal
2a,4,100257,5,30,158,20,M,NA,variable,heterogeneous,4,absent,0.727074861526489,1,vertical,vertical,1,2,red,1,NaN,980.31222920257,780.31222920257,NaN,NaN,980.31222920257,780.31222920257,980.31222920257,419.68777079743,619.68777079743,419.68777079743,619.68777079743,780.31222920257,4,3,5,0,vertical,vertical,horizontal,horizontal
2a,4,100257,5,31,159,20,M,NA,variable,heterogeneous,4,absent,1.03768491744995,1,vertical,vertical,1,3,green,2,NaN,980.31222920257,419.68777079743,NaN,NaN,980.31222920257,780.31222920257,980.31222920257,419.68777079743,619.68777079743,419.68777079743,619.68777079743,780.31222920257,0,4,3,6,horizontal,vertical,horizontal,horizontal
2a,4,100257,5,32,160,20,M,NA,variable,heterogeneous,4,absent,1.21471691131592,1,vertical,vertical,1,2,red,3,NaN,619.68777079743,419.68777079743,NaN,NaN,980.31222920257,780.31222920257,980.31222920257,419.68777079743,619.68777079743,419.68777079743,619.68777079743,780.31222920257,6,3,4,5,vertical,horizontal,vertical,horizontal
2a,4,100257,6,1,161,20,M,NA,variable,heterogeneous,4,present,0.797047853469849,1,horizontal,horizontal,1,5,green,3,1,619.68777079743,419.68777079743,980.31222920257,780.31222920257,980.31222920257,780.31222920257,980.31222920257,419.68777079743,619.68777079743,419.68777079743,619.68777079743,780.31222920257,6,3,4,5,vertical,horizontal,horizontal,vertical
2a,4,100257,6,2,162,20,M,NA,variable,heterogeneous,4,absent,1.01296782493591,1,horizontal,horizontal,1,2,green,2,NaN,980.31222920257,419.68777079743,NaN,NaN,980.31222920257,780.31222920257,980.31222920257,419.68777079743,619.68777079743,419.68777079743,619.68777079743,780.31222920257,0,4,5,6,horizontal,horizontal,horizontal,vertical
2a,4,100257,6,3,163,20,M,NA,variable,heterogeneous,4,present,0.637639999389648,1,vertical,vertical,1,5,green,1,4,980.31222920257,780.31222920257,619.68777079743,780.31222920257,980.31222920257,780.31222920257,980.31222920257,419.68777079743,619.68777079743,419.68777079743,619.68777079743,780.31222920257,4,0,5,6,vertical,horizontal,horizontal,horizontal
2a,4,100257,6,4,164,20,M,NA,variable,heterogeneous,4,present,1.60670900344849,1,horizontal,horizontal,1,2,green,1,3,980.31222920257,780.31222920257,619.68777079743,419.68777079743,980.31222920257,780.31222920257,980.31222920257,419.68777079743,619.68777079743,419.68777079743,619.68777079743,780.31222920257,4,5,0,6,horizontal,vertical,vertical,vertical
2a,4,100257,6,5,165,20,M,NA,variable,heterogeneous,4,absent,1.19491696357727,1,horizontal,horizontal,1,5,red,2,NaN,980.31222920257,419.68777079743,NaN,NaN,980.31222920257,780.31222920257,980.31222920257,419.68777079743,619.68777079743,419.68777079743,619.68777079743,780.31222920257,3,4,5,0,horizontal,horizontal,vertical,horizontal
2a,4,100257,6,6,166,20,M,NA,variable,heterogeneous,4,absent,0.667246103286743,1,vertical,vertical,1,5,green,3,NaN,619.68777079743,419.68777079743,NaN,NaN,980.31222920257,780.31222920257,980.31222920257,419.68777079743,619.68777079743,419.68777079743,619.68777079743,780.31222920257,5,6,4,3,horizontal,horizontal,vertical,horizontal
2a,4,100257,6,7,167,20,M,NA,variable,heterogeneous,4,present,1.03682112693787,1,horizontal,horizontal,1,8,red,4,1,619.68777079743,780.31222920257,980.31222920257,780.31222920257,980.31222920257,780.31222920257,980.31222920257,419.68777079743,619.68777079743,419.68777079743,619.68777079743,780.31222920257,6,0,3,4,horizontal,vertical,horizontal,horizontal
2a,4,100257,6,8,168,20,M,NA,variable,heterogeneous,4,present,0.958033084869385,0,vertical,horizontal,1,5,green,4,3,619.68777079743,780.31222920257,619.68777079743,419.68777079743,980.31222920257,780.31222920257,980.31222920257,419.68777079743,619.68777079743,419.68777079743,619.68777079743,780.31222920257,0,3,5,4,horizontal,horizontal,horizontal,vertical
2a,4,100257,6,9,169,20,M,NA,variable,heterogeneous,4,present,1.36129021644592,1,horizontal,horizontal,1,3,red,2,4,980.31222920257,419.68777079743,619.68777079743,780.31222920257,980.31222920257,780.31222920257,980.31222920257,419.68777079743,619.68777079743,419.68777079743,619.68777079743,780.31222920257,6,4,3,5,vertical,horizontal,vertical,vertical
2a,4,100257,6,10,170,20,M,NA,variable,heterogeneous,4,present,0.884561777114868,1,vertical,vertical,1,2,red,4,3,619.68777079743,780.31222920257,619.68777079743,419.68777079743,980.31222920257,780.31222920257,980.31222920257,419.68777079743,619.68777079743,419.68777079743,619.68777079743,780.31222920257,6,5,3,4,horizontal,horizontal,horizontal,vertical
2a,4,100257,6,11,171,20,M,NA,variable,heterogeneous,4,present,1.09471297264099,1,vertical,vertical,1,8,green,2,4,980.31222920257,419.68777079743,619.68777079743,780.31222920257,980.31222920257,780.31222920257,980.31222920257,419.68777079743,619.68777079743,419.68777079743,619.68777079743,780.31222920257,5,4,3,0,horizontal,vertical,vertical,horizontal
2a,4,100257,6,12,172,20,M,NA,variable,heterogeneous,4,absent,0.94891095161438,1,vertical,vertical,1,2,red,1,NaN,980.31222920257,780.31222920257,NaN,NaN,980.31222920257,780.31222920257,980.31222920257,419.68777079743,619.68777079743,419.68777079743,619.68777079743,780.31222920257,4,5,6,3,vertical,vertical,vertical,vertical
2a,4,100257,6,13,173,20,M,NA,variable,heterogeneous,4,present,1.2277557849884,1,horizontal,horizontal,1,2,red,4,2,619.68777079743,780.31222920257,980.31222920257,419.68777079743,980.31222920257,780.31222920257,980.31222920257,419.68777079743,619.68777079743,419.68777079743,619.68777079743,780.31222920257,3,6,5,4,horizontal,horizontal,vertical,horizontal
2a,4,100257,6,14,174,20,M,NA,variable,heterogeneous,4,present,0.664621114730835,1,vertical,vertical,1,2,green,2,3,980.31222920257,419.68777079743,619.68777079743,419.68777079743,980.31222920257,780.31222920257,980.31222920257,419.68777079743,619.68777079743,419.68777079743,619.68777079743,780.31222920257,5,4,0,3,vertical,vertical,horizontal,horizontal
2a,4,100257,6,15,175,20,M,NA,variable,heterogeneous,4,absent,0.890208005905151,1,vertical,vertical,1,3,red,2,NaN,980.31222920257,419.68777079743,NaN,NaN,980.31222920257,780.31222920257,980.31222920257,419.68777079743,619.68777079743,419.68777079743,619.68777079743,780.31222920257,0,4,3,5,vertical,vertical,horizontal,horizontal
2a,4,100257,6,16,176,20,M,NA,variable,heterogeneous,4,absent,0.779860019683838,1,vertical,vertical,1,3,green,1,NaN,980.31222920257,780.31222920257,NaN,NaN,980.31222920257,780.31222920257,980.31222920257,419.68777079743,619.68777079743,419.68777079743,619.68777079743,780.31222920257,4,6,5,3,vertical,vertical,horizontal,vertical
2a,4,100257,6,17,177,20,M,NA,variable,heterogeneous,4,absent,1.34394407272339,1,horizontal,horizontal,1,5,green,4,NaN,619.68777079743,780.31222920257,NaN,NaN,980.31222920257,780.31222920257,980.31222920257,419.68777079743,619.68777079743,419.68777079743,619.68777079743,780.31222920257,6,0,3,4,vertical,vertical,vertical,horizontal
2a,4,100257,6,18,178,20,M,NA,variable,heterogeneous,4,absent,1.00711607933044,1,horizontal,horizontal,1,3,red,2,NaN,980.31222920257,419.68777079743,NaN,NaN,980.31222920257,780.31222920257,980.31222920257,419.68777079743,619.68777079743,419.68777079743,619.68777079743,780.31222920257,0,4,6,3,vertical,horizontal,horizontal,vertical
2a,4,100257,6,19,179,20,M,NA,variable,heterogeneous,4,absent,1.31525206565857,1,horizontal,horizontal,1,8,red,4,NaN,619.68777079743,780.31222920257,NaN,NaN,980.31222920257,780.31222920257,980.31222920257,419.68777079743,619.68777079743,419.68777079743,619.68777079743,780.31222920257,5,6,3,4,vertical,horizontal,horizontal,horizontal
2a,4,100257,6,20,180,20,M,NA,variable,heterogeneous,4,present,1.05375909805298,1,horizontal,horizontal,1,2,green,4,1,619.68777079743,780.31222920257,980.31222920257,780.31222920257,980.31222920257,780.31222920257,980.31222920257,419.68777079743,619.68777079743,419.68777079743,619.68777079743,780.31222920257,0,3,6,4,vertical,vertical,vertical,horizontal
2a,4,100257,6,21,181,20,M,NA,variable,heterogeneous,4,absent,0.819159984588623,1,horizontal,horizontal,1,2,red,4,NaN,619.68777079743,780.31222920257,NaN,NaN,980.31222920257,780.31222920257,980.31222920257,419.68777079743,619.68777079743,419.68777079743,619.68777079743,780.31222920257,5,3,0,4,vertical,horizontal,horizontal,horizontal
2a,4,100257,6,22,182,20,M,NA,variable,heterogeneous,4,present,0.707732200622559,1,vertical,vertical,1,2,green,1,3,980.31222920257,780.31222920257,619.68777079743,419.68777079743,980.31222920257,780.31222920257,980.31222920257,419.68777079743,619.68777079743,419.68777079743,619.68777079743,780.31222920257,4,6,3,0,vertical,horizontal,vertical,vertical
2a,4,100257,6,23,183,20,M,NA,variable,heterogeneous,4,absent,0.862040996551514,1,horizontal,horizontal,1,3,green,4,NaN,619.68777079743,780.31222920257,NaN,NaN,980.31222920257,780.31222920257,980.31222920257,419.68777079743,619.68777079743,419.68777079743,619.68777079743,780.31222920257,3,0,5,4,horizontal,horizontal,horizontal,horizontal
2a,4,100257,6,24,184,20,M,NA,variable,heterogeneous,4,absent,0.735720872879028,1,vertical,vertical,1,8,green,1,NaN,980.31222920257,780.31222920257,NaN,NaN,980.31222920257,780.31222920257,980.31222920257,419.68777079743,619.68777079743,419.68777079743,619.68777079743,780.31222920257,4,0,5,6,vertical,vertical,horizontal,vertical
2a,4,100257,6,25,185,20,M,NA,variable,heterogeneous,4,present,1.11455202102661,1,vertical,vertical,1,3,red,4,1,619.68777079743,780.31222920257,980.31222920257,780.31222920257,980.31222920257,780.31222920257,980.31222920257,419.68777079743,619.68777079743,419.68777079743,619.68777079743,780.31222920257,3,6,5,4,vertical,vertical,horizontal,vertical
2a,4,100257,6,26,186,20,M,NA,variable,heterogeneous,4,absent,1.00492691993713,1,vertical,vertical,1,2,green,3,NaN,619.68777079743,419.68777079743,NaN,NaN,980.31222920257,780.31222920257,980.31222920257,419.68777079743,619.68777079743,419.68777079743,619.68777079743,780.31222920257,0,5,4,3,vertical,horizontal,vertical,horizontal
2a,4,100257,6,27,187,20,M,NA,variable,heterogeneous,4,present,0.865190982818604,1,horizontal,horizontal,1,3,red,3,4,619.68777079743,419.68777079743,619.68777079743,780.31222920257,980.31222920257,780.31222920257,980.31222920257,419.68777079743,619.68777079743,419.68777079743,619.68777079743,780.31222920257,6,3,4,0,vertical,horizontal,horizontal,horizontal
2a,4,100257,6,28,188,20,M,NA,variable,heterogeneous,4,absent,0.67461895942688,1,vertical,vertical,1,2,green,1,NaN,980.31222920257,780.31222920257,NaN,NaN,980.31222920257,780.31222920257,980.31222920257,419.68777079743,619.68777079743,419.68777079743,619.68777079743,780.31222920257,4,6,5,0,vertical,horizontal,vertical,vertical
2a,4,100257,6,29,189,20,M,NA,variable,heterogeneous,4,present,1.28077697753906,1,vertical,vertical,1,3,red,4,1,619.68777079743,780.31222920257,980.31222920257,780.31222920257,980.31222920257,780.31222920257,980.31222920257,419.68777079743,619.68777079743,419.68777079743,619.68777079743,780.31222920257,0,3,5,4,vertical,vertical,horizontal,vertical
2a,4,100257,6,30,190,20,M,NA,variable,heterogeneous,4,absent,0.846059083938599,1,vertical,vertical,1,5,red,4,NaN,619.68777079743,780.31222920257,NaN,NaN,980.31222920257,780.31222920257,980.31222920257,419.68777079743,619.68777079743,419.68777079743,619.68777079743,780.31222920257,5,3,6,4,horizontal,vertical,horizontal,vertical
2a,4,100257,6,31,191,20,M,NA,variable,heterogeneous,4,present,1.70731806755066,1,horizontal,horizontal,1,5,red,1,3,980.31222920257,780.31222920257,619.68777079743,419.68777079743,980.31222920257,780.31222920257,980.31222920257,419.68777079743,619.68777079743,419.68777079743,619.68777079743,780.31222920257,4,0,5,6,horizontal,horizontal,vertical,vertical
2a,4,100257,6,32,192,20,M,NA,variable,heterogeneous,4,absent,0.86199688911438,1,horizontal,horizontal,1,2,green,4,NaN,619.68777079743,780.31222920257,NaN,NaN,980.31222920257,780.31222920257,980.31222920257,419.68777079743,619.68777079743,419.68777079743,619.68777079743,780.31222920257,0,5,6,4,vertical,horizontal,vertical,horizontal
2a,4,100257,7,1,193,20,M,NA,variable,heterogeneous,4,absent,1.22145199775696,1,vertical,vertical,1,2,green,4,NaN,619.68777079743,780.31222920257,NaN,NaN,980.31222920257,780.31222920257,980.31222920257,419.68777079743,619.68777079743,419.68777079743,619.68777079743,780.31222920257,6,3,0,4,horizontal,vertical,horizontal,vertical
2a,4,100257,7,2,194,20,M,NA,variable,heterogeneous,4,present,1.11009216308594,1,horizontal,horizontal,1,5,red,3,1,619.68777079743,419.68777079743,980.31222920257,780.31222920257,980.31222920257,780.31222920257,980.31222920257,419.68777079743,619.68777079743,419.68777079743,619.68777079743,780.31222920257,3,5,4,6,vertical,horizontal,horizontal,vertical
2a,4,100257,7,3,195,20,M,NA,variable,heterogeneous,4,present,1.21663188934326,1,horizontal,horizontal,1,2,red,2,1,980.31222920257,419.68777079743,980.31222920257,780.31222920257,980.31222920257,780.31222920257,980.31222920257,419.68777079743,619.68777079743,419.68777079743,619.68777079743,780.31222920257,6,4,0,5,horizontal,horizontal,horizontal,horizontal
2a,4,100257,7,4,196,20,M,NA,variable,heterogeneous,4,absent,0.617074012756348,1,vertical,vertical,1,3,red,2,NaN,980.31222920257,419.68777079743,NaN,NaN,980.31222920257,780.31222920257,980.31222920257,419.68777079743,619.68777079743,419.68777079743,619.68777079743,780.31222920257,5,4,3,6,vertical,vertical,horizontal,horizontal
2a,4,100257,7,5,197,20,M,NA,variable,heterogeneous,4,absent,1.08954906463623,1,horizontal,horizontal,1,2,red,1,NaN,980.31222920257,780.31222920257,NaN,NaN,980.31222920257,780.31222920257,980.31222920257,419.68777079743,619.68777079743,419.68777079743,619.68777079743,780.31222920257,4,5,0,3,horizontal,vertical,vertical,horizontal
2a,4,100257,7,6,198,20,M,NA,variable,heterogeneous,4,absent,1.00350499153137,1,horizontal,horizontal,1,5,red,2,NaN,980.31222920257,419.68777079743,NaN,NaN,980.31222920257,780.31222920257,980.31222920257,419.68777079743,619.68777079743,419.68777079743,619.68777079743,780.31222920257,0,4,3,5,horizontal,horizontal,horizontal,horizontal
2a,4,100257,7,7,199,20,M,NA,variable,heterogeneous,4,present,0.639845132827759,1,horizontal,horizontal,1,8,green,2,3,980.31222920257,419.68777079743,619.68777079743,419.68777079743,980.31222920257,780.31222920257,980.31222920257,419.68777079743,619.68777079743,419.68777079743,619.68777079743,780.31222920257,0,4,5,6,horizontal,horizontal,horizontal,vertical
2a,4,100257,7,8,200,20,M,NA,variable,heterogeneous,4,absent,0.665020942687988,1,vertical,vertical,1,3,green,3,NaN,619.68777079743,419.68777079743,NaN,NaN,980.31222920257,780.31222920257,980.31222920257,419.68777079743,619.68777079743,419.68777079743,619.68777079743,780.31222920257,6,5,4,0,horizontal,horizontal,vertical,horizontal
2a,4,100257,7,9,201,20,M,NA,variable,heterogeneous,4,absent,1.19442296028137,1,horizontal,horizontal,1,3,green,1,NaN,980.31222920257,780.31222920257,NaN,NaN,980.31222920257,780.31222920257,980.31222920257,419.68777079743,619.68777079743,419.68777079743,619.68777079743,780.31222920257,4,5,3,0,horizontal,vertical,horizontal,vertical
2a,4,100257,7,10,202,20,M,NA,variable,heterogeneous,4,absent,0.794847011566162,1,vertical,vertical,1,8,red,3,NaN,619.68777079743,419.68777079743,NaN,NaN,980.31222920257,780.31222920257,980.31222920257,419.68777079743,619.68777079743,419.68777079743,619.68777079743,780.31222920257,0,5,4,6,vertical,horizontal,vertical,vertical
2a,4,100257,7,11,203,20,M,NA,variable,heterogeneous,4,absent,0.778797149658203,1,vertical,vertical,1,2,green,2,NaN,980.31222920257,419.68777079743,NaN,NaN,980.31222920257,780.31222920257,980.31222920257,419.68777079743,619.68777079743,419.68777079743,619.68777079743,780.31222920257,3,4,6,5,horizontal,vertical,vertical,horizontal
2a,4,100257,7,12,204,20,M,NA,variable,heterogeneous,4,absent,0.990401029586792,1,horizontal,horizontal,1,2,green,3,NaN,619.68777079743,419.68777079743,NaN,NaN,980.31222920257,780.31222920257,980.31222920257,419.68777079743,619.68777079743,419.68777079743,619.68777079743,780.31222920257,3,5,4,6,vertical,horizontal,horizontal,horizontal
2a,4,100257,7,13,205,20,M,NA,variable,heterogeneous,4,present,0.702664136886597,1,horizontal,horizontal,1,2,red,3,1,619.68777079743,419.68777079743,980.31222920257,780.31222920257,980.31222920257,780.31222920257,980.31222920257,419.68777079743,619.68777079743,419.68777079743,619.68777079743,780.31222920257,3,0,4,5,vertical,horizontal,horizontal,horizontal
2a,4,100257,7,14,206,20,M,NA,variable,heterogeneous,4,absent,0.668931007385254,1,vertical,vertical,1,2,green,2,NaN,980.31222920257,419.68777079743,NaN,NaN,980.31222920257,780.31222920257,980.31222920257,419.68777079743,619.68777079743,419.68777079743,619.68777079743,780.31222920257,6,4,3,5,horizontal,vertical,vertical,horizontal
2a,4,100257,7,15,207,20,M,NA,variable,heterogeneous,4,present,0.958252191543579,1,vertical,vertical,1,5,red,1,2,980.31222920257,780.31222920257,980.31222920257,419.68777079743,980.31222920257,780.31222920257,980.31222920257,419.68777079743,619.68777079743,419.68777079743,619.68777079743,780.31222920257,4,5,3,6,vertical,horizontal,horizontal,vertical
2a,4,100257,7,16,208,20,M,NA,variable,heterogeneous,4,present,0.961710929870605,1,vertical,vertical,1,2,red,3,4,619.68777079743,419.68777079743,619.68777079743,780.31222920257,980.31222920257,780.31222920257,980.31222920257,419.68777079743,619.68777079743,419.68777079743,619.68777079743,780.31222920257,0,3,4,5,vertical,vertical,vertical,horizontal
2a,4,100257,7,17,209,20,M,NA,variable,heterogeneous,4,present,0.956845998764038,1,vertical,vertical,1,3,green,4,3,619.68777079743,780.31222920257,619.68777079743,419.68777079743,980.31222920257,780.31222920257,980.31222920257,419.68777079743,619.68777079743,419.68777079743,619.68777079743,780.31222920257,0,3,6,4,horizontal,horizontal,vertical,vertical
2a,4,100257,7,18,210,20,M,NA,variable,heterogeneous,4,absent,1.29642796516418,1,horizontal,horizontal,1,5,red,1,NaN,980.31222920257,780.31222920257,NaN,NaN,980.31222920257,780.31222920257,980.31222920257,419.68777079743,619.68777079743,419.68777079743,619.68777079743,780.31222920257,4,3,6,0,horizontal,vertical,horizontal,horizontal
2a,4,100257,7,19,211,20,M,NA,variable,heterogeneous,4,absent,0.670653820037842,1,vertical,vertical,1,5,green,3,NaN,619.68777079743,419.68777079743,NaN,NaN,980.31222920257,780.31222920257,980.31222920257,419.68777079743,619.68777079743,419.68777079743,619.68777079743,780.31222920257,5,3,4,6,horizontal,horizontal,vertical,vertical
2a,4,100257,7,20,212,20,M,NA,variable,heterogeneous,4,present,0.844385862350464,0,horizontal,vertical,1,3,red,1,2,980.31222920257,780.31222920257,980.31222920257,419.68777079743,980.31222920257,780.31222920257,980.31222920257,419.68777079743,619.68777079743,419.68777079743,619.68777079743,780.31222920257,4,6,0,5,horizontal,vertical,vertical,vertical
2a,4,100257,7,21,213,20,M,NA,variable,heterogeneous,4,present,1.02944493293762,1,horizontal,horizontal,1,5,red,1,4,980.31222920257,780.31222920257,619.68777079743,780.31222920257,980.31222920257,780.31222920257,980.31222920257,419.68777079743,619.68777079743,419.68777079743,619.68777079743,780.31222920257,4,3,0,5,horizontal,vertical,vertical,horizontal
2a,4,100257,7,22,214,20,M,NA,variable,heterogeneous,4,present,1.32224607467651,1,horizontal,horizontal,1,3,green,1,4,980.31222920257,780.31222920257,619.68777079743,780.31222920257,980.31222920257,780.31222920257,980.31222920257,419.68777079743,619.68777079743,419.68777079743,619.68777079743,780.31222920257,4,3,5,0,horizontal,horizontal,vertical,horizontal
2a,4,100257,7,23,215,20,M,NA,variable,heterogeneous,4,absent,1.04883217811584,1,vertical,vertical,1,5,green,1,NaN,980.31222920257,780.31222920257,NaN,NaN,980.31222920257,780.31222920257,980.31222920257,419.68777079743,619.68777079743,419.68777079743,619.68777079743,780.31222920257,4,5,6,0,vertical,vertical,vertical,vertical
2a,4,100257,7,24,216,20,M,NA,variable,heterogeneous,4,present,1.08606910705566,1,horizontal,horizontal,1,2,green,2,1,980.31222920257,419.68777079743,980.31222920257,780.31222920257,980.31222920257,780.31222920257,980.31222920257,419.68777079743,619.68777079743,419.68777079743,619.68777079743,780.31222920257,0,4,3,6,horizontal,horizontal,vertical,horizontal
2a,4,100257,7,25,217,20,M,NA,variable,heterogeneous,4,absent,1.01621699333191,1,horizontal,horizontal,1,2,red,4,NaN,619.68777079743,780.31222920257,NaN,NaN,980.31222920257,780.31222920257,980.31222920257,419.68777079743,619.68777079743,419.68777079743,619.68777079743,780.31222920257,3,5,6,4,vertical,horizontal,horizontal,horizontal
2a,4,100257,7,26,218,20,M,NA,variable,heterogeneous,4,present,0.968615055084229,1,vertical,vertical,1,2,green,1,4,980.31222920257,780.31222920257,619.68777079743,780.31222920257,980.31222920257,780.31222920257,980.31222920257,419.68777079743,619.68777079743,419.68777079743,619.68777079743,780.31222920257,4,6,5,3,vertical,vertical,vertical,vertical
2a,4,100257,7,27,219,20,M,NA,variable,heterogeneous,4,present,0.872124910354614,1,vertical,vertical,1,5,green,4,1,619.68777079743,780.31222920257,980.31222920257,780.31222920257,980.31222920257,780.31222920257,980.31222920257,419.68777079743,619.68777079743,419.68777079743,619.68777079743,780.31222920257,5,3,0,4,vertical,horizontal,vertical,vertical
2a,4,100257,7,28,220,20,M,NA,variable,heterogeneous,4,present,1.4298529624939,1,vertical,vertical,1,8,red,2,1,980.31222920257,419.68777079743,980.31222920257,780.31222920257,980.31222920257,780.31222920257,980.31222920257,419.68777079743,619.68777079743,419.68777079743,619.68777079743,780.31222920257,5,4,6,0,horizontal,vertical,vertical,horizontal
2a,4,100257,7,29,221,20,M,NA,variable,heterogeneous,4,present,0.834771871566772,1,vertical,vertical,1,3,green,3,4,619.68777079743,419.68777079743,619.68777079743,780.31222920257,980.31222920257,780.31222920257,980.31222920257,419.68777079743,619.68777079743,419.68777079743,619.68777079743,780.31222920257,0,6,4,5,horizontal,vertical,vertical,vertical
2a,4,100257,7,30,222,20,M,NA,variable,heterogeneous,4,absent,0.963865995407104,1,horizontal,horizontal,1,3,green,3,NaN,619.68777079743,419.68777079743,NaN,NaN,980.31222920257,780.31222920257,980.31222920257,419.68777079743,619.68777079743,419.68777079743,619.68777079743,780.31222920257,5,0,4,3,vertical,vertical,horizontal,vertical
2a,4,100257,7,31,223,20,M,NA,variable,heterogeneous,4,present,1.13139319419861,1,vertical,vertical,1,2,green,3,1,619.68777079743,419.68777079743,980.31222920257,780.31222920257,980.31222920257,780.31222920257,980.31222920257,419.68777079743,619.68777079743,419.68777079743,619.68777079743,780.31222920257,0,6,4,3,horizontal,horizontal,vertical,vertical
2a,4,100257,7,32,224,20,M,NA,variable,heterogeneous,4,absent,0.990338087081909,1,horizontal,horizontal,1,8,green,3,NaN,619.68777079743,419.68777079743,NaN,NaN,980.31222920257,780.31222920257,980.31222920257,419.68777079743,619.68777079743,419.68777079743,619.68777079743,780.31222920257,5,3,4,0,horizontal,horizontal,horizontal,vertical
2a,4,100257,8,1,225,20,M,NA,variable,heterogeneous,4,absent,1.28263592720032,1,vertical,vertical,1,2,red,2,NaN,980.31222920257,419.68777079743,NaN,NaN,980.31222920257,780.31222920257,980.31222920257,419.68777079743,619.68777079743,419.68777079743,619.68777079743,780.31222920257,5,4,0,6,vertical,vertical,vertical,horizontal
2a,4,100257,8,2,226,20,M,NA,variable,heterogeneous,4,present,1.19684195518494,1,vertical,vertical,1,2,red,1,2,980.31222920257,780.31222920257,980.31222920257,419.68777079743,980.31222920257,780.31222920257,980.31222920257,419.68777079743,619.68777079743,419.68777079743,619.68777079743,780.31222920257,4,0,5,6,vertical,horizontal,vertical,vertical
2a,4,100257,8,3,227,20,M,NA,variable,heterogeneous,4,absent,0.948867082595825,1,vertical,vertical,1,3,red,3,NaN,619.68777079743,419.68777079743,NaN,NaN,980.31222920257,780.31222920257,980.31222920257,419.68777079743,619.68777079743,419.68777079743,619.68777079743,780.31222920257,5,3,4,6,vertical,horizontal,vertical,horizontal
2a,4,100257,8,4,228,20,M,NA,variable,heterogeneous,4,present,0.619985818862915,1,vertical,vertical,1,2,green,3,2,619.68777079743,419.68777079743,980.31222920257,419.68777079743,980.31222920257,780.31222920257,980.31222920257,419.68777079743,619.68777079743,419.68777079743,619.68777079743,780.31222920257,3,0,4,6,vertical,horizontal,vertical,vertical
2a,4,100257,8,5,229,20,M,NA,variable,heterogeneous,4,absent,0.916247844696045,1,vertical,vertical,1,5,green,2,NaN,980.31222920257,419.68777079743,NaN,NaN,980.31222920257,780.31222920257,980.31222920257,419.68777079743,619.68777079743,419.68777079743,619.68777079743,780.31222920257,3,4,5,0,horizontal,vertical,vertical,vertical
2a,4,100257,8,6,230,20,M,NA,variable,heterogeneous,4,absent,0.619381904602051,1,horizontal,horizontal,1,8,green,3,NaN,619.68777079743,419.68777079743,NaN,NaN,980.31222920257,780.31222920257,980.31222920257,419.68777079743,619.68777079743,419.68777079743,619.68777079743,780.31222920257,3,0,4,6,horizontal,horizontal,horizontal,horizontal
2a,4,100257,8,7,231,20,M,NA,variable,heterogeneous,4,absent,1.39579582214355,0,horizontal,vertical,1,2,green,1,NaN,980.31222920257,780.31222920257,NaN,NaN,980.31222920257,780.31222920257,980.31222920257,419.68777079743,619.68777079743,419.68777079743,619.68777079743,780.31222920257,4,5,0,3,horizontal,vertical,horizontal,vertical
2a,4,100257,8,8,232,20,M,NA,variable,heterogeneous,4,present,0.731918096542358,1,horizontal,horizontal,1,5,green,4,3,619.68777079743,780.31222920257,619.68777079743,419.68777079743,980.31222920257,780.31222920257,980.31222920257,419.68777079743,619.68777079743,419.68777079743,619.68777079743,780.31222920257,6,3,5,4,horizontal,vertical,vertical,horizontal
2a,4,100257,8,9,233,20,M,NA,variable,heterogeneous,4,absent,1.0550639629364,1,vertical,vertical,1,5,green,2,NaN,980.31222920257,419.68777079743,NaN,NaN,980.31222920257,780.31222920257,980.31222920257,419.68777079743,619.68777079743,419.68777079743,619.68777079743,780.31222920257,0,4,5,6,vertical,vertical,horizontal,horizontal
2a,4,100257,8,10,234,20,M,NA,variable,heterogeneous,4,absent,0.732005834579468,1,vertical,vertical,1,2,green,2,NaN,980.31222920257,419.68777079743,NaN,NaN,980.31222920257,780.31222920257,980.31222920257,419.68777079743,619.68777079743,419.68777079743,619.68777079743,780.31222920257,6,4,3,5,horizontal,vertical,vertical,horizontal
2a,4,100257,8,11,235,20,M,NA,variable,heterogeneous,4,absent,0.742952823638916,1,vertical,vertical,1,3,green,1,NaN,980.31222920257,780.31222920257,NaN,NaN,980.31222920257,780.31222920257,980.31222920257,419.68777079743,619.68777079743,419.68777079743,619.68777079743,780.31222920257,4,6,0,5,vertical,horizontal,horizontal,horizontal
2a,4,100257,8,12,236,20,M,NA,variable,heterogeneous,4,present,0.765838146209717,1,horizontal,horizontal,1,2,red,3,1,619.68777079743,419.68777079743,980.31222920257,780.31222920257,980.31222920257,780.31222920257,980.31222920257,419.68777079743,619.68777079743,419.68777079743,619.68777079743,780.31222920257,6,0,4,5,horizontal,horizontal,horizontal,vertical
2a,4,100257,8,13,237,20,M,NA,variable,heterogeneous,4,absent,0.749573945999146,1,horizontal,horizontal,1,2,red,3,NaN,619.68777079743,419.68777079743,NaN,NaN,980.31222920257,780.31222920257,980.31222920257,419.68777079743,619.68777079743,419.68777079743,619.68777079743,780.31222920257,0,6,4,3,horizontal,vertical,horizontal,horizontal
2a,4,100257,8,14,238,20,M,NA,variable,heterogeneous,4,present,1.34863495826721,1,horizontal,horizontal,1,2,red,1,3,980.31222920257,780.31222920257,619.68777079743,419.68777079743,980.31222920257,780.31222920257,980.31222920257,419.68777079743,619.68777079743,419.68777079743,619.68777079743,780.31222920257,4,6,5,0,horizontal,vertical,horizontal,horizontal
2a,4,100257,8,15,239,20,M,NA,variable,heterogeneous,4,present,1.44390201568604,1,horizontal,horizontal,1,3,red,3,4,619.68777079743,419.68777079743,619.68777079743,780.31222920257,980.31222920257,780.31222920257,980.31222920257,419.68777079743,619.68777079743,419.68777079743,619.68777079743,780.31222920257,3,5,4,0,vertical,horizontal,horizontal,vertical
2a,4,100257,8,16,240,20,M,NA,variable,heterogeneous,4,present,NaN,0,vertical,none,0,3,green,3,4,619.68777079743,419.68777079743,619.68777079743,780.31222920257,980.31222920257,780.31222920257,980.31222920257,419.68777079743,619.68777079743,419.68777079743,619.68777079743,780.31222920257,0,6,4,5,horizontal,horizontal,vertical,vertical
2a,4,100257,8,17,241,20,M,NA,variable,heterogeneous,4,present,0.673293113708496,1,vertical,vertical,1,8,green,3,4,619.68777079743,419.68777079743,619.68777079743,780.31222920257,980.31222920257,780.31222920257,980.31222920257,419.68777079743,619.68777079743,419.68777079743,619.68777079743,780.31222920257,3,6,4,0,horizontal,vertical,vertical,vertical
2a,4,100257,8,18,242,20,M,NA,variable,heterogeneous,4,absent,0.822961807250977,1,horizontal,horizontal,1,3,green,4,NaN,619.68777079743,780.31222920257,NaN,NaN,980.31222920257,780.31222920257,980.31222920257,419.68777079743,619.68777079743,419.68777079743,619.68777079743,780.31222920257,5,6,3,4,horizontal,vertical,horizontal,horizontal
2a,4,100257,8,19,243,20,M,NA,variable,heterogeneous,4,present,0.795979976654053,1,horizontal,horizontal,1,8,red,2,1,980.31222920257,419.68777079743,980.31222920257,780.31222920257,980.31222920257,780.31222920257,980.31222920257,419.68777079743,619.68777079743,419.68777079743,619.68777079743,780.31222920257,6,4,0,5,horizontal,horizontal,vertical,vertical
2a,4,100257,8,20,244,20,M,NA,variable,heterogeneous,4,absent,0.91593599319458,1,horizontal,horizontal,1,5,red,4,NaN,619.68777079743,780.31222920257,NaN,NaN,980.31222920257,780.31222920257,980.31222920257,419.68777079743,619.68777079743,419.68777079743,619.68777079743,780.31222920257,6,3,5,4,vertical,vertical,vertical,horizontal
2a,4,100257,8,21,245,20,M,NA,variable,heterogeneous,4,present,0.838426113128662,1,vertical,vertical,1,5,green,2,4,980.31222920257,419.68777079743,619.68777079743,780.31222920257,980.31222920257,780.31222920257,980.31222920257,419.68777079743,619.68777079743,419.68777079743,619.68777079743,780.31222920257,0,4,3,6,vertical,vertical,horizontal,horizontal
2a,4,100257,8,22,246,20,M,NA,variable,heterogeneous,4,present,1.46333599090576,1,horizontal,horizontal,1,3,green,1,4,980.31222920257,780.31222920257,619.68777079743,780.31222920257,980.31222920257,780.31222920257,980.31222920257,419.68777079743,619.68777079743,419.68777079743,619.68777079743,780.31222920257,4,3,0,5,horizontal,horizontal,vertical,vertical
2a,4,100257,8,23,247,20,M,NA,variable,heterogeneous,4,absent,0.768959045410156,1,vertical,vertical,1,8,green,3,NaN,619.68777079743,419.68777079743,NaN,NaN,980.31222920257,780.31222920257,980.31222920257,419.68777079743,619.68777079743,419.68777079743,619.68777079743,780.31222920257,3,6,4,5,horizontal,horizontal,vertical,vertical
2a,4,100257,8,24,248,20,M,NA,variable,heterogeneous,4,present,0.80866813659668,1,vertical,vertical,1,2,red,3,4,619.68777079743,419.68777079743,619.68777079743,780.31222920257,980.31222920257,780.31222920257,980.31222920257,419.68777079743,619.68777079743,419.68777079743,619.68777079743,780.31222920257,3,0,4,5,horizontal,vertical,vertical,vertical
2a,4,100257,8,25,249,20,M,NA,variable,heterogeneous,4,absent,0.644840002059937,1,horizontal,horizontal,1,5,red,3,NaN,619.68777079743,419.68777079743,NaN,NaN,980.31222920257,780.31222920257,980.31222920257,419.68777079743,619.68777079743,419.68777079743,619.68777079743,780.31222920257,0,5,4,6,horizontal,vertical,horizontal,vertical
2a,4,100257,8,26,250,20,M,NA,variable,heterogeneous,4,absent,1.30194902420044,1,horizontal,horizontal,1,3,green,1,NaN,980.31222920257,780.31222920257,NaN,NaN,980.31222920257,780.31222920257,980.31222920257,419.68777079743,619.68777079743,419.68777079743,619.68777079743,780.31222920257,4,0,5,3,horizontal,horizontal,horizontal,vertical
2a,4,100257,8,27,251,20,M,NA,variable,heterogeneous,4,present,0.756160020828247,1,vertical,vertical,1,5,green,3,1,619.68777079743,419.68777079743,980.31222920257,780.31222920257,980.31222920257,780.31222920257,980.31222920257,419.68777079743,619.68777079743,419.68777079743,619.68777079743,780.31222920257,0,5,4,3,vertical,horizontal,vertical,vertical
2a,4,100257,8,28,252,20,M,NA,variable,heterogeneous,4,present,0.63147497177124,1,horizontal,horizontal,1,5,red,3,4,619.68777079743,419.68777079743,619.68777079743,780.31222920257,980.31222920257,780.31222920257,980.31222920257,419.68777079743,619.68777079743,419.68777079743,619.68777079743,780.31222920257,3,6,4,0,horizontal,horizontal,horizontal,horizontal
2a,4,100257,8,29,253,20,M,NA,variable,heterogeneous,4,present,0.868388891220093,1,horizontal,horizontal,1,2,red,3,4,619.68777079743,419.68777079743,619.68777079743,780.31222920257,980.31222920257,780.31222920257,980.31222920257,419.68777079743,619.68777079743,419.68777079743,619.68777079743,780.31222920257,6,0,4,3,horizontal,vertical,horizontal,horizontal
2a,4,100257,8,30,254,20,M,NA,variable,heterogeneous,4,absent,1.26973605155945,1,horizontal,horizontal,1,2,red,2,NaN,980.31222920257,419.68777079743,NaN,NaN,980.31222920257,780.31222920257,980.31222920257,419.68777079743,619.68777079743,419.68777079743,619.68777079743,780.31222920257,6,4,3,0,vertical,horizontal,vertical,horizontal
2a,4,100257,8,31,255,20,M,NA,variable,heterogeneous,4,present,1.22784495353699,1,vertical,vertical,1,3,red,3,4,619.68777079743,419.68777079743,619.68777079743,780.31222920257,980.31222920257,780.31222920257,980.31222920257,419.68777079743,619.68777079743,419.68777079743,619.68777079743,780.31222920257,6,3,4,0,horizontal,horizontal,vertical,vertical
2a,4,100257,8,32,256,20,M,NA,variable,heterogeneous,4,absent,1.40830397605896,1,vertical,vertical,1,2,red,1,NaN,980.31222920257,780.31222920257,NaN,NaN,980.31222920257,780.31222920257,980.31222920257,419.68777079743,619.68777079743,419.68777079743,619.68777079743,780.31222920257,4,3,5,0,vertical,vertical,horizontal,horizontal
2a,4,100257,9,1,257,20,M,NA,variable,heterogeneous,4,present,1.0055980682373,1,horizontal,horizontal,1,3,green,4,1,619.68777079743,780.31222920257,980.31222920257,780.31222920257,980.31222920257,780.31222920257,980.31222920257,419.68777079743,619.68777079743,419.68777079743,619.68777079743,780.31222920257,3,0,5,4,horizontal,horizontal,vertical,horizontal
2a,4,100257,9,2,258,20,M,NA,variable,heterogeneous,4,absent,1.00994515419006,1,vertical,vertical,1,5,red,2,NaN,980.31222920257,419.68777079743,NaN,NaN,980.31222920257,780.31222920257,980.31222920257,419.68777079743,619.68777079743,419.68777079743,619.68777079743,780.31222920257,6,4,0,5,vertical,vertical,vertical,horizontal
2a,4,100257,9,3,259,20,M,NA,variable,heterogeneous,4,present,1.1821448802948,1,vertical,vertical,1,2,green,3,4,619.68777079743,419.68777079743,619.68777079743,780.31222920257,980.31222920257,780.31222920257,980.31222920257,419.68777079743,619.68777079743,419.68777079743,619.68777079743,780.31222920257,0,6,4,5,vertical,horizontal,vertical,horizontal
2a,4,100257,9,4,260,20,M,NA,variable,heterogeneous,4,present,0.889965057373047,1,vertical,vertical,1,2,green,3,1,619.68777079743,419.68777079743,980.31222920257,780.31222920257,980.31222920257,780.31222920257,980.31222920257,419.68777079743,619.68777079743,419.68777079743,619.68777079743,780.31222920257,3,5,4,6,horizontal,vertical,vertical,horizontal
2a,4,100257,9,5,261,20,M,NA,variable,heterogeneous,4,absent,1.29994487762451,1,horizontal,horizontal,1,2,green,4,NaN,619.68777079743,780.31222920257,NaN,NaN,980.31222920257,780.31222920257,980.31222920257,419.68777079743,619.68777079743,419.68777079743,619.68777079743,780.31222920257,0,6,5,4,horizontal,vertical,vertical,horizontal
2a,4,100257,9,6,262,20,M,NA,variable,heterogeneous,4,present,1.36220788955688,1,horizontal,horizontal,1,2,green,4,2,619.68777079743,780.31222920257,980.31222920257,419.68777079743,980.31222920257,780.31222920257,980.31222920257,419.68777079743,619.68777079743,419.68777079743,619.68777079743,780.31222920257,3,5,6,4,vertical,horizontal,vertical,horizontal
2a,4,100257,9,7,263,20,M,NA,variable,heterogeneous,4,present,0.621364831924438,1,vertical,vertical,1,3,red,3,1,619.68777079743,419.68777079743,980.31222920257,780.31222920257,980.31222920257,780.31222920257,980.31222920257,419.68777079743,619.68777079743,419.68777079743,619.68777079743,780.31222920257,3,6,4,5,horizontal,vertical,vertical,horizontal
2a,4,100257,9,8,264,20,M,NA,variable,heterogeneous,4,present,0.7102370262146,1,horizontal,horizontal,1,5,red,3,1,619.68777079743,419.68777079743,980.31222920257,780.31222920257,980.31222920257,780.31222920257,980.31222920257,419.68777079743,619.68777079743,419.68777079743,619.68777079743,780.31222920257,0,3,4,5,horizontal,horizontal,horizontal,horizontal
2a,4,100257,9,9,265,20,M,NA,variable,heterogeneous,4,absent,0.680439949035645,1,horizontal,horizontal,1,3,red,3,NaN,619.68777079743,419.68777079743,NaN,NaN,980.31222920257,780.31222920257,980.31222920257,419.68777079743,619.68777079743,419.68777079743,619.68777079743,780.31222920257,0,5,4,3,vertical,horizontal,horizontal,vertical
2a,4,100257,9,10,266,20,M,NA,variable,heterogeneous,4,absent,1.25424313545227,1,horizontal,horizontal,1,3,red,4,NaN,619.68777079743,780.31222920257,NaN,NaN,980.31222920257,780.31222920257,980.31222920257,419.68777079743,619.68777079743,419.68777079743,619.68777079743,780.31222920257,6,5,3,4,vertical,vertical,horizontal,horizontal
2a,4,100257,9,11,267,20,M,NA,variable,heterogeneous,4,absent,0.77156400680542,1,vertical,vertical,1,3,red,3,NaN,619.68777079743,419.68777079743,NaN,NaN,980.31222920257,780.31222920257,980.31222920257,419.68777079743,619.68777079743,419.68777079743,619.68777079743,780.31222920257,3,5,4,6,horizontal,horizontal,vertical,horizontal
2a,4,100257,9,12,268,20,M,NA,variable,heterogeneous,4,absent,1.30708694458008,1,horizontal,horizontal,1,2,green,2,NaN,980.31222920257,419.68777079743,NaN,NaN,980.31222920257,780.31222920257,980.31222920257,419.68777079743,619.68777079743,419.68777079743,619.68777079743,780.31222920257,0,4,3,5,horizontal,horizontal,horizontal,horizontal
2a,4,100257,9,13,269,20,M,NA,variable,heterogeneous,4,present,0.773488998413086,1,vertical,vertical,1,2,red,2,1,980.31222920257,419.68777079743,980.31222920257,780.31222920257,980.31222920257,780.31222920257,980.31222920257,419.68777079743,619.68777079743,419.68777079743,619.68777079743,780.31222920257,5,4,3,6,horizontal,vertical,vertical,horizontal
2a,4,100257,9,14,270,20,M,NA,variable,heterogeneous,4,present,1.53312301635742,1,vertical,vertical,1,3,green,2,4,980.31222920257,419.68777079743,619.68777079743,780.31222920257,980.31222920257,780.31222920257,980.31222920257,419.68777079743,619.68777079743,419.68777079743,619.68777079743,780.31222920257,6,4,0,3,horizontal,vertical,vertical,vertical
2a,4,100257,9,15,271,20,M,NA,variable,heterogeneous,4,absent,1.16786003112793,1,vertical,vertical,1,3,green,4,NaN,619.68777079743,780.31222920257,NaN,NaN,980.31222920257,780.31222920257,980.31222920257,419.68777079743,619.68777079743,419.68777079743,619.68777079743,780.31222920257,3,0,6,4,horizontal,vertical,vertical,vertical
2a,4,100257,9,16,272,20,M,NA,variable,heterogeneous,4,absent,0.887654066085815,1,vertical,vertical,1,8,red,1,NaN,980.31222920257,780.31222920257,NaN,NaN,980.31222920257,780.31222920257,980.31222920257,419.68777079743,619.68777079743,419.68777079743,619.68777079743,780.31222920257,4,6,0,3,vertical,horizontal,horizontal,horizontal
2a,4,100257,9,17,273,20,M,NA,variable,heterogeneous,4,absent,1.19413900375366,1,vertical,vertical,1,5,red,1,NaN,980.31222920257,780.31222920257,NaN,NaN,980.31222920257,780.31222920257,980.31222920257,419.68777079743,619.68777079743,419.68777079743,619.68777079743,780.31222920257,4,5,3,6,vertical,vertical,vertical,horizontal
2a,4,100257,9,18,274,20,M,NA,variable,heterogeneous,4,present,0.881788015365601,1,horizontal,horizontal,1,8,red,4,2,619.68777079743,780.31222920257,980.31222920257,419.68777079743,980.31222920257,780.31222920257,980.31222920257,419.68777079743,619.68777079743,419.68777079743,619.68777079743,780.31222920257,5,6,0,4,horizontal,vertical,vertical,horizontal
2a,4,100257,9,19,275,20,M,NA,variable,heterogeneous,4,present,1.31580185890198,1,horizontal,horizontal,1,3,red,1,3,980.31222920257,780.31222920257,619.68777079743,419.68777079743,980.31222920257,780.31222920257,980.31222920257,419.68777079743,619.68777079743,419.68777079743,619.68777079743,780.31222920257,4,5,6,0,horizontal,vertical,vertical,horizontal
2a,4,100257,9,20,276,20,M,NA,variable,heterogeneous,4,absent,0.726250171661377,1,horizontal,horizontal,1,5,green,3,NaN,619.68777079743,419.68777079743,NaN,NaN,980.31222920257,780.31222920257,980.31222920257,419.68777079743,619.68777079743,419.68777079743,619.68777079743,780.31222920257,6,0,4,5,horizontal,horizontal,horizontal,horizontal
2a,4,100257,9,21,277,20,M,NA,variable,heterogeneous,4,present,1.2209358215332,1,horizontal,horizontal,1,2,red,1,4,980.31222920257,780.31222920257,619.68777079743,780.31222920257,980.31222920257,780.31222920257,980.31222920257,419.68777079743,619.68777079743,419.68777079743,619.68777079743,780.31222920257,4,3,6,5,horizontal,horizontal,vertical,horizontal
2a,4,100257,9,22,278,20,M,NA,variable,heterogeneous,4,absent,0.773485898971558,1,horizontal,horizontal,1,2,red,3,NaN,619.68777079743,419.68777079743,NaN,NaN,980.31222920257,780.31222920257,980.31222920257,419.68777079743,619.68777079743,419.68777079743,619.68777079743,780.31222920257,5,3,4,6,vertical,vertical,horizontal,horizontal
2a,4,100257,9,23,279,20,M,NA,variable,heterogeneous,4,present,1.24505305290222,1,horizontal,horizontal,1,5,red,1,2,980.31222920257,780.31222920257,980.31222920257,419.68777079743,980.31222920257,780.31222920257,980.31222920257,419.68777079743,619.68777079743,419.68777079743,619.68777079743,780.31222920257,4,0,6,5,horizontal,vertical,horizontal,vertical
2a,4,100257,9,24,280,20,M,NA,variable,heterogeneous,4,present,0.870005130767822,1,horizontal,horizontal,1,2,red,4,2,619.68777079743,780.31222920257,980.31222920257,419.68777079743,980.31222920257,780.31222920257,980.31222920257,419.68777079743,619.68777079743,419.68777079743,619.68777079743,780.31222920257,3,0,5,4,horizontal,horizontal,horizontal,horizontal
2a,4,100257,9,25,281,20,M,NA,variable,heterogeneous,4,absent,0.939971208572388,1,vertical,vertical,1,2,red,4,NaN,619.68777079743,780.31222920257,NaN,NaN,980.31222920257,780.31222920257,980.31222920257,419.68777079743,619.68777079743,419.68777079743,619.68777079743,780.31222920257,6,0,3,4,vertical,horizontal,horizontal,vertical
2a,4,100257,9,26,282,20,M,NA,variable,heterogeneous,4,present,0.899080038070679,1,vertical,vertical,1,8,green,4,1,619.68777079743,780.31222920257,980.31222920257,780.31222920257,980.31222920257,780.31222920257,980.31222920257,419.68777079743,619.68777079743,419.68777079743,619.68777079743,780.31222920257,3,0,6,4,horizontal,vertical,horizontal,vertical
2a,4,100257,9,27,283,20,M,NA,variable,heterogeneous,4,absent,1.00918793678284,1,vertical,vertical,1,2,red,4,NaN,619.68777079743,780.31222920257,NaN,NaN,980.31222920257,780.31222920257,980.31222920257,419.68777079743,619.68777079743,419.68777079743,619.68777079743,780.31222920257,0,5,6,4,vertical,vertical,horizontal,vertical
2a,4,100257,9,28,284,20,M,NA,variable,heterogeneous,4,absent,0.573493003845215,1,vertical,vertical,1,2,green,4,NaN,619.68777079743,780.31222920257,NaN,NaN,980.31222920257,780.31222920257,980.31222920257,419.68777079743,619.68777079743,419.68777079743,619.68777079743,780.31222920257,0,3,5,4,vertical,horizontal,horizontal,vertical
2a,4,100257,9,29,285,20,M,NA,variable,heterogeneous,4,present,0.549134016036987,1,vertical,vertical,1,5,green,4,3,619.68777079743,780.31222920257,619.68777079743,419.68777079743,980.31222920257,780.31222920257,980.31222920257,419.68777079743,619.68777079743,419.68777079743,619.68777079743,780.31222920257,0,5,3,4,horizontal,horizontal,vertical,vertical
2a,4,100257,9,30,286,20,M,NA,variable,heterogeneous,4,absent,1.18819212913513,1,horizontal,horizontal,1,8,green,1,NaN,980.31222920257,780.31222920257,NaN,NaN,980.31222920257,780.31222920257,980.31222920257,419.68777079743,619.68777079743,419.68777079743,619.68777079743,780.31222920257,4,6,5,0,horizontal,horizontal,vertical,horizontal
2a,4,100257,9,31,287,20,M,NA,variable,heterogeneous,4,absent,0.628382921218872,1,horizontal,horizontal,1,5,red,3,NaN,619.68777079743,419.68777079743,NaN,NaN,980.31222920257,780.31222920257,980.31222920257,419.68777079743,619.68777079743,419.68777079743,619.68777079743,780.31222920257,6,3,4,5,vertical,horizontal,horizontal,vertical
2a,4,100257,9,32,288,20,M,NA,variable,heterogeneous,4,present,1.14523005485535,1,vertical,vertical,1,5,green,1,4,980.31222920257,780.31222920257,619.68777079743,780.31222920257,980.31222920257,780.31222920257,980.31222920257,419.68777079743,619.68777079743,419.68777079743,619.68777079743,780.31222920257,4,6,5,0,vertical,horizontal,vertical,vertical
2a,4,100257,10,1,289,20,M,NA,variable,heterogeneous,4,absent,1.02965497970581,1,horizontal,horizontal,1,2,green,4,NaN,619.68777079743,780.31222920257,NaN,NaN,980.31222920257,780.31222920257,980.31222920257,419.68777079743,619.68777079743,419.68777079743,619.68777079743,780.31222920257,0,6,3,4,horizontal,horizontal,vertical,horizontal
2a,4,100257,10,2,290,20,M,NA,variable,heterogeneous,4,absent,1.09054112434387,1,vertical,vertical,1,5,green,4,NaN,619.68777079743,780.31222920257,NaN,NaN,980.31222920257,780.31222920257,980.31222920257,419.68777079743,619.68777079743,419.68777079743,619.68777079743,780.31222920257,6,0,5,4,vertical,vertical,horizontal,vertical
2a,4,100257,10,3,291,20,M,NA,variable,heterogeneous,4,present,1.14836812019348,1,vertical,vertical,1,2,green,2,3,980.31222920257,419.68777079743,619.68777079743,419.68777079743,980.31222920257,780.31222920257,980.31222920257,419.68777079743,619.68777079743,419.68777079743,619.68777079743,780.31222920257,0,4,5,3,vertical,vertical,horizontal,horizontal
