experiment,subject,uniqueID,block,trial,trial_cumulative,age,gender,color_cond_blocking,color_history,shape_type,set_size,distractor,rt,acc,target_orient,response_key,response_made,iti,target_color,target_item,distractor_item,target_X,target_Y,distractor_X,distractor_Y,item1_X,item1_Y,item2_X,item2_Y,item3_X,item3_Y,item4_X,item4_Y,item1_shape,item2_shape,item3_shape,item4_shape,item1_line,item2_line,item3_line,item4_line
2a,6,100256,1,1,1,19,F,NA,variable,heterogeneous,4,absent,1.37746596336365,1,horizontal,horizontal,1,2,red,4,NaN,619.68777079743,780.31222920257,NaN,NaN,980.31222920257,780.31222920257,980.31222920257,419.68777079743,619.68777079743,419.68777079743,619.68777079743,780.31222920257,5,0,6,4,vertical,vertical,horizontal,horizontal
2a,6,100256,1,2,2,19,F,NA,variable,heterogeneous,4,absent,1.51734495162964,1,vertical,vertical,1,5,green,2,NaN,980.31222920257,419.68777079743,NaN,NaN,980.31222920257,780.31222920257,980.31222920257,419.68777079743,619.68777079743,419.68777079743,619.68777079743,780.31222920257,3,4,0,5,horizontal,vertical,vertical,horizontal
2a,6,100256,1,3,3,19,F,NA,variable,heterogeneous,4,absent,1.01196813583374,1,vertical,vertical,1,2,red,2,NaN,980.31222920257,419.68777079743,NaN,NaN,980.31222920257,780.31222920257,980.31222920257,419.68777079743,619.68777079743,419.68777079743,619.68777079743,780.31222920257,0,4,3,6,horizontal,vertical,horizontal,vertical
2a,6,100256,1,4,4,19,F,NA,variable,heterogeneous,4,absent,1.29249310493469,1,vertical,vertical,1,3,green,3,NaN,619.68777079743,419.68777079743,NaN,NaN,980.31222920257,780.31222920257,980.31222920257,419.68777079743,619.68777079743,419.68777079743,619.68777079743,780.31222920257,3,6,4,0,horizontal,horizontal,vertical,vertical
2a,6,100256,1,5,5,19,F,NA,variable,heterogeneous,4,present,NaN,0,horizontal,none,0,8,green,3,1,619.68777079743,419.68777079743,980.31222920257,780.31222920257,980.31222920257,780.31222920257,980.31222920257,419.68777079743,619.68777079743,419.68777079743,619.68777079743,780.31222920257,6,0,4,5,horizontal,horizontal,horizontal,vertical
2a,6,100256,1,6,6,19,F,NA,variable,heterogeneous,4,absent,1.24304389953613,0,horizontal,vertical,1,5,green,2,NaN,980.31222920257,419.68777079743,NaN,NaN,980.31222920257,780.31222920257,980.31222920257,419.68777079743,619.68777079743,419.68777079743,619.68777079743,780.31222920257,0,4,5,6,horizontal,horizontal,vertical,horizontal
2a,6,100256,1,7,7,19,F,NA,variable,heterogeneous,4,absent,1.25988388061523,1,vertical,vertical,1,8,green,2,NaN,980.31222920257,419.68777079743,NaN,NaN,980.31222920257,780.31222920257,980.31222920257,419.68777079743,619.68777079743,419.68777079743,619.68777079743,780.31222920257,0,4,5,6,horizontal,vertical,vertical,vertical
2a,6,100256,1,8,8,19,F,NA,variable,heterogeneous,4,absent,1.58183789253235,1,horizontal,horizontal,1,3,green,4,NaN,619.68777079743,780.31222920257,NaN,NaN,980.31222920257,780.31222920257,980.31222920257,419.68777079743,619.68777079743,419.68777079743,619.68777079743,780.31222920257,3,6,5,4,horizontal,vertical,vertical,horizontal
2a,6,100256,1,9,9,19,F,NA,variable,heterogeneous,4,present,1.4176139831543,1,horizontal,horizontal,1,2,green,2,4,980.31222920257,419.68777079743,619.68777079743,780.31222920257,980.31222920257,780.31222920257,980.31222920257,419.68777079743,619.68777079743,419.68777079743,619.68777079743,780.31222920257,6,4,3,5,vertical,horizontal,vertical,vertical
2a,6,100256,1,10,10,19,F,NA,variable,heterogeneous,4,present,1.21800303459167,1,vertical,vertical,1,3,green,1,2,980.31222920257,780.31222920257,980.31222920257,419.68777079743,980.31222920257,780.31222920257,980.31222920257,419.68777079743,619.68777079743,419.68777079743,619.68777079743,780.31222920257,4,5,0,3,vertical,vertical,horizontal,vertical
2a,6,100256,1,11,11,19,F,NA,variable,heterogeneous,4,present,1.33867883682251,1,vertical,vertical,1,2,red,1,2,980.31222920257,780.31222920257,980.31222920257,419.68777079743,980.31222920257,780.31222920257,980.31222920257,419.68777079743,619.68777079743,419.68777079743,619.68777079743,780.31222920257,4,5,0,3,vertical,horizontal,vertical,horizontal
2a,6,100256,1,12,12,19,F,NA,variable,heterogeneous,4,present,1.11780500411987,1,horizontal,horizontal,1,2,green,3,4,619.68777079743,419.68777079743,619.68777079743,780.31222920257,980.31222920257,780.31222920257,980.31222920257,419.68777079743,619.68777079743,419.68777079743,619.68777079743,780.31222920257,6,0,4,3,vertical,vertical,horizontal,horizontal
2a,6,100256,1,13,13,19,F,NA,variable,heterogeneous,4,present,1.11609196662903,0,vertical,horizontal,1,3,green,4,1,619.68777079743,780.31222920257,980.31222920257,780.31222920257,980.31222920257,780.31222920257,980.31222920257,419.68777079743,619.68777079743,419.68777079743,619.68777079743,780.31222920257,5,3,0,4,horizontal,horizontal,horizontal,vertical
2a,6,100256,1,14,14,19,F,NA,variable,heterogeneous,4,present,1.61080193519592,1,horizontal,horizontal,1,5,green,3,1,619.68777079743,419.68777079743,980.31222920257,780.31222920257,980.31222920257,780.31222920257,980.31222920257,419.68777079743,619.68777079743,419.68777079743,619.68777079743,780.31222920257,3,5,4,0,horizontal,horizontal,horizontal,horizontal
2a,6,100256,1,15,15,19,F,NA,variable,heterogeneous,4,absent,0.771762132644653,1,vertical,vertical,1,2,green,3,NaN,619.68777079743,419.68777079743,NaN,NaN,980.31222920257,780.31222920257,980.31222920257,419.68777079743,619.68777079743,419.68777079743,619.68777079743,780.31222920257,3,5,4,6,vertical,vertical,vertical,vertical
2a,6,100256,1,16,16,19,F,NA,variable,heterogeneous,4,absent,1.3311448097229,1,horizontal,horizontal,1,5,red,4,NaN,619.68777079743,780.31222920257,NaN,NaN,980.31222920257,780.31222920257,980.31222920257,419.68777079743,619.68777079743,419.68777079743,619.68777079743,780.31222920257,0,3,6,4,vertical,horizontal,vertical,horizontal
2a,6,100256,1,17,17,19,F,NA,variable,heterogeneous,4,absent,1.81419396400452,1,horizontal,horizontal,1,8,green,1,NaN,980.31222920257,780.31222920257,NaN,NaN,980.31222920257,780.31222920257,980.31222920257,419.68777079743,619.68777079743,419.68777079743,619.68777079743,780.31222920257,4,3,0,5,horizontal,vertical,horizontal,horizontal
2a,6,100256,1,18,18,19,F,NA,variable,heterogeneous,4,present,1.49462985992432,1,vertical,vertical,1,2,red,4,2,619.68777079743,780.31222920257,980.31222920257,419.68777079743,980.31222920257,780.31222920257,980.31222920257,419.68777079743,619.68777079743,419.68777079743,619.68777079743,780.31222920257,0,5,3,4,horizontal,horizontal,vertical,vertical
2a,6,100256,1,19,19,19,F,NA,variable,heterogeneous,4,present,1.96494817733765,1,horizontal,horizontal,1,5,green,4,2,619.68777079743,780.31222920257,980.31222920257,419.68777079743,980.31222920257,780.31222920257,980.31222920257,419.68777079743,619.68777079743,419.68777079743,619.68777079743,780.31222920257,3,0,5,4,vertical,horizontal,vertical,horizontal
2a,6,100256,1,20,20,19,F,NA,variable,heterogeneous,4,absent,1.6847620010376,1,horizontal,horizontal,1,2,red,4,NaN,619.68777079743,780.31222920257,NaN,NaN,980.31222920257,780.31222920257,980.31222920257,419.68777079743,619.68777079743,419.68777079743,619.68777079743,780.31222920257,0,3,5,4,vertical,horizontal,horizontal,horizontal
2a,6,100256,1,21,21,19,F,NA,variable,heterogeneous,4,present,1.11904788017273,1,vertical,vertical,1,5,red,3,2,619.68777079743,419.68777079743,980.31222920257,419.68777079743,980.31222920257,780.31222920257,980.31222920257,419.68777079743,619.68777079743,419.68777079743,619.68777079743,780.31222920257,6,3,4,0,vertical,vertical,vertical,horizontal
2a,6,100256,1,22,22,19,F,NA,variable,heterogeneous,4,absent,0.973464965820312,1,horizontal,horizontal,1,3,green,3,NaN,619.68777079743,419.68777079743,NaN,NaN,980.31222920257,780.31222920257,980.31222920257,419.68777079743,619.68777079743,419.68777079743,619.68777079743,780.31222920257,3,5,4,0,vertical,horizontal,horizontal,horizontal
2a,6,100256,1,23,23,19,F,NA,variable,heterogeneous,4,present,1.05322408676147,1,vertical,vertical,1,8,green,3,2,619.68777079743,419.68777079743,980.31222920257,419.68777079743,980.31222920257,780.31222920257,980.31222920257,419.68777079743,619.68777079743,419.68777079743,619.68777079743,780.31222920257,6,3,4,5,vertical,vertical,vertical,vertical
2a,6,100256,1,24,24,19,F,NA,variable,heterogeneous,4,present,1.05852603912354,1,vertical,vertical,1,5,red,3,2,619.68777079743,419.68777079743,980.31222920257,419.68777079743,980.31222920257,780.31222920257,980.31222920257,419.68777079743,619.68777079743,419.68777079743,619.68777079743,780.31222920257,6,5,4,3,vertical,vertical,vertical,vertical
2a,6,100256,1,25,25,19,F,NA,variable,heterogeneous,4,absent,0.996052026748657,1,vertical,vertical,1,2,red,3,NaN,619.68777079743,419.68777079743,NaN,NaN,980.31222920257,780.31222920257,980.31222920257,419.68777079743,619.68777079743,419.68777079743,619.68777079743,780.31222920257,3,5,4,6,horizontal,horizontal,vertical,horizontal
2a,6,100256,1,26,26,19,F,NA,variable,heterogeneous,4,absent,1.13213491439819,1,horizontal,horizontal,1,2,red,1,NaN,980.31222920257,780.31222920257,NaN,NaN,980.31222920257,780.31222920257,980.31222920257,419.68777079743,619.68777079743,419.68777079743,619.68777079743,780.31222920257,4,5,0,6,horizontal,vertical,vertical,horizontal
2a,6,100256,1,27,27,19,F,NA,variable,heterogeneous,4,absent,1.23103094100952,0,vertical,horizontal,1,5,red,4,NaN,619.68777079743,780.31222920257,NaN,NaN,980.31222920257,780.31222920257,980.31222920257,419.68777079743,619.68777079743,419.68777079743,619.68777079743,780.31222920257,0,3,5,4,horizontal,vertical,horizontal,vertical
2a,6,100256,1,28,28,19,F,NA,variable,heterogeneous,4,present,0.876139163970947,1,horizontal,horizontal,1,2,red,4,2,619.68777079743,780.31222920257,980.31222920257,419.68777079743,980.31222920257,780.31222920257,980.31222920257,419.68777079743,619.68777079743,419.68777079743,619.68777079743,780.31222920257,0,3,6,4,horizontal,horizontal,vertical,horizontal
2a,6,100256,1,29,29,19,F,NA,variable,heterogeneous,4,present,1.36171388626099,1,horizontal,horizontal,1,3,green,2,4,980.31222920257,419.68777079743,619.68777079743,780.31222920257,980.31222920257,780.31222920257,980.31222920257,419.68777079743,619.68777079743,419.68777079743,619.68777079743,780.31222920257,5,4,0,3,horizontal,horizontal,horizontal,vertical
2a,6,100256,1,30,30,19,F,NA,variable,heterogeneous,4,present,1.08495712280273,1,vertical,vertical,1,2,red,4,2,619.68777079743,780.31222920257,980.31222920257,419.68777079743,980.31222920257,780.31222920257,980.31222920257,419.68777079743,619.68777079743,419.68777079743,619.68777079743,780.31222920257,5,0,6,4,vertical,vertical,horizontal,vertical
2a,6,100256,1,31,31,19,F,NA,variable,heterogeneous,4,absent,1.27862000465393,1,vertical,vertical,1,3,red,1,NaN,980.31222920257,780.31222920257,NaN,NaN,980.31222920257,780.31222920257,980.31222920257,419.68777079743,619.68777079743,419.68777079743,619.68777079743,780.31222920257,4,6,0,5,vertical,horizontal,horizontal,horizontal
2a,6,100256,1,32,32,19,F,NA,variable,heterogeneous,4,present,0.788578033447266,1,horizontal,horizontal,1,3,red,4,2,619.68777079743,780.31222920257,980.31222920257,419.68777079743,980.31222920257,780.31222920257,980.31222920257,419.68777079743,619.68777079743,419.68777079743,619.68777079743,780.31222920257,0,5,6,4,horizontal,vertical,horizontal,horizontal
2a,6,100256,2,1,33,19,F,NA,variable,heterogeneous,4,present,0.946038961410522,1,horizontal,horizontal,1,3,green,4,3,619.68777079743,780.31222920257,619.68777079743,419.68777079743,980.31222920257,780.31222920257,980.31222920257,419.68777079743,619.68777079743,419.68777079743,619.68777079743,780.31222920257,6,3,0,4,horizontal,horizontal,horizontal,horizontal
2a,6,100256,2,2,34,19,F,NA,variable,heterogeneous,4,absent,1.40913605690002,1,vertical,vertical,1,3,red,3,NaN,619.68777079743,419.68777079743,NaN,NaN,980.31222920257,780.31222920257,980.31222920257,419.68777079743,619.68777079743,419.68777079743,619.68777079743,780.31222920257,6,3,4,5,horizontal,horizontal,vertical,vertical
2a,6,100256,2,3,35,19,F,NA,variable,heterogeneous,4,absent,1.38146591186523,1,horizontal,horizontal,1,5,red,3,NaN,619.68777079743,419.68777079743,NaN,NaN,980.31222920257,780.31222920257,980.31222920257,419.68777079743,619.68777079743,419.68777079743,619.68777079743,780.31222920257,0,3,4,6,vertical,horizontal,horizontal,horizontal
2a,6,100256,2,4,36,19,F,NA,variable,heterogeneous,4,present,1.4970760345459,1,vertical,vertical,1,2,red,4,3,619.68777079743,780.31222920257,619.68777079743,419.68777079743,980.31222920257,780.31222920257,980.31222920257,419.68777079743,619.68777079743,419.68777079743,619.68777079743,780.31222920257,5,6,3,4,horizontal,vertical,vertical,vertical
2a,6,100256,2,5,37,19,F,NA,variable,heterogeneous,4,present,1.5194730758667,1,vertical,vertical,1,5,green,4,1,619.68777079743,780.31222920257,980.31222920257,780.31222920257,980.31222920257,780.31222920257,980.31222920257,419.68777079743,619.68777079743,419.68777079743,619.68777079743,780.31222920257,3,0,6,4,horizontal,vertical,horizontal,vertical
2a,6,100256,2,6,38,19,F,NA,variable,heterogeneous,4,absent,1.31040596961975,1,vertical,vertical,1,3,green,2,NaN,980.31222920257,419.68777079743,NaN,NaN,980.31222920257,780.31222920257,980.31222920257,419.68777079743,619.68777079743,419.68777079743,619.68777079743,780.31222920257,6,4,5,3,vertical,vertical,horizontal,vertical
2a,6,100256,2,7,39,19,F,NA,variable,heterogeneous,4,present,1.45663404464722,1,horizontal,horizontal,1,5,red,4,1,619.68777079743,780.31222920257,980.31222920257,780.31222920257,980.31222920257,780.31222920257,980.31222920257,419.68777079743,619.68777079743,419.68777079743,619.68777079743,780.31222920257,6,3,0,4,horizontal,vertical,vertical,horizontal
2a,6,100256,2,8,40,19,F,NA,variable,heterogeneous,4,present,0.509904861450195,0,horizontal,vertical,1,2,green,4,3,619.68777079743,780.31222920257,619.68777079743,419.68777079743,980.31222920257,780.31222920257,980.31222920257,419.68777079743,619.68777079743,419.68777079743,619.68777079743,780.31222920257,6,3,0,4,vertical,vertical,vertical,horizontal
2a,6,100256,2,9,41,19,F,NA,variable,heterogeneous,4,absent,0.960242986679077,1,horizontal,horizontal,1,3,green,3,NaN,619.68777079743,419.68777079743,NaN,NaN,980.31222920257,780.31222920257,980.31222920257,419.68777079743,619.68777079743,419.68777079743,619.68777079743,780.31222920257,3,6,4,0,horizontal,horizontal,horizontal,vertical
2a,6,100256,2,10,42,19,F,NA,variable,heterogeneous,4,absent,1.34001111984253,1,vertical,vertical,1,8,red,1,NaN,980.31222920257,780.31222920257,NaN,NaN,980.31222920257,780.31222920257,980.31222920257,419.68777079743,619.68777079743,419.68777079743,619.68777079743,780.31222920257,4,6,3,0,vertical,vertical,horizontal,vertical
2a,6,100256,2,11,43,19,F,NA,variable,heterogeneous,4,present,1.63501691818237,1,horizontal,horizontal,1,2,red,3,4,619.68777079743,419.68777079743,619.68777079743,780.31222920257,980.31222920257,780.31222920257,980.31222920257,419.68777079743,619.68777079743,419.68777079743,619.68777079743,780.31222920257,6,3,4,5,horizontal,vertical,horizontal,horizontal
2a,6,100256,2,12,44,19,F,NA,variable,heterogeneous,4,present,1.58803391456604,1,vertical,vertical,1,2,red,4,3,619.68777079743,780.31222920257,619.68777079743,419.68777079743,980.31222920257,780.31222920257,980.31222920257,419.68777079743,619.68777079743,419.68777079743,619.68777079743,780.31222920257,3,6,5,4,horizontal,vertical,vertical,vertical
2a,6,100256,2,13,45,19,F,NA,variable,heterogeneous,4,present,1.18050813674927,1,horizontal,horizontal,1,5,green,2,3,980.31222920257,419.68777079743,619.68777079743,419.68777079743,980.31222920257,780.31222920257,980.31222920257,419.68777079743,619.68777079743,419.68777079743,619.68777079743,780.31222920257,5,4,0,6,vertical,horizontal,vertical,horizontal
2a,6,100256,2,14,46,19,F,NA,variable,heterogeneous,4,absent,NaN,0,vertical,none,0,2,green,4,NaN,619.68777079743,780.31222920257,NaN,NaN,980.31222920257,780.31222920257,980.31222920257,419.68777079743,619.68777079743,419.68777079743,619.68777079743,780.31222920257,5,3,6,4,vertical,horizontal,vertical,vertical
2a,6,100256,2,15,47,19,F,NA,variable,heterogeneous,4,present,0.852435111999512,1,vertical,vertical,1,5,green,4,3,619.68777079743,780.31222920257,619.68777079743,419.68777079743,980.31222920257,780.31222920257,980.31222920257,419.68777079743,619.68777079743,419.68777079743,619.68777079743,780.31222920257,0,3,6,4,horizontal,vertical,horizontal,vertical
2a,6,100256,2,16,48,19,F,NA,variable,heterogeneous,4,present,0.945617198944092,1,horizontal,horizontal,1,3,red,4,1,619.68777079743,780.31222920257,980.31222920257,780.31222920257,980.31222920257,780.31222920257,980.31222920257,419.68777079743,619.68777079743,419.68777079743,619.68777079743,780.31222920257,5,0,3,4,vertical,horizontal,vertical,horizontal
2a,6,100256,2,17,49,19,F,NA,variable,heterogeneous,4,absent,1.26468801498413,1,vertical,vertical,1,5,red,3,NaN,619.68777079743,419.68777079743,NaN,NaN,980.31222920257,780.31222920257,980.31222920257,419.68777079743,619.68777079743,419.68777079743,619.68777079743,780.31222920257,3,0,4,6,horizontal,horizontal,vertical,horizontal
2a,6,100256,2,18,50,19,F,NA,variable,heterogeneous,4,absent,0.650435209274292,1,vertical,vertical,1,2,green,3,NaN,619.68777079743,419.68777079743,NaN,NaN,980.31222920257,780.31222920257,980.31222920257,419.68777079743,619.68777079743,419.68777079743,619.68777079743,780.31222920257,6,3,4,0,horizontal,vertical,vertical,vertical
2a,6,100256,2,19,51,19,F,NA,variable,heterogeneous,4,absent,0.775726079940796,1,horizontal,horizontal,1,2,green,4,NaN,619.68777079743,780.31222920257,NaN,NaN,980.31222920257,780.31222920257,980.31222920257,419.68777079743,619.68777079743,419.68777079743,619.68777079743,780.31222920257,6,0,5,4,horizontal,horizontal,horizontal,horizontal
2a,6,100256,2,20,52,19,F,NA,variable,heterogeneous,4,absent,0.963724851608276,1,horizontal,horizontal,1,8,red,4,NaN,619.68777079743,780.31222920257,NaN,NaN,980.31222920257,780.31222920257,980.31222920257,419.68777079743,619.68777079743,419.68777079743,619.68777079743,780.31222920257,3,6,0,4,vertical,vertical,vertical,horizontal
2a,6,100256,2,21,53,19,F,NA,variable,heterogeneous,4,absent,0.627295017242432,1,vertical,vertical,1,2,green,4,NaN,619.68777079743,780.31222920257,NaN,NaN,980.31222920257,780.31222920257,980.31222920257,419.68777079743,619.68777079743,419.68777079743,619.68777079743,780.31222920257,6,5,0,4,vertical,vertical,vertical,vertical
2a,6,100256,2,22,54,19,F,NA,variable,heterogeneous,4,present,1.28815388679504,1,horizontal,horizontal,1,8,red,1,2,980.31222920257,780.31222920257,980.31222920257,419.68777079743,980.31222920257,780.31222920257,980.31222920257,419.68777079743,619.68777079743,419.68777079743,619.68777079743,780.31222920257,4,0,6,5,horizontal,vertical,vertical,vertical
2a,6,100256,2,23,55,19,F,NA,variable,heterogeneous,4,present,1.31403303146362,1,vertical,vertical,1,3,red,4,2,619.68777079743,780.31222920257,980.31222920257,419.68777079743,980.31222920257,780.31222920257,980.31222920257,419.68777079743,619.68777079743,419.68777079743,619.68777079743,780.31222920257,3,0,6,4,horizontal,vertical,vertical,vertical
2a,6,100256,2,24,56,19,F,NA,variable,heterogeneous,4,absent,0.764523983001709,1,horizontal,horizontal,1,2,red,3,NaN,619.68777079743,419.68777079743,NaN,NaN,980.31222920257,780.31222920257,980.31222920257,419.68777079743,619.68777079743,419.68777079743,619.68777079743,780.31222920257,0,5,4,6,vertical,vertical,horizontal,horizontal
2a,6,100256,2,25,57,19,F,NA,variable,heterogeneous,4,present,0.772247076034546,1,vertical,vertical,1,2,green,4,1,619.68777079743,780.31222920257,980.31222920257,780.31222920257,980.31222920257,780.31222920257,980.31222920257,419.68777079743,619.68777079743,419.68777079743,619.68777079743,780.31222920257,3,0,5,4,horizontal,horizontal,horizontal,vertical
2a,6,100256,2,26,58,19,F,NA,variable,heterogeneous,4,present,1.29170680046082,1,vertical,vertical,1,8,green,3,1,619.68777079743,419.68777079743,980.31222920257,780.31222920257,980.31222920257,780.31222920257,980.31222920257,419.68777079743,619.68777079743,419.68777079743,619.68777079743,780.31222920257,6,0,4,3,vertical,vertical,vertical,horizontal
2a,6,100256,2,27,59,19,F,NA,variable,heterogeneous,4,absent,1.14956498146057,1,horizontal,horizontal,1,2,red,1,NaN,980.31222920257,780.31222920257,NaN,NaN,980.31222920257,780.31222920257,980.31222920257,419.68777079743,619.68777079743,419.68777079743,619.68777079743,780.31222920257,4,3,0,5,horizontal,vertical,horizontal,horizontal
2a,6,100256,2,28,60,19,F,NA,variable,heterogeneous,4,absent,1.17314195632935,1,vertical,vertical,1,5,green,1,NaN,980.31222920257,780.31222920257,NaN,NaN,980.31222920257,780.31222920257,980.31222920257,419.68777079743,619.68777079743,419.68777079743,619.68777079743,780.31222920257,4,3,0,5,vertical,horizontal,vertical,horizontal
2a,6,100256,2,29,61,19,F,NA,variable,heterogeneous,4,present,0.844726085662842,1,horizontal,horizontal,1,2,red,3,2,619.68777079743,419.68777079743,980.31222920257,419.68777079743,980.31222920257,780.31222920257,980.31222920257,419.68777079743,619.68777079743,419.68777079743,619.68777079743,780.31222920257,6,3,4,0,horizontal,horizontal,horizontal,horizontal
2a,6,100256,2,30,62,19,F,NA,variable,heterogeneous,4,absent,1.28588914871216,1,horizontal,horizontal,1,5,green,3,NaN,619.68777079743,419.68777079743,NaN,NaN,980.31222920257,780.31222920257,980.31222920257,419.68777079743,619.68777079743,419.68777079743,619.68777079743,780.31222920257,6,3,4,5,horizontal,horizontal,horizontal,vertical
2a,6,100256,2,31,63,19,F,NA,variable,heterogeneous,4,present,0.864046096801758,1,vertical,vertical,1,3,red,4,1,619.68777079743,780.31222920257,980.31222920257,780.31222920257,980.31222920257,780.31222920257,980.31222920257,419.68777079743,619.68777079743,419.68777079743,619.68777079743,780.31222920257,3,5,6,4,vertical,vertical,vertical,vertical
2a,6,100256,2,32,64,19,F,NA,variable,heterogeneous,4,absent,0.865067958831787,1,horizontal,horizontal,1,3,green,4,NaN,619.68777079743,780.31222920257,NaN,NaN,980.31222920257,780.31222920257,980.31222920257,419.68777079743,619.68777079743,419.68777079743,619.68777079743,780.31222920257,0,5,3,4,horizontal,horizontal,vertical,horizontal
2a,6,100256,3,1,65,19,F,NA,variable,heterogeneous,4,present,0.942321062088013,1,vertical,vertical,1,2,green,1,4,980.31222920257,780.31222920257,619.68777079743,780.31222920257,980.31222920257,780.31222920257,980.31222920257,419.68777079743,619.68777079743,419.68777079743,619.68777079743,780.31222920257,4,5,0,3,vertical,horizontal,vertical,vertical
2a,6,100256,3,2,66,19,F,NA,variable,heterogeneous,4,absent,1.00523900985718,1,vertical,vertical,1,3,green,1,NaN,980.31222920257,780.31222920257,NaN,NaN,980.31222920257,780.31222920257,980.31222920257,419.68777079743,619.68777079743,419.68777079743,619.68777079743,780.31222920257,4,3,6,5,vertical,vertical,horizontal,vertical
2a,6,100256,3,3,67,19,F,NA,variable,heterogeneous,4,present,1.38602781295776,1,horizontal,horizontal,1,2,red,3,2,619.68777079743,419.68777079743,980.31222920257,419.68777079743,980.31222920257,780.31222920257,980.31222920257,419.68777079743,619.68777079743,419.68777079743,619.68777079743,780.31222920257,5,6,4,0,horizontal,vertical,horizontal,vertical
2a,6,100256,3,4,68,19,F,NA,variable,heterogeneous,4,absent,0.957663059234619,1,vertical,vertical,1,2,red,2,NaN,980.31222920257,419.68777079743,NaN,NaN,980.31222920257,780.31222920257,980.31222920257,419.68777079743,619.68777079743,419.68777079743,619.68777079743,780.31222920257,5,4,0,6,vertical,vertical,horizontal,vertical
2a,6,100256,3,5,69,19,F,NA,variable,heterogeneous,4,absent,1.40126800537109,1,vertical,vertical,1,8,green,1,NaN,980.31222920257,780.31222920257,NaN,NaN,980.31222920257,780.31222920257,980.31222920257,419.68777079743,619.68777079743,419.68777079743,619.68777079743,780.31222920257,4,5,3,6,vertical,horizontal,vertical,horizontal
2a,6,100256,3,6,70,19,F,NA,variable,heterogeneous,4,present,1.94946694374084,1,horizontal,horizontal,1,5,red,1,2,980.31222920257,780.31222920257,980.31222920257,419.68777079743,980.31222920257,780.31222920257,980.31222920257,419.68777079743,619.68777079743,419.68777079743,619.68777079743,780.31222920257,4,3,0,6,horizontal,vertical,vertical,vertical
2a,6,100256,3,7,71,19,F,NA,variable,heterogeneous,4,present,0.732717990875244,1,horizontal,horizontal,1,2,green,4,2,619.68777079743,780.31222920257,980.31222920257,419.68777079743,980.31222920257,780.31222920257,980.31222920257,419.68777079743,619.68777079743,419.68777079743,619.68777079743,780.31222920257,6,0,3,4,vertical,vertical,horizontal,horizontal
2a,6,100256,3,8,72,19,F,NA,variable,heterogeneous,4,absent,1.00784301757812,0,horizontal,vertical,1,3,green,3,NaN,619.68777079743,419.68777079743,NaN,NaN,980.31222920257,780.31222920257,980.31222920257,419.68777079743,619.68777079743,419.68777079743,619.68777079743,780.31222920257,3,6,4,5,vertical,vertical,horizontal,horizontal
2a,6,100256,3,9,73,19,F,NA,variable,heterogeneous,4,absent,0.916248083114624,1,horizontal,horizontal,1,5,green,3,NaN,619.68777079743,419.68777079743,NaN,NaN,980.31222920257,780.31222920257,980.31222920257,419.68777079743,619.68777079743,419.68777079743,619.68777079743,780.31222920257,0,6,4,3,horizontal,horizontal,horizontal,vertical
2a,6,100256,3,10,74,19,F,NA,variable,heterogeneous,4,present,0.818818092346191,0,horizontal,vertical,1,8,green,2,4,980.31222920257,419.68777079743,619.68777079743,780.31222920257,980.31222920257,780.31222920257,980.31222920257,419.68777079743,619.68777079743,419.68777079743,619.68777079743,780.31222920257,6,4,0,3,vertical,horizontal,horizontal,vertical
2a,6,100256,3,11,75,19,F,NA,variable,heterogeneous,4,present,0.403327941894531,0,horizontal,vertical,1,3,red,2,1,980.31222920257,419.68777079743,980.31222920257,780.31222920257,980.31222920257,780.31222920257,980.31222920257,419.68777079743,619.68777079743,419.68777079743,619.68777079743,780.31222920257,3,4,6,0,horizontal,horizontal,horizontal,horizontal
2a,6,100256,3,12,76,19,F,NA,variable,heterogeneous,4,absent,0.975572109222412,0,horizontal,vertical,1,3,red,4,NaN,619.68777079743,780.31222920257,NaN,NaN,980.31222920257,780.31222920257,980.31222920257,419.68777079743,619.68777079743,419.68777079743,619.68777079743,780.31222920257,0,6,3,4,vertical,horizontal,vertical,horizontal
2a,6,100256,3,13,77,19,F,NA,variable,heterogeneous,4,present,0.803967952728271,1,vertical,vertical,1,8,green,4,3,619.68777079743,780.31222920257,619.68777079743,419.68777079743,980.31222920257,780.31222920257,980.31222920257,419.68777079743,619.68777079743,419.68777079743,619.68777079743,780.31222920257,0,6,3,4,horizontal,horizontal,vertical,vertical
2a,6,100256,3,14,78,19,F,NA,variable,heterogeneous,4,absent,0.9442138671875,1,vertical,vertical,1,3,green,2,NaN,980.31222920257,419.68777079743,NaN,NaN,980.31222920257,780.31222920257,980.31222920257,419.68777079743,619.68777079743,419.68777079743,619.68777079743,780.31222920257,3,4,5,0,vertical,vertical,vertical,vertical
2a,6,100256,3,15,79,19,F,NA,variable,heterogeneous,4,present,1.28741312026978,0,horizontal,vertical,1,2,red,2,3,980.31222920257,419.68777079743,619.68777079743,419.68777079743,980.31222920257,780.31222920257,980.31222920257,419.68777079743,619.68777079743,419.68777079743,619.68777079743,780.31222920257,6,4,3,5,horizontal,horizontal,vertical,horizontal
2a,6,100256,3,16,80,19,F,NA,variable,heterogeneous,4,absent,0.968892097473145,1,vertical,vertical,1,2,green,3,NaN,619.68777079743,419.68777079743,NaN,NaN,980.31222920257,780.31222920257,980.31222920257,419.68777079743,619.68777079743,419.68777079743,619.68777079743,780.31222920257,5,3,4,6,vertical,horizontal,vertical,horizontal
2a,6,100256,3,17,81,19,F,NA,variable,heterogeneous,4,absent,0.584827899932861,1,horizontal,horizontal,1,2,green,3,NaN,619.68777079743,419.68777079743,NaN,NaN,980.31222920257,780.31222920257,980.31222920257,419.68777079743,619.68777079743,419.68777079743,619.68777079743,780.31222920257,6,0,4,5,vertical,horizontal,horizontal,horizontal
2a,6,100256,3,18,82,19,F,NA,variable,heterogeneous,4,absent,1.24483108520508,1,horizontal,horizontal,1,2,red,2,NaN,980.31222920257,419.68777079743,NaN,NaN,980.31222920257,780.31222920257,980.31222920257,419.68777079743,619.68777079743,419.68777079743,619.68777079743,780.31222920257,3,4,6,0,horizontal,horizontal,horizontal,vertical
2a,6,100256,3,19,83,19,F,NA,variable,heterogeneous,4,present,0.725574016571045,1,vertical,vertical,1,3,green,3,1,619.68777079743,419.68777079743,980.31222920257,780.31222920257,980.31222920257,780.31222920257,980.31222920257,419.68777079743,619.68777079743,419.68777079743,619.68777079743,780.31222920257,0,5,4,6,horizontal,horizontal,vertical,vertical
2a,6,100256,3,20,84,19,F,NA,variable,heterogeneous,4,present,0.724353075027466,0,vertical,horizontal,1,5,red,1,3,980.31222920257,780.31222920257,619.68777079743,419.68777079743,980.31222920257,780.31222920257,980.31222920257,419.68777079743,619.68777079743,419.68777079743,619.68777079743,780.31222920257,4,5,0,3,vertical,horizontal,vertical,vertical
2a,6,100256,3,21,85,19,F,NA,variable,heterogeneous,4,absent,0.699121952056885,1,vertical,vertical,1,2,red,2,NaN,980.31222920257,419.68777079743,NaN,NaN,980.31222920257,780.31222920257,980.31222920257,419.68777079743,619.68777079743,419.68777079743,619.68777079743,780.31222920257,0,4,6,3,vertical,vertical,horizontal,horizontal
2a,6,100256,3,22,86,19,F,NA,variable,heterogeneous,4,absent,0.937297105789185,1,horizontal,horizontal,1,8,red,2,NaN,980.31222920257,419.68777079743,NaN,NaN,980.31222920257,780.31222920257,980.31222920257,419.68777079743,619.68777079743,419.68777079743,619.68777079743,780.31222920257,6,4,3,5,vertical,horizontal,vertical,vertical
2a,6,100256,3,23,87,19,F,NA,variable,heterogeneous,4,present,0.980196952819824,1,horizontal,horizontal,1,5,red,2,1,980.31222920257,419.68777079743,980.31222920257,780.31222920257,980.31222920257,780.31222920257,980.31222920257,419.68777079743,619.68777079743,419.68777079743,619.68777079743,780.31222920257,6,4,5,0,horizontal,horizontal,horizontal,vertical
2a,6,100256,3,24,88,19,F,NA,variable,heterogeneous,4,absent,0.991979122161865,1,vertical,vertical,1,5,red,1,NaN,980.31222920257,780.31222920257,NaN,NaN,980.31222920257,780.31222920257,980.31222920257,419.68777079743,619.68777079743,419.68777079743,619.68777079743,780.31222920257,4,6,3,0,vertical,horizontal,horizontal,horizontal
2a,6,100256,3,25,89,19,F,NA,variable,heterogeneous,4,present,1.15194511413574,1,vertical,vertical,1,3,red,1,3,980.31222920257,780.31222920257,619.68777079743,419.68777079743,980.31222920257,780.31222920257,980.31222920257,419.68777079743,619.68777079743,419.68777079743,619.68777079743,780.31222920257,4,5,6,3,vertical,horizontal,vertical,horizontal
2a,6,100256,3,26,90,19,F,NA,variable,heterogeneous,4,present,1.14790892601013,0,horizontal,vertical,1,3,red,1,3,980.31222920257,780.31222920257,619.68777079743,419.68777079743,980.31222920257,780.31222920257,980.31222920257,419.68777079743,619.68777079743,419.68777079743,619.68777079743,780.31222920257,4,0,3,5,horizontal,horizontal,vertical,horizontal
2a,6,100256,3,27,91,19,F,NA,variable,heterogeneous,4,present,0.802918910980225,1,vertical,vertical,1,5,green,4,3,619.68777079743,780.31222920257,619.68777079743,419.68777079743,980.31222920257,780.31222920257,980.31222920257,419.68777079743,619.68777079743,419.68777079743,619.68777079743,780.31222920257,3,6,0,4,horizontal,horizontal,vertical,vertical
2a,6,100256,3,28,92,19,F,NA,variable,heterogeneous,4,present,1.11151003837585,0,vertical,horizontal,1,2,green,2,3,980.31222920257,419.68777079743,619.68777079743,419.68777079743,980.31222920257,780.31222920257,980.31222920257,419.68777079743,619.68777079743,419.68777079743,619.68777079743,780.31222920257,5,4,6,3,vertical,vertical,horizontal,horizontal
2a,6,100256,3,29,93,19,F,NA,variable,heterogeneous,4,absent,1.48984408378601,1,horizontal,horizontal,1,5,green,2,NaN,980.31222920257,419.68777079743,NaN,NaN,980.31222920257,780.31222920257,980.31222920257,419.68777079743,619.68777079743,419.68777079743,619.68777079743,780.31222920257,0,4,5,3,horizontal,horizontal,vertical,horizontal
2a,6,100256,3,30,94,19,F,NA,variable,heterogeneous,4,absent,0.979823112487793,1,vertical,vertical,1,5,red,3,NaN,619.68777079743,419.68777079743,NaN,NaN,980.31222920257,780.31222920257,980.31222920257,419.68777079743,619.68777079743,419.68777079743,619.68777079743,780.31222920257,3,0,4,5,vertical,horizontal,vertical,vertical
2a,6,100256,3,31,95,19,F,NA,variable,heterogeneous,4,absent,1.60761308670044,1,horizontal,horizontal,1,2,green,2,NaN,980.31222920257,419.68777079743,NaN,NaN,980.31222920257,780.31222920257,980.31222920257,419.68777079743,619.68777079743,419.68777079743,619.68777079743,780.31222920257,5,4,6,0,horizontal,horizontal,vertical,vertical
2a,6,100256,3,32,96,19,F,NA,variable,heterogeneous,4,present,1.11580204963684,1,vertical,vertical,1,2,green,3,1,619.68777079743,419.68777079743,980.31222920257,780.31222920257,980.31222920257,780.31222920257,980.31222920257,419.68777079743,619.68777079743,419.68777079743,619.68777079743,780.31222920257,5,3,4,0,vertical,horizontal,vertical,vertical
2a,6,100256,4,1,97,19,F,NA,variable,heterogeneous,4,absent,1.65628695487976,1,vertical,vertical,1,2,red,1,NaN,980.31222920257,780.31222920257,NaN,NaN,980.31222920257,780.31222920257,980.31222920257,419.68777079743,619.68777079743,419.68777079743,619.68777079743,780.31222920257,4,5,6,3,vertical,vertical,horizontal,horizontal
2a,6,100256,4,2,98,19,F,NA,variable,heterogeneous,4,present,1.30193090438843,1,horizontal,horizontal,1,3,red,3,2,619.68777079743,419.68777079743,980.31222920257,419.68777079743,980.31222920257,780.31222920257,980.31222920257,419.68777079743,619.68777079743,419.68777079743,619.68777079743,780.31222920257,6,3,4,0,horizontal,horizontal,horizontal,horizontal
2a,6,100256,4,3,99,19,F,NA,variable,heterogeneous,4,absent,1.26790714263916,1,vertical,vertical,1,3,red,4,NaN,619.68777079743,780.31222920257,NaN,NaN,980.31222920257,780.31222920257,980.31222920257,419.68777079743,619.68777079743,419.68777079743,619.68777079743,780.31222920257,5,6,3,4,horizontal,vertical,horizontal,vertical
2a,6,100256,4,4,100,19,F,NA,variable,heterogeneous,4,present,1.46160006523132,1,horizontal,horizontal,1,5,green,1,4,980.31222920257,780.31222920257,619.68777079743,780.31222920257,980.31222920257,780.31222920257,980.31222920257,419.68777079743,619.68777079743,419.68777079743,619.68777079743,780.31222920257,4,5,6,0,horizontal,vertical,horizontal,vertical
2a,6,100256,4,5,101,19,F,NA,variable,heterogeneous,4,absent,1.06299614906311,1,horizontal,horizontal,1,2,red,4,NaN,619.68777079743,780.31222920257,NaN,NaN,980.31222920257,780.31222920257,980.31222920257,419.68777079743,619.68777079743,419.68777079743,619.68777079743,780.31222920257,5,3,0,4,horizontal,vertical,vertical,horizontal
2a,6,100256,4,6,102,19,F,NA,variable,heterogeneous,4,present,1.44854402542114,1,horizontal,horizontal,1,2,green,2,1,980.31222920257,419.68777079743,980.31222920257,780.31222920257,980.31222920257,780.31222920257,980.31222920257,419.68777079743,619.68777079743,419.68777079743,619.68777079743,780.31222920257,3,4,6,0,vertical,horizontal,horizontal,vertical
2a,6,100256,4,7,103,19,F,NA,variable,heterogeneous,4,present,1.58185982704163,1,vertical,vertical,1,5,red,1,2,980.31222920257,780.31222920257,980.31222920257,419.68777079743,980.31222920257,780.31222920257,980.31222920257,419.68777079743,619.68777079743,419.68777079743,619.68777079743,780.31222920257,4,0,6,5,vertical,horizontal,vertical,vertical
2a,6,100256,4,8,104,19,F,NA,variable,heterogeneous,4,present,0.633716106414795,1,vertical,vertical,1,2,green,3,4,619.68777079743,419.68777079743,619.68777079743,780.31222920257,980.31222920257,780.31222920257,980.31222920257,419.68777079743,619.68777079743,419.68777079743,619.68777079743,780.31222920257,6,5,4,0,horizontal,horizontal,vertical,horizontal
2a,6,100256,4,9,105,19,F,NA,variable,heterogeneous,4,absent,0.742659091949463,0,vertical,horizontal,1,5,red,2,NaN,980.31222920257,419.68777079743,NaN,NaN,980.31222920257,780.31222920257,980.31222920257,419.68777079743,619.68777079743,419.68777079743,619.68777079743,780.31222920257,5,4,3,6,horizontal,vertical,horizontal,vertical
2a,6,100256,4,10,106,19,F,NA,variable,heterogeneous,4,absent,0.669594049453735,1,vertical,vertical,1,5,green,4,NaN,619.68777079743,780.31222920257,NaN,NaN,980.31222920257,780.31222920257,980.31222920257,419.68777079743,619.68777079743,419.68777079743,619.68777079743,780.31222920257,3,6,0,4,vertical,vertical,horizontal,vertical
2a,6,100256,4,11,107,19,F,NA,variable,heterogeneous,4,present,0.79552698135376,1,vertical,vertical,1,3,red,3,4,619.68777079743,419.68777079743,619.68777079743,780.31222920257,980.31222920257,780.31222920257,980.31222920257,419.68777079743,619.68777079743,419.68777079743,619.68777079743,780.31222920257,5,0,4,6,vertical,vertical,vertical,horizontal
2a,6,100256,4,12,108,19,F,NA,variable,heterogeneous,4,present,1.19549202919006,1,vertical,vertical,1,2,red,4,3,619.68777079743,780.31222920257,619.68777079743,419.68777079743,980.31222920257,780.31222920257,980.31222920257,419.68777079743,619.68777079743,419.68777079743,619.68777079743,780.31222920257,0,3,6,4,vertical,horizontal,vertical,vertical
2a,6,100256,4,13,109,19,F,NA,variable,heterogeneous,4,present,0.779711008071899,1,vertical,vertical,1,8,green,4,2,619.68777079743,780.31222920257,980.31222920257,419.68777079743,980.31222920257,780.31222920257,980.31222920257,419.68777079743,619.68777079743,419.68777079743,619.68777079743,780.31222920257,0,6,5,4,horizontal,horizontal,vertical,vertical
2a,6,100256,4,14,110,19,F,NA,variable,heterogeneous,4,absent,0.999768972396851,1,vertical,vertical,1,8,green,2,NaN,980.31222920257,419.68777079743,NaN,NaN,980.31222920257,780.31222920257,980.31222920257,419.68777079743,619.68777079743,419.68777079743,619.68777079743,780.31222920257,5,4,6,0,vertical,vertical,vertical,horizontal
2a,6,100256,4,15,111,19,F,NA,variable,heterogeneous,4,absent,0.84400486946106,1,vertical,vertical,1,3,green,4,NaN,619.68777079743,780.31222920257,NaN,NaN,980.31222920257,780.31222920257,980.31222920257,419.68777079743,619.68777079743,419.68777079743,619.68777079743,780.31222920257,5,0,3,4,vertical,horizontal,horizontal,vertical
2a,6,100256,4,16,112,19,F,NA,variable,heterogeneous,4,present,0.533037900924683,1,vertical,vertical,1,5,green,4,2,619.68777079743,780.31222920257,980.31222920257,419.68777079743,980.31222920257,780.31222920257,980.31222920257,419.68777079743,619.68777079743,419.68777079743,619.68777079743,780.31222920257,6,3,5,4,vertical,vertical,vertical,vertical
2a,6,100256,4,17,113,19,F,NA,variable,heterogeneous,4,absent,1.22407793998718,1,horizontal,horizontal,1,2,green,3,NaN,619.68777079743,419.68777079743,NaN,NaN,980.31222920257,780.31222920257,980.31222920257,419.68777079743,619.68777079743,419.68777079743,619.68777079743,780.31222920257,3,6,4,0,vertical,horizontal,horizontal,horizontal
2a,6,100256,4,18,114,19,F,NA,variable,heterogeneous,4,absent,NaN,0,vertical,none,0,2,red,4,NaN,619.68777079743,780.31222920257,NaN,NaN,980.31222920257,780.31222920257,980.31222920257,419.68777079743,619.68777079743,419.68777079743,619.68777079743,780.31222920257,3,6,5,4,horizontal,vertical,horizontal,vertical
2a,6,100256,4,19,115,19,F,NA,variable,heterogeneous,4,present,1.77717280387878,0,horizontal,vertical,1,5,red,1,3,980.31222920257,780.31222920257,619.68777079743,419.68777079743,980.31222920257,780.31222920257,980.31222920257,419.68777079743,619.68777079743,419.68777079743,619.68777079743,780.31222920257,4,3,6,0,horizontal,horizontal,vertical,horizontal
2a,6,100256,4,20,116,19,F,NA,variable,heterogeneous,4,present,0.965088844299316,1,vertical,vertical,1,2,green,2,1,980.31222920257,419.68777079743,980.31222920257,780.31222920257,980.31222920257,780.31222920257,980.31222920257,419.68777079743,619.68777079743,419.68777079743,619.68777079743,780.31222920257,5,4,6,0,horizontal,vertical,vertical,horizontal
2a,6,100256,4,21,117,19,F,NA,variable,heterogeneous,4,present,0.708860874176025,1,horizontal,horizontal,1,8,red,2,4,980.31222920257,419.68777079743,619.68777079743,780.31222920257,980.31222920257,780.31222920257,980.31222920257,419.68777079743,619.68777079743,419.68777079743,619.68777079743,780.31222920257,0,4,5,3,vertical,horizontal,horizontal,horizontal
2a,6,100256,4,22,118,19,F,NA,variable,heterogeneous,4,absent,0.631260871887207,1,horizontal,horizontal,1,8,green,4,NaN,619.68777079743,780.31222920257,NaN,NaN,980.31222920257,780.31222920257,980.31222920257,419.68777079743,619.68777079743,419.68777079743,619.68777079743,780.31222920257,6,0,5,4,horizontal,vertical,vertical,horizontal
2a,6,100256,4,23,119,19,F,NA,variable,heterogeneous,4,present,0.659994125366211,1,vertical,vertical,1,3,green,1,2,980.31222920257,780.31222920257,980.31222920257,419.68777079743,980.31222920257,780.31222920257,980.31222920257,419.68777079743,619.68777079743,419.68777079743,619.68777079743,780.31222920257,4,6,0,3,vertical,vertical,horizontal,vertical
2a,6,100256,4,24,120,19,F,NA,variable,heterogeneous,4,present,0.597934007644653,1,horizontal,horizontal,1,2,green,1,3,980.31222920257,780.31222920257,619.68777079743,419.68777079743,980.31222920257,780.31222920257,980.31222920257,419.68777079743,619.68777079743,419.68777079743,619.68777079743,780.31222920257,4,5,3,0,horizontal,vertical,horizontal,vertical
2a,6,100256,4,25,121,19,F,NA,variable,heterogeneous,4,absent,0.421883821487427,1,horizontal,horizontal,1,3,red,3,NaN,619.68777079743,419.68777079743,NaN,NaN,980.31222920257,780.31222920257,980.31222920257,419.68777079743,619.68777079743,419.68777079743,619.68777079743,780.31222920257,0,3,4,6,horizontal,vertical,horizontal,vertical
2a,6,100256,4,26,122,19,F,NA,variable,heterogeneous,4,absent,0.438724994659424,0,horizontal,vertical,1,5,green,3,NaN,619.68777079743,419.68777079743,NaN,NaN,980.31222920257,780.31222920257,980.31222920257,419.68777079743,619.68777079743,419.68777079743,619.68777079743,780.31222920257,6,5,4,0,horizontal,vertical,horizontal,horizontal
2a,6,100256,4,27,123,19,F,NA,variable,heterogeneous,4,absent,0.695368051528931,1,vertical,vertical,1,2,green,3,NaN,619.68777079743,419.68777079743,NaN,NaN,980.31222920257,780.31222920257,980.31222920257,419.68777079743,619.68777079743,419.68777079743,619.68777079743,780.31222920257,3,6,4,5,vertical,vertical,vertical,vertical
2a,6,100256,4,28,124,19,F,NA,variable,heterogeneous,4,present,0.797555923461914,1,horizontal,horizontal,1,3,red,3,4,619.68777079743,419.68777079743,619.68777079743,780.31222920257,980.31222920257,780.31222920257,980.31222920257,419.68777079743,619.68777079743,419.68777079743,619.68777079743,780.31222920257,6,0,4,3,horizontal,vertical,horizontal,vertical
2a,6,100256,4,29,125,19,F,NA,variable,heterogeneous,4,absent,0.677731990814209,1,horizontal,horizontal,1,5,red,3,NaN,619.68777079743,419.68777079743,NaN,NaN,980.31222920257,780.31222920257,980.31222920257,419.68777079743,619.68777079743,419.68777079743,619.68777079743,780.31222920257,6,3,4,5,vertical,horizontal,horizontal,vertical
2a,6,100256,4,30,126,19,F,NA,variable,heterogeneous,4,absent,1.25150012969971,1,horizontal,horizontal,1,3,green,2,NaN,980.31222920257,419.68777079743,NaN,NaN,980.31222920257,780.31222920257,980.31222920257,419.68777079743,619.68777079743,419.68777079743,619.68777079743,780.31222920257,5,4,6,0,vertical,horizontal,horizontal,horizontal
2a,6,100256,4,31,127,19,F,NA,variable,heterogeneous,4,present,1.11274099349976,1,horizontal,horizontal,1,2,red,4,3,619.68777079743,780.31222920257,619.68777079743,419.68777079743,980.31222920257,780.31222920257,980.31222920257,419.68777079743,619.68777079743,419.68777079743,619.68777079743,780.31222920257,3,0,6,4,horizontal,vertical,horizontal,horizontal
2a,6,100256,4,32,128,19,F,NA,variable,heterogeneous,4,absent,0.875172138214111,1,horizontal,horizontal,1,2,green,1,NaN,980.31222920257,780.31222920257,NaN,NaN,980.31222920257,780.31222920257,980.31222920257,419.68777079743,619.68777079743,419.68777079743,619.68777079743,780.31222920257,4,0,3,6,horizontal,horizontal,horizontal,horizontal
2a,6,100256,5,1,129,19,F,NA,variable,heterogeneous,4,present,0.412945032119751,1,vertical,vertical,1,2,green,3,4,619.68777079743,419.68777079743,619.68777079743,780.31222920257,980.31222920257,780.31222920257,980.31222920257,419.68777079743,619.68777079743,419.68777079743,619.68777079743,780.31222920257,6,5,4,0,vertical,vertical,vertical,horizontal
2a,6,100256,5,2,130,19,F,NA,variable,heterogeneous,4,present,0.957614183425903,1,horizontal,horizontal,1,5,green,4,3,619.68777079743,780.31222920257,619.68777079743,419.68777079743,980.31222920257,780.31222920257,980.31222920257,419.68777079743,619.68777079743,419.68777079743,619.68777079743,780.31222920257,3,5,6,4,vertical,vertical,horizontal,horizontal
2a,6,100256,5,3,131,19,F,NA,variable,heterogeneous,4,present,1.08105802536011,1,horizontal,horizontal,1,2,green,2,1,980.31222920257,419.68777079743,980.31222920257,780.31222920257,980.31222920257,780.31222920257,980.31222920257,419.68777079743,619.68777079743,419.68777079743,619.68777079743,780.31222920257,0,4,6,3,horizontal,horizontal,horizontal,horizontal
2a,6,100256,5,4,132,19,F,NA,variable,heterogeneous,4,absent,0.938962936401367,0,horizontal,vertical,1,3,green,3,NaN,619.68777079743,419.68777079743,NaN,NaN,980.31222920257,780.31222920257,980.31222920257,419.68777079743,619.68777079743,419.68777079743,619.68777079743,780.31222920257,0,5,4,6,horizontal,vertical,horizontal,vertical
2a,6,100256,5,5,133,19,F,NA,variable,heterogeneous,4,present,1.19799494743347,1,horizontal,horizontal,1,2,red,4,2,619.68777079743,780.31222920257,980.31222920257,419.68777079743,980.31222920257,780.31222920257,980.31222920257,419.68777079743,619.68777079743,419.68777079743,619.68777079743,780.31222920257,5,0,3,4,vertical,horizontal,vertical,horizontal
2a,6,100256,5,6,134,19,F,NA,variable,heterogeneous,4,absent,0.50990891456604,1,horizontal,horizontal,1,2,green,4,NaN,619.68777079743,780.31222920257,NaN,NaN,980.31222920257,780.31222920257,980.31222920257,419.68777079743,619.68777079743,419.68777079743,619.68777079743,780.31222920257,3,5,6,4,vertical,vertical,horizontal,horizontal
2a,6,100256,5,7,135,19,F,NA,variable,heterogeneous,4,absent,0.584619998931885,1,vertical,vertical,1,2,red,4,NaN,619.68777079743,780.31222920257,NaN,NaN,980.31222920257,780.31222920257,980.31222920257,419.68777079743,619.68777079743,419.68777079743,619.68777079743,780.31222920257,3,5,0,4,vertical,vertical,vertical,vertical
2a,6,100256,5,8,136,19,F,NA,variable,heterogeneous,4,present,0.580274820327759,1,horizontal,horizontal,1,3,green,4,3,619.68777079743,780.31222920257,619.68777079743,419.68777079743,980.31222920257,780.31222920257,980.31222920257,419.68777079743,619.68777079743,419.68777079743,619.68777079743,780.31222920257,0,5,6,4,vertical,vertical,horizontal,horizontal
2a,6,100256,5,9,137,19,F,NA,variable,heterogeneous,4,absent,1.06413102149963,1,horizontal,horizontal,1,8,red,2,NaN,980.31222920257,419.68777079743,NaN,NaN,980.31222920257,780.31222920257,980.31222920257,419.68777079743,619.68777079743,419.68777079743,619.68777079743,780.31222920257,0,4,5,3,horizontal,horizontal,vertical,vertical
2a,6,100256,5,10,138,19,F,NA,variable,heterogeneous,4,absent,0.985511064529419,1,horizontal,horizontal,1,2,red,2,NaN,980.31222920257,419.68777079743,NaN,NaN,980.31222920257,780.31222920257,980.31222920257,419.68777079743,619.68777079743,419.68777079743,619.68777079743,780.31222920257,5,4,6,3,horizontal,horizontal,vertical,horizontal
2a,6,100256,5,11,139,19,F,NA,variable,heterogeneous,4,absent,1.10977602005005,1,horizontal,horizontal,1,5,green,1,NaN,980.31222920257,780.31222920257,NaN,NaN,980.31222920257,780.31222920257,980.31222920257,419.68777079743,619.68777079743,419.68777079743,619.68777079743,780.31222920257,4,6,5,0,horizontal,horizontal,horizontal,horizontal
2a,6,100256,5,12,140,19,F,NA,variable,heterogeneous,4,absent,1.55207204818726,1,horizontal,horizontal,1,3,red,1,NaN,980.31222920257,780.31222920257,NaN,NaN,980.31222920257,780.31222920257,980.31222920257,419.68777079743,619.68777079743,419.68777079743,619.68777079743,780.31222920257,4,6,0,3,horizontal,vertical,vertical,horizontal
2a,6,100256,5,13,141,19,F,NA,variable,heterogeneous,4,absent,0.563385009765625,1,horizontal,horizontal,1,2,red,1,NaN,980.31222920257,780.31222920257,NaN,NaN,980.31222920257,780.31222920257,980.31222920257,419.68777079743,619.68777079743,419.68777079743,619.68777079743,780.31222920257,4,3,0,5,horizontal,horizontal,horizontal,vertical
2a,6,100256,5,14,142,19,F,NA,variable,heterogeneous,4,absent,0.803055047988892,1,vertical,vertical,1,8,green,2,NaN,980.31222920257,419.68777079743,NaN,NaN,980.31222920257,780.31222920257,980.31222920257,419.68777079743,619.68777079743,419.68777079743,619.68777079743,780.31222920257,0,4,6,3,horizontal,vertical,horizontal,vertical
2a,6,100256,5,15,143,19,F,NA,variable,heterogeneous,4,present,0.983750104904175,1,horizontal,horizontal,1,2,green,4,3,619.68777079743,780.31222920257,619.68777079743,419.68777079743,980.31222920257,780.31222920257,980.31222920257,419.68777079743,619.68777079743,419.68777079743,619.68777079743,780.31222920257,0,6,3,4,horizontal,horizontal,vertical,horizontal
2a,6,100256,5,16,144,19,F,NA,variable,heterogeneous,4,absent,0.627201080322266,1,vertical,vertical,1,3,red,4,NaN,619.68777079743,780.31222920257,NaN,NaN,980.31222920257,780.31222920257,980.31222920257,419.68777079743,619.68777079743,419.68777079743,619.68777079743,780.31222920257,5,3,0,4,horizontal,vertical,vertical,vertical
2a,6,100256,5,17,145,19,F,NA,variable,heterogeneous,4,absent,1.44831204414368,1,vertical,vertical,1,2,green,1,NaN,980.31222920257,780.31222920257,NaN,NaN,980.31222920257,780.31222920257,980.31222920257,419.68777079743,619.68777079743,419.68777079743,619.68777079743,780.31222920257,4,5,3,6,vertical,vertical,horizontal,vertical
2a,6,100256,5,18,146,19,F,NA,variable,heterogeneous,4,present,0.805615901947021,1,vertical,vertical,1,2,red,3,4,619.68777079743,419.68777079743,619.68777079743,780.31222920257,980.31222920257,780.31222920257,980.31222920257,419.68777079743,619.68777079743,419.68777079743,619.68777079743,780.31222920257,0,3,4,5,horizontal,vertical,vertical,vertical
2a,6,100256,5,19,147,19,F,NA,variable,heterogeneous,4,present,1.40177917480469,1,horizontal,horizontal,1,8,red,4,1,619.68777079743,780.31222920257,980.31222920257,780.31222920257,980.31222920257,780.31222920257,980.31222920257,419.68777079743,619.68777079743,419.68777079743,619.68777079743,780.31222920257,3,5,0,4,horizontal,vertical,vertical,horizontal
2a,6,100256,5,20,148,19,F,NA,variable,heterogeneous,4,present,0.686221837997437,1,horizontal,horizontal,1,5,green,4,1,619.68777079743,780.31222920257,980.31222920257,780.31222920257,980.31222920257,780.31222920257,980.31222920257,419.68777079743,619.68777079743,419.68777079743,619.68777079743,780.31222920257,3,6,5,4,vertical,horizontal,horizontal,horizontal
2a,6,100256,5,21,149,19,F,NA,variable,heterogeneous,4,present,0.952211141586304,1,vertical,vertical,1,2,green,1,4,980.31222920257,780.31222920257,619.68777079743,780.31222920257,980.31222920257,780.31222920257,980.31222920257,419.68777079743,619.68777079743,419.68777079743,619.68777079743,780.31222920257,4,0,6,3,vertical,vertical,vertical,horizontal
2a,6,100256,5,22,150,19,F,NA,variable,heterogeneous,4,absent,1.19559597969055,1,vertical,vertical,1,3,red,2,NaN,980.31222920257,419.68777079743,NaN,NaN,980.31222920257,780.31222920257,980.31222920257,419.68777079743,619.68777079743,419.68777079743,619.68777079743,780.31222920257,5,4,6,0,horizontal,vertical,horizontal,vertical
2a,6,100256,5,23,151,19,F,NA,variable,heterogeneous,4,present,0.947705984115601,1,vertical,vertical,1,3,red,2,4,980.31222920257,419.68777079743,619.68777079743,780.31222920257,980.31222920257,780.31222920257,980.31222920257,419.68777079743,619.68777079743,419.68777079743,619.68777079743,780.31222920257,6,4,0,5,horizontal,vertical,horizontal,horizontal
2a,6,100256,5,24,152,19,F,NA,variable,heterogeneous,4,present,1.0268030166626,1,vertical,vertical,1,3,green,2,1,980.31222920257,419.68777079743,980.31222920257,780.31222920257,980.31222920257,780.31222920257,980.31222920257,419.68777079743,619.68777079743,419.68777079743,619.68777079743,780.31222920257,3,4,0,6,vertical,vertical,vertical,vertical
2a,6,100256,5,25,153,19,F,NA,variable,heterogeneous,4,absent,0.903543949127197,0,vertical,horizontal,1,2,green,1,NaN,980.31222920257,780.31222920257,NaN,NaN,980.31222920257,780.31222920257,980.31222920257,419.68777079743,619.68777079743,419.68777079743,619.68777079743,780.31222920257,4,3,0,5,vertical,vertical,horizontal,horizontal
2a,6,100256,5,26,154,19,F,NA,variable,heterogeneous,4,present,1.00583100318909,1,vertical,vertical,1,8,green,2,3,980.31222920257,419.68777079743,619.68777079743,419.68777079743,980.31222920257,780.31222920257,980.31222920257,419.68777079743,619.68777079743,419.68777079743,619.68777079743,780.31222920257,5,4,0,3,vertical,vertical,vertical,vertical
2a,6,100256,5,27,155,19,F,NA,variable,heterogeneous,4,absent,0.962301969528198,1,vertical,vertical,1,5,green,4,NaN,619.68777079743,780.31222920257,NaN,NaN,980.31222920257,780.31222920257,980.31222920257,419.68777079743,619.68777079743,419.68777079743,619.68777079743,780.31222920257,3,0,5,4,horizontal,horizontal,vertical,vertical
2a,6,100256,5,28,156,19,F,NA,variable,heterogeneous,4,absent,0.62956690788269,0,vertical,horizontal,1,5,green,2,NaN,980.31222920257,419.68777079743,NaN,NaN,980.31222920257,780.31222920257,980.31222920257,419.68777079743,619.68777079743,419.68777079743,619.68777079743,780.31222920257,3,4,5,6,vertical,vertical,vertical,horizontal
2a,6,100256,5,29,157,19,F,NA,variable,heterogeneous,4,present,0.850639820098877,1,vertical,vertical,1,5,red,2,3,980.31222920257,419.68777079743,619.68777079743,419.68777079743,980.31222920257,780.31222920257,980.31222920257,419.68777079743,619.68777079743,419.68777079743,619.68777079743,780.31222920257,6,4,3,0,horizontal,vertical,horizontal,horizontal
2a,6,100256,5,30,158,19,F,NA,variable,heterogeneous,4,present,0.927731037139893,1,horizontal,horizontal,1,3,red,4,1,619.68777079743,780.31222920257,980.31222920257,780.31222920257,980.31222920257,780.31222920257,980.31222920257,419.68777079743,619.68777079743,419.68777079743,619.68777079743,780.31222920257,0,5,3,4,vertical,vertical,vertical,horizontal
2a,6,100256,5,31,159,19,F,NA,variable,heterogeneous,4,present,0.774604797363281,1,vertical,vertical,1,5,red,3,4,619.68777079743,419.68777079743,619.68777079743,780.31222920257,980.31222920257,780.31222920257,980.31222920257,419.68777079743,619.68777079743,419.68777079743,619.68777079743,780.31222920257,6,3,4,0,horizontal,horizontal,vertical,vertical
2a,6,100256,5,32,160,19,F,NA,variable,heterogeneous,4,absent,0.614274024963379,1,horizontal,horizontal,1,5,red,2,NaN,980.31222920257,419.68777079743,NaN,NaN,980.31222920257,780.31222920257,980.31222920257,419.68777079743,619.68777079743,419.68777079743,619.68777079743,780.31222920257,0,4,6,5,vertical,horizontal,horizontal,vertical
2a,6,100256,6,1,161,19,F,NA,variable,heterogeneous,4,present,0.938812017440796,1,vertical,vertical,1,2,green,2,3,980.31222920257,419.68777079743,619.68777079743,419.68777079743,980.31222920257,780.31222920257,980.31222920257,419.68777079743,619.68777079743,419.68777079743,619.68777079743,780.31222920257,5,4,6,3,vertical,vertical,vertical,horizontal
2a,6,100256,6,2,162,19,F,NA,variable,heterogeneous,4,absent,0.869519948959351,1,horizontal,horizontal,1,5,red,3,NaN,619.68777079743,419.68777079743,NaN,NaN,980.31222920257,780.31222920257,980.31222920257,419.68777079743,619.68777079743,419.68777079743,619.68777079743,780.31222920257,3,0,4,5,vertical,horizontal,horizontal,horizontal
2a,6,100256,6,3,163,19,F,NA,variable,heterogeneous,4,absent,0.675615072250366,0,horizontal,vertical,1,2,red,4,NaN,619.68777079743,780.31222920257,NaN,NaN,980.31222920257,780.31222920257,980.31222920257,419.68777079743,619.68777079743,419.68777079743,619.68777079743,780.31222920257,5,3,0,4,horizontal,vertical,vertical,horizontal
2a,6,100256,6,4,164,19,F,NA,variable,heterogeneous,4,present,0.912928104400635,1,horizontal,horizontal,1,5,red,1,2,980.31222920257,780.31222920257,980.31222920257,419.68777079743,980.31222920257,780.31222920257,980.31222920257,419.68777079743,619.68777079743,419.68777079743,619.68777079743,780.31222920257,4,6,5,3,horizontal,horizontal,vertical,horizontal
2a,6,100256,6,5,165,19,F,NA,variable,heterogeneous,4,absent,1.04354310035706,1,vertical,vertical,1,5,green,1,NaN,980.31222920257,780.31222920257,NaN,NaN,980.31222920257,780.31222920257,980.31222920257,419.68777079743,619.68777079743,419.68777079743,619.68777079743,780.31222920257,4,5,3,6,vertical,horizontal,vertical,horizontal
2a,6,100256,6,6,166,19,F,NA,variable,heterogeneous,4,present,0.740626096725464,1,horizontal,horizontal,1,3,green,4,1,619.68777079743,780.31222920257,980.31222920257,780.31222920257,980.31222920257,780.31222920257,980.31222920257,419.68777079743,619.68777079743,419.68777079743,619.68777079743,780.31222920257,3,0,5,4,vertical,horizontal,horizontal,horizontal
2a,6,100256,6,7,167,19,F,NA,variable,heterogeneous,4,absent,0.795866966247559,1,vertical,vertical,1,3,red,4,NaN,619.68777079743,780.31222920257,NaN,NaN,980.31222920257,780.31222920257,980.31222920257,419.68777079743,619.68777079743,419.68777079743,619.68777079743,780.31222920257,3,0,5,4,horizontal,horizontal,vertical,vertical
2a,6,100256,6,8,168,19,F,NA,variable,heterogeneous,4,absent,0.883937120437622,1,horizontal,horizontal,1,3,red,3,NaN,619.68777079743,419.68777079743,NaN,NaN,980.31222920257,780.31222920257,980.31222920257,419.68777079743,619.68777079743,419.68777079743,619.68777079743,780.31222920257,5,0,4,6,vertical,vertical,horizontal,horizontal
2a,6,100256,6,9,169,19,F,NA,variable,heterogeneous,4,present,0.87791919708252,1,vertical,vertical,1,3,green,4,1,619.68777079743,780.31222920257,980.31222920257,780.31222920257,980.31222920257,780.31222920257,980.31222920257,419.68777079743,619.68777079743,419.68777079743,619.68777079743,780.31222920257,3,6,5,4,vertical,horizontal,vertical,vertical
2a,6,100256,6,10,170,19,F,NA,variable,heterogeneous,4,present,0.739796161651611,0,vertical,horizontal,1,5,green,2,1,980.31222920257,419.68777079743,980.31222920257,780.31222920257,980.31222920257,780.31222920257,980.31222920257,419.68777079743,619.68777079743,419.68777079743,619.68777079743,780.31222920257,5,4,6,0,horizontal,vertical,vertical,horizontal
2a,6,100256,6,11,171,19,F,NA,variable,heterogeneous,4,present,0.554889917373657,1,vertical,vertical,1,5,red,3,2,619.68777079743,419.68777079743,980.31222920257,419.68777079743,980.31222920257,780.31222920257,980.31222920257,419.68777079743,619.68777079743,419.68777079743,619.68777079743,780.31222920257,3,6,4,5,vertical,vertical,vertical,horizontal
2a,6,100256,6,12,172,19,F,NA,variable,heterogeneous,4,absent,0.726248979568481,0,vertical,horizontal,1,2,green,4,NaN,619.68777079743,780.31222920257,NaN,NaN,980.31222920257,780.31222920257,980.31222920257,419.68777079743,619.68777079743,419.68777079743,619.68777079743,780.31222920257,3,6,5,4,horizontal,horizontal,horizontal,vertical
2a,6,100256,6,13,173,19,F,NA,variable,heterogeneous,4,absent,0.397045850753784,0,horizontal,vertical,1,2,red,1,NaN,980.31222920257,780.31222920257,NaN,NaN,980.31222920257,780.31222920257,980.31222920257,419.68777079743,619.68777079743,419.68777079743,619.68777079743,780.31222920257,4,6,5,0,horizontal,horizontal,vertical,vertical
2a,6,100256,6,14,174,19,F,NA,variable,heterogeneous,4,present,0.636960983276367,0,vertical,horizontal,1,2,red,2,3,980.31222920257,419.68777079743,619.68777079743,419.68777079743,980.31222920257,780.31222920257,980.31222920257,419.68777079743,619.68777079743,419.68777079743,619.68777079743,780.31222920257,0,4,5,6,horizontal,vertical,vertical,vertical
2a,6,100256,6,15,175,19,F,NA,variable,heterogeneous,4,absent,0.349802017211914,1,horizontal,horizontal,1,5,red,4,NaN,619.68777079743,780.31222920257,NaN,NaN,980.31222920257,780.31222920257,980.31222920257,419.68777079743,619.68777079743,419.68777079743,619.68777079743,780.31222920257,6,5,0,4,vertical,horizontal,vertical,horizontal
2a,6,100256,6,16,176,19,F,NA,variable,heterogeneous,4,present,0.572990894317627,1,horizontal,horizontal,1,2,red,3,1,619.68777079743,419.68777079743,980.31222920257,780.31222920257,980.31222920257,780.31222920257,980.31222920257,419.68777079743,619.68777079743,419.68777079743,619.68777079743,780.31222920257,6,5,4,3,horizontal,vertical,horizontal,horizontal
2a,6,100256,6,17,177,19,F,NA,variable,heterogeneous,4,absent,0.356853008270264,0,vertical,horizontal,1,5,green,3,NaN,619.68777079743,419.68777079743,NaN,NaN,980.31222920257,780.31222920257,980.31222920257,419.68777079743,619.68777079743,419.68777079743,619.68777079743,780.31222920257,0,6,4,3,vertical,horizontal,vertical,vertical
2a,6,100256,6,18,178,19,F,NA,variable,heterogeneous,4,present,0.400167942047119,0,horizontal,vertical,1,3,red,1,4,980.31222920257,780.31222920257,619.68777079743,780.31222920257,980.31222920257,780.31222920257,980.31222920257,419.68777079743,619.68777079743,419.68777079743,619.68777079743,780.31222920257,4,0,6,5,horizontal,horizontal,horizontal,vertical
2a,6,100256,6,19,179,19,F,NA,variable,heterogeneous,4,absent,1.68437504768372,1,horizontal,horizontal,1,8,green,4,NaN,619.68777079743,780.31222920257,NaN,NaN,980.31222920257,780.31222920257,980.31222920257,419.68777079743,619.68777079743,419.68777079743,619.68777079743,780.31222920257,0,5,3,4,horizontal,horizontal,horizontal,horizontal
2a,6,100256,6,20,180,19,F,NA,variable,heterogeneous,4,absent,0.758677005767822,1,vertical,vertical,1,2,red,2,NaN,980.31222920257,419.68777079743,NaN,NaN,980.31222920257,780.31222920257,980.31222920257,419.68777079743,619.68777079743,419.68777079743,619.68777079743,780.31222920257,0,4,5,3,horizontal,vertical,horizontal,vertical
2a,6,100256,6,21,181,19,F,NA,variable,heterogeneous,4,absent,0.986253976821899,1,vertical,vertical,1,8,green,1,NaN,980.31222920257,780.31222920257,NaN,NaN,980.31222920257,780.31222920257,980.31222920257,419.68777079743,619.68777079743,419.68777079743,619.68777079743,780.31222920257,4,5,3,6,vertical,horizontal,vertical,vertical
2a,6,100256,6,22,182,19,F,NA,variable,heterogeneous,4,present,1.1660041809082,1,horizontal,horizontal,1,2,red,4,3,619.68777079743,780.31222920257,619.68777079743,419.68777079743,980.31222920257,780.31222920257,980.31222920257,419.68777079743,619.68777079743,419.68777079743,619.68777079743,780.31222920257,0,3,5,4,vertical,vertical,horizontal,horizontal
2a,6,100256,6,23,183,19,F,NA,variable,heterogeneous,4,present,1.05347299575806,1,horizontal,horizontal,1,5,red,3,2,619.68777079743,419.68777079743,980.31222920257,419.68777079743,980.31222920257,780.31222920257,980.31222920257,419.68777079743,619.68777079743,419.68777079743,619.68777079743,780.31222920257,3,5,4,0,horizontal,horizontal,horizontal,vertical
2a,6,100256,6,24,184,19,F,NA,variable,heterogeneous,4,present,1.30695605278015,1,horizontal,horizontal,1,2,red,2,1,980.31222920257,419.68777079743,980.31222920257,780.31222920257,980.31222920257,780.31222920257,980.31222920257,419.68777079743,619.68777079743,419.68777079743,619.68777079743,780.31222920257,3,4,5,6,vertical,horizontal,horizontal,horizontal
2a,6,100256,6,25,185,19,F,NA,variable,heterogeneous,4,present,1.17351007461548,1,vertical,vertical,1,8,green,1,3,980.31222920257,780.31222920257,619.68777079743,419.68777079743,980.31222920257,780.31222920257,980.31222920257,419.68777079743,619.68777079743,419.68777079743,619.68777079743,780.31222920257,4,5,0,6,vertical,vertical,vertical,vertical
2a,6,100256,6,26,186,19,F,NA,variable,heterogeneous,4,present,1.16539692878723,1,horizontal,horizontal,1,8,red,2,3,980.31222920257,419.68777079743,619.68777079743,419.68777079743,980.31222920257,780.31222920257,980.31222920257,419.68777079743,619.68777079743,419.68777079743,619.68777079743,780.31222920257,5,4,0,3,vertical,horizontal,horizontal,horizontal
2a,6,100256,6,27,187,19,F,NA,variable,heterogeneous,4,present,0.996860027313232,1,vertical,vertical,1,2,red,4,2,619.68777079743,780.31222920257,980.31222920257,419.68777079743,980.31222920257,780.31222920257,980.31222920257,419.68777079743,619.68777079743,419.68777079743,619.68777079743,780.31222920257,6,5,0,4,vertical,horizontal,vertical,vertical
2a,6,100256,6,28,188,19,F,NA,variable,heterogeneous,4,absent,1.18923616409302,1,horizontal,horizontal,1,3,red,1,NaN,980.31222920257,780.31222920257,NaN,NaN,980.31222920257,780.31222920257,980.31222920257,419.68777079743,619.68777079743,419.68777079743,619.68777079743,780.31222920257,4,5,0,3,horizontal,vertical,horizontal,vertical
2a,6,100256,6,29,189,19,F,NA,variable,heterogeneous,4,present,0.70100998878479,1,vertical,vertical,1,3,green,4,2,619.68777079743,780.31222920257,980.31222920257,419.68777079743,980.31222920257,780.31222920257,980.31222920257,419.68777079743,619.68777079743,419.68777079743,619.68777079743,780.31222920257,5,3,6,4,horizontal,horizontal,vertical,vertical
2a,6,100256,6,30,190,19,F,NA,variable,heterogeneous,4,absent,0.651562929153442,1,horizontal,horizontal,1,2,green,4,NaN,619.68777079743,780.31222920257,NaN,NaN,980.31222920257,780.31222920257,980.31222920257,419.68777079743,619.68777079743,419.68777079743,619.68777079743,780.31222920257,0,5,6,4,vertical,vertical,horizontal,horizontal
2a,6,100256,6,31,191,19,F,NA,variable,heterogeneous,4,absent,0.784661054611206,1,vertical,vertical,1,3,green,3,NaN,619.68777079743,419.68777079743,NaN,NaN,980.31222920257,780.31222920257,980.31222920257,419.68777079743,619.68777079743,419.68777079743,619.68777079743,780.31222920257,5,3,4,0,vertical,horizontal,vertical,vertical
2a,6,100256,6,32,192,19,F,NA,variable,heterogeneous,4,absent,0.828268051147461,1,vertical,vertical,1,2,green,3,NaN,619.68777079743,419.68777079743,NaN,NaN,980.31222920257,780.31222920257,980.31222920257,419.68777079743,619.68777079743,419.68777079743,619.68777079743,780.31222920257,5,6,4,3,vertical,vertical,vertical,vertical
2a,6,100256,7,1,193,19,F,NA,variable,heterogeneous,4,present,0.804791927337646,0,horizontal,vertical,1,2,green,2,3,980.31222920257,419.68777079743,619.68777079743,419.68777079743,980.31222920257,780.31222920257,980.31222920257,419.68777079743,619.68777079743,419.68777079743,619.68777079743,780.31222920257,3,4,0,5,horizontal,horizontal,vertical,horizontal
2a,6,100256,7,2,194,19,F,NA,variable,heterogeneous,4,absent,1.04090690612793,1,horizontal,horizontal,1,3,red,2,NaN,980.31222920257,419.68777079743,NaN,NaN,980.31222920257,780.31222920257,980.31222920257,419.68777079743,619.68777079743,419.68777079743,619.68777079743,780.31222920257,0,4,3,5,horizontal,horizontal,horizontal,horizontal
2a,6,100256,7,3,195,19,F,NA,variable,heterogeneous,4,present,0.786053895950317,1,horizontal,horizontal,1,5,red,4,3,619.68777079743,780.31222920257,619.68777079743,419.68777079743,980.31222920257,780.31222920257,980.31222920257,419.68777079743,619.68777079743,419.68777079743,619.68777079743,780.31222920257,6,3,0,4,horizontal,horizontal,horizontal,horizontal
2a,6,100256,7,4,196,19,F,NA,variable,heterogeneous,4,present,1.06202411651611,1,vertical,vertical,1,3,red,4,1,619.68777079743,780.31222920257,980.31222920257,780.31222920257,980.31222920257,780.31222920257,980.31222920257,419.68777079743,619.68777079743,419.68777079743,619.68777079743,780.31222920257,6,5,3,4,vertical,horizontal,horizontal,vertical
2a,6,100256,7,5,197,19,F,NA,variable,heterogeneous,4,present,1.31158089637756,1,horizontal,horizontal,1,5,green,1,3,980.31222920257,780.31222920257,619.68777079743,419.68777079743,980.31222920257,780.31222920257,980.31222920257,419.68777079743,619.68777079743,419.68777079743,619.68777079743,780.31222920257,4,6,5,3,horizontal,horizontal,horizontal,vertical
2a,6,100256,7,6,198,19,F,NA,variable,heterogeneous,4,absent,0.729986906051636,1,vertical,vertical,1,2,green,3,NaN,619.68777079743,419.68777079743,NaN,NaN,980.31222920257,780.31222920257,980.31222920257,419.68777079743,619.68777079743,419.68777079743,619.68777079743,780.31222920257,0,6,4,5,vertical,vertical,vertical,vertical
2a,6,100256,7,7,199,19,F,NA,variable,heterogeneous,4,absent,1.54103112220764,0,vertical,horizontal,1,8,red,3,NaN,619.68777079743,419.68777079743,NaN,NaN,980.31222920257,780.31222920257,980.31222920257,419.68777079743,619.68777079743,419.68777079743,619.68777079743,780.31222920257,3,0,4,5,vertical,vertical,vertical,horizontal
2a,6,100256,7,8,200,19,F,NA,variable,heterogeneous,4,present,0.668208122253418,0,vertical,horizontal,1,3,green,4,1,619.68777079743,780.31222920257,980.31222920257,780.31222920257,980.31222920257,780.31222920257,980.31222920257,419.68777079743,619.68777079743,419.68777079743,619.68777079743,780.31222920257,3,5,6,4,horizontal,vertical,horizontal,vertical
2a,6,100256,7,9,201,19,F,NA,variable,heterogeneous,4,absent,1.18999409675598,1,vertical,vertical,1,3,red,1,NaN,980.31222920257,780.31222920257,NaN,NaN,980.31222920257,780.31222920257,980.31222920257,419.68777079743,619.68777079743,419.68777079743,619.68777079743,780.31222920257,4,0,6,3,vertical,horizontal,vertical,horizontal
2a,6,100256,7,10,202,19,F,NA,variable,heterogeneous,4,absent,1.35812401771545,1,horizontal,horizontal,1,5,red,2,NaN,980.31222920257,419.68777079743,NaN,NaN,980.31222920257,780.31222920257,980.31222920257,419.68777079743,619.68777079743,419.68777079743,619.68777079743,780.31222920257,5,4,6,0,horizontal,horizontal,horizontal,vertical
2a,6,100256,7,11,203,19,F,NA,variable,heterogeneous,4,absent,0.881351947784424,1,vertical,vertical,1,5,red,3,NaN,619.68777079743,419.68777079743,NaN,NaN,980.31222920257,780.31222920257,980.31222920257,419.68777079743,619.68777079743,419.68777079743,619.68777079743,780.31222920257,3,6,4,5,horizontal,vertical,vertical,horizontal
2a,6,100256,7,12,204,19,F,NA,variable,heterogeneous,4,absent,0.691042900085449,1,vertical,vertical,1,2,red,4,NaN,619.68777079743,780.31222920257,NaN,NaN,980.31222920257,780.31222920257,980.31222920257,419.68777079743,619.68777079743,419.68777079743,619.68777079743,780.31222920257,3,6,0,4,vertical,vertical,vertical,vertical
2a,6,100256,7,13,205,19,F,NA,variable,heterogeneous,4,present,0.81322979927063,1,vertical,vertical,1,2,red,1,3,980.31222920257,780.31222920257,619.68777079743,419.68777079743,980.31222920257,780.31222920257,980.31222920257,419.68777079743,619.68777079743,419.68777079743,619.68777079743,780.31222920257,4,0,3,5,vertical,vertical,horizontal,horizontal
2a,6,100256,7,14,206,19,F,NA,variable,heterogeneous,4,absent,1.10976696014404,1,horizontal,horizontal,1,2,green,2,NaN,980.31222920257,419.68777079743,NaN,NaN,980.31222920257,780.31222920257,980.31222920257,419.68777079743,619.68777079743,419.68777079743,619.68777079743,780.31222920257,0,4,5,3,horizontal,horizontal,vertical,horizontal
2a,6,100256,7,15,207,19,F,NA,variable,heterogeneous,4,absent,0.824389934539795,1,horizontal,horizontal,1,2,red,1,NaN,980.31222920257,780.31222920257,NaN,NaN,980.31222920257,780.31222920257,980.31222920257,419.68777079743,619.68777079743,419.68777079743,619.68777079743,780.31222920257,4,3,6,0,horizontal,horizontal,horizontal,horizontal
2a,6,100256,7,16,208,19,F,NA,variable,heterogeneous,4,absent,1.04483103752136,1,horizontal,horizontal,1,8,green,1,NaN,980.31222920257,780.31222920257,NaN,NaN,980.31222920257,780.31222920257,980.31222920257,419.68777079743,619.68777079743,419.68777079743,619.68777079743,780.31222920257,4,6,3,0,horizontal,horizontal,vertical,vertical
2a,6,100256,7,17,209,19,F,NA,variable,heterogeneous,4,absent,1.19016408920288,1,vertical,vertical,1,3,green,2,NaN,980.31222920257,419.68777079743,NaN,NaN,980.31222920257,780.31222920257,980.31222920257,419.68777079743,619.68777079743,419.68777079743,619.68777079743,780.31222920257,5,4,0,6,horizontal,vertical,vertical,horizontal
2a,6,100256,7,18,210,19,F,NA,variable,heterogeneous,4,present,1.10997700691223,1,horizontal,horizontal,1,2,red,1,3,980.31222920257,780.31222920257,619.68777079743,419.68777079743,980.31222920257,780.31222920257,980.31222920257,419.68777079743,619.68777079743,419.68777079743,619.68777079743,780.31222920257,4,3,0,6,horizontal,horizontal,vertical,horizontal
2a,6,100256,7,19,211,19,F,NA,variable,heterogeneous,4,absent,0.624489068984985,0,horizontal,vertical,1,3,red,2,NaN,980.31222920257,419.68777079743,NaN,NaN,980.31222920257,780.31222920257,980.31222920257,419.68777079743,619.68777079743,419.68777079743,619.68777079743,780.31222920257,3,4,6,5,vertical,horizontal,horizontal,vertical
2a,6,100256,7,20,212,19,F,NA,variable,heterogeneous,4,absent,1.41363000869751,0,horizontal,vertical,1,2,green,1,NaN,980.31222920257,780.31222920257,NaN,NaN,980.31222920257,780.31222920257,980.31222920257,419.68777079743,619.68777079743,419.68777079743,619.68777079743,780.31222920257,4,3,5,6,horizontal,vertical,vertical,vertical
2a,6,100256,7,21,213,19,F,NA,variable,heterogeneous,4,present,0.830151796340942,1,vertical,vertical,1,5,green,4,1,619.68777079743,780.31222920257,980.31222920257,780.31222920257,980.31222920257,780.31222920257,980.31222920257,419.68777079743,619.68777079743,419.68777079743,619.68777079743,780.31222920257,6,0,5,4,vertical,horizontal,vertical,vertical
2a,6,100256,7,22,214,19,F,NA,variable,heterogeneous,4,present,1.17903089523315,1,vertical,vertical,1,8,green,3,1,619.68777079743,419.68777079743,980.31222920257,780.31222920257,980.31222920257,780.31222920257,980.31222920257,419.68777079743,619.68777079743,419.68777079743,619.68777079743,780.31222920257,5,0,4,3,horizontal,horizontal,vertical,vertical
2a,6,100256,7,23,215,19,F,NA,variable,heterogeneous,4,present,1.791100025177,1,horizontal,horizontal,1,3,green,2,1,980.31222920257,419.68777079743,980.31222920257,780.31222920257,980.31222920257,780.31222920257,980.31222920257,419.68777079743,619.68777079743,419.68777079743,619.68777079743,780.31222920257,0,4,5,3,vertical,horizontal,horizontal,horizontal
2a,6,100256,7,24,216,19,F,NA,variable,heterogeneous,4,present,1.93502187728882,1,vertical,vertical,1,5,red,3,2,619.68777079743,419.68777079743,980.31222920257,419.68777079743,980.31222920257,780.31222920257,980.31222920257,419.68777079743,619.68777079743,419.68777079743,619.68777079743,780.31222920257,0,5,4,3,vertical,horizontal,vertical,horizontal
2a,6,100256,7,25,217,19,F,NA,variable,heterogeneous,4,present,1.17816495895386,1,horizontal,horizontal,1,8,red,3,2,619.68777079743,419.68777079743,980.31222920257,419.68777079743,980.31222920257,780.31222920257,980.31222920257,419.68777079743,619.68777079743,419.68777079743,619.68777079743,780.31222920257,3,5,4,6,horizontal,vertical,horizontal,vertical
2a,6,100256,7,26,218,19,F,NA,variable,heterogeneous,4,absent,1.10179805755615,1,vertical,vertical,1,5,red,4,NaN,619.68777079743,780.31222920257,NaN,NaN,980.31222920257,780.31222920257,980.31222920257,419.68777079743,619.68777079743,419.68777079743,619.68777079743,780.31222920257,6,5,3,4,horizontal,vertical,vertical,vertical
2a,6,100256,7,27,219,19,F,NA,variable,heterogeneous,4,absent,0.868324041366577,1,horizontal,horizontal,1,5,red,3,NaN,619.68777079743,419.68777079743,NaN,NaN,980.31222920257,780.31222920257,980.31222920257,419.68777079743,619.68777079743,419.68777079743,619.68777079743,780.31222920257,6,0,4,5,horizontal,horizontal,horizontal,horizontal
2a,6,100256,7,28,220,19,F,NA,variable,heterogeneous,4,present,1.02207207679749,1,horizontal,horizontal,1,2,green,4,3,619.68777079743,780.31222920257,619.68777079743,419.68777079743,980.31222920257,780.31222920257,980.31222920257,419.68777079743,619.68777079743,419.68777079743,619.68777079743,780.31222920257,6,0,3,4,vertical,vertical,horizontal,horizontal
2a,6,100256,7,29,221,19,F,NA,variable,heterogeneous,4,present,1.55031895637512,1,vertical,vertical,1,2,red,2,1,980.31222920257,419.68777079743,980.31222920257,780.31222920257,980.31222920257,780.31222920257,980.31222920257,419.68777079743,619.68777079743,419.68777079743,619.68777079743,780.31222920257,6,4,5,0,vertical,vertical,vertical,horizontal
2a,6,100256,7,30,222,19,F,NA,variable,heterogeneous,4,present,0.637500047683716,1,vertical,vertical,1,2,green,2,4,980.31222920257,419.68777079743,619.68777079743,780.31222920257,980.31222920257,780.31222920257,980.31222920257,419.68777079743,619.68777079743,419.68777079743,619.68777079743,780.31222920257,0,4,3,5,horizontal,vertical,vertical,vertical
2a,6,100256,7,31,223,19,F,NA,variable,heterogeneous,4,absent,1.12647485733032,1,vertical,vertical,1,2,green,2,NaN,980.31222920257,419.68777079743,NaN,NaN,980.31222920257,780.31222920257,980.31222920257,419.68777079743,619.68777079743,419.68777079743,619.68777079743,780.31222920257,3,4,0,5,vertical,vertical,vertical,vertical
2a,6,100256,7,32,224,19,F,NA,variable,heterogeneous,4,present,0.853179931640625,0,horizontal,vertical,1,3,red,1,4,980.31222920257,780.31222920257,619.68777079743,780.31222920257,980.31222920257,780.31222920257,980.31222920257,419.68777079743,619.68777079743,419.68777079743,619.68777079743,780.31222920257,4,3,0,6,horizontal,vertical,vertical,vertical
2a,6,100256,8,1,225,19,F,NA,variable,heterogeneous,4,absent,0.66402006149292,0,horizontal,vertical,1,2,red,1,NaN,980.31222920257,780.31222920257,NaN,NaN,980.31222920257,780.31222920257,980.31222920257,419.68777079743,619.68777079743,419.68777079743,619.68777079743,780.31222920257,4,6,3,5,horizontal,vertical,horizontal,vertical
2a,6,100256,8,2,226,19,F,NA,variable,heterogeneous,4,present,0.84984016418457,0,vertical,horizontal,1,3,green,1,4,980.31222920257,780.31222920257,619.68777079743,780.31222920257,980.31222920257,780.31222920257,980.31222920257,419.68777079743,619.68777079743,419.68777079743,619.68777079743,780.31222920257,4,5,6,3,vertical,vertical,horizontal,horizontal
2a,6,100256,8,3,227,19,F,NA,variable,heterogeneous,4,present,0.726758003234863,0,vertical,horizontal,1,2,green,4,1,619.68777079743,780.31222920257,980.31222920257,780.31222920257,980.31222920257,780.31222920257,980.31222920257,419.68777079743,619.68777079743,419.68777079743,619.68777079743,780.31222920257,0,5,3,4,vertical,horizontal,horizontal,vertical
2a,6,100256,8,4,228,19,F,NA,variable,heterogeneous,4,absent,0.837730884552002,1,vertical,vertical,1,3,red,3,NaN,619.68777079743,419.68777079743,NaN,NaN,980.31222920257,780.31222920257,980.31222920257,419.68777079743,619.68777079743,419.68777079743,619.68777079743,780.31222920257,0,5,4,3,vertical,vertical,vertical,vertical
2a,6,100256,8,5,229,19,F,NA,variable,heterogeneous,4,present,NaN,0,horizontal,none,0,2,red,1,2,980.31222920257,780.31222920257,980.31222920257,419.68777079743,980.31222920257,780.31222920257,980.31222920257,419.68777079743,619.68777079743,419.68777079743,619.68777079743,780.31222920257,4,3,5,0,horizontal,vertical,horizontal,vertical
2a,6,100256,8,6,230,19,F,NA,variable,heterogeneous,4,absent,0.827214002609253,1,horizontal,horizontal,1,2,red,4,NaN,619.68777079743,780.31222920257,NaN,NaN,980.31222920257,780.31222920257,980.31222920257,419.68777079743,619.68777079743,419.68777079743,619.68777079743,780.31222920257,3,5,0,4,horizontal,horizontal,vertical,horizontal
2a,6,100256,8,7,231,19,F,NA,variable,heterogeneous,4,absent,1.07999396324158,1,vertical,vertical,1,8,red,1,NaN,980.31222920257,780.31222920257,NaN,NaN,980.31222920257,780.31222920257,980.31222920257,419.68777079743,619.68777079743,419.68777079743,619.68777079743,780.31222920257,4,6,3,0,vertical,horizontal,horizontal,horizontal
2a,6,100256,8,8,232,19,F,NA,variable,heterogeneous,4,absent,0.917512178421021,1,vertical,vertical,1,5,red,4,NaN,619.68777079743,780.31222920257,NaN,NaN,980.31222920257,780.31222920257,980.31222920257,419.68777079743,619.68777079743,419.68777079743,619.68777079743,780.31222920257,5,6,0,4,horizontal,vertical,horizontal,vertical
2a,6,100256,8,9,233,19,F,NA,variable,heterogeneous,4,present,1.33227896690369,1,vertical,vertical,1,2,green,1,2,980.31222920257,780.31222920257,980.31222920257,419.68777079743,980.31222920257,780.31222920257,980.31222920257,419.68777079743,619.68777079743,419.68777079743,619.68777079743,780.31222920257,4,3,6,0,vertical,horizontal,vertical,vertical
2a,6,100256,8,10,234,19,F,NA,variable,heterogeneous,4,absent,1.063157081604,1,vertical,vertical,1,2,green,2,NaN,980.31222920257,419.68777079743,NaN,NaN,980.31222920257,780.31222920257,980.31222920257,419.68777079743,619.68777079743,419.68777079743,619.68777079743,780.31222920257,0,4,3,5,vertical,vertical,horizontal,vertical
2a,6,100256,8,11,235,19,F,NA,variable,heterogeneous,4,present,0.832753896713257,1,vertical,vertical,1,5,green,1,4,980.31222920257,780.31222920257,619.68777079743,780.31222920257,980.31222920257,780.31222920257,980.31222920257,419.68777079743,619.68777079743,419.68777079743,619.68777079743,780.31222920257,4,0,6,5,vertical,horizontal,vertical,vertical
2a,6,100256,8,12,236,19,F,NA,variable,heterogeneous,4,absent,0.653364896774292,1,vertical,vertical,1,2,red,4,NaN,619.68777079743,780.31222920257,NaN,NaN,980.31222920257,780.31222920257,980.31222920257,419.68777079743,619.68777079743,419.68777079743,619.68777079743,780.31222920257,0,5,6,4,vertical,vertical,horizontal,vertical
2a,6,100256,8,13,237,19,F,NA,variable,heterogeneous,4,absent,0.994587182998657,1,horizontal,horizontal,1,3,green,1,NaN,980.31222920257,780.31222920257,NaN,NaN,980.31222920257,780.31222920257,980.31222920257,419.68777079743,619.68777079743,419.68777079743,619.68777079743,780.31222920257,4,0,5,6,horizontal,vertical,horizontal,horizontal
2a,6,100256,8,14,238,19,F,NA,variable,heterogeneous,4,absent,0.675076007843018,1,vertical,vertical,1,3,red,1,NaN,980.31222920257,780.31222920257,NaN,NaN,980.31222920257,780.31222920257,980.31222920257,419.68777079743,619.68777079743,419.68777079743,619.68777079743,780.31222920257,4,6,5,3,vertical,vertical,vertical,vertical
2a,6,100256,8,15,239,19,F,NA,variable,heterogeneous,4,absent,1.08848190307617,1,horizontal,horizontal,1,5,green,3,NaN,619.68777079743,419.68777079743,NaN,NaN,980.31222920257,780.31222920257,980.31222920257,419.68777079743,619.68777079743,419.68777079743,619.68777079743,780.31222920257,3,0,4,5,vertical,horizontal,horizontal,horizontal
2a,6,100256,8,16,240,19,F,NA,variable,heterogeneous,4,present,0.70679497718811,1,horizontal,horizontal,1,3,green,3,4,619.68777079743,419.68777079743,619.68777079743,780.31222920257,980.31222920257,780.31222920257,980.31222920257,419.68777079743,619.68777079743,419.68777079743,619.68777079743,780.31222920257,5,0,4,6,vertical,horizontal,horizontal,horizontal
2a,6,100256,8,17,241,19,F,NA,variable,heterogeneous,4,present,1.16505193710327,1,horizontal,horizontal,1,3,red,3,1,619.68777079743,419.68777079743,980.31222920257,780.31222920257,980.31222920257,780.31222920257,980.31222920257,419.68777079743,619.68777079743,419.68777079743,619.68777079743,780.31222920257,0,3,4,5,vertical,horizontal,horizontal,vertical
2a,6,100256,8,18,242,19,F,NA,variable,heterogeneous,4,absent,1.18852210044861,1,horizontal,horizontal,1,2,red,3,NaN,619.68777079743,419.68777079743,NaN,NaN,980.31222920257,780.31222920257,980.31222920257,419.68777079743,619.68777079743,419.68777079743,619.68777079743,780.31222920257,6,5,4,3,horizontal,vertical,horizontal,vertical
2a,6,100256,8,19,243,19,F,NA,variable,heterogeneous,4,absent,1.03663992881775,1,horizontal,horizontal,1,5,red,2,NaN,980.31222920257,419.68777079743,NaN,NaN,980.31222920257,780.31222920257,980.31222920257,419.68777079743,619.68777079743,419.68777079743,619.68777079743,780.31222920257,3,4,0,5,vertical,horizontal,horizontal,horizontal
2a,6,100256,8,20,244,19,F,NA,variable,heterogeneous,4,present,0.918036937713623,1,horizontal,horizontal,1,8,red,4,1,619.68777079743,780.31222920257,980.31222920257,780.31222920257,980.31222920257,780.31222920257,980.31222920257,419.68777079743,619.68777079743,419.68777079743,619.68777079743,780.31222920257,6,0,5,4,vertical,vertical,horizontal,horizontal
2a,6,100256,8,21,245,19,F,NA,variable,heterogeneous,4,absent,1.18872213363647,1,vertical,vertical,1,2,green,2,NaN,980.31222920257,419.68777079743,NaN,NaN,980.31222920257,780.31222920257,980.31222920257,419.68777079743,619.68777079743,419.68777079743,619.68777079743,780.31222920257,3,4,5,0,horizontal,vertical,horizontal,horizontal
2a,6,100256,8,22,246,19,F,NA,variable,heterogeneous,4,present,0.980793952941895,1,horizontal,horizontal,1,2,red,3,2,619.68777079743,419.68777079743,980.31222920257,419.68777079743,980.31222920257,780.31222920257,980.31222920257,419.68777079743,619.68777079743,419.68777079743,619.68777079743,780.31222920257,3,6,4,0,vertical,horizontal,horizontal,vertical
2a,6,100256,8,23,247,19,F,NA,variable,heterogeneous,4,present,1.08858895301819,1,vertical,vertical,1,3,green,2,3,980.31222920257,419.68777079743,619.68777079743,419.68777079743,980.31222920257,780.31222920257,980.31222920257,419.68777079743,619.68777079743,419.68777079743,619.68777079743,780.31222920257,5,4,6,3,horizontal,vertical,horizontal,vertical
2a,6,100256,8,24,248,19,F,NA,variable,heterogeneous,4,present,1.31459617614746,1,horizontal,horizontal,1,5,green,2,4,980.31222920257,419.68777079743,619.68777079743,780.31222920257,980.31222920257,780.31222920257,980.31222920257,419.68777079743,619.68777079743,419.68777079743,619.68777079743,780.31222920257,5,4,6,3,vertical,horizontal,horizontal,vertical
2a,6,100256,8,25,249,19,F,NA,variable,heterogeneous,4,absent,1.23708581924438,1,vertical,vertical,1,5,green,3,NaN,619.68777079743,419.68777079743,NaN,NaN,980.31222920257,780.31222920257,980.31222920257,419.68777079743,619.68777079743,419.68777079743,619.68777079743,780.31222920257,0,3,4,6,horizontal,horizontal,vertical,horizontal
2a,6,100256,8,26,250,19,F,NA,variable,heterogeneous,4,absent,1.57439494132996,1,horizontal,horizontal,1,8,green,2,NaN,980.31222920257,419.68777079743,NaN,NaN,980.31222920257,780.31222920257,980.31222920257,419.68777079743,619.68777079743,419.68777079743,619.68777079743,780.31222920257,0,4,3,5,horizontal,horizontal,horizontal,vertical
2a,6,100256,8,27,251,19,F,NA,variable,heterogeneous,4,present,0.734302043914795,1,vertical,vertical,1,8,red,3,2,619.68777079743,419.68777079743,980.31222920257,419.68777079743,980.31222920257,780.31222920257,980.31222920257,419.68777079743,619.68777079743,419.68777079743,619.68777079743,780.31222920257,0,5,4,6,vertical,vertical,vertical,vertical
2a,6,100256,8,28,252,19,F,NA,variable,heterogeneous,4,absent,0.896859169006348,1,horizontal,horizontal,1,3,red,4,NaN,619.68777079743,780.31222920257,NaN,NaN,980.31222920257,780.31222920257,980.31222920257,419.68777079743,619.68777079743,419.68777079743,619.68777079743,780.31222920257,5,6,3,4,horizontal,vertical,horizontal,horizontal
2a,6,100256,8,29,253,19,F,NA,variable,heterogeneous,4,present,1.07119107246399,1,horizontal,horizontal,1,5,green,3,1,619.68777079743,419.68777079743,980.31222920257,780.31222920257,980.31222920257,780.31222920257,980.31222920257,419.68777079743,619.68777079743,419.68777079743,619.68777079743,780.31222920257,0,6,4,3,vertical,horizontal,horizontal,vertical
2a,6,100256,8,30,254,19,F,NA,variable,heterogeneous,4,present,1.38883304595947,1,vertical,vertical,1,5,red,1,2,980.31222920257,780.31222920257,980.31222920257,419.68777079743,980.31222920257,780.31222920257,980.31222920257,419.68777079743,619.68777079743,419.68777079743,619.68777079743,780.31222920257,4,6,0,3,vertical,vertical,vertical,horizontal
2a,6,100256,8,31,255,19,F,NA,variable,heterogeneous,4,present,1.1411919593811,1,horizontal,horizontal,1,2,red,3,4,619.68777079743,419.68777079743,619.68777079743,780.31222920257,980.31222920257,780.31222920257,980.31222920257,419.68777079743,619.68777079743,419.68777079743,619.68777079743,780.31222920257,6,5,4,0,horizontal,horizontal,horizontal,vertical
2a,6,100256,8,32,256,19,F,NA,variable,heterogeneous,4,present,0.820300102233887,1,vertical,vertical,1,2,green,3,1,619.68777079743,419.68777079743,980.31222920257,780.31222920257,980.31222920257,780.31222920257,980.31222920257,419.68777079743,619.68777079743,419.68777079743,619.68777079743,780.31222920257,0,3,4,5,vertical,vertical,vertical,vertical
2a,6,100256,9,1,257,19,F,NA,variable,heterogeneous,4,absent,0.52032995223999,1,vertical,vertical,1,2,green,3,NaN,619.68777079743,419.68777079743,NaN,NaN,980.31222920257,780.31222920257,980.31222920257,419.68777079743,619.68777079743,419.68777079743,619.68777079743,780.31222920257,3,6,4,5,horizontal,vertical,vertical,vertical
2a,6,100256,9,2,258,19,F,NA,variable,heterogeneous,4,absent,1.17500400543213,1,vertical,vertical,1,8,green,2,NaN,980.31222920257,419.68777079743,NaN,NaN,980.31222920257,780.31222920257,980.31222920257,419.68777079743,619.68777079743,419.68777079743,619.68777079743,780.31222920257,3,4,5,0,vertical,vertical,horizontal,horizontal
2a,6,100256,9,3,259,19,F,NA,variable,heterogeneous,4,present,0.714920043945312,1,horizontal,horizontal,1,5,green,2,3,980.31222920257,419.68777079743,619.68777079743,419.68777079743,980.31222920257,780.31222920257,980.31222920257,419.68777079743,619.68777079743,419.68777079743,619.68777079743,780.31222920257,5,4,0,3,horizontal,horizontal,horizontal,horizontal
2a,6,100256,9,4,260,19,F,NA,variable,heterogeneous,4,absent,0.949623107910156,1,horizontal,horizontal,1,5,red,4,NaN,619.68777079743,780.31222920257,NaN,NaN,980.31222920257,780.31222920257,980.31222920257,419.68777079743,619.68777079743,419.68777079743,619.68777079743,780.31222920257,3,6,0,4,horizontal,vertical,vertical,horizontal
2a,6,100256,9,5,261,19,F,NA,variable,heterogeneous,4,absent,0.900660037994385,1,horizontal,horizontal,1,3,red,2,NaN,980.31222920257,419.68777079743,NaN,NaN,980.31222920257,780.31222920257,980.31222920257,419.68777079743,619.68777079743,419.68777079743,619.68777079743,780.31222920257,6,4,3,0,horizontal,horizontal,vertical,vertical
2a,6,100256,9,6,262,19,F,NA,variable,heterogeneous,4,absent,0.882836818695068,1,horizontal,horizontal,1,5,green,4,NaN,619.68777079743,780.31222920257,NaN,NaN,980.31222920257,780.31222920257,980.31222920257,419.68777079743,619.68777079743,419.68777079743,619.68777079743,780.31222920257,5,0,6,4,vertical,vertical,horizontal,horizontal
2a,6,100256,9,7,263,19,F,NA,variable,heterogeneous,4,present,1.50893187522888,1,vertical,vertical,1,8,green,3,2,619.68777079743,419.68777079743,980.31222920257,419.68777079743,980.31222920257,780.31222920257,980.31222920257,419.68777079743,619.68777079743,419.68777079743,619.68777079743,780.31222920257,3,0,4,5,horizontal,horizontal,vertical,vertical
2a,6,100256,9,8,264,19,F,NA,variable,heterogeneous,4,present,0.823798179626465,1,vertical,vertical,1,2,red,2,4,980.31222920257,419.68777079743,619.68777079743,780.31222920257,980.31222920257,780.31222920257,980.31222920257,419.68777079743,619.68777079743,419.68777079743,619.68777079743,780.31222920257,6,4,0,5,vertical,vertical,vertical,vertical
2a,6,100256,9,9,265,19,F,NA,variable,heterogeneous,4,present,1.15665078163147,1,horizontal,horizontal,1,8,red,3,1,619.68777079743,419.68777079743,980.31222920257,780.31222920257,980.31222920257,780.31222920257,980.31222920257,419.68777079743,619.68777079743,419.68777079743,619.68777079743,780.31222920257,3,0,4,6,vertical,vertical,horizontal,horizontal
2a,6,100256,9,10,266,19,F,NA,variable,heterogeneous,4,present,0.735537052154541,1,horizontal,horizontal,1,3,red,3,2,619.68777079743,419.68777079743,980.31222920257,419.68777079743,980.31222920257,780.31222920257,980.31222920257,419.68777079743,619.68777079743,419.68777079743,619.68777079743,780.31222920257,0,6,4,3,vertical,horizontal,horizontal,vertical
2a,6,100256,9,11,267,19,F,NA,variable,heterogeneous,4,absent,0.898712873458862,1,vertical,vertical,1,3,green,3,NaN,619.68777079743,419.68777079743,NaN,NaN,980.31222920257,780.31222920257,980.31222920257,419.68777079743,619.68777079743,419.68777079743,619.68777079743,780.31222920257,0,6,4,5,vertical,vertical,vertical,vertical
2a,6,100256,9,12,268,19,F,NA,variable,heterogeneous,4,present,0.768728017807007,1,vertical,vertical,1,3,red,2,3,980.31222920257,419.68777079743,619.68777079743,419.68777079743,980.31222920257,780.31222920257,980.31222920257,419.68777079743,619.68777079743,419.68777079743,619.68777079743,780.31222920257,6,4,3,0,horizontal,vertical,vertical,horizontal
2a,6,100256,9,13,269,19,F,NA,variable,heterogeneous,4,absent,0.920531988143921,1,horizontal,horizontal,1,2,green,4,NaN,619.68777079743,780.31222920257,NaN,NaN,980.31222920257,780.31222920257,980.31222920257,419.68777079743,619.68777079743,419.68777079743,619.68777079743,780.31222920257,6,5,0,4,horizontal,vertical,vertical,horizontal
2a,6,100256,9,14,270,19,F,NA,variable,heterogeneous,4,absent,0.719369888305664,0,horizontal,vertical,1,3,red,2,NaN,980.31222920257,419.68777079743,NaN,NaN,980.31222920257,780.31222920257,980.31222920257,419.68777079743,619.68777079743,419.68777079743,619.68777079743,780.31222920257,0,4,5,3,horizontal,horizontal,horizontal,vertical
2a,6,100256,9,15,271,19,F,NA,variable,heterogeneous,4,present,0.709920167922974,1,vertical,vertical,1,2,green,3,4,619.68777079743,419.68777079743,619.68777079743,780.31222920257,980.31222920257,780.31222920257,980.31222920257,419.68777079743,619.68777079743,419.68777079743,619.68777079743,780.31222920257,5,0,4,3,vertical,horizontal,vertical,vertical
2a,6,100256,9,16,272,19,F,NA,variable,heterogeneous,4,present,0.712565183639526,1,horizontal,horizontal,1,2,red,3,1,619.68777079743,419.68777079743,980.31222920257,780.31222920257,980.31222920257,780.31222920257,980.31222920257,419.68777079743,619.68777079743,419.68777079743,619.68777079743,780.31222920257,5,3,4,0,vertical,vertical,horizontal,vertical
2a,6,100256,9,17,273,19,F,NA,variable,heterogeneous,4,present,1.07472896575928,1,horizontal,horizontal,1,5,green,4,2,619.68777079743,780.31222920257,980.31222920257,419.68777079743,980.31222920257,780.31222920257,980.31222920257,419.68777079743,619.68777079743,419.68777079743,619.68777079743,780.31222920257,5,6,3,4,horizontal,horizontal,vertical,horizontal
2a,6,100256,9,18,274,19,F,NA,variable,heterogeneous,4,absent,1.17682290077209,1,vertical,vertical,1,2,green,1,NaN,980.31222920257,780.31222920257,NaN,NaN,980.31222920257,780.31222920257,980.31222920257,419.68777079743,619.68777079743,419.68777079743,619.68777079743,780.31222920257,4,5,3,0,vertical,horizontal,horizontal,horizontal
2a,6,100256,9,19,275,19,F,NA,variable,heterogeneous,4,absent,1.06836605072021,1,vertical,vertical,1,3,green,1,NaN,980.31222920257,780.31222920257,NaN,NaN,980.31222920257,780.31222920257,980.31222920257,419.68777079743,619.68777079743,419.68777079743,619.68777079743,780.31222920257,4,0,3,5,vertical,horizontal,horizontal,vertical
2a,6,100256,9,20,276,19,F,NA,variable,heterogeneous,4,present,0.661780118942261,1,vertical,vertical,1,3,green,1,2,980.31222920257,780.31222920257,980.31222920257,419.68777079743,980.31222920257,780.31222920257,980.31222920257,419.68777079743,619.68777079743,419.68777079743,619.68777079743,780.31222920257,4,5,3,0,vertical,horizontal,vertical,horizontal
2a,6,100256,9,21,277,19,F,NA,variable,heterogeneous,4,present,1.10346484184265,1,vertical,vertical,1,5,red,3,2,619.68777079743,419.68777079743,980.31222920257,419.68777079743,980.31222920257,780.31222920257,980.31222920257,419.68777079743,619.68777079743,419.68777079743,619.68777079743,780.31222920257,6,3,4,5,vertical,horizontal,vertical,vertical
2a,6,100256,9,22,278,19,F,NA,variable,heterogeneous,4,present,1.28566002845764,1,horizontal,horizontal,1,3,red,2,4,980.31222920257,419.68777079743,619.68777079743,780.31222920257,980.31222920257,780.31222920257,980.31222920257,419.68777079743,619.68777079743,419.68777079743,619.68777079743,780.31222920257,0,4,6,3,horizontal,horizontal,horizontal,vertical
2a,6,100256,9,23,279,19,F,NA,variable,heterogeneous,4,present,1.30357384681702,1,horizontal,horizontal,1,2,red,3,1,619.68777079743,419.68777079743,980.31222920257,780.31222920257,980.31222920257,780.31222920257,980.31222920257,419.68777079743,619.68777079743,419.68777079743,619.68777079743,780.31222920257,5,3,4,6,vertical,vertical,horizontal,horizontal
2a,6,100256,9,24,280,19,F,NA,variable,heterogeneous,4,absent,0.950124025344849,1,vertical,vertical,1,5,red,2,NaN,980.31222920257,419.68777079743,NaN,NaN,980.31222920257,780.31222920257,980.31222920257,419.68777079743,619.68777079743,419.68777079743,619.68777079743,780.31222920257,0,4,5,6,vertical,vertical,vertical,vertical
2a,6,100256,9,25,281,19,F,NA,variable,heterogeneous,4,absent,0.652910947799683,1,horizontal,horizontal,1,2,green,3,NaN,619.68777079743,419.68777079743,NaN,NaN,980.31222920257,780.31222920257,980.31222920257,419.68777079743,619.68777079743,419.68777079743,619.68777079743,780.31222920257,0,3,4,5,horizontal,horizontal,horizontal,horizontal
2a,6,100256,9,26,282,19,F,NA,variable,heterogeneous,4,absent,1.01829099655151,1,vertical,vertical,1,2,red,1,NaN,980.31222920257,780.31222920257,NaN,NaN,980.31222920257,780.31222920257,980.31222920257,419.68777079743,619.68777079743,419.68777079743,619.68777079743,780.31222920257,4,0,3,6,vertical,vertical,vertical,vertical
2a,6,100256,9,27,283,19,F,NA,variable,heterogeneous,4,present,0.746848821640015,1,vertical,vertical,1,2,green,4,2,619.68777079743,780.31222920257,980.31222920257,419.68777079743,980.31222920257,780.31222920257,980.31222920257,419.68777079743,619.68777079743,419.68777079743,619.68777079743,780.31222920257,6,3,5,4,horizontal,horizontal,horizontal,vertical
2a,6,100256,9,28,284,19,F,NA,variable,heterogeneous,4,absent,1.01003003120422,0,vertical,horizontal,1,5,green,1,NaN,980.31222920257,780.31222920257,NaN,NaN,980.31222920257,780.31222920257,980.31222920257,419.68777079743,619.68777079743,419.68777079743,619.68777079743,780.31222920257,4,6,3,5,vertical,vertical,horizontal,vertical
2a,6,100256,9,29,285,19,F,NA,variable,heterogeneous,4,absent,0.926175832748413,1,horizontal,horizontal,1,8,green,3,NaN,619.68777079743,419.68777079743,NaN,NaN,980.31222920257,780.31222920257,980.31222920257,419.68777079743,619.68777079743,419.68777079743,619.68777079743,780.31222920257,6,0,4,5,vertical,vertical,horizontal,horizontal
2a,6,100256,9,30,286,19,F,NA,variable,heterogeneous,4,absent,0.861102104187012,1,horizontal,horizontal,1,2,green,4,NaN,619.68777079743,780.31222920257,NaN,NaN,980.31222920257,780.31222920257,980.31222920257,419.68777079743,619.68777079743,419.68777079743,619.68777079743,780.31222920257,5,6,0,4,vertical,horizontal,horizontal,horizontal
2a,6,100256,9,31,287,19,F,NA,variable,heterogeneous,4,present,1.23085188865662,1,vertical,vertical,1,5,green,2,4,980.31222920257,419.68777079743,619.68777079743,780.31222920257,980.31222920257,780.31222920257,980.31222920257,419.68777079743,619.68777079743,419.68777079743,619.68777079743,780.31222920257,6,4,3,0,vertical,vertical,vertical,horizontal
2a,6,100256,9,32,288,19,F,NA,variable,heterogeneous,4,present,0.891470909118652,1,horizontal,horizontal,1,2,green,4,1,619.68777079743,780.31222920257,980.31222920257,780.31222920257,980.31222920257,780.31222920257,980.31222920257,419.68777079743,619.68777079743,419.68777079743,619.68777079743,780.31222920257,0,6,3,4,vertical,vertical,horizontal,horizontal
2a,6,100256,10,1,289,19,F,NA,variable,heterogeneous,4,present,0.885885953903198,1,vertical,vertical,1,5,green,4,3,619.68777079743,780.31222920257,619.68777079743,419.68777079743,980.31222920257,780.31222920257,980.31222920257,419.68777079743,619.68777079743,419.68777079743,619.68777079743,780.31222920257,5,0,6,4,vertical,vertical,vertical,vertical
2a,6,100256,10,2,290,19,F,NA,variable,heterogeneous,4,present,1.16782212257385,1,horizontal,horizontal,1,3,red,4,1,619.68777079743,780.31222920257,980.31222920257,780.31222920257,980.31222920257,780.31222920257,980.31222920257,419.68777079743,619.68777079743,419.68777079743,619.68777079743,780.31222920257,0,6,3,4,vertical,vertical,vertical,horizontal
2a,6,100256,10,3,291,19,F,NA,variable,heterogeneous,4,present,0.791685104370117,1,vertical,vertical,1,8,red,4,1,619.68777079743,780.31222920257,980.31222920257,780.31222920257,980.31222920257,780.31222920257,980.31222920257,419.68777079743,619.68777079743,419.68777079743,619.68777079743,780.31222920257,6,3,5,4,vertical,vertical,horizontal,vertical
