experiment,subject,uniqueID,block,trial,trial_cumulative,age,gender,color_cond_blocking,color_history,shape_type,set_size,distractor,rt,acc,target_orient,response_key,response_made,iti,target_color,target_item,distractor_item,target_X,target_Y,distractor_X,distractor_Y,item1_X,item1_Y,item2_X,item2_Y,item3_X,item3_Y,item4_X,item4_Y,item1_shape,item2_shape,item3_shape,item4_shape,item1_line,item2_line,item3_line,item4_line
2a,8,100201,1,1,1,20,F,NA,variable,heterogeneous,4,absent,NaN,0,vertical,none,0,2,red,3,NaN,619.68777079743,419.68777079743,NaN,NaN,980.31222920257,780.31222920257,980.31222920257,419.68777079743,619.68777079743,419.68777079743,619.68777079743,780.31222920257,5,0,4,3,vertical,horizontal,vertical,vertical
2a,8,100201,1,2,2,20,F,NA,variable,heterogeneous,4,present,1.77749300003052,1,vertical,vertical,1,5,green,4,1,619.68777079743,780.31222920257,980.31222920257,780.31222920257,980.31222920257,780.31222920257,980.31222920257,419.68777079743,619.68777079743,419.68777079743,619.68777079743,780.31222920257,3,0,6,4,horizontal,horizontal,horizontal,vertical
2a,8,100201,1,3,3,20,F,NA,variable,heterogeneous,4,absent,1.8691930770874,1,horizontal,horizontal,1,3,red,1,NaN,980.31222920257,780.31222920257,NaN,NaN,980.31222920257,780.31222920257,980.31222920257,419.68777079743,619.68777079743,419.68777079743,619.68777079743,780.31222920257,4,6,3,0,horizontal,horizontal,vertical,vertical
2a,8,100201,1,4,4,20,F,NA,variable,heterogeneous,4,absent,1.29067993164062,1,horizontal,horizontal,1,3,red,4,NaN,619.68777079743,780.31222920257,NaN,NaN,980.31222920257,780.31222920257,980.31222920257,419.68777079743,619.68777079743,419.68777079743,619.68777079743,780.31222920257,5,6,0,4,vertical,vertical,vertical,horizontal
2a,8,100201,1,5,5,20,F,NA,variable,heterogeneous,4,present,0.988866090774536,1,vertical,vertical,1,2,green,4,3,619.68777079743,780.31222920257,619.68777079743,419.68777079743,980.31222920257,780.31222920257,980.31222920257,419.68777079743,619.68777079743,419.68777079743,619.68777079743,780.31222920257,3,0,6,4,horizontal,vertical,horizontal,vertical
2a,8,100201,1,6,6,20,F,NA,variable,heterogeneous,4,absent,1.02054595947266,1,vertical,vertical,1,5,green,4,NaN,619.68777079743,780.31222920257,NaN,NaN,980.31222920257,780.31222920257,980.31222920257,419.68777079743,619.68777079743,419.68777079743,619.68777079743,780.31222920257,0,3,6,4,vertical,vertical,horizontal,vertical
2a,8,100201,1,7,7,20,F,NA,variable,heterogeneous,4,absent,1.34121823310852,1,horizontal,horizontal,1,5,green,4,NaN,619.68777079743,780.31222920257,NaN,NaN,980.31222920257,780.31222920257,980.31222920257,419.68777079743,619.68777079743,419.68777079743,619.68777079743,780.31222920257,6,0,5,4,vertical,vertical,horizontal,horizontal
2a,8,100201,1,8,8,20,F,NA,variable,heterogeneous,4,present,0.900504112243652,1,horizontal,horizontal,1,5,green,1,3,980.31222920257,780.31222920257,619.68777079743,419.68777079743,980.31222920257,780.31222920257,980.31222920257,419.68777079743,619.68777079743,419.68777079743,619.68777079743,780.31222920257,4,5,6,3,horizontal,horizontal,vertical,vertical
2a,8,100201,1,9,9,20,F,NA,variable,heterogeneous,4,absent,0.898658037185669,1,horizontal,horizontal,1,5,green,2,NaN,980.31222920257,419.68777079743,NaN,NaN,980.31222920257,780.31222920257,980.31222920257,419.68777079743,619.68777079743,419.68777079743,619.68777079743,780.31222920257,6,4,0,3,horizontal,horizontal,vertical,vertical
2a,8,100201,1,10,10,20,F,NA,variable,heterogeneous,4,absent,1.25692987442017,1,vertical,vertical,1,3,green,3,NaN,619.68777079743,419.68777079743,NaN,NaN,980.31222920257,780.31222920257,980.31222920257,419.68777079743,619.68777079743,419.68777079743,619.68777079743,780.31222920257,6,5,4,0,horizontal,horizontal,vertical,horizontal
2a,8,100201,1,11,11,20,F,NA,variable,heterogeneous,4,present,1.66193699836731,1,horizontal,horizontal,1,2,red,2,4,980.31222920257,419.68777079743,619.68777079743,780.31222920257,980.31222920257,780.31222920257,980.31222920257,419.68777079743,619.68777079743,419.68777079743,619.68777079743,780.31222920257,5,4,0,6,vertical,horizontal,horizontal,horizontal
2a,8,100201,1,12,12,20,F,NA,variable,heterogeneous,4,present,1.05556106567383,1,horizontal,horizontal,1,2,green,4,2,619.68777079743,780.31222920257,980.31222920257,419.68777079743,980.31222920257,780.31222920257,980.31222920257,419.68777079743,619.68777079743,419.68777079743,619.68777079743,780.31222920257,3,0,5,4,horizontal,horizontal,horizontal,horizontal
2a,8,100201,1,13,13,20,F,NA,variable,heterogeneous,4,present,1.10076808929443,1,horizontal,horizontal,1,3,green,2,1,980.31222920257,419.68777079743,980.31222920257,780.31222920257,980.31222920257,780.31222920257,980.31222920257,419.68777079743,619.68777079743,419.68777079743,619.68777079743,780.31222920257,6,4,0,5,vertical,horizontal,vertical,horizontal
2a,8,100201,1,14,14,20,F,NA,variable,heterogeneous,4,absent,1.10701990127563,1,horizontal,horizontal,1,2,red,3,NaN,619.68777079743,419.68777079743,NaN,NaN,980.31222920257,780.31222920257,980.31222920257,419.68777079743,619.68777079743,419.68777079743,619.68777079743,780.31222920257,6,0,4,3,horizontal,vertical,horizontal,horizontal
2a,8,100201,1,15,15,20,F,NA,variable,heterogeneous,4,present,0.773563861846924,1,vertical,vertical,1,2,green,2,1,980.31222920257,419.68777079743,980.31222920257,780.31222920257,980.31222920257,780.31222920257,980.31222920257,419.68777079743,619.68777079743,419.68777079743,619.68777079743,780.31222920257,0,4,6,5,vertical,vertical,horizontal,vertical
2a,8,100201,1,16,16,20,F,NA,variable,heterogeneous,4,present,0.837085008621216,1,horizontal,horizontal,1,3,green,3,2,619.68777079743,419.68777079743,980.31222920257,419.68777079743,980.31222920257,780.31222920257,980.31222920257,419.68777079743,619.68777079743,419.68777079743,619.68777079743,780.31222920257,5,6,4,0,horizontal,vertical,horizontal,horizontal
2a,8,100201,1,17,17,20,F,NA,variable,heterogeneous,4,present,1.15004110336304,1,vertical,vertical,1,3,red,4,3,619.68777079743,780.31222920257,619.68777079743,419.68777079743,980.31222920257,780.31222920257,980.31222920257,419.68777079743,619.68777079743,419.68777079743,619.68777079743,780.31222920257,3,6,0,4,vertical,horizontal,horizontal,vertical
2a,8,100201,1,18,18,20,F,NA,variable,heterogeneous,4,present,1.26906108856201,0,vertical,horizontal,1,2,red,4,3,619.68777079743,780.31222920257,619.68777079743,419.68777079743,980.31222920257,780.31222920257,980.31222920257,419.68777079743,619.68777079743,419.68777079743,619.68777079743,780.31222920257,0,5,3,4,horizontal,horizontal,horizontal,vertical
2a,8,100201,1,19,19,20,F,NA,variable,heterogeneous,4,absent,1.14684987068176,1,vertical,vertical,1,5,green,4,NaN,619.68777079743,780.31222920257,NaN,NaN,980.31222920257,780.31222920257,980.31222920257,419.68777079743,619.68777079743,419.68777079743,619.68777079743,780.31222920257,6,5,3,4,horizontal,vertical,vertical,vertical
2a,8,100201,1,20,20,20,F,NA,variable,heterogeneous,4,present,1.33794188499451,1,horizontal,horizontal,1,2,red,3,4,619.68777079743,419.68777079743,619.68777079743,780.31222920257,980.31222920257,780.31222920257,980.31222920257,419.68777079743,619.68777079743,419.68777079743,619.68777079743,780.31222920257,6,0,4,5,horizontal,horizontal,horizontal,vertical
2a,8,100201,1,21,21,20,F,NA,variable,heterogeneous,4,present,1.38098192214966,1,vertical,vertical,1,8,green,2,1,980.31222920257,419.68777079743,980.31222920257,780.31222920257,980.31222920257,780.31222920257,980.31222920257,419.68777079743,619.68777079743,419.68777079743,619.68777079743,780.31222920257,6,4,5,3,horizontal,vertical,vertical,horizontal
2a,8,100201,1,22,22,20,F,NA,variable,heterogeneous,4,absent,0.672824859619141,1,vertical,vertical,1,2,green,2,NaN,980.31222920257,419.68777079743,NaN,NaN,980.31222920257,780.31222920257,980.31222920257,419.68777079743,619.68777079743,419.68777079743,619.68777079743,780.31222920257,6,4,3,5,horizontal,vertical,vertical,vertical
2a,8,100201,1,23,23,20,F,NA,variable,heterogeneous,4,present,1.08652687072754,1,horizontal,horizontal,1,5,red,4,1,619.68777079743,780.31222920257,980.31222920257,780.31222920257,980.31222920257,780.31222920257,980.31222920257,419.68777079743,619.68777079743,419.68777079743,619.68777079743,780.31222920257,5,6,0,4,horizontal,vertical,horizontal,horizontal
2a,8,100201,1,24,24,20,F,NA,variable,heterogeneous,4,absent,1.42436408996582,1,horizontal,horizontal,1,2,red,3,NaN,619.68777079743,419.68777079743,NaN,NaN,980.31222920257,780.31222920257,980.31222920257,419.68777079743,619.68777079743,419.68777079743,619.68777079743,780.31222920257,3,0,4,6,horizontal,horizontal,horizontal,horizontal
2a,8,100201,1,25,25,20,F,NA,variable,heterogeneous,4,absent,1.75719213485718,1,vertical,vertical,1,3,green,1,NaN,980.31222920257,780.31222920257,NaN,NaN,980.31222920257,780.31222920257,980.31222920257,419.68777079743,619.68777079743,419.68777079743,619.68777079743,780.31222920257,4,5,0,6,vertical,horizontal,horizontal,vertical
2a,8,100201,1,26,26,20,F,NA,variable,heterogeneous,4,absent,1.19276881217957,1,horizontal,horizontal,1,8,green,1,NaN,980.31222920257,780.31222920257,NaN,NaN,980.31222920257,780.31222920257,980.31222920257,419.68777079743,619.68777079743,419.68777079743,619.68777079743,780.31222920257,4,3,0,6,horizontal,vertical,vertical,vertical
2a,8,100201,1,27,27,20,F,NA,variable,heterogeneous,4,present,1.33673596382141,1,vertical,vertical,1,5,green,2,1,980.31222920257,419.68777079743,980.31222920257,780.31222920257,980.31222920257,780.31222920257,980.31222920257,419.68777079743,619.68777079743,419.68777079743,619.68777079743,780.31222920257,6,4,5,3,horizontal,vertical,horizontal,horizontal
2a,8,100201,1,28,28,20,F,NA,variable,heterogeneous,4,present,NaN,0,horizontal,none,0,8,red,4,3,619.68777079743,780.31222920257,619.68777079743,419.68777079743,980.31222920257,780.31222920257,980.31222920257,419.68777079743,619.68777079743,419.68777079743,619.68777079743,780.31222920257,5,0,6,4,horizontal,horizontal,horizontal,horizontal
2a,8,100201,1,29,29,20,F,NA,variable,heterogeneous,4,absent,0.856184959411621,1,horizontal,horizontal,1,2,red,3,NaN,619.68777079743,419.68777079743,NaN,NaN,980.31222920257,780.31222920257,980.31222920257,419.68777079743,619.68777079743,419.68777079743,619.68777079743,780.31222920257,3,6,4,0,horizontal,vertical,horizontal,horizontal
2a,8,100201,1,30,30,20,F,NA,variable,heterogeneous,4,absent,1.14934682846069,1,vertical,vertical,1,2,green,2,NaN,980.31222920257,419.68777079743,NaN,NaN,980.31222920257,780.31222920257,980.31222920257,419.68777079743,619.68777079743,419.68777079743,619.68777079743,780.31222920257,3,4,0,6,vertical,vertical,horizontal,vertical
2a,8,100201,1,31,31,20,F,NA,variable,heterogeneous,4,present,1.39661002159119,1,vertical,vertical,1,3,red,4,1,619.68777079743,780.31222920257,980.31222920257,780.31222920257,980.31222920257,780.31222920257,980.31222920257,419.68777079743,619.68777079743,419.68777079743,619.68777079743,780.31222920257,6,0,5,4,vertical,horizontal,horizontal,vertical
2a,8,100201,1,32,32,20,F,NA,variable,heterogeneous,4,absent,NaN,0,vertical,none,0,8,red,4,NaN,619.68777079743,780.31222920257,NaN,NaN,980.31222920257,780.31222920257,980.31222920257,419.68777079743,619.68777079743,419.68777079743,619.68777079743,780.31222920257,5,3,6,4,vertical,vertical,horizontal,vertical
2a,8,100201,2,1,33,20,F,NA,variable,heterogeneous,4,present,NaN,0,vertical,none,0,3,green,3,2,619.68777079743,419.68777079743,980.31222920257,419.68777079743,980.31222920257,780.31222920257,980.31222920257,419.68777079743,619.68777079743,419.68777079743,619.68777079743,780.31222920257,3,5,4,6,horizontal,vertical,vertical,horizontal
2a,8,100201,2,2,34,20,F,NA,variable,heterogeneous,4,present,NaN,0,vertical,none,0,5,green,3,2,619.68777079743,419.68777079743,980.31222920257,419.68777079743,980.31222920257,780.31222920257,980.31222920257,419.68777079743,619.68777079743,419.68777079743,619.68777079743,780.31222920257,0,3,4,5,vertical,vertical,vertical,horizontal
2a,8,100201,2,3,35,20,F,NA,variable,heterogeneous,4,absent,NaN,0,horizontal,none,0,8,green,2,NaN,980.31222920257,419.68777079743,NaN,NaN,980.31222920257,780.31222920257,980.31222920257,419.68777079743,619.68777079743,419.68777079743,619.68777079743,780.31222920257,3,4,5,0,vertical,horizontal,horizontal,vertical
2a,8,100201,2,4,36,20,F,NA,variable,heterogeneous,4,present,1.79018902778625,1,vertical,vertical,1,2,green,2,4,980.31222920257,419.68777079743,619.68777079743,780.31222920257,980.31222920257,780.31222920257,980.31222920257,419.68777079743,619.68777079743,419.68777079743,619.68777079743,780.31222920257,6,4,3,5,horizontal,vertical,horizontal,vertical
2a,8,100201,2,5,37,20,F,NA,variable,heterogeneous,4,present,0.982290029525757,1,horizontal,horizontal,1,2,red,1,3,980.31222920257,780.31222920257,619.68777079743,419.68777079743,980.31222920257,780.31222920257,980.31222920257,419.68777079743,619.68777079743,419.68777079743,619.68777079743,780.31222920257,4,0,3,6,horizontal,vertical,horizontal,vertical
2a,8,100201,2,6,38,20,F,NA,variable,heterogeneous,4,present,NaN,0,horizontal,none,0,5,green,2,4,980.31222920257,419.68777079743,619.68777079743,780.31222920257,980.31222920257,780.31222920257,980.31222920257,419.68777079743,619.68777079743,419.68777079743,619.68777079743,780.31222920257,6,4,3,5,vertical,horizontal,vertical,vertical
2a,8,100201,2,7,39,20,F,NA,variable,heterogeneous,4,absent,1.21461701393127,1,horizontal,horizontal,1,3,green,1,NaN,980.31222920257,780.31222920257,NaN,NaN,980.31222920257,780.31222920257,980.31222920257,419.68777079743,619.68777079743,419.68777079743,619.68777079743,780.31222920257,4,6,0,3,horizontal,vertical,vertical,horizontal
2a,8,100201,2,8,40,20,F,NA,variable,heterogeneous,4,absent,1.15894985198975,1,vertical,vertical,1,2,green,2,NaN,980.31222920257,419.68777079743,NaN,NaN,980.31222920257,780.31222920257,980.31222920257,419.68777079743,619.68777079743,419.68777079743,619.68777079743,780.31222920257,6,4,5,3,vertical,vertical,horizontal,horizontal
2a,8,100201,2,9,41,20,F,NA,variable,heterogeneous,4,absent,1.06651902198792,1,horizontal,horizontal,1,2,green,4,NaN,619.68777079743,780.31222920257,NaN,NaN,980.31222920257,780.31222920257,980.31222920257,419.68777079743,619.68777079743,419.68777079743,619.68777079743,780.31222920257,6,0,3,4,vertical,horizontal,vertical,horizontal
2a,8,100201,2,10,42,20,F,NA,variable,heterogeneous,4,present,1.62784290313721,1,vertical,vertical,1,8,green,4,1,619.68777079743,780.31222920257,980.31222920257,780.31222920257,980.31222920257,780.31222920257,980.31222920257,419.68777079743,619.68777079743,419.68777079743,619.68777079743,780.31222920257,0,5,6,4,horizontal,horizontal,vertical,vertical
2a,8,100201,2,11,43,20,F,NA,variable,heterogeneous,4,present,1.28065896034241,1,vertical,vertical,1,2,green,2,3,980.31222920257,419.68777079743,619.68777079743,419.68777079743,980.31222920257,780.31222920257,980.31222920257,419.68777079743,619.68777079743,419.68777079743,619.68777079743,780.31222920257,3,4,5,6,horizontal,vertical,horizontal,vertical
2a,8,100201,2,12,44,20,F,NA,variable,heterogeneous,4,present,1.31834197044373,1,horizontal,horizontal,1,3,red,1,4,980.31222920257,780.31222920257,619.68777079743,780.31222920257,980.31222920257,780.31222920257,980.31222920257,419.68777079743,619.68777079743,419.68777079743,619.68777079743,780.31222920257,4,3,0,6,horizontal,horizontal,vertical,horizontal
2a,8,100201,2,13,45,20,F,NA,variable,heterogeneous,4,absent,0.965066909790039,1,horizontal,horizontal,1,3,green,3,NaN,619.68777079743,419.68777079743,NaN,NaN,980.31222920257,780.31222920257,980.31222920257,419.68777079743,619.68777079743,419.68777079743,619.68777079743,780.31222920257,0,3,4,5,vertical,horizontal,horizontal,vertical
2a,8,100201,2,14,46,20,F,NA,variable,heterogeneous,4,present,1.60461091995239,1,vertical,vertical,1,3,green,1,2,980.31222920257,780.31222920257,980.31222920257,419.68777079743,980.31222920257,780.31222920257,980.31222920257,419.68777079743,619.68777079743,419.68777079743,619.68777079743,780.31222920257,4,0,3,6,vertical,horizontal,vertical,horizontal
2a,8,100201,2,15,47,20,F,NA,variable,heterogeneous,4,absent,NaN,0,horizontal,none,0,5,red,2,NaN,980.31222920257,419.68777079743,NaN,NaN,980.31222920257,780.31222920257,980.31222920257,419.68777079743,619.68777079743,419.68777079743,619.68777079743,780.31222920257,3,4,5,0,horizontal,horizontal,vertical,horizontal
2a,8,100201,2,16,48,20,F,NA,variable,heterogeneous,4,present,0.813438892364502,1,horizontal,horizontal,1,2,red,4,3,619.68777079743,780.31222920257,619.68777079743,419.68777079743,980.31222920257,780.31222920257,980.31222920257,419.68777079743,619.68777079743,419.68777079743,619.68777079743,780.31222920257,0,6,5,4,vertical,vertical,horizontal,horizontal
2a,8,100201,2,17,49,20,F,NA,variable,heterogeneous,4,present,1.5578339099884,1,horizontal,horizontal,1,2,red,1,3,980.31222920257,780.31222920257,619.68777079743,419.68777079743,980.31222920257,780.31222920257,980.31222920257,419.68777079743,619.68777079743,419.68777079743,619.68777079743,780.31222920257,4,3,0,5,horizontal,horizontal,horizontal,horizontal
2a,8,100201,2,18,50,20,F,NA,variable,heterogeneous,4,present,1.04129385948181,1,horizontal,horizontal,1,5,red,1,3,980.31222920257,780.31222920257,619.68777079743,419.68777079743,980.31222920257,780.31222920257,980.31222920257,419.68777079743,619.68777079743,419.68777079743,619.68777079743,780.31222920257,4,5,0,6,horizontal,horizontal,horizontal,vertical
2a,8,100201,2,19,51,20,F,NA,variable,heterogeneous,4,absent,1.20221900939941,1,vertical,vertical,1,2,green,3,NaN,619.68777079743,419.68777079743,NaN,NaN,980.31222920257,780.31222920257,980.31222920257,419.68777079743,619.68777079743,419.68777079743,619.68777079743,780.31222920257,6,5,4,0,vertical,vertical,vertical,horizontal
2a,8,100201,2,20,52,20,F,NA,variable,heterogeneous,4,absent,1.45445990562439,1,vertical,vertical,1,2,red,1,NaN,980.31222920257,780.31222920257,NaN,NaN,980.31222920257,780.31222920257,980.31222920257,419.68777079743,619.68777079743,419.68777079743,619.68777079743,780.31222920257,4,5,3,0,vertical,vertical,vertical,vertical
2a,8,100201,2,21,53,20,F,NA,variable,heterogeneous,4,absent,1.51592397689819,1,vertical,vertical,1,5,green,3,NaN,619.68777079743,419.68777079743,NaN,NaN,980.31222920257,780.31222920257,980.31222920257,419.68777079743,619.68777079743,419.68777079743,619.68777079743,780.31222920257,0,3,4,5,vertical,horizontal,vertical,vertical
2a,8,100201,2,22,54,20,F,NA,variable,heterogeneous,4,absent,1.56619000434875,1,horizontal,horizontal,1,2,red,1,NaN,980.31222920257,780.31222920257,NaN,NaN,980.31222920257,780.31222920257,980.31222920257,419.68777079743,619.68777079743,419.68777079743,619.68777079743,780.31222920257,4,6,5,3,horizontal,horizontal,horizontal,vertical
2a,8,100201,2,23,55,20,F,NA,variable,heterogeneous,4,present,1.50193214416504,1,horizontal,horizontal,1,3,green,4,2,619.68777079743,780.31222920257,980.31222920257,419.68777079743,980.31222920257,780.31222920257,980.31222920257,419.68777079743,619.68777079743,419.68777079743,619.68777079743,780.31222920257,5,3,0,4,vertical,vertical,vertical,horizontal
2a,8,100201,2,24,56,20,F,NA,variable,heterogeneous,4,absent,1.9480881690979,1,vertical,vertical,1,5,red,1,NaN,980.31222920257,780.31222920257,NaN,NaN,980.31222920257,780.31222920257,980.31222920257,419.68777079743,619.68777079743,419.68777079743,619.68777079743,780.31222920257,4,0,3,6,vertical,vertical,horizontal,vertical
2a,8,100201,2,25,57,20,F,NA,variable,heterogeneous,4,absent,1.1952919960022,0,vertical,horizontal,1,8,green,3,NaN,619.68777079743,419.68777079743,NaN,NaN,980.31222920257,780.31222920257,980.31222920257,419.68777079743,619.68777079743,419.68777079743,619.68777079743,780.31222920257,5,0,4,6,vertical,vertical,vertical,vertical
2a,8,100201,2,26,58,20,F,NA,variable,heterogeneous,4,present,1.06736087799072,1,vertical,vertical,1,2,green,3,2,619.68777079743,419.68777079743,980.31222920257,419.68777079743,980.31222920257,780.31222920257,980.31222920257,419.68777079743,619.68777079743,419.68777079743,619.68777079743,780.31222920257,3,6,4,5,horizontal,vertical,vertical,horizontal
2a,8,100201,2,27,59,20,F,NA,variable,heterogeneous,4,absent,0.876901149749756,1,vertical,vertical,1,3,green,3,NaN,619.68777079743,419.68777079743,NaN,NaN,980.31222920257,780.31222920257,980.31222920257,419.68777079743,619.68777079743,419.68777079743,619.68777079743,780.31222920257,6,3,4,5,vertical,vertical,vertical,horizontal
2a,8,100201,2,28,60,20,F,NA,variable,heterogeneous,4,absent,1.46680903434753,1,horizontal,horizontal,1,5,green,2,NaN,980.31222920257,419.68777079743,NaN,NaN,980.31222920257,780.31222920257,980.31222920257,419.68777079743,619.68777079743,419.68777079743,619.68777079743,780.31222920257,5,4,6,3,vertical,horizontal,vertical,vertical
2a,8,100201,2,29,61,20,F,NA,variable,heterogeneous,4,absent,0.836091041564941,1,vertical,vertical,1,3,green,1,NaN,980.31222920257,780.31222920257,NaN,NaN,980.31222920257,780.31222920257,980.31222920257,419.68777079743,619.68777079743,419.68777079743,619.68777079743,780.31222920257,4,0,5,3,vertical,vertical,vertical,horizontal
2a,8,100201,2,30,62,20,F,NA,variable,heterogeneous,4,absent,0.92516016960144,1,horizontal,horizontal,1,2,green,4,NaN,619.68777079743,780.31222920257,NaN,NaN,980.31222920257,780.31222920257,980.31222920257,419.68777079743,619.68777079743,419.68777079743,619.68777079743,780.31222920257,0,3,6,4,horizontal,horizontal,horizontal,horizontal
2a,8,100201,2,31,63,20,F,NA,variable,heterogeneous,4,present,1.48399591445923,1,horizontal,horizontal,1,8,green,4,2,619.68777079743,780.31222920257,980.31222920257,419.68777079743,980.31222920257,780.31222920257,980.31222920257,419.68777079743,619.68777079743,419.68777079743,619.68777079743,780.31222920257,3,0,6,4,vertical,horizontal,vertical,horizontal
2a,8,100201,2,32,64,20,F,NA,variable,heterogeneous,4,present,0.81383490562439,1,vertical,vertical,1,5,green,4,3,619.68777079743,780.31222920257,619.68777079743,419.68777079743,980.31222920257,780.31222920257,980.31222920257,419.68777079743,619.68777079743,419.68777079743,619.68777079743,780.31222920257,5,6,0,4,horizontal,vertical,horizontal,vertical
2a,8,100201,3,1,65,20,F,NA,variable,heterogeneous,4,present,1.96350717544556,1,vertical,vertical,1,2,green,2,1,980.31222920257,419.68777079743,980.31222920257,780.31222920257,980.31222920257,780.31222920257,980.31222920257,419.68777079743,619.68777079743,419.68777079743,619.68777079743,780.31222920257,6,4,0,5,vertical,vertical,horizontal,horizontal
2a,8,100201,3,2,66,20,F,NA,variable,heterogeneous,4,present,1.04325985908508,1,vertical,vertical,1,8,red,1,4,980.31222920257,780.31222920257,619.68777079743,780.31222920257,980.31222920257,780.31222920257,980.31222920257,419.68777079743,619.68777079743,419.68777079743,619.68777079743,780.31222920257,4,6,5,3,vertical,horizontal,vertical,horizontal
2a,8,100201,3,3,67,20,F,NA,variable,heterogeneous,4,present,1.56432414054871,1,horizontal,horizontal,1,2,green,3,2,619.68777079743,419.68777079743,980.31222920257,419.68777079743,980.31222920257,780.31222920257,980.31222920257,419.68777079743,619.68777079743,419.68777079743,619.68777079743,780.31222920257,3,6,4,0,horizontal,vertical,horizontal,vertical
2a,8,100201,3,4,68,20,F,NA,variable,heterogeneous,4,absent,1.33208394050598,1,vertical,vertical,1,2,green,1,NaN,980.31222920257,780.31222920257,NaN,NaN,980.31222920257,780.31222920257,980.31222920257,419.68777079743,619.68777079743,419.68777079743,619.68777079743,780.31222920257,4,3,0,6,vertical,horizontal,horizontal,horizontal
2a,8,100201,3,5,69,20,F,NA,variable,heterogeneous,4,absent,1.44674897193909,1,horizontal,horizontal,1,2,green,1,NaN,980.31222920257,780.31222920257,NaN,NaN,980.31222920257,780.31222920257,980.31222920257,419.68777079743,619.68777079743,419.68777079743,619.68777079743,780.31222920257,4,3,0,6,horizontal,horizontal,vertical,horizontal
2a,8,100201,3,6,70,20,F,NA,variable,heterogeneous,4,absent,NaN,0,vertical,none,0,8,red,3,NaN,619.68777079743,419.68777079743,NaN,NaN,980.31222920257,780.31222920257,980.31222920257,419.68777079743,619.68777079743,419.68777079743,619.68777079743,780.31222920257,0,6,4,3,vertical,vertical,vertical,horizontal
2a,8,100201,3,7,71,20,F,NA,variable,heterogeneous,4,absent,1.05667114257812,0,horizontal,vertical,1,5,red,4,NaN,619.68777079743,780.31222920257,NaN,NaN,980.31222920257,780.31222920257,980.31222920257,419.68777079743,619.68777079743,419.68777079743,619.68777079743,780.31222920257,6,0,3,4,vertical,vertical,vertical,horizontal
2a,8,100201,3,8,72,20,F,NA,variable,heterogeneous,4,absent,1.14179491996765,1,vertical,vertical,1,5,red,3,NaN,619.68777079743,419.68777079743,NaN,NaN,980.31222920257,780.31222920257,980.31222920257,419.68777079743,619.68777079743,419.68777079743,619.68777079743,780.31222920257,5,6,4,3,horizontal,horizontal,vertical,vertical
2a,8,100201,3,9,73,20,F,NA,variable,heterogeneous,4,absent,NaN,0,vertical,none,0,5,red,1,NaN,980.31222920257,780.31222920257,NaN,NaN,980.31222920257,780.31222920257,980.31222920257,419.68777079743,619.68777079743,419.68777079743,619.68777079743,780.31222920257,4,3,5,6,vertical,horizontal,horizontal,horizontal
2a,8,100201,3,10,74,20,F,NA,variable,heterogeneous,4,absent,1.08929991722107,1,horizontal,horizontal,1,3,red,3,NaN,619.68777079743,419.68777079743,NaN,NaN,980.31222920257,780.31222920257,980.31222920257,419.68777079743,619.68777079743,419.68777079743,619.68777079743,780.31222920257,0,6,4,3,vertical,vertical,horizontal,horizontal
2a,8,100201,3,11,75,20,F,NA,variable,heterogeneous,4,present,NaN,0,horizontal,none,0,8,red,2,4,980.31222920257,419.68777079743,619.68777079743,780.31222920257,980.31222920257,780.31222920257,980.31222920257,419.68777079743,619.68777079743,419.68777079743,619.68777079743,780.31222920257,3,4,6,0,vertical,horizontal,horizontal,horizontal
2a,8,100201,3,12,76,20,F,NA,variable,heterogeneous,4,present,0.919799089431763,1,horizontal,horizontal,1,2,red,1,4,980.31222920257,780.31222920257,619.68777079743,780.31222920257,980.31222920257,780.31222920257,980.31222920257,419.68777079743,619.68777079743,419.68777079743,619.68777079743,780.31222920257,4,6,5,0,horizontal,vertical,horizontal,vertical
2a,8,100201,3,13,77,20,F,NA,variable,heterogeneous,4,present,1.15829300880432,1,horizontal,horizontal,1,2,green,3,1,619.68777079743,419.68777079743,980.31222920257,780.31222920257,980.31222920257,780.31222920257,980.31222920257,419.68777079743,619.68777079743,419.68777079743,619.68777079743,780.31222920257,3,5,4,6,horizontal,horizontal,horizontal,vertical
2a,8,100201,3,14,78,20,F,NA,variable,heterogeneous,4,present,0.825753927230835,1,horizontal,horizontal,1,3,red,1,4,980.31222920257,780.31222920257,619.68777079743,780.31222920257,980.31222920257,780.31222920257,980.31222920257,419.68777079743,619.68777079743,419.68777079743,619.68777079743,780.31222920257,4,6,0,5,horizontal,horizontal,horizontal,vertical
2a,8,100201,3,15,79,20,F,NA,variable,heterogeneous,4,absent,NaN,0,vertical,none,0,3,green,2,NaN,980.31222920257,419.68777079743,NaN,NaN,980.31222920257,780.31222920257,980.31222920257,419.68777079743,619.68777079743,419.68777079743,619.68777079743,780.31222920257,5,4,6,0,vertical,vertical,vertical,horizontal
2a,8,100201,3,16,80,20,F,NA,variable,heterogeneous,4,absent,0.762887001037598,1,vertical,vertical,1,2,green,2,NaN,980.31222920257,419.68777079743,NaN,NaN,980.31222920257,780.31222920257,980.31222920257,419.68777079743,619.68777079743,419.68777079743,619.68777079743,780.31222920257,6,4,0,5,vertical,vertical,vertical,horizontal
2a,8,100201,3,17,81,20,F,NA,variable,heterogeneous,4,present,1.11836385726929,1,horizontal,horizontal,1,5,red,4,3,619.68777079743,780.31222920257,619.68777079743,419.68777079743,980.31222920257,780.31222920257,980.31222920257,419.68777079743,619.68777079743,419.68777079743,619.68777079743,780.31222920257,5,6,0,4,horizontal,horizontal,vertical,horizontal
2a,8,100201,3,18,82,20,F,NA,variable,heterogeneous,4,absent,1.13284802436829,1,horizontal,horizontal,1,2,green,1,NaN,980.31222920257,780.31222920257,NaN,NaN,980.31222920257,780.31222920257,980.31222920257,419.68777079743,619.68777079743,419.68777079743,619.68777079743,780.31222920257,4,3,5,0,horizontal,vertical,vertical,horizontal
2a,8,100201,3,19,83,20,F,NA,variable,heterogeneous,4,present,0.983669996261597,1,vertical,vertical,1,2,green,4,1,619.68777079743,780.31222920257,980.31222920257,780.31222920257,980.31222920257,780.31222920257,980.31222920257,419.68777079743,619.68777079743,419.68777079743,619.68777079743,780.31222920257,0,6,5,4,horizontal,horizontal,horizontal,vertical
2a,8,100201,3,20,84,20,F,NA,variable,heterogeneous,4,present,1.40348792076111,1,vertical,vertical,1,3,green,2,1,980.31222920257,419.68777079743,980.31222920257,780.31222920257,980.31222920257,780.31222920257,980.31222920257,419.68777079743,619.68777079743,419.68777079743,619.68777079743,780.31222920257,0,4,5,3,horizontal,vertical,vertical,horizontal
2a,8,100201,3,21,85,20,F,NA,variable,heterogeneous,4,present,0.911792993545532,1,vertical,vertical,1,2,red,3,1,619.68777079743,419.68777079743,980.31222920257,780.31222920257,980.31222920257,780.31222920257,980.31222920257,419.68777079743,619.68777079743,419.68777079743,619.68777079743,780.31222920257,6,3,4,0,vertical,vertical,vertical,horizontal
2a,8,100201,3,22,86,20,F,NA,variable,heterogeneous,4,absent,1.57842206954956,1,horizontal,horizontal,1,5,red,1,NaN,980.31222920257,780.31222920257,NaN,NaN,980.31222920257,780.31222920257,980.31222920257,419.68777079743,619.68777079743,419.68777079743,619.68777079743,780.31222920257,4,6,0,3,horizontal,vertical,horizontal,horizontal
2a,8,100201,3,23,87,20,F,NA,variable,heterogeneous,4,present,1.41437101364136,1,vertical,vertical,1,5,green,4,2,619.68777079743,780.31222920257,980.31222920257,419.68777079743,980.31222920257,780.31222920257,980.31222920257,419.68777079743,619.68777079743,419.68777079743,619.68777079743,780.31222920257,3,0,6,4,vertical,horizontal,vertical,vertical
2a,8,100201,3,24,88,20,F,NA,variable,heterogeneous,4,absent,1.28673481941223,1,horizontal,horizontal,1,3,green,4,NaN,619.68777079743,780.31222920257,NaN,NaN,980.31222920257,780.31222920257,980.31222920257,419.68777079743,619.68777079743,419.68777079743,619.68777079743,780.31222920257,6,5,0,4,horizontal,vertical,vertical,horizontal
2a,8,100201,3,25,89,20,F,NA,variable,heterogeneous,4,present,1.08859205245972,1,horizontal,horizontal,1,3,red,4,2,619.68777079743,780.31222920257,980.31222920257,419.68777079743,980.31222920257,780.31222920257,980.31222920257,419.68777079743,619.68777079743,419.68777079743,619.68777079743,780.31222920257,5,6,0,4,horizontal,vertical,vertical,horizontal
2a,8,100201,3,26,90,20,F,NA,variable,heterogeneous,4,absent,1.53075504302979,1,vertical,vertical,1,3,green,2,NaN,980.31222920257,419.68777079743,NaN,NaN,980.31222920257,780.31222920257,980.31222920257,419.68777079743,619.68777079743,419.68777079743,619.68777079743,780.31222920257,5,4,6,3,vertical,vertical,horizontal,horizontal
2a,8,100201,3,27,91,20,F,NA,variable,heterogeneous,4,absent,0.74152398109436,1,vertical,vertical,1,2,red,2,NaN,980.31222920257,419.68777079743,NaN,NaN,980.31222920257,780.31222920257,980.31222920257,419.68777079743,619.68777079743,419.68777079743,619.68777079743,780.31222920257,5,4,3,6,horizontal,vertical,horizontal,horizontal
2a,8,100201,3,28,92,20,F,NA,variable,heterogeneous,4,present,0.932707071304321,1,vertical,vertical,1,3,red,4,3,619.68777079743,780.31222920257,619.68777079743,419.68777079743,980.31222920257,780.31222920257,980.31222920257,419.68777079743,619.68777079743,419.68777079743,619.68777079743,780.31222920257,5,3,0,4,horizontal,horizontal,horizontal,vertical
2a,8,100201,3,29,93,20,F,NA,variable,heterogeneous,4,absent,0.855716943740845,1,horizontal,horizontal,1,2,red,2,NaN,980.31222920257,419.68777079743,NaN,NaN,980.31222920257,780.31222920257,980.31222920257,419.68777079743,619.68777079743,419.68777079743,619.68777079743,780.31222920257,0,4,5,3,horizontal,horizontal,horizontal,vertical
2a,8,100201,3,30,94,20,F,NA,variable,heterogeneous,4,present,0.764664888381958,1,vertical,vertical,1,5,green,4,3,619.68777079743,780.31222920257,619.68777079743,419.68777079743,980.31222920257,780.31222920257,980.31222920257,419.68777079743,619.68777079743,419.68777079743,619.68777079743,780.31222920257,5,6,3,4,horizontal,horizontal,vertical,vertical
2a,8,100201,3,31,95,20,F,NA,variable,heterogeneous,4,present,1.93245482444763,1,horizontal,horizontal,1,5,green,1,3,980.31222920257,780.31222920257,619.68777079743,419.68777079743,980.31222920257,780.31222920257,980.31222920257,419.68777079743,619.68777079743,419.68777079743,619.68777079743,780.31222920257,4,3,6,5,horizontal,horizontal,vertical,vertical
2a,8,100201,3,32,96,20,F,NA,variable,heterogeneous,4,absent,0.951299905776978,1,horizontal,horizontal,1,8,green,4,NaN,619.68777079743,780.31222920257,NaN,NaN,980.31222920257,780.31222920257,980.31222920257,419.68777079743,619.68777079743,419.68777079743,619.68777079743,780.31222920257,5,6,3,4,vertical,horizontal,vertical,horizontal
2a,8,100201,4,1,97,20,F,NA,variable,heterogeneous,4,absent,1.67721796035767,1,vertical,vertical,1,5,red,4,NaN,619.68777079743,780.31222920257,NaN,NaN,980.31222920257,780.31222920257,980.31222920257,419.68777079743,619.68777079743,419.68777079743,619.68777079743,780.31222920257,0,3,5,4,vertical,horizontal,horizontal,vertical
2a,8,100201,4,2,98,20,F,NA,variable,heterogeneous,4,absent,0.970959901809692,1,vertical,vertical,1,8,red,1,NaN,980.31222920257,780.31222920257,NaN,NaN,980.31222920257,780.31222920257,980.31222920257,419.68777079743,619.68777079743,419.68777079743,619.68777079743,780.31222920257,4,6,0,3,vertical,vertical,vertical,horizontal
2a,8,100201,4,3,99,20,F,NA,variable,heterogeneous,4,present,1.23461294174194,1,vertical,vertical,1,2,green,3,2,619.68777079743,419.68777079743,980.31222920257,419.68777079743,980.31222920257,780.31222920257,980.31222920257,419.68777079743,619.68777079743,419.68777079743,619.68777079743,780.31222920257,0,5,4,6,vertical,vertical,vertical,horizontal
2a,8,100201,4,4,100,20,F,NA,variable,heterogeneous,4,present,1.29173398017883,1,horizontal,horizontal,1,5,green,3,2,619.68777079743,419.68777079743,980.31222920257,419.68777079743,980.31222920257,780.31222920257,980.31222920257,419.68777079743,619.68777079743,419.68777079743,619.68777079743,780.31222920257,3,0,4,6,horizontal,vertical,horizontal,horizontal
2a,8,100201,4,5,101,20,F,NA,variable,heterogeneous,4,absent,1.613450050354,1,horizontal,horizontal,1,5,red,2,NaN,980.31222920257,419.68777079743,NaN,NaN,980.31222920257,780.31222920257,980.31222920257,419.68777079743,619.68777079743,419.68777079743,619.68777079743,780.31222920257,3,4,5,6,vertical,horizontal,horizontal,horizontal
2a,8,100201,4,6,102,20,F,NA,variable,heterogeneous,4,absent,0.814095973968506,1,horizontal,horizontal,1,8,green,2,NaN,980.31222920257,419.68777079743,NaN,NaN,980.31222920257,780.31222920257,980.31222920257,419.68777079743,619.68777079743,419.68777079743,619.68777079743,780.31222920257,0,4,6,5,horizontal,horizontal,vertical,horizontal
2a,8,100201,4,7,103,20,F,NA,variable,heterogeneous,4,present,1.14283108711243,1,vertical,vertical,1,2,red,4,3,619.68777079743,780.31222920257,619.68777079743,419.68777079743,980.31222920257,780.31222920257,980.31222920257,419.68777079743,619.68777079743,419.68777079743,619.68777079743,780.31222920257,0,6,3,4,horizontal,horizontal,vertical,vertical
2a,8,100201,4,8,104,20,F,NA,variable,heterogeneous,4,present,1.80584311485291,1,vertical,vertical,1,5,green,2,3,980.31222920257,419.68777079743,619.68777079743,419.68777079743,980.31222920257,780.31222920257,980.31222920257,419.68777079743,619.68777079743,419.68777079743,619.68777079743,780.31222920257,3,4,6,0,horizontal,vertical,vertical,horizontal
2a,8,100201,4,9,105,20,F,NA,variable,heterogeneous,4,absent,1.5220639705658,1,horizontal,horizontal,1,2,red,1,NaN,980.31222920257,780.31222920257,NaN,NaN,980.31222920257,780.31222920257,980.31222920257,419.68777079743,619.68777079743,419.68777079743,619.68777079743,780.31222920257,4,5,6,0,horizontal,vertical,horizontal,horizontal
2a,8,100201,4,10,106,20,F,NA,variable,heterogeneous,4,absent,1.67281293869019,1,horizontal,horizontal,1,3,red,3,NaN,619.68777079743,419.68777079743,NaN,NaN,980.31222920257,780.31222920257,980.31222920257,419.68777079743,619.68777079743,419.68777079743,619.68777079743,780.31222920257,0,3,4,6,vertical,vertical,horizontal,vertical
2a,8,100201,4,11,107,20,F,NA,variable,heterogeneous,4,present,1.34252095222473,0,vertical,horizontal,1,3,red,3,1,619.68777079743,419.68777079743,980.31222920257,780.31222920257,980.31222920257,780.31222920257,980.31222920257,419.68777079743,619.68777079743,419.68777079743,619.68777079743,780.31222920257,3,5,4,0,vertical,horizontal,vertical,vertical
2a,8,100201,4,12,108,20,F,NA,variable,heterogeneous,4,absent,0.941596984863281,1,vertical,vertical,1,3,green,3,NaN,619.68777079743,419.68777079743,NaN,NaN,980.31222920257,780.31222920257,980.31222920257,419.68777079743,619.68777079743,419.68777079743,619.68777079743,780.31222920257,6,5,4,3,vertical,horizontal,vertical,horizontal
2a,8,100201,4,13,109,20,F,NA,variable,heterogeneous,4,absent,1.61264514923096,1,vertical,vertical,1,2,green,4,NaN,619.68777079743,780.31222920257,NaN,NaN,980.31222920257,780.31222920257,980.31222920257,419.68777079743,619.68777079743,419.68777079743,619.68777079743,780.31222920257,6,5,0,4,horizontal,horizontal,horizontal,vertical
2a,8,100201,4,14,110,20,F,NA,variable,heterogeneous,4,absent,1.78923797607422,1,vertical,vertical,1,3,green,2,NaN,980.31222920257,419.68777079743,NaN,NaN,980.31222920257,780.31222920257,980.31222920257,419.68777079743,619.68777079743,419.68777079743,619.68777079743,780.31222920257,3,4,6,5,vertical,vertical,vertical,vertical
2a,8,100201,4,15,111,20,F,NA,variable,heterogeneous,4,present,1.10143399238586,1,vertical,vertical,1,8,red,1,2,980.31222920257,780.31222920257,980.31222920257,419.68777079743,980.31222920257,780.31222920257,980.31222920257,419.68777079743,619.68777079743,419.68777079743,619.68777079743,780.31222920257,4,0,3,6,vertical,vertical,vertical,horizontal
2a,8,100201,4,16,112,20,F,NA,variable,heterogeneous,4,absent,1.371750831604,1,horizontal,horizontal,1,5,red,4,NaN,619.68777079743,780.31222920257,NaN,NaN,980.31222920257,780.31222920257,980.31222920257,419.68777079743,619.68777079743,419.68777079743,619.68777079743,780.31222920257,0,3,5,4,horizontal,horizontal,horizontal,horizontal
2a,8,100201,4,17,113,20,F,NA,variable,heterogeneous,4,present,0.859302997589111,1,horizontal,horizontal,1,2,green,1,4,980.31222920257,780.31222920257,619.68777079743,780.31222920257,980.31222920257,780.31222920257,980.31222920257,419.68777079743,619.68777079743,419.68777079743,619.68777079743,780.31222920257,4,0,3,6,horizontal,vertical,vertical,horizontal
2a,8,100201,4,18,114,20,F,NA,variable,heterogeneous,4,present,0.748816013336182,1,horizontal,horizontal,1,8,green,4,3,619.68777079743,780.31222920257,619.68777079743,419.68777079743,980.31222920257,780.31222920257,980.31222920257,419.68777079743,619.68777079743,419.68777079743,619.68777079743,780.31222920257,6,5,0,4,horizontal,vertical,vertical,horizontal
2a,8,100201,4,19,115,20,F,NA,variable,heterogeneous,4,present,0.611970186233521,1,horizontal,horizontal,1,2,green,4,3,619.68777079743,780.31222920257,619.68777079743,419.68777079743,980.31222920257,780.31222920257,980.31222920257,419.68777079743,619.68777079743,419.68777079743,619.68777079743,780.31222920257,6,5,0,4,vertical,vertical,horizontal,horizontal
2a,8,100201,4,20,116,20,F,NA,variable,heterogeneous,4,absent,0.756508111953735,1,horizontal,horizontal,1,2,red,3,NaN,619.68777079743,419.68777079743,NaN,NaN,980.31222920257,780.31222920257,980.31222920257,419.68777079743,619.68777079743,419.68777079743,619.68777079743,780.31222920257,5,3,4,0,vertical,horizontal,horizontal,vertical
2a,8,100201,4,21,117,20,F,NA,variable,heterogeneous,4,present,0.687911987304688,1,vertical,vertical,1,5,green,1,2,980.31222920257,780.31222920257,980.31222920257,419.68777079743,980.31222920257,780.31222920257,980.31222920257,419.68777079743,619.68777079743,419.68777079743,619.68777079743,780.31222920257,4,0,6,3,vertical,horizontal,horizontal,horizontal
2a,8,100201,4,22,118,20,F,NA,variable,heterogeneous,4,present,0.729825019836426,1,vertical,vertical,1,2,green,3,4,619.68777079743,419.68777079743,619.68777079743,780.31222920257,980.31222920257,780.31222920257,980.31222920257,419.68777079743,619.68777079743,419.68777079743,619.68777079743,780.31222920257,6,3,4,0,horizontal,vertical,vertical,horizontal
2a,8,100201,4,23,119,20,F,NA,variable,heterogeneous,4,present,0.964651107788086,1,horizontal,horizontal,1,3,red,1,4,980.31222920257,780.31222920257,619.68777079743,780.31222920257,980.31222920257,780.31222920257,980.31222920257,419.68777079743,619.68777079743,419.68777079743,619.68777079743,780.31222920257,4,3,0,6,horizontal,vertical,horizontal,vertical
2a,8,100201,4,24,120,20,F,NA,variable,heterogeneous,4,present,0.796317100524902,1,horizontal,horizontal,1,2,red,4,2,619.68777079743,780.31222920257,980.31222920257,419.68777079743,980.31222920257,780.31222920257,980.31222920257,419.68777079743,619.68777079743,419.68777079743,619.68777079743,780.31222920257,6,0,3,4,vertical,horizontal,horizontal,horizontal
2a,8,100201,4,25,121,20,F,NA,variable,heterogeneous,4,absent,0.948369026184082,1,vertical,vertical,1,2,green,1,NaN,980.31222920257,780.31222920257,NaN,NaN,980.31222920257,780.31222920257,980.31222920257,419.68777079743,619.68777079743,419.68777079743,619.68777079743,780.31222920257,4,3,0,5,vertical,horizontal,horizontal,horizontal
2a,8,100201,4,26,122,20,F,NA,variable,heterogeneous,4,present,0.659496068954468,1,vertical,vertical,1,3,green,1,3,980.31222920257,780.31222920257,619.68777079743,419.68777079743,980.31222920257,780.31222920257,980.31222920257,419.68777079743,619.68777079743,419.68777079743,619.68777079743,780.31222920257,4,3,6,5,vertical,vertical,horizontal,horizontal
2a,8,100201,4,27,123,20,F,NA,variable,heterogeneous,4,present,1.35702514648438,1,horizontal,horizontal,1,5,red,3,2,619.68777079743,419.68777079743,980.31222920257,419.68777079743,980.31222920257,780.31222920257,980.31222920257,419.68777079743,619.68777079743,419.68777079743,619.68777079743,780.31222920257,6,3,4,0,vertical,horizontal,horizontal,horizontal
2a,8,100201,4,28,124,20,F,NA,variable,heterogeneous,4,absent,1.32033705711365,1,vertical,vertical,1,2,red,2,NaN,980.31222920257,419.68777079743,NaN,NaN,980.31222920257,780.31222920257,980.31222920257,419.68777079743,619.68777079743,419.68777079743,619.68777079743,780.31222920257,5,4,6,0,vertical,vertical,horizontal,horizontal
2a,8,100201,4,29,125,20,F,NA,variable,heterogeneous,4,absent,0.718976020812988,1,vertical,vertical,1,5,red,1,NaN,980.31222920257,780.31222920257,NaN,NaN,980.31222920257,780.31222920257,980.31222920257,419.68777079743,619.68777079743,419.68777079743,619.68777079743,780.31222920257,4,3,0,5,vertical,vertical,horizontal,vertical
2a,8,100201,4,30,126,20,F,NA,variable,heterogeneous,4,absent,0.997758150100708,1,horizontal,horizontal,1,2,red,4,NaN,619.68777079743,780.31222920257,NaN,NaN,980.31222920257,780.31222920257,980.31222920257,419.68777079743,619.68777079743,419.68777079743,619.68777079743,780.31222920257,3,6,0,4,horizontal,horizontal,vertical,horizontal
2a,8,100201,4,31,127,20,F,NA,variable,heterogeneous,4,absent,1.42988801002502,1,horizontal,horizontal,1,3,red,3,NaN,619.68777079743,419.68777079743,NaN,NaN,980.31222920257,780.31222920257,980.31222920257,419.68777079743,619.68777079743,419.68777079743,619.68777079743,780.31222920257,3,0,4,6,horizontal,horizontal,horizontal,horizontal
2a,8,100201,4,32,128,20,F,NA,variable,heterogeneous,4,present,1.63457989692688,1,horizontal,horizontal,1,3,green,2,4,980.31222920257,419.68777079743,619.68777079743,780.31222920257,980.31222920257,780.31222920257,980.31222920257,419.68777079743,619.68777079743,419.68777079743,619.68777079743,780.31222920257,3,4,5,6,horizontal,horizontal,vertical,vertical
2a,8,100201,5,1,129,20,F,NA,variable,heterogeneous,4,absent,1.01280903816223,1,horizontal,horizontal,1,2,red,3,NaN,619.68777079743,419.68777079743,NaN,NaN,980.31222920257,780.31222920257,980.31222920257,419.68777079743,619.68777079743,419.68777079743,619.68777079743,780.31222920257,6,0,4,3,vertical,horizontal,horizontal,vertical
2a,8,100201,5,2,130,20,F,NA,variable,heterogeneous,4,absent,1.22114706039429,1,horizontal,horizontal,1,2,red,2,NaN,980.31222920257,419.68777079743,NaN,NaN,980.31222920257,780.31222920257,980.31222920257,419.68777079743,619.68777079743,419.68777079743,619.68777079743,780.31222920257,5,4,3,6,vertical,horizontal,vertical,vertical
2a,8,100201,5,3,131,20,F,NA,variable,heterogeneous,4,absent,1.66165208816528,1,vertical,vertical,1,2,red,2,NaN,980.31222920257,419.68777079743,NaN,NaN,980.31222920257,780.31222920257,980.31222920257,419.68777079743,619.68777079743,419.68777079743,619.68777079743,780.31222920257,0,4,5,6,horizontal,vertical,horizontal,vertical
2a,8,100201,5,4,132,20,F,NA,variable,heterogeneous,4,absent,1.43112993240356,1,vertical,vertical,1,2,red,3,NaN,619.68777079743,419.68777079743,NaN,NaN,980.31222920257,780.31222920257,980.31222920257,419.68777079743,619.68777079743,419.68777079743,619.68777079743,780.31222920257,3,0,4,5,vertical,vertical,vertical,horizontal
2a,8,100201,5,5,133,20,F,NA,variable,heterogeneous,4,absent,0.851995944976807,1,horizontal,horizontal,1,5,green,4,NaN,619.68777079743,780.31222920257,NaN,NaN,980.31222920257,780.31222920257,980.31222920257,419.68777079743,619.68777079743,419.68777079743,619.68777079743,780.31222920257,0,6,5,4,vertical,vertical,horizontal,horizontal
2a,8,100201,5,6,134,20,F,NA,variable,heterogeneous,4,present,1.65719509124756,1,vertical,vertical,1,3,red,3,1,619.68777079743,419.68777079743,980.31222920257,780.31222920257,980.31222920257,780.31222920257,980.31222920257,419.68777079743,619.68777079743,419.68777079743,619.68777079743,780.31222920257,5,0,4,6,horizontal,vertical,vertical,vertical
2a,8,100201,5,7,135,20,F,NA,variable,heterogeneous,4,present,1.854327917099,1,horizontal,horizontal,1,2,green,1,4,980.31222920257,780.31222920257,619.68777079743,780.31222920257,980.31222920257,780.31222920257,980.31222920257,419.68777079743,619.68777079743,419.68777079743,619.68777079743,780.31222920257,4,3,5,0,horizontal,vertical,vertical,vertical
2a,8,100201,5,8,136,20,F,NA,variable,heterogeneous,4,present,1.06772899627686,1,vertical,vertical,1,5,green,1,3,980.31222920257,780.31222920257,619.68777079743,419.68777079743,980.31222920257,780.31222920257,980.31222920257,419.68777079743,619.68777079743,419.68777079743,619.68777079743,780.31222920257,4,6,5,0,vertical,vertical,horizontal,horizontal
2a,8,100201,5,9,137,20,F,NA,variable,heterogeneous,4,present,1.08544516563416,1,horizontal,horizontal,1,5,green,2,3,980.31222920257,419.68777079743,619.68777079743,419.68777079743,980.31222920257,780.31222920257,980.31222920257,419.68777079743,619.68777079743,419.68777079743,619.68777079743,780.31222920257,6,4,5,0,vertical,horizontal,vertical,vertical
2a,8,100201,5,10,138,20,F,NA,variable,heterogeneous,4,present,1.87907195091248,1,vertical,vertical,1,2,red,3,1,619.68777079743,419.68777079743,980.31222920257,780.31222920257,980.31222920257,780.31222920257,980.31222920257,419.68777079743,619.68777079743,419.68777079743,619.68777079743,780.31222920257,0,6,4,3,vertical,horizontal,vertical,horizontal
2a,8,100201,5,11,139,20,F,NA,variable,heterogeneous,4,absent,0.804887056350708,1,vertical,vertical,1,3,green,2,NaN,980.31222920257,419.68777079743,NaN,NaN,980.31222920257,780.31222920257,980.31222920257,419.68777079743,619.68777079743,419.68777079743,619.68777079743,780.31222920257,0,4,6,3,vertical,vertical,vertical,horizontal
2a,8,100201,5,12,140,20,F,NA,variable,heterogeneous,4,absent,0.889379024505615,1,vertical,vertical,1,3,red,3,NaN,619.68777079743,419.68777079743,NaN,NaN,980.31222920257,780.31222920257,980.31222920257,419.68777079743,619.68777079743,419.68777079743,619.68777079743,780.31222920257,6,3,4,5,horizontal,horizontal,vertical,horizontal
2a,8,100201,5,13,141,20,F,NA,variable,heterogeneous,4,absent,1.03525400161743,1,vertical,vertical,1,5,green,1,NaN,980.31222920257,780.31222920257,NaN,NaN,980.31222920257,780.31222920257,980.31222920257,419.68777079743,619.68777079743,419.68777079743,619.68777079743,780.31222920257,4,5,6,0,vertical,horizontal,vertical,vertical
2a,8,100201,5,14,142,20,F,NA,variable,heterogeneous,4,absent,0.948233127593994,1,horizontal,horizontal,1,5,green,1,NaN,980.31222920257,780.31222920257,NaN,NaN,980.31222920257,780.31222920257,980.31222920257,419.68777079743,619.68777079743,419.68777079743,619.68777079743,780.31222920257,4,0,3,5,horizontal,vertical,horizontal,vertical
2a,8,100201,5,15,143,20,F,NA,variable,heterogeneous,4,present,0.763337850570679,1,horizontal,horizontal,1,2,red,1,3,980.31222920257,780.31222920257,619.68777079743,419.68777079743,980.31222920257,780.31222920257,980.31222920257,419.68777079743,619.68777079743,419.68777079743,619.68777079743,780.31222920257,4,6,5,3,horizontal,horizontal,vertical,vertical
2a,8,100201,5,16,144,20,F,NA,variable,heterogeneous,4,absent,0.970999002456665,1,horizontal,horizontal,1,3,green,3,NaN,619.68777079743,419.68777079743,NaN,NaN,980.31222920257,780.31222920257,980.31222920257,419.68777079743,619.68777079743,419.68777079743,619.68777079743,780.31222920257,0,5,4,3,vertical,horizontal,horizontal,vertical
2a,8,100201,5,17,145,20,F,NA,variable,heterogeneous,4,present,1.19459700584412,1,horizontal,horizontal,1,3,red,3,4,619.68777079743,419.68777079743,619.68777079743,780.31222920257,980.31222920257,780.31222920257,980.31222920257,419.68777079743,619.68777079743,419.68777079743,619.68777079743,780.31222920257,0,5,4,3,horizontal,horizontal,horizontal,horizontal
2a,8,100201,5,18,146,20,F,NA,variable,heterogeneous,4,present,1.05054402351379,1,vertical,vertical,1,2,green,3,1,619.68777079743,419.68777079743,980.31222920257,780.31222920257,980.31222920257,780.31222920257,980.31222920257,419.68777079743,619.68777079743,419.68777079743,619.68777079743,780.31222920257,3,5,4,0,vertical,horizontal,vertical,horizontal
2a,8,100201,5,19,147,20,F,NA,variable,heterogeneous,4,present,0.807968139648438,1,horizontal,horizontal,1,8,red,3,1,619.68777079743,419.68777079743,980.31222920257,780.31222920257,980.31222920257,780.31222920257,980.31222920257,419.68777079743,619.68777079743,419.68777079743,619.68777079743,780.31222920257,0,3,4,5,vertical,horizontal,horizontal,horizontal
2a,8,100201,5,20,148,20,F,NA,variable,heterogeneous,4,absent,0.900248050689697,1,horizontal,horizontal,1,8,green,4,NaN,619.68777079743,780.31222920257,NaN,NaN,980.31222920257,780.31222920257,980.31222920257,419.68777079743,619.68777079743,419.68777079743,619.68777079743,780.31222920257,5,0,3,4,horizontal,horizontal,vertical,horizontal
2a,8,100201,5,21,149,20,F,NA,variable,heterogeneous,4,present,1.24242782592773,1,horizontal,horizontal,1,2,green,2,4,980.31222920257,419.68777079743,619.68777079743,780.31222920257,980.31222920257,780.31222920257,980.31222920257,419.68777079743,619.68777079743,419.68777079743,619.68777079743,780.31222920257,6,4,3,0,horizontal,horizontal,vertical,vertical
2a,8,100201,5,22,150,20,F,NA,variable,heterogeneous,4,present,1.08353400230408,1,vertical,vertical,1,2,green,4,2,619.68777079743,780.31222920257,980.31222920257,419.68777079743,980.31222920257,780.31222920257,980.31222920257,419.68777079743,619.68777079743,419.68777079743,619.68777079743,780.31222920257,0,3,6,4,vertical,horizontal,horizontal,vertical
2a,8,100201,5,23,151,20,F,NA,variable,heterogeneous,4,absent,1.6535849571228,1,vertical,vertical,1,8,green,3,NaN,619.68777079743,419.68777079743,NaN,NaN,980.31222920257,780.31222920257,980.31222920257,419.68777079743,619.68777079743,419.68777079743,619.68777079743,780.31222920257,3,5,4,6,vertical,vertical,vertical,vertical
2a,8,100201,5,24,152,20,F,NA,variable,heterogeneous,4,present,0.987081050872803,1,horizontal,horizontal,1,5,red,1,3,980.31222920257,780.31222920257,619.68777079743,419.68777079743,980.31222920257,780.31222920257,980.31222920257,419.68777079743,619.68777079743,419.68777079743,619.68777079743,780.31222920257,4,3,0,5,horizontal,vertical,horizontal,horizontal
2a,8,100201,5,25,153,20,F,NA,variable,heterogeneous,4,present,1.4510018825531,1,vertical,vertical,1,8,red,4,2,619.68777079743,780.31222920257,980.31222920257,419.68777079743,980.31222920257,780.31222920257,980.31222920257,419.68777079743,619.68777079743,419.68777079743,619.68777079743,780.31222920257,0,5,3,4,vertical,horizontal,horizontal,vertical
2a,8,100201,5,26,154,20,F,NA,variable,heterogeneous,4,present,1.54445719718933,1,horizontal,horizontal,1,3,red,3,4,619.68777079743,419.68777079743,619.68777079743,780.31222920257,980.31222920257,780.31222920257,980.31222920257,419.68777079743,619.68777079743,419.68777079743,619.68777079743,780.31222920257,5,0,4,3,horizontal,horizontal,horizontal,horizontal
2a,8,100201,5,27,155,20,F,NA,variable,heterogeneous,4,absent,1.51146483421326,1,vertical,vertical,1,2,green,1,NaN,980.31222920257,780.31222920257,NaN,NaN,980.31222920257,780.31222920257,980.31222920257,419.68777079743,619.68777079743,419.68777079743,619.68777079743,780.31222920257,4,6,0,5,vertical,vertical,vertical,vertical
2a,8,100201,5,28,156,20,F,NA,variable,heterogeneous,4,present,1.53795695304871,1,vertical,vertical,1,5,green,1,4,980.31222920257,780.31222920257,619.68777079743,780.31222920257,980.31222920257,780.31222920257,980.31222920257,419.68777079743,619.68777079743,419.68777079743,619.68777079743,780.31222920257,4,5,0,3,vertical,horizontal,horizontal,horizontal
2a,8,100201,5,29,157,20,F,NA,variable,heterogeneous,4,present,1.14878702163696,1,vertical,vertical,1,3,red,1,4,980.31222920257,780.31222920257,619.68777079743,780.31222920257,980.31222920257,780.31222920257,980.31222920257,419.68777079743,619.68777079743,419.68777079743,619.68777079743,780.31222920257,4,0,6,5,vertical,vertical,vertical,vertical
2a,8,100201,5,30,158,20,F,NA,variable,heterogeneous,4,absent,1.98793816566467,1,horizontal,horizontal,1,3,green,1,NaN,980.31222920257,780.31222920257,NaN,NaN,980.31222920257,780.31222920257,980.31222920257,419.68777079743,619.68777079743,419.68777079743,619.68777079743,780.31222920257,4,5,6,0,horizontal,horizontal,horizontal,horizontal
2a,8,100201,5,31,159,20,F,NA,variable,heterogeneous,4,absent,1.30807685852051,1,vertical,vertical,1,5,green,4,NaN,619.68777079743,780.31222920257,NaN,NaN,980.31222920257,780.31222920257,980.31222920257,419.68777079743,619.68777079743,419.68777079743,619.68777079743,780.31222920257,6,5,3,4,vertical,vertical,vertical,vertical
2a,8,100201,5,32,160,20,F,NA,variable,heterogeneous,4,absent,0.90250301361084,1,horizontal,horizontal,1,2,green,4,NaN,619.68777079743,780.31222920257,NaN,NaN,980.31222920257,780.31222920257,980.31222920257,419.68777079743,619.68777079743,419.68777079743,619.68777079743,780.31222920257,0,5,3,4,vertical,vertical,vertical,horizontal
2a,8,100201,6,1,161,20,F,NA,variable,heterogeneous,4,absent,1.65229487419128,1,horizontal,horizontal,1,5,red,4,NaN,619.68777079743,780.31222920257,NaN,NaN,980.31222920257,780.31222920257,980.31222920257,419.68777079743,619.68777079743,419.68777079743,619.68777079743,780.31222920257,5,6,3,4,horizontal,horizontal,horizontal,horizontal
2a,8,100201,6,2,162,20,F,NA,variable,heterogeneous,4,absent,1.42568802833557,1,vertical,vertical,1,3,red,3,NaN,619.68777079743,419.68777079743,NaN,NaN,980.31222920257,780.31222920257,980.31222920257,419.68777079743,619.68777079743,419.68777079743,619.68777079743,780.31222920257,6,0,4,3,horizontal,horizontal,vertical,horizontal
2a,8,100201,6,3,163,20,F,NA,variable,heterogeneous,4,present,1.18243002891541,1,horizontal,horizontal,1,2,red,4,3,619.68777079743,780.31222920257,619.68777079743,419.68777079743,980.31222920257,780.31222920257,980.31222920257,419.68777079743,619.68777079743,419.68777079743,619.68777079743,780.31222920257,5,0,3,4,horizontal,horizontal,horizontal,horizontal
2a,8,100201,6,4,164,20,F,NA,variable,heterogeneous,4,present,0.842075109481812,1,vertical,vertical,1,2,green,3,2,619.68777079743,419.68777079743,980.31222920257,419.68777079743,980.31222920257,780.31222920257,980.31222920257,419.68777079743,619.68777079743,419.68777079743,619.68777079743,780.31222920257,3,0,4,5,horizontal,horizontal,vertical,vertical
2a,8,100201,6,5,165,20,F,NA,variable,heterogeneous,4,present,0.699198007583618,0,vertical,horizontal,1,3,red,4,1,619.68777079743,780.31222920257,980.31222920257,780.31222920257,980.31222920257,780.31222920257,980.31222920257,419.68777079743,619.68777079743,419.68777079743,619.68777079743,780.31222920257,3,5,6,4,vertical,vertical,vertical,vertical
2a,8,100201,6,6,166,20,F,NA,variable,heterogeneous,4,present,0.937464952468872,1,horizontal,horizontal,1,3,green,4,3,619.68777079743,780.31222920257,619.68777079743,419.68777079743,980.31222920257,780.31222920257,980.31222920257,419.68777079743,619.68777079743,419.68777079743,619.68777079743,780.31222920257,3,6,0,4,horizontal,horizontal,horizontal,horizontal
2a,8,100201,6,7,167,20,F,NA,variable,heterogeneous,4,present,1.10821199417114,1,horizontal,horizontal,1,2,green,2,4,980.31222920257,419.68777079743,619.68777079743,780.31222920257,980.31222920257,780.31222920257,980.31222920257,419.68777079743,619.68777079743,419.68777079743,619.68777079743,780.31222920257,5,4,6,0,vertical,horizontal,horizontal,horizontal
2a,8,100201,6,8,168,20,F,NA,variable,heterogeneous,4,present,0.862989902496338,0,vertical,horizontal,1,5,green,2,1,980.31222920257,419.68777079743,980.31222920257,780.31222920257,980.31222920257,780.31222920257,980.31222920257,419.68777079743,619.68777079743,419.68777079743,619.68777079743,780.31222920257,3,4,5,0,horizontal,vertical,horizontal,vertical
2a,8,100201,6,9,169,20,F,NA,variable,heterogeneous,4,absent,1.55236387252808,1,horizontal,horizontal,1,8,green,2,NaN,980.31222920257,419.68777079743,NaN,NaN,980.31222920257,780.31222920257,980.31222920257,419.68777079743,619.68777079743,419.68777079743,619.68777079743,780.31222920257,0,4,6,3,horizontal,horizontal,vertical,horizontal
2a,8,100201,6,10,170,20,F,NA,variable,heterogeneous,4,present,1.4199230670929,1,horizontal,horizontal,1,2,red,3,4,619.68777079743,419.68777079743,619.68777079743,780.31222920257,980.31222920257,780.31222920257,980.31222920257,419.68777079743,619.68777079743,419.68777079743,619.68777079743,780.31222920257,5,3,4,0,horizontal,horizontal,horizontal,horizontal
2a,8,100201,6,11,171,20,F,NA,variable,heterogeneous,4,absent,0.876425981521606,1,vertical,vertical,1,5,red,4,NaN,619.68777079743,780.31222920257,NaN,NaN,980.31222920257,780.31222920257,980.31222920257,419.68777079743,619.68777079743,419.68777079743,619.68777079743,780.31222920257,6,5,0,4,horizontal,vertical,horizontal,vertical
2a,8,100201,6,12,172,20,F,NA,variable,heterogeneous,4,present,1.58610701560974,1,vertical,vertical,1,8,green,2,1,980.31222920257,419.68777079743,980.31222920257,780.31222920257,980.31222920257,780.31222920257,980.31222920257,419.68777079743,619.68777079743,419.68777079743,619.68777079743,780.31222920257,0,4,3,5,vertical,vertical,horizontal,vertical
2a,8,100201,6,13,173,20,F,NA,variable,heterogeneous,4,absent,1.17391586303711,1,horizontal,horizontal,1,2,red,1,NaN,980.31222920257,780.31222920257,NaN,NaN,980.31222920257,780.31222920257,980.31222920257,419.68777079743,619.68777079743,419.68777079743,619.68777079743,780.31222920257,4,5,3,6,horizontal,vertical,vertical,vertical
2a,8,100201,6,14,174,20,F,NA,variable,heterogeneous,4,absent,1.26141381263733,1,vertical,vertical,1,3,green,1,NaN,980.31222920257,780.31222920257,NaN,NaN,980.31222920257,780.31222920257,980.31222920257,419.68777079743,619.68777079743,419.68777079743,619.68777079743,780.31222920257,4,0,6,5,vertical,vertical,horizontal,horizontal
2a,8,100201,6,15,175,20,F,NA,variable,heterogeneous,4,absent,1.47096514701843,1,horizontal,horizontal,1,5,green,4,NaN,619.68777079743,780.31222920257,NaN,NaN,980.31222920257,780.31222920257,980.31222920257,419.68777079743,619.68777079743,419.68777079743,619.68777079743,780.31222920257,5,0,3,4,vertical,horizontal,horizontal,horizontal
2a,8,100201,6,16,176,20,F,NA,variable,heterogeneous,4,absent,0.812741041183472,1,horizontal,horizontal,1,2,red,1,NaN,980.31222920257,780.31222920257,NaN,NaN,980.31222920257,780.31222920257,980.31222920257,419.68777079743,619.68777079743,419.68777079743,619.68777079743,780.31222920257,4,5,6,3,horizontal,horizontal,horizontal,horizontal
2a,8,100201,6,17,177,20,F,NA,variable,heterogeneous,4,absent,1.00517511367798,1,vertical,vertical,1,2,green,2,NaN,980.31222920257,419.68777079743,NaN,NaN,980.31222920257,780.31222920257,980.31222920257,419.68777079743,619.68777079743,419.68777079743,619.68777079743,780.31222920257,3,4,0,5,horizontal,vertical,vertical,vertical
2a,8,100201,6,18,178,20,F,NA,variable,heterogeneous,4,present,1.38558602333069,1,horizontal,horizontal,1,5,red,3,4,619.68777079743,419.68777079743,619.68777079743,780.31222920257,980.31222920257,780.31222920257,980.31222920257,419.68777079743,619.68777079743,419.68777079743,619.68777079743,780.31222920257,5,3,4,6,horizontal,vertical,horizontal,vertical
2a,8,100201,6,19,179,20,F,NA,variable,heterogeneous,4,absent,1.24561095237732,1,vertical,vertical,1,2,red,1,NaN,980.31222920257,780.31222920257,NaN,NaN,980.31222920257,780.31222920257,980.31222920257,419.68777079743,619.68777079743,419.68777079743,619.68777079743,780.31222920257,4,3,5,0,vertical,horizontal,vertical,horizontal
2a,8,100201,6,20,180,20,F,NA,variable,heterogeneous,4,absent,0.754749059677124,1,vertical,vertical,1,2,green,4,NaN,619.68777079743,780.31222920257,NaN,NaN,980.31222920257,780.31222920257,980.31222920257,419.68777079743,619.68777079743,419.68777079743,619.68777079743,780.31222920257,0,5,3,4,vertical,horizontal,horizontal,vertical
2a,8,100201,6,21,181,20,F,NA,variable,heterogeneous,4,present,0.950098037719727,1,vertical,vertical,1,3,green,3,1,619.68777079743,419.68777079743,980.31222920257,780.31222920257,980.31222920257,780.31222920257,980.31222920257,419.68777079743,619.68777079743,419.68777079743,619.68777079743,780.31222920257,3,0,4,6,vertical,horizontal,vertical,horizontal
2a,8,100201,6,22,182,20,F,NA,variable,heterogeneous,4,absent,1.11713314056396,1,horizontal,horizontal,1,3,red,2,NaN,980.31222920257,419.68777079743,NaN,NaN,980.31222920257,780.31222920257,980.31222920257,419.68777079743,619.68777079743,419.68777079743,619.68777079743,780.31222920257,0,4,3,6,horizontal,horizontal,horizontal,vertical
2a,8,100201,6,23,183,20,F,NA,variable,heterogeneous,4,present,1.0839991569519,1,horizontal,horizontal,1,3,red,3,1,619.68777079743,419.68777079743,980.31222920257,780.31222920257,980.31222920257,780.31222920257,980.31222920257,419.68777079743,619.68777079743,419.68777079743,619.68777079743,780.31222920257,3,0,4,5,horizontal,vertical,horizontal,vertical
2a,8,100201,6,24,184,20,F,NA,variable,heterogeneous,4,present,0.981833219528198,1,horizontal,horizontal,1,8,green,3,2,619.68777079743,419.68777079743,980.31222920257,419.68777079743,980.31222920257,780.31222920257,980.31222920257,419.68777079743,619.68777079743,419.68777079743,619.68777079743,780.31222920257,6,3,4,0,vertical,vertical,horizontal,vertical
2a,8,100201,6,25,185,20,F,NA,variable,heterogeneous,4,absent,0.873884916305542,1,horizontal,horizontal,1,2,green,4,NaN,619.68777079743,780.31222920257,NaN,NaN,980.31222920257,780.31222920257,980.31222920257,419.68777079743,619.68777079743,419.68777079743,619.68777079743,780.31222920257,5,0,3,4,horizontal,vertical,vertical,horizontal
2a,8,100201,6,26,186,20,F,NA,variable,heterogeneous,4,absent,1.00744009017944,1,horizontal,horizontal,1,3,green,2,NaN,980.31222920257,419.68777079743,NaN,NaN,980.31222920257,780.31222920257,980.31222920257,419.68777079743,619.68777079743,419.68777079743,619.68777079743,780.31222920257,0,4,5,6,vertical,horizontal,vertical,horizontal
2a,8,100201,6,27,187,20,F,NA,variable,heterogeneous,4,absent,1.30778694152832,1,vertical,vertical,1,8,red,1,NaN,980.31222920257,780.31222920257,NaN,NaN,980.31222920257,780.31222920257,980.31222920257,419.68777079743,619.68777079743,419.68777079743,619.68777079743,780.31222920257,4,0,6,5,vertical,vertical,horizontal,vertical
2a,8,100201,6,28,188,20,F,NA,variable,heterogeneous,4,present,0.846173048019409,1,vertical,vertical,1,2,red,3,4,619.68777079743,419.68777079743,619.68777079743,780.31222920257,980.31222920257,780.31222920257,980.31222920257,419.68777079743,619.68777079743,419.68777079743,619.68777079743,780.31222920257,0,5,4,3,vertical,horizontal,vertical,horizontal
2a,8,100201,6,29,189,20,F,NA,variable,heterogeneous,4,present,1.64354705810547,1,horizontal,horizontal,1,5,green,1,3,980.31222920257,780.31222920257,619.68777079743,419.68777079743,980.31222920257,780.31222920257,980.31222920257,419.68777079743,619.68777079743,419.68777079743,619.68777079743,780.31222920257,4,0,6,5,horizontal,vertical,vertical,vertical
2a,8,100201,6,30,190,20,F,NA,variable,heterogeneous,4,present,0.956670045852661,1,vertical,vertical,1,5,green,4,2,619.68777079743,780.31222920257,980.31222920257,419.68777079743,980.31222920257,780.31222920257,980.31222920257,419.68777079743,619.68777079743,419.68777079743,619.68777079743,780.31222920257,5,3,6,4,horizontal,horizontal,horizontal,vertical
2a,8,100201,6,31,191,20,F,NA,variable,heterogeneous,4,absent,1.55198001861572,1,vertical,vertical,1,5,green,1,NaN,980.31222920257,780.31222920257,NaN,NaN,980.31222920257,780.31222920257,980.31222920257,419.68777079743,619.68777079743,419.68777079743,619.68777079743,780.31222920257,4,0,6,5,vertical,horizontal,horizontal,horizontal
2a,8,100201,6,32,192,20,F,NA,variable,heterogeneous,4,present,0.955299139022827,1,vertical,vertical,1,2,red,1,3,980.31222920257,780.31222920257,619.68777079743,419.68777079743,980.31222920257,780.31222920257,980.31222920257,419.68777079743,619.68777079743,419.68777079743,619.68777079743,780.31222920257,4,5,3,6,vertical,horizontal,vertical,horizontal
2a,8,100201,7,1,193,20,F,NA,variable,heterogeneous,4,present,NaN,0,vertical,none,0,3,red,2,1,980.31222920257,419.68777079743,980.31222920257,780.31222920257,980.31222920257,780.31222920257,980.31222920257,419.68777079743,619.68777079743,419.68777079743,619.68777079743,780.31222920257,6,4,0,3,vertical,vertical,vertical,horizontal
2a,8,100201,7,2,194,20,F,NA,variable,heterogeneous,4,present,NaN,0,vertical,none,0,2,red,2,4,980.31222920257,419.68777079743,619.68777079743,780.31222920257,980.31222920257,780.31222920257,980.31222920257,419.68777079743,619.68777079743,419.68777079743,619.68777079743,780.31222920257,5,4,6,3,vertical,vertical,vertical,horizontal
2a,8,100201,7,3,195,20,F,NA,variable,heterogeneous,4,present,NaN,0,horizontal,none,0,3,green,2,1,980.31222920257,419.68777079743,980.31222920257,780.31222920257,980.31222920257,780.31222920257,980.31222920257,419.68777079743,619.68777079743,419.68777079743,619.68777079743,780.31222920257,6,4,3,5,vertical,horizontal,horizontal,horizontal
2a,8,100201,7,4,196,20,F,NA,variable,heterogeneous,4,present,1.41160798072815,1,vertical,vertical,1,3,green,3,4,619.68777079743,419.68777079743,619.68777079743,780.31222920257,980.31222920257,780.31222920257,980.31222920257,419.68777079743,619.68777079743,419.68777079743,619.68777079743,780.31222920257,6,3,4,5,vertical,horizontal,vertical,vertical
2a,8,100201,7,5,197,20,F,NA,variable,heterogeneous,4,absent,1.11635899543762,1,horizontal,horizontal,1,5,red,4,NaN,619.68777079743,780.31222920257,NaN,NaN,980.31222920257,780.31222920257,980.31222920257,419.68777079743,619.68777079743,419.68777079743,619.68777079743,780.31222920257,3,5,6,4,horizontal,horizontal,horizontal,horizontal
2a,8,100201,7,6,198,20,F,NA,variable,heterogeneous,4,absent,1.09896802902222,1,horizontal,horizontal,1,5,red,3,NaN,619.68777079743,419.68777079743,NaN,NaN,980.31222920257,780.31222920257,980.31222920257,419.68777079743,619.68777079743,419.68777079743,619.68777079743,780.31222920257,6,3,4,5,vertical,horizontal,horizontal,horizontal
2a,8,100201,7,7,199,20,F,NA,variable,heterogeneous,4,absent,1.51326394081116,1,horizontal,horizontal,1,8,red,1,NaN,980.31222920257,780.31222920257,NaN,NaN,980.31222920257,780.31222920257,980.31222920257,419.68777079743,619.68777079743,419.68777079743,619.68777079743,780.31222920257,4,0,6,3,horizontal,vertical,horizontal,vertical
2a,8,100201,7,8,200,20,F,NA,variable,heterogeneous,4,absent,1.89176416397095,1,vertical,vertical,1,2,green,4,NaN,619.68777079743,780.31222920257,NaN,NaN,980.31222920257,780.31222920257,980.31222920257,419.68777079743,619.68777079743,419.68777079743,619.68777079743,780.31222920257,3,6,0,4,horizontal,horizontal,horizontal,vertical
2a,8,100201,7,9,201,20,F,NA,variable,heterogeneous,4,absent,NaN,0,vertical,none,0,5,red,3,NaN,619.68777079743,419.68777079743,NaN,NaN,980.31222920257,780.31222920257,980.31222920257,419.68777079743,619.68777079743,419.68777079743,619.68777079743,780.31222920257,0,6,4,5,vertical,vertical,vertical,vertical
2a,8,100201,7,10,202,20,F,NA,variable,heterogeneous,4,present,0.897963047027588,1,vertical,vertical,1,2,red,2,3,980.31222920257,419.68777079743,619.68777079743,419.68777079743,980.31222920257,780.31222920257,980.31222920257,419.68777079743,619.68777079743,419.68777079743,619.68777079743,780.31222920257,0,4,3,6,vertical,vertical,horizontal,vertical
2a,8,100201,7,11,203,20,F,NA,variable,heterogeneous,4,absent,1.11204791069031,1,horizontal,horizontal,1,2,green,2,NaN,980.31222920257,419.68777079743,NaN,NaN,980.31222920257,780.31222920257,980.31222920257,419.68777079743,619.68777079743,419.68777079743,619.68777079743,780.31222920257,0,4,6,5,horizontal,horizontal,vertical,vertical
2a,8,100201,7,12,204,20,F,NA,variable,heterogeneous,4,present,1.29843306541443,1,vertical,vertical,1,2,green,3,1,619.68777079743,419.68777079743,980.31222920257,780.31222920257,980.31222920257,780.31222920257,980.31222920257,419.68777079743,619.68777079743,419.68777079743,619.68777079743,780.31222920257,3,6,4,0,horizontal,vertical,vertical,horizontal
2a,8,100201,7,13,205,20,F,NA,variable,heterogeneous,4,absent,1.04871511459351,1,vertical,vertical,1,3,red,1,NaN,980.31222920257,780.31222920257,NaN,NaN,980.31222920257,780.31222920257,980.31222920257,419.68777079743,619.68777079743,419.68777079743,619.68777079743,780.31222920257,4,5,6,3,vertical,horizontal,vertical,vertical
2a,8,100201,7,14,206,20,F,NA,variable,heterogeneous,4,absent,1.46208906173706,1,vertical,vertical,1,8,red,2,NaN,980.31222920257,419.68777079743,NaN,NaN,980.31222920257,780.31222920257,980.31222920257,419.68777079743,619.68777079743,419.68777079743,619.68777079743,780.31222920257,5,4,3,0,horizontal,vertical,horizontal,vertical
2a,8,100201,7,15,207,20,F,NA,variable,heterogeneous,4,present,NaN,0,vertical,none,0,8,red,4,2,619.68777079743,780.31222920257,980.31222920257,419.68777079743,980.31222920257,780.31222920257,980.31222920257,419.68777079743,619.68777079743,419.68777079743,619.68777079743,780.31222920257,0,5,6,4,vertical,horizontal,vertical,vertical
2a,8,100201,7,16,208,20,F,NA,variable,heterogeneous,4,absent,NaN,0,vertical,none,0,2,red,4,NaN,619.68777079743,780.31222920257,NaN,NaN,980.31222920257,780.31222920257,980.31222920257,419.68777079743,619.68777079743,419.68777079743,619.68777079743,780.31222920257,3,6,5,4,horizontal,horizontal,vertical,vertical
2a,8,100201,7,17,209,20,F,NA,variable,heterogeneous,4,present,0.998090982437134,1,horizontal,horizontal,1,5,green,3,1,619.68777079743,419.68777079743,980.31222920257,780.31222920257,980.31222920257,780.31222920257,980.31222920257,419.68777079743,619.68777079743,419.68777079743,619.68777079743,780.31222920257,5,3,4,0,vertical,vertical,horizontal,vertical
2a,8,100201,7,18,210,20,F,NA,variable,heterogeneous,4,absent,0.710179090499878,1,horizontal,horizontal,1,3,green,4,NaN,619.68777079743,780.31222920257,NaN,NaN,980.31222920257,780.31222920257,980.31222920257,419.68777079743,619.68777079743,419.68777079743,619.68777079743,780.31222920257,0,3,6,4,horizontal,vertical,vertical,horizontal
2a,8,100201,7,19,211,20,F,NA,variable,heterogeneous,4,absent,1.86457395553589,1,vertical,vertical,1,5,green,1,NaN,980.31222920257,780.31222920257,NaN,NaN,980.31222920257,780.31222920257,980.31222920257,419.68777079743,619.68777079743,419.68777079743,619.68777079743,780.31222920257,4,6,5,0,vertical,horizontal,vertical,vertical
2a,8,100201,7,20,212,20,F,NA,variable,heterogeneous,4,absent,0.874046087265015,1,horizontal,horizontal,1,2,green,4,NaN,619.68777079743,780.31222920257,NaN,NaN,980.31222920257,780.31222920257,980.31222920257,419.68777079743,619.68777079743,419.68777079743,619.68777079743,780.31222920257,6,5,3,4,vertical,horizontal,horizontal,horizontal
2a,8,100201,7,21,213,20,F,NA,variable,heterogeneous,4,present,0.847770929336548,1,horizontal,horizontal,1,2,red,4,3,619.68777079743,780.31222920257,619.68777079743,419.68777079743,980.31222920257,780.31222920257,980.31222920257,419.68777079743,619.68777079743,419.68777079743,619.68777079743,780.31222920257,6,5,3,4,horizontal,vertical,horizontal,horizontal
2a,8,100201,7,22,214,20,F,NA,variable,heterogeneous,4,present,0.773168087005615,1,horizontal,horizontal,1,8,red,4,1,619.68777079743,780.31222920257,980.31222920257,780.31222920257,980.31222920257,780.31222920257,980.31222920257,419.68777079743,619.68777079743,419.68777079743,619.68777079743,780.31222920257,3,0,6,4,horizontal,horizontal,vertical,horizontal
2a,8,100201,7,23,215,20,F,NA,variable,heterogeneous,4,absent,1.5007860660553,1,vertical,vertical,1,3,green,2,NaN,980.31222920257,419.68777079743,NaN,NaN,980.31222920257,780.31222920257,980.31222920257,419.68777079743,619.68777079743,419.68777079743,619.68777079743,780.31222920257,0,4,3,6,vertical,vertical,vertical,horizontal
2a,8,100201,7,24,216,20,F,NA,variable,heterogeneous,4,present,1.21904492378235,1,horizontal,horizontal,1,3,green,1,4,980.31222920257,780.31222920257,619.68777079743,780.31222920257,980.31222920257,780.31222920257,980.31222920257,419.68777079743,619.68777079743,419.68777079743,619.68777079743,780.31222920257,4,5,3,0,horizontal,horizontal,horizontal,horizontal
2a,8,100201,7,25,217,20,F,NA,variable,heterogeneous,4,absent,0.819483041763306,1,horizontal,horizontal,1,3,red,1,NaN,980.31222920257,780.31222920257,NaN,NaN,980.31222920257,780.31222920257,980.31222920257,419.68777079743,619.68777079743,419.68777079743,619.68777079743,780.31222920257,4,6,3,0,horizontal,horizontal,vertical,horizontal
2a,8,100201,7,26,218,20,F,NA,variable,heterogeneous,4,present,1.40405297279358,1,horizontal,horizontal,1,5,green,2,1,980.31222920257,419.68777079743,980.31222920257,780.31222920257,980.31222920257,780.31222920257,980.31222920257,419.68777079743,619.68777079743,419.68777079743,619.68777079743,780.31222920257,5,4,6,0,horizontal,horizontal,horizontal,horizontal
2a,8,100201,7,27,219,20,F,NA,variable,heterogeneous,4,present,1.45636892318726,1,vertical,vertical,1,5,green,2,3,980.31222920257,419.68777079743,619.68777079743,419.68777079743,980.31222920257,780.31222920257,980.31222920257,419.68777079743,619.68777079743,419.68777079743,619.68777079743,780.31222920257,5,4,6,0,vertical,vertical,horizontal,vertical
2a,8,100201,7,28,220,20,F,NA,variable,heterogeneous,4,absent,0.965914011001587,1,horizontal,horizontal,1,2,green,2,NaN,980.31222920257,419.68777079743,NaN,NaN,980.31222920257,780.31222920257,980.31222920257,419.68777079743,619.68777079743,419.68777079743,619.68777079743,780.31222920257,0,4,5,3,horizontal,horizontal,vertical,horizontal
2a,8,100201,7,29,221,20,F,NA,variable,heterogeneous,4,present,0.965510845184326,1,horizontal,horizontal,1,2,green,4,3,619.68777079743,780.31222920257,619.68777079743,419.68777079743,980.31222920257,780.31222920257,980.31222920257,419.68777079743,619.68777079743,419.68777079743,619.68777079743,780.31222920257,3,6,0,4,horizontal,horizontal,horizontal,horizontal
2a,8,100201,7,30,222,20,F,NA,variable,heterogeneous,4,absent,1.27700090408325,1,vertical,vertical,1,2,green,1,NaN,980.31222920257,780.31222920257,NaN,NaN,980.31222920257,780.31222920257,980.31222920257,419.68777079743,619.68777079743,419.68777079743,619.68777079743,780.31222920257,4,3,5,0,vertical,horizontal,vertical,horizontal
2a,8,100201,7,31,223,20,F,NA,variable,heterogeneous,4,present,0.834725856781006,1,vertical,vertical,1,5,red,2,4,980.31222920257,419.68777079743,619.68777079743,780.31222920257,980.31222920257,780.31222920257,980.31222920257,419.68777079743,619.68777079743,419.68777079743,619.68777079743,780.31222920257,5,4,6,0,vertical,vertical,horizontal,horizontal
2a,8,100201,7,32,224,20,F,NA,variable,heterogeneous,4,present,0.891583204269409,0,horizontal,vertical,1,2,red,1,3,980.31222920257,780.31222920257,619.68777079743,419.68777079743,980.31222920257,780.31222920257,980.31222920257,419.68777079743,619.68777079743,419.68777079743,619.68777079743,780.31222920257,4,5,3,0,horizontal,horizontal,vertical,horizontal
2a,8,100201,8,1,225,20,F,NA,variable,heterogeneous,4,present,0.953001022338867,1,horizontal,horizontal,1,3,red,1,3,980.31222920257,780.31222920257,619.68777079743,419.68777079743,980.31222920257,780.31222920257,980.31222920257,419.68777079743,619.68777079743,419.68777079743,619.68777079743,780.31222920257,4,6,3,5,horizontal,vertical,vertical,horizontal
2a,8,100201,8,2,226,20,F,NA,variable,heterogeneous,4,absent,0.692278861999512,1,horizontal,horizontal,1,2,red,1,NaN,980.31222920257,780.31222920257,NaN,NaN,980.31222920257,780.31222920257,980.31222920257,419.68777079743,619.68777079743,419.68777079743,619.68777079743,780.31222920257,4,0,3,5,horizontal,vertical,horizontal,vertical
2a,8,100201,8,3,227,20,F,NA,variable,heterogeneous,4,present,0.854197978973389,1,vertical,vertical,1,2,red,1,3,980.31222920257,780.31222920257,619.68777079743,419.68777079743,980.31222920257,780.31222920257,980.31222920257,419.68777079743,619.68777079743,419.68777079743,619.68777079743,780.31222920257,4,6,5,3,vertical,horizontal,vertical,horizontal
2a,8,100201,8,4,228,20,F,NA,variable,heterogeneous,4,absent,0.907527923583984,1,horizontal,horizontal,1,3,red,2,NaN,980.31222920257,419.68777079743,NaN,NaN,980.31222920257,780.31222920257,980.31222920257,419.68777079743,619.68777079743,419.68777079743,619.68777079743,780.31222920257,3,4,0,6,horizontal,horizontal,vertical,vertical
2a,8,100201,8,5,229,20,F,NA,variable,heterogeneous,4,present,1.2618260383606,1,vertical,vertical,1,3,red,4,2,619.68777079743,780.31222920257,980.31222920257,419.68777079743,980.31222920257,780.31222920257,980.31222920257,419.68777079743,619.68777079743,419.68777079743,619.68777079743,780.31222920257,5,0,6,4,horizontal,horizontal,horizontal,vertical
2a,8,100201,8,6,230,20,F,NA,variable,heterogeneous,4,present,1.11156105995178,1,horizontal,horizontal,1,8,green,3,4,619.68777079743,419.68777079743,619.68777079743,780.31222920257,980.31222920257,780.31222920257,980.31222920257,419.68777079743,619.68777079743,419.68777079743,619.68777079743,780.31222920257,6,5,4,3,horizontal,vertical,horizontal,vertical
2a,8,100201,8,7,231,20,F,NA,variable,heterogeneous,4,present,1.24195218086243,1,vertical,vertical,1,2,red,1,3,980.31222920257,780.31222920257,619.68777079743,419.68777079743,980.31222920257,780.31222920257,980.31222920257,419.68777079743,619.68777079743,419.68777079743,619.68777079743,780.31222920257,4,6,0,3,vertical,vertical,horizontal,horizontal
2a,8,100201,8,8,232,20,F,NA,variable,heterogeneous,4,present,1.64291596412659,1,horizontal,horizontal,1,3,red,3,1,619.68777079743,419.68777079743,980.31222920257,780.31222920257,980.31222920257,780.31222920257,980.31222920257,419.68777079743,619.68777079743,419.68777079743,619.68777079743,780.31222920257,3,5,4,6,horizontal,vertical,horizontal,horizontal
2a,8,100201,8,9,233,20,F,NA,variable,heterogeneous,4,absent,1.53980803489685,1,vertical,vertical,1,3,green,3,NaN,619.68777079743,419.68777079743,NaN,NaN,980.31222920257,780.31222920257,980.31222920257,419.68777079743,619.68777079743,419.68777079743,619.68777079743,780.31222920257,0,6,4,3,horizontal,vertical,vertical,vertical
2a,8,100201,8,10,234,20,F,NA,variable,heterogeneous,4,present,1.61104798316956,1,vertical,vertical,1,2,red,3,4,619.68777079743,419.68777079743,619.68777079743,780.31222920257,980.31222920257,780.31222920257,980.31222920257,419.68777079743,619.68777079743,419.68777079743,619.68777079743,780.31222920257,3,0,4,6,vertical,horizontal,vertical,vertical
2a,8,100201,8,11,235,20,F,NA,variable,heterogeneous,4,present,1.14760494232178,1,horizontal,horizontal,1,2,red,2,4,980.31222920257,419.68777079743,619.68777079743,780.31222920257,980.31222920257,780.31222920257,980.31222920257,419.68777079743,619.68777079743,419.68777079743,619.68777079743,780.31222920257,0,4,6,5,horizontal,horizontal,horizontal,vertical
2a,8,100201,8,12,236,20,F,NA,variable,heterogeneous,4,absent,1.45077109336853,1,vertical,vertical,1,2,green,2,NaN,980.31222920257,419.68777079743,NaN,NaN,980.31222920257,780.31222920257,980.31222920257,419.68777079743,619.68777079743,419.68777079743,619.68777079743,780.31222920257,5,4,6,0,vertical,vertical,horizontal,horizontal
2a,8,100201,8,13,237,20,F,NA,variable,heterogeneous,4,present,0.975957155227661,1,horizontal,horizontal,1,5,green,4,2,619.68777079743,780.31222920257,980.31222920257,419.68777079743,980.31222920257,780.31222920257,980.31222920257,419.68777079743,619.68777079743,419.68777079743,619.68777079743,780.31222920257,5,6,3,4,vertical,vertical,horizontal,horizontal
2a,8,100201,8,14,238,20,F,NA,variable,heterogeneous,4,present,1.33181691169739,1,horizontal,horizontal,1,5,green,2,4,980.31222920257,419.68777079743,619.68777079743,780.31222920257,980.31222920257,780.31222920257,980.31222920257,419.68777079743,619.68777079743,419.68777079743,619.68777079743,780.31222920257,3,4,6,0,horizontal,horizontal,horizontal,horizontal
2a,8,100201,8,15,239,20,F,NA,variable,heterogeneous,4,present,0.822693824768066,1,horizontal,horizontal,1,2,red,2,4,980.31222920257,419.68777079743,619.68777079743,780.31222920257,980.31222920257,780.31222920257,980.31222920257,419.68777079743,619.68777079743,419.68777079743,619.68777079743,780.31222920257,5,4,6,3,horizontal,horizontal,vertical,vertical
2a,8,100201,8,16,240,20,F,NA,variable,heterogeneous,4,present,0.979537963867188,1,horizontal,horizontal,1,2,red,4,1,619.68777079743,780.31222920257,980.31222920257,780.31222920257,980.31222920257,780.31222920257,980.31222920257,419.68777079743,619.68777079743,419.68777079743,619.68777079743,780.31222920257,6,5,3,4,horizontal,horizontal,vertical,horizontal
2a,8,100201,8,17,241,20,F,NA,variable,heterogeneous,4,absent,0.86359691619873,1,vertical,vertical,1,5,red,4,NaN,619.68777079743,780.31222920257,NaN,NaN,980.31222920257,780.31222920257,980.31222920257,419.68777079743,619.68777079743,419.68777079743,619.68777079743,780.31222920257,6,0,3,4,vertical,horizontal,horizontal,vertical
2a,8,100201,8,18,242,20,F,NA,variable,heterogeneous,4,absent,0.864870071411133,1,vertical,vertical,1,2,red,2,NaN,980.31222920257,419.68777079743,NaN,NaN,980.31222920257,780.31222920257,980.31222920257,419.68777079743,619.68777079743,419.68777079743,619.68777079743,780.31222920257,6,4,3,5,horizontal,vertical,horizontal,horizontal
2a,8,100201,8,19,243,20,F,NA,variable,heterogeneous,4,absent,1.02629590034485,1,horizontal,horizontal,1,2,red,2,NaN,980.31222920257,419.68777079743,NaN,NaN,980.31222920257,780.31222920257,980.31222920257,419.68777079743,619.68777079743,419.68777079743,619.68777079743,780.31222920257,5,4,6,3,vertical,horizontal,horizontal,horizontal
2a,8,100201,8,20,244,20,F,NA,variable,heterogeneous,4,absent,0.807126045227051,1,horizontal,horizontal,1,3,red,4,NaN,619.68777079743,780.31222920257,NaN,NaN,980.31222920257,780.31222920257,980.31222920257,419.68777079743,619.68777079743,419.68777079743,619.68777079743,780.31222920257,5,3,0,4,horizontal,vertical,vertical,horizontal
2a,8,100201,8,21,245,20,F,NA,variable,heterogeneous,4,absent,0.995459794998169,1,horizontal,horizontal,1,5,green,2,NaN,980.31222920257,419.68777079743,NaN,NaN,980.31222920257,780.31222920257,980.31222920257,419.68777079743,619.68777079743,419.68777079743,619.68777079743,780.31222920257,5,4,6,0,vertical,horizontal,horizontal,horizontal
2a,8,100201,8,22,246,20,F,NA,variable,heterogeneous,4,absent,0.787479877471924,1,horizontal,horizontal,1,8,red,2,NaN,980.31222920257,419.68777079743,NaN,NaN,980.31222920257,780.31222920257,980.31222920257,419.68777079743,619.68777079743,419.68777079743,619.68777079743,780.31222920257,6,4,3,0,vertical,horizontal,horizontal,vertical
2a,8,100201,8,23,247,20,F,NA,variable,heterogeneous,4,absent,1.69970393180847,1,vertical,vertical,1,5,green,1,NaN,980.31222920257,780.31222920257,NaN,NaN,980.31222920257,780.31222920257,980.31222920257,419.68777079743,619.68777079743,419.68777079743,619.68777079743,780.31222920257,4,0,6,5,vertical,horizontal,vertical,horizontal
2a,8,100201,8,24,248,20,F,NA,variable,heterogeneous,4,absent,0.753952026367188,1,horizontal,horizontal,1,5,green,4,NaN,619.68777079743,780.31222920257,NaN,NaN,980.31222920257,780.31222920257,980.31222920257,419.68777079743,619.68777079743,419.68777079743,619.68777079743,780.31222920257,0,3,5,4,vertical,vertical,vertical,horizontal
2a,8,100201,8,25,249,20,F,NA,variable,heterogeneous,4,present,1.91740584373474,1,vertical,vertical,1,8,red,1,2,980.31222920257,780.31222920257,980.31222920257,419.68777079743,980.31222920257,780.31222920257,980.31222920257,419.68777079743,619.68777079743,419.68777079743,619.68777079743,780.31222920257,4,3,5,6,vertical,horizontal,horizontal,horizontal
2a,8,100201,8,26,250,20,F,NA,variable,heterogeneous,4,absent,0.84407901763916,1,vertical,vertical,1,3,red,4,NaN,619.68777079743,780.31222920257,NaN,NaN,980.31222920257,780.31222920257,980.31222920257,419.68777079743,619.68777079743,419.68777079743,619.68777079743,780.31222920257,3,6,5,4,horizontal,vertical,vertical,vertical
2a,8,100201,8,27,251,20,F,NA,variable,heterogeneous,4,present,1.78910613059998,1,vertical,vertical,1,5,green,4,2,619.68777079743,780.31222920257,980.31222920257,419.68777079743,980.31222920257,780.31222920257,980.31222920257,419.68777079743,619.68777079743,419.68777079743,619.68777079743,780.31222920257,0,6,5,4,vertical,horizontal,horizontal,vertical
2a,8,100201,8,28,252,20,F,NA,variable,heterogeneous,4,present,0.749205112457275,1,vertical,vertical,1,3,green,1,4,980.31222920257,780.31222920257,619.68777079743,780.31222920257,980.31222920257,780.31222920257,980.31222920257,419.68777079743,619.68777079743,419.68777079743,619.68777079743,780.31222920257,4,0,6,5,vertical,horizontal,horizontal,vertical
2a,8,100201,8,29,253,20,F,NA,variable,heterogeneous,4,present,0.692424058914185,1,vertical,vertical,1,5,green,1,2,980.31222920257,780.31222920257,980.31222920257,419.68777079743,980.31222920257,780.31222920257,980.31222920257,419.68777079743,619.68777079743,419.68777079743,619.68777079743,780.31222920257,4,5,0,6,vertical,vertical,horizontal,vertical
2a,8,100201,8,30,254,20,F,NA,variable,heterogeneous,4,absent,1.39040994644165,1,vertical,vertical,1,2,red,3,NaN,619.68777079743,419.68777079743,NaN,NaN,980.31222920257,780.31222920257,980.31222920257,419.68777079743,619.68777079743,419.68777079743,619.68777079743,780.31222920257,3,6,4,0,vertical,vertical,vertical,vertical
2a,8,100201,8,31,255,20,F,NA,variable,heterogeneous,4,absent,1.51052188873291,1,vertical,vertical,1,8,green,3,NaN,619.68777079743,419.68777079743,NaN,NaN,980.31222920257,780.31222920257,980.31222920257,419.68777079743,619.68777079743,419.68777079743,619.68777079743,780.31222920257,5,6,4,3,vertical,horizontal,vertical,horizontal
2a,8,100201,8,32,256,20,F,NA,variable,heterogeneous,4,absent,1.95291900634766,1,horizontal,horizontal,1,2,red,4,NaN,619.68777079743,780.31222920257,NaN,NaN,980.31222920257,780.31222920257,980.31222920257,419.68777079743,619.68777079743,419.68777079743,619.68777079743,780.31222920257,5,0,6,4,horizontal,vertical,vertical,horizontal
2a,8,100201,9,1,257,20,F,NA,variable,heterogeneous,4,absent,1.48720288276672,1,vertical,vertical,1,3,green,2,NaN,980.31222920257,419.68777079743,NaN,NaN,980.31222920257,780.31222920257,980.31222920257,419.68777079743,619.68777079743,419.68777079743,619.68777079743,780.31222920257,5,4,3,0,horizontal,vertical,horizontal,vertical
2a,8,100201,9,2,258,20,F,NA,variable,heterogeneous,4,absent,1.24926495552063,1,horizontal,horizontal,1,8,green,3,NaN,619.68777079743,419.68777079743,NaN,NaN,980.31222920257,780.31222920257,980.31222920257,419.68777079743,619.68777079743,419.68777079743,619.68777079743,780.31222920257,3,0,4,6,vertical,vertical,horizontal,vertical
2a,8,100201,9,3,259,20,F,NA,variable,heterogeneous,4,absent,1.86254692077637,0,horizontal,vertical,1,5,green,1,NaN,980.31222920257,780.31222920257,NaN,NaN,980.31222920257,780.31222920257,980.31222920257,419.68777079743,619.68777079743,419.68777079743,619.68777079743,780.31222920257,4,3,6,5,horizontal,horizontal,horizontal,horizontal
2a,8,100201,9,4,260,20,F,NA,variable,heterogeneous,4,present,1.53601813316345,1,horizontal,horizontal,1,3,red,4,1,619.68777079743,780.31222920257,980.31222920257,780.31222920257,980.31222920257,780.31222920257,980.31222920257,419.68777079743,619.68777079743,419.68777079743,619.68777079743,780.31222920257,6,5,3,4,vertical,horizontal,horizontal,horizontal
2a,8,100201,9,5,261,20,F,NA,variable,heterogeneous,4,present,0.779021024703979,1,horizontal,horizontal,1,5,green,1,3,980.31222920257,780.31222920257,619.68777079743,419.68777079743,980.31222920257,780.31222920257,980.31222920257,419.68777079743,619.68777079743,419.68777079743,619.68777079743,780.31222920257,4,6,3,5,horizontal,horizontal,vertical,vertical
2a,8,100201,9,6,262,20,F,NA,variable,heterogeneous,4,absent,1.22275400161743,1,vertical,vertical,1,2,green,4,NaN,619.68777079743,780.31222920257,NaN,NaN,980.31222920257,780.31222920257,980.31222920257,419.68777079743,619.68777079743,419.68777079743,619.68777079743,780.31222920257,6,0,5,4,horizontal,horizontal,horizontal,vertical
2a,8,100201,9,7,263,20,F,NA,variable,heterogeneous,4,present,NaN,0,horizontal,none,0,2,green,3,1,619.68777079743,419.68777079743,980.31222920257,780.31222920257,980.31222920257,780.31222920257,980.31222920257,419.68777079743,619.68777079743,419.68777079743,619.68777079743,780.31222920257,0,3,4,5,horizontal,horizontal,horizontal,vertical
2a,8,100201,9,8,264,20,F,NA,variable,heterogeneous,4,absent,0.95988392829895,1,horizontal,horizontal,1,2,red,1,NaN,980.31222920257,780.31222920257,NaN,NaN,980.31222920257,780.31222920257,980.31222920257,419.68777079743,619.68777079743,419.68777079743,619.68777079743,780.31222920257,4,5,3,6,horizontal,horizontal,horizontal,horizontal
2a,8,100201,9,9,265,20,F,NA,variable,heterogeneous,4,present,1.04324793815613,1,vertical,vertical,1,8,red,1,3,980.31222920257,780.31222920257,619.68777079743,419.68777079743,980.31222920257,780.31222920257,980.31222920257,419.68777079743,619.68777079743,419.68777079743,619.68777079743,780.31222920257,4,6,0,3,vertical,horizontal,horizontal,horizontal
2a,8,100201,9,10,266,20,F,NA,variable,heterogeneous,4,absent,1.10050988197327,1,vertical,vertical,1,8,red,4,NaN,619.68777079743,780.31222920257,NaN,NaN,980.31222920257,780.31222920257,980.31222920257,419.68777079743,619.68777079743,419.68777079743,619.68777079743,780.31222920257,3,5,6,4,horizontal,vertical,vertical,vertical
2a,8,100201,9,11,267,20,F,NA,variable,heterogeneous,4,present,0.898618936538696,1,vertical,vertical,1,3,green,4,1,619.68777079743,780.31222920257,980.31222920257,780.31222920257,980.31222920257,780.31222920257,980.31222920257,419.68777079743,619.68777079743,419.68777079743,619.68777079743,780.31222920257,6,5,3,4,horizontal,horizontal,vertical,vertical
2a,8,100201,9,12,268,20,F,NA,variable,heterogeneous,4,present,0.68078088760376,1,vertical,vertical,1,2,green,4,3,619.68777079743,780.31222920257,619.68777079743,419.68777079743,980.31222920257,780.31222920257,980.31222920257,419.68777079743,619.68777079743,419.68777079743,619.68777079743,780.31222920257,5,0,3,4,vertical,vertical,horizontal,vertical
2a,8,100201,9,13,269,20,F,NA,variable,heterogeneous,4,present,0.630663871765137,1,vertical,vertical,1,2,green,4,1,619.68777079743,780.31222920257,980.31222920257,780.31222920257,980.31222920257,780.31222920257,980.31222920257,419.68777079743,619.68777079743,419.68777079743,619.68777079743,780.31222920257,3,0,6,4,horizontal,horizontal,horizontal,vertical
2a,8,100201,9,14,270,20,F,NA,variable,heterogeneous,4,absent,1.56332302093506,1,horizontal,horizontal,1,3,green,2,NaN,980.31222920257,419.68777079743,NaN,NaN,980.31222920257,780.31222920257,980.31222920257,419.68777079743,619.68777079743,419.68777079743,619.68777079743,780.31222920257,0,4,3,5,horizontal,horizontal,horizontal,horizontal
2a,8,100201,9,15,271,20,F,NA,variable,heterogeneous,4,present,1.1069540977478,1,vertical,vertical,1,5,green,1,3,980.31222920257,780.31222920257,619.68777079743,419.68777079743,980.31222920257,780.31222920257,980.31222920257,419.68777079743,619.68777079743,419.68777079743,619.68777079743,780.31222920257,4,3,0,5,vertical,horizontal,horizontal,vertical
2a,8,100201,9,16,272,20,F,NA,variable,heterogeneous,4,present,1.29341220855713,1,horizontal,horizontal,1,5,green,4,3,619.68777079743,780.31222920257,619.68777079743,419.68777079743,980.31222920257,780.31222920257,980.31222920257,419.68777079743,619.68777079743,419.68777079743,619.68777079743,780.31222920257,5,3,0,4,horizontal,vertical,horizontal,horizontal
2a,8,100201,9,17,273,20,F,NA,variable,heterogeneous,4,absent,0.915593147277832,1,vertical,vertical,1,5,green,1,NaN,980.31222920257,780.31222920257,NaN,NaN,980.31222920257,780.31222920257,980.31222920257,419.68777079743,619.68777079743,419.68777079743,619.68777079743,780.31222920257,4,6,0,5,vertical,horizontal,vertical,vertical
2a,8,100201,9,18,274,20,F,NA,variable,heterogeneous,4,present,1.1980152130127,1,vertical,vertical,1,5,red,4,2,619.68777079743,780.31222920257,980.31222920257,419.68777079743,980.31222920257,780.31222920257,980.31222920257,419.68777079743,619.68777079743,419.68777079743,619.68777079743,780.31222920257,6,3,5,4,horizontal,vertical,horizontal,vertical
2a,8,100201,9,19,275,20,F,NA,variable,heterogeneous,4,absent,1.27014493942261,1,vertical,vertical,1,2,green,3,NaN,619.68777079743,419.68777079743,NaN,NaN,980.31222920257,780.31222920257,980.31222920257,419.68777079743,619.68777079743,419.68777079743,619.68777079743,780.31222920257,6,3,4,0,horizontal,vertical,vertical,horizontal
2a,8,100201,9,20,276,20,F,NA,variable,heterogeneous,4,absent,1.32387900352478,1,vertical,vertical,1,2,green,1,NaN,980.31222920257,780.31222920257,NaN,NaN,980.31222920257,780.31222920257,980.31222920257,419.68777079743,619.68777079743,419.68777079743,619.68777079743,780.31222920257,4,5,6,0,vertical,vertical,horizontal,vertical
2a,8,100201,9,21,277,20,F,NA,variable,heterogeneous,4,present,1.60245013237,1,horizontal,horizontal,1,2,red,1,4,980.31222920257,780.31222920257,619.68777079743,780.31222920257,980.31222920257,780.31222920257,980.31222920257,419.68777079743,619.68777079743,419.68777079743,619.68777079743,780.31222920257,4,3,0,5,horizontal,horizontal,vertical,horizontal
2a,8,100201,9,22,278,20,F,NA,variable,heterogeneous,4,present,0.726817846298218,1,horizontal,horizontal,1,2,red,1,3,980.31222920257,780.31222920257,619.68777079743,419.68777079743,980.31222920257,780.31222920257,980.31222920257,419.68777079743,619.68777079743,419.68777079743,619.68777079743,780.31222920257,4,6,5,0,horizontal,horizontal,horizontal,horizontal
2a,8,100201,9,23,279,20,F,NA,variable,heterogeneous,4,present,1.25335192680359,1,vertical,vertical,1,2,red,2,3,980.31222920257,419.68777079743,619.68777079743,419.68777079743,980.31222920257,780.31222920257,980.31222920257,419.68777079743,619.68777079743,419.68777079743,619.68777079743,780.31222920257,6,4,3,5,vertical,vertical,horizontal,vertical
2a,8,100201,9,24,280,20,F,NA,variable,heterogeneous,4,present,0.978873014450073,1,horizontal,horizontal,1,8,green,1,4,980.31222920257,780.31222920257,619.68777079743,780.31222920257,980.31222920257,780.31222920257,980.31222920257,419.68777079743,619.68777079743,419.68777079743,619.68777079743,780.31222920257,4,6,0,5,horizontal,vertical,vertical,vertical
2a,8,100201,9,25,281,20,F,NA,variable,heterogeneous,4,absent,NaN,0,horizontal,none,0,5,red,2,NaN,980.31222920257,419.68777079743,NaN,NaN,980.31222920257,780.31222920257,980.31222920257,419.68777079743,619.68777079743,419.68777079743,619.68777079743,780.31222920257,3,4,0,6,horizontal,horizontal,vertical,vertical
2a,8,100201,9,26,282,20,F,NA,variable,heterogeneous,4,absent,1.3629310131073,1,vertical,vertical,1,3,green,1,NaN,980.31222920257,780.31222920257,NaN,NaN,980.31222920257,780.31222920257,980.31222920257,419.68777079743,619.68777079743,419.68777079743,619.68777079743,780.31222920257,4,6,3,5,vertical,horizontal,horizontal,horizontal
2a,8,100201,9,27,283,20,F,NA,variable,heterogeneous,4,absent,1.12653803825378,1,horizontal,horizontal,1,3,red,2,NaN,980.31222920257,419.68777079743,NaN,NaN,980.31222920257,780.31222920257,980.31222920257,419.68777079743,619.68777079743,419.68777079743,619.68777079743,780.31222920257,3,4,0,5,vertical,horizontal,vertical,vertical
2a,8,100201,9,28,284,20,F,NA,variable,heterogeneous,4,absent,0.685025215148926,1,horizontal,horizontal,1,2,red,2,NaN,980.31222920257,419.68777079743,NaN,NaN,980.31222920257,780.31222920257,980.31222920257,419.68777079743,619.68777079743,419.68777079743,619.68777079743,780.31222920257,6,4,3,0,vertical,horizontal,horizontal,horizontal
2a,8,100201,9,29,285,20,F,NA,variable,heterogeneous,4,absent,0.622899055480957,1,horizontal,horizontal,1,2,red,2,NaN,980.31222920257,419.68777079743,NaN,NaN,980.31222920257,780.31222920257,980.31222920257,419.68777079743,619.68777079743,419.68777079743,619.68777079743,780.31222920257,6,4,5,0,vertical,horizontal,horizontal,horizontal
2a,8,100201,9,30,286,20,F,NA,variable,heterogeneous,4,absent,1.33975505828857,1,vertical,vertical,1,5,red,4,NaN,619.68777079743,780.31222920257,NaN,NaN,980.31222920257,780.31222920257,980.31222920257,419.68777079743,619.68777079743,419.68777079743,619.68777079743,780.31222920257,5,0,6,4,vertical,horizontal,vertical,vertical
2a,8,100201,9,31,287,20,F,NA,variable,heterogeneous,4,present,0.84312105178833,1,horizontal,horizontal,1,3,red,1,4,980.31222920257,780.31222920257,619.68777079743,780.31222920257,980.31222920257,780.31222920257,980.31222920257,419.68777079743,619.68777079743,419.68777079743,619.68777079743,780.31222920257,4,3,6,5,horizontal,vertical,horizontal,vertical
2a,8,100201,9,32,288,20,F,NA,variable,heterogeneous,4,present,1.4919068813324,1,vertical,vertical,1,3,green,3,2,619.68777079743,419.68777079743,980.31222920257,419.68777079743,980.31222920257,780.31222920257,980.31222920257,419.68777079743,619.68777079743,419.68777079743,619.68777079743,780.31222920257,0,5,4,6,horizontal,horizontal,vertical,vertical
2a,8,100201,10,1,289,20,F,NA,variable,heterogeneous,4,absent,1.17525696754456,1,horizontal,horizontal,1,2,green,2,NaN,980.31222920257,419.68777079743,NaN,NaN,980.31222920257,780.31222920257,980.31222920257,419.68777079743,619.68777079743,419.68777079743,619.68777079743,780.31222920257,3,4,6,0,vertical,horizontal,vertical,vertical
2a,8,100201,10,2,290,20,F,NA,variable,heterogeneous,4,absent,1.26728916168213,1,vertical,vertical,1,2,red,1,NaN,980.31222920257,780.31222920257,NaN,NaN,980.31222920257,780.31222920257,980.31222920257,419.68777079743,619.68777079743,419.68777079743,619.68777079743,780.31222920257,4,0,5,3,vertical,horizontal,vertical,vertical
2a,8,100201,10,3,291,20,F,NA,variable,heterogeneous,4,absent,0.956526041030884,1,vertical,vertical,1,3,red,1,NaN,980.31222920257,780.31222920257,NaN,NaN,980.31222920257,780.31222920257,980.31222920257,419.68777079743,619.68777079743,419.68777079743,619.68777079743,780.31222920257,4,3,0,5,vertical,horizontal,vertical,vertical
