experiment,subject,uniqueID,block,trial,trial_cumulative,age,gender,color_cond_blocking,color_history,shape_type,set_size,distractor,rt,acc,target_orient,response_key,response_made,iti,target_color,target_item,distractor_item,target_X,target_Y,distractor_X,distractor_Y,item1_X,item1_Y,item2_X,item2_Y,item3_X,item3_Y,item4_X,item4_Y,item1_shape,item2_shape,item3_shape,item4_shape,item1_line,item2_line,item3_line,item4_line
3a,22,100347,1,1,1,21,M,interleaved,constant,homogeneous,4,absent,0.825354099273682,1,vertical,vertical,1,2,green,2,NaN,980.31222920257,419.68777079743,NaN,NaN,980.31222920257,780.31222920257,980.31222920257,419.68777079743,619.68777079743,419.68777079743,619.68777079743,780.31222920257,0,4,0,0,horizontal,vertical,vertical,horizontal
3a,22,100347,1,2,2,21,M,interleaved,constant,homogeneous,4,present,0.925444841384888,1,vertical,vertical,1,2,green,3,2,619.68777079743,419.68777079743,980.31222920257,419.68777079743,980.31222920257,780.31222920257,980.31222920257,419.68777079743,619.68777079743,419.68777079743,619.68777079743,780.31222920257,0,0,4,0,vertical,horizontal,vertical,vertical
3a,22,100347,1,3,3,21,M,interleaved,constant,homogeneous,4,present,0.865551948547363,1,vertical,vertical,1,8,green,4,1,619.68777079743,780.31222920257,980.31222920257,780.31222920257,980.31222920257,780.31222920257,980.31222920257,419.68777079743,619.68777079743,419.68777079743,619.68777079743,780.31222920257,0,0,0,4,vertical,horizontal,vertical,vertical
3a,22,100347,1,4,4,21,M,interleaved,constant,homogeneous,4,absent,0.677992820739746,1,vertical,vertical,1,2,green,3,NaN,619.68777079743,419.68777079743,NaN,NaN,980.31222920257,780.31222920257,980.31222920257,419.68777079743,619.68777079743,419.68777079743,619.68777079743,780.31222920257,0,0,4,0,horizontal,vertical,vertical,vertical
3a,22,100347,1,5,5,21,M,interleaved,constant,homogeneous,4,absent,0.73866605758667,1,horizontal,horizontal,1,5,green,3,NaN,619.68777079743,419.68777079743,NaN,NaN,980.31222920257,780.31222920257,980.31222920257,419.68777079743,619.68777079743,419.68777079743,619.68777079743,780.31222920257,0,0,4,0,vertical,horizontal,horizontal,horizontal
3a,22,100347,1,6,6,21,M,interleaved,constant,homogeneous,4,present,0.886551856994629,1,vertical,vertical,1,2,green,2,3,980.31222920257,419.68777079743,619.68777079743,419.68777079743,980.31222920257,780.31222920257,980.31222920257,419.68777079743,619.68777079743,419.68777079743,619.68777079743,780.31222920257,0,4,0,0,horizontal,vertical,horizontal,vertical
3a,22,100347,1,7,7,21,M,interleaved,constant,homogeneous,4,present,1.09088683128357,1,vertical,vertical,1,5,green,2,3,980.31222920257,419.68777079743,619.68777079743,419.68777079743,980.31222920257,780.31222920257,980.31222920257,419.68777079743,619.68777079743,419.68777079743,619.68777079743,780.31222920257,0,4,0,0,horizontal,vertical,vertical,vertical
3a,22,100347,1,8,8,21,M,interleaved,constant,homogeneous,4,present,0.727281093597412,1,vertical,vertical,1,2,green,4,3,619.68777079743,780.31222920257,619.68777079743,419.68777079743,980.31222920257,780.31222920257,980.31222920257,419.68777079743,619.68777079743,419.68777079743,619.68777079743,780.31222920257,0,0,0,4,vertical,vertical,horizontal,vertical
3a,22,100347,1,9,9,21,M,interleaved,constant,homogeneous,4,present,0.779604911804199,1,vertical,vertical,1,2,green,3,1,619.68777079743,419.68777079743,980.31222920257,780.31222920257,980.31222920257,780.31222920257,980.31222920257,419.68777079743,619.68777079743,419.68777079743,619.68777079743,780.31222920257,0,0,4,0,horizontal,vertical,vertical,horizontal
3a,22,100347,1,10,10,21,M,interleaved,constant,homogeneous,4,absent,0.671720027923584,1,horizontal,horizontal,1,2,green,4,NaN,619.68777079743,780.31222920257,NaN,NaN,980.31222920257,780.31222920257,980.31222920257,419.68777079743,619.68777079743,419.68777079743,619.68777079743,780.31222920257,0,0,0,4,horizontal,vertical,vertical,horizontal
3a,22,100347,1,11,11,21,M,interleaved,constant,homogeneous,4,present,0.8920578956604,1,vertical,vertical,1,3,green,2,4,980.31222920257,419.68777079743,619.68777079743,780.31222920257,980.31222920257,780.31222920257,980.31222920257,419.68777079743,619.68777079743,419.68777079743,619.68777079743,780.31222920257,0,4,0,0,horizontal,vertical,horizontal,horizontal
3a,22,100347,1,12,12,21,M,interleaved,constant,homogeneous,4,absent,0.728801012039185,1,horizontal,horizontal,1,3,green,2,NaN,980.31222920257,419.68777079743,NaN,NaN,980.31222920257,780.31222920257,980.31222920257,419.68777079743,619.68777079743,419.68777079743,619.68777079743,780.31222920257,0,4,0,0,vertical,horizontal,vertical,vertical
3a,22,100347,1,13,13,21,M,interleaved,constant,homogeneous,4,present,0.844771146774292,1,horizontal,horizontal,1,2,green,1,4,980.31222920257,780.31222920257,619.68777079743,780.31222920257,980.31222920257,780.31222920257,980.31222920257,419.68777079743,619.68777079743,419.68777079743,619.68777079743,780.31222920257,4,0,0,0,horizontal,vertical,vertical,vertical
3a,22,100347,1,14,14,21,M,interleaved,constant,homogeneous,4,absent,0.577070951461792,1,vertical,vertical,1,2,green,2,NaN,980.31222920257,419.68777079743,NaN,NaN,980.31222920257,780.31222920257,980.31222920257,419.68777079743,619.68777079743,419.68777079743,619.68777079743,780.31222920257,0,4,0,0,vertical,vertical,vertical,horizontal
3a,22,100347,1,15,15,21,M,interleaved,constant,homogeneous,4,present,0.669528007507324,1,vertical,vertical,1,5,green,4,2,619.68777079743,780.31222920257,980.31222920257,419.68777079743,980.31222920257,780.31222920257,980.31222920257,419.68777079743,619.68777079743,419.68777079743,619.68777079743,780.31222920257,0,0,0,4,vertical,horizontal,vertical,vertical
3a,22,100347,1,16,16,21,M,interleaved,constant,homogeneous,4,present,0.785876035690308,1,horizontal,horizontal,1,8,green,1,2,980.31222920257,780.31222920257,980.31222920257,419.68777079743,980.31222920257,780.31222920257,980.31222920257,419.68777079743,619.68777079743,419.68777079743,619.68777079743,780.31222920257,4,0,0,0,horizontal,vertical,horizontal,horizontal
3a,22,100347,1,17,17,21,M,interleaved,constant,homogeneous,4,present,0.694334983825684,1,horizontal,horizontal,1,2,green,3,2,619.68777079743,419.68777079743,980.31222920257,419.68777079743,980.31222920257,780.31222920257,980.31222920257,419.68777079743,619.68777079743,419.68777079743,619.68777079743,780.31222920257,0,0,4,0,horizontal,horizontal,horizontal,horizontal
3a,22,100347,1,18,18,21,M,interleaved,constant,homogeneous,4,present,0.714544057846069,1,vertical,vertical,1,8,green,3,4,619.68777079743,419.68777079743,619.68777079743,780.31222920257,980.31222920257,780.31222920257,980.31222920257,419.68777079743,619.68777079743,419.68777079743,619.68777079743,780.31222920257,0,0,4,0,horizontal,vertical,vertical,horizontal
3a,22,100347,1,19,19,21,M,interleaved,constant,homogeneous,4,absent,0.742671012878418,1,horizontal,horizontal,1,3,green,2,NaN,980.31222920257,419.68777079743,NaN,NaN,980.31222920257,780.31222920257,980.31222920257,419.68777079743,619.68777079743,419.68777079743,619.68777079743,780.31222920257,0,4,0,0,vertical,horizontal,horizontal,horizontal
3a,22,100347,1,20,20,21,M,interleaved,constant,homogeneous,4,present,0.619277000427246,1,horizontal,horizontal,1,2,green,3,2,619.68777079743,419.68777079743,980.31222920257,419.68777079743,980.31222920257,780.31222920257,980.31222920257,419.68777079743,619.68777079743,419.68777079743,619.68777079743,780.31222920257,0,0,4,0,vertical,horizontal,horizontal,horizontal
3a,22,100347,1,21,21,21,M,interleaved,constant,homogeneous,4,present,0.791353940963745,1,vertical,vertical,1,3,green,3,4,619.68777079743,419.68777079743,619.68777079743,780.31222920257,980.31222920257,780.31222920257,980.31222920257,419.68777079743,619.68777079743,419.68777079743,619.68777079743,780.31222920257,0,0,4,0,vertical,horizontal,vertical,horizontal
3a,22,100347,1,22,22,21,M,interleaved,constant,homogeneous,4,present,0.699936151504517,0,vertical,horizontal,1,2,green,4,2,619.68777079743,780.31222920257,980.31222920257,419.68777079743,980.31222920257,780.31222920257,980.31222920257,419.68777079743,619.68777079743,419.68777079743,619.68777079743,780.31222920257,0,0,0,4,vertical,horizontal,horizontal,vertical
3a,22,100347,1,23,23,21,M,interleaved,constant,homogeneous,4,present,0.920507907867432,1,horizontal,horizontal,1,5,green,4,3,619.68777079743,780.31222920257,619.68777079743,419.68777079743,980.31222920257,780.31222920257,980.31222920257,419.68777079743,619.68777079743,419.68777079743,619.68777079743,780.31222920257,0,0,0,4,vertical,vertical,vertical,horizontal
3a,22,100347,1,24,24,21,M,interleaved,constant,homogeneous,4,absent,0.812567949295044,1,vertical,vertical,1,8,green,1,NaN,980.31222920257,780.31222920257,NaN,NaN,980.31222920257,780.31222920257,980.31222920257,419.68777079743,619.68777079743,419.68777079743,619.68777079743,780.31222920257,4,0,0,0,vertical,horizontal,horizontal,vertical
3a,22,100347,1,25,25,21,M,interleaved,constant,homogeneous,4,present,0.792984962463379,1,horizontal,horizontal,1,3,green,1,4,980.31222920257,780.31222920257,619.68777079743,780.31222920257,980.31222920257,780.31222920257,980.31222920257,419.68777079743,619.68777079743,419.68777079743,619.68777079743,780.31222920257,4,0,0,0,horizontal,vertical,vertical,horizontal
3a,22,100347,1,26,26,21,M,interleaved,constant,homogeneous,4,present,0.765356063842773,1,vertical,vertical,1,2,green,4,2,619.68777079743,780.31222920257,980.31222920257,419.68777079743,980.31222920257,780.31222920257,980.31222920257,419.68777079743,619.68777079743,419.68777079743,619.68777079743,780.31222920257,0,0,0,4,horizontal,horizontal,vertical,vertical
3a,22,100347,1,27,27,21,M,interleaved,constant,homogeneous,4,present,0.79358696937561,1,vertical,vertical,1,3,green,2,4,980.31222920257,419.68777079743,619.68777079743,780.31222920257,980.31222920257,780.31222920257,980.31222920257,419.68777079743,619.68777079743,419.68777079743,619.68777079743,780.31222920257,0,4,0,0,horizontal,vertical,vertical,horizontal
3a,22,100347,1,28,28,21,M,interleaved,constant,homogeneous,4,present,0.773983001708984,1,horizontal,horizontal,1,5,green,4,1,619.68777079743,780.31222920257,980.31222920257,780.31222920257,980.31222920257,780.31222920257,980.31222920257,419.68777079743,619.68777079743,419.68777079743,619.68777079743,780.31222920257,0,0,0,4,vertical,horizontal,horizontal,horizontal
3a,22,100347,1,29,29,21,M,interleaved,constant,homogeneous,4,present,1.21811103820801,1,vertical,vertical,1,5,green,4,3,619.68777079743,780.31222920257,619.68777079743,419.68777079743,980.31222920257,780.31222920257,980.31222920257,419.68777079743,619.68777079743,419.68777079743,619.68777079743,780.31222920257,0,0,0,4,vertical,vertical,vertical,vertical
3a,22,100347,1,30,30,21,M,interleaved,constant,homogeneous,4,absent,0.766463994979858,1,vertical,vertical,1,5,green,3,NaN,619.68777079743,419.68777079743,NaN,NaN,980.31222920257,780.31222920257,980.31222920257,419.68777079743,619.68777079743,419.68777079743,619.68777079743,780.31222920257,0,0,4,0,vertical,horizontal,vertical,horizontal
3a,22,100347,1,31,31,21,M,interleaved,constant,homogeneous,4,absent,0.827075958251953,1,horizontal,horizontal,1,5,green,1,NaN,980.31222920257,780.31222920257,NaN,NaN,980.31222920257,780.31222920257,980.31222920257,419.68777079743,619.68777079743,419.68777079743,619.68777079743,780.31222920257,4,0,0,0,horizontal,horizontal,vertical,horizontal
3a,22,100347,1,32,32,21,M,interleaved,constant,homogeneous,4,present,0.679322957992554,1,vertical,vertical,1,5,green,4,3,619.68777079743,780.31222920257,619.68777079743,419.68777079743,980.31222920257,780.31222920257,980.31222920257,419.68777079743,619.68777079743,419.68777079743,619.68777079743,780.31222920257,0,0,0,4,vertical,vertical,horizontal,vertical
3a,22,100347,1,33,33,21,M,interleaved,constant,homogeneous,4,present,0.675552129745483,1,horizontal,horizontal,1,3,green,4,3,619.68777079743,780.31222920257,619.68777079743,419.68777079743,980.31222920257,780.31222920257,980.31222920257,419.68777079743,619.68777079743,419.68777079743,619.68777079743,780.31222920257,0,0,0,4,horizontal,horizontal,horizontal,horizontal
3a,22,100347,1,34,34,21,M,interleaved,constant,homogeneous,4,present,0.735675096511841,1,horizontal,horizontal,1,3,green,2,1,980.31222920257,419.68777079743,980.31222920257,780.31222920257,980.31222920257,780.31222920257,980.31222920257,419.68777079743,619.68777079743,419.68777079743,619.68777079743,780.31222920257,0,4,0,0,vertical,horizontal,horizontal,vertical
3a,22,100347,1,35,35,21,M,interleaved,constant,homogeneous,4,present,1.14815998077393,1,vertical,vertical,1,3,green,2,1,980.31222920257,419.68777079743,980.31222920257,780.31222920257,980.31222920257,780.31222920257,980.31222920257,419.68777079743,619.68777079743,419.68777079743,619.68777079743,780.31222920257,0,4,0,0,horizontal,vertical,horizontal,vertical
3a,22,100347,1,36,36,21,M,interleaved,constant,homogeneous,4,absent,0.672469139099121,1,horizontal,horizontal,1,8,green,2,NaN,980.31222920257,419.68777079743,NaN,NaN,980.31222920257,780.31222920257,980.31222920257,419.68777079743,619.68777079743,419.68777079743,619.68777079743,780.31222920257,0,4,0,0,vertical,horizontal,horizontal,horizontal
3a,22,100347,1,37,37,21,M,interleaved,constant,homogeneous,4,present,0.700891971588135,1,horizontal,horizontal,1,5,green,4,3,619.68777079743,780.31222920257,619.68777079743,419.68777079743,980.31222920257,780.31222920257,980.31222920257,419.68777079743,619.68777079743,419.68777079743,619.68777079743,780.31222920257,0,0,0,4,vertical,horizontal,horizontal,horizontal
3a,22,100347,1,38,38,21,M,interleaved,constant,homogeneous,4,absent,0.85737681388855,1,vertical,vertical,1,5,green,3,NaN,619.68777079743,419.68777079743,NaN,NaN,980.31222920257,780.31222920257,980.31222920257,419.68777079743,619.68777079743,419.68777079743,619.68777079743,780.31222920257,0,0,4,0,horizontal,horizontal,vertical,horizontal
3a,22,100347,1,39,39,21,M,interleaved,constant,homogeneous,4,present,0.677563190460205,1,horizontal,horizontal,1,3,green,2,4,980.31222920257,419.68777079743,619.68777079743,780.31222920257,980.31222920257,780.31222920257,980.31222920257,419.68777079743,619.68777079743,419.68777079743,619.68777079743,780.31222920257,0,4,0,0,vertical,horizontal,vertical,horizontal
3a,22,100347,1,40,40,21,M,interleaved,constant,homogeneous,4,present,0.865985155105591,1,horizontal,horizontal,1,5,green,3,4,619.68777079743,419.68777079743,619.68777079743,780.31222920257,980.31222920257,780.31222920257,980.31222920257,419.68777079743,619.68777079743,419.68777079743,619.68777079743,780.31222920257,0,0,4,0,horizontal,vertical,horizontal,vertical
3a,22,100347,1,41,41,21,M,interleaved,constant,homogeneous,4,present,1.1260290145874,1,horizontal,horizontal,1,2,green,1,3,980.31222920257,780.31222920257,619.68777079743,419.68777079743,980.31222920257,780.31222920257,980.31222920257,419.68777079743,619.68777079743,419.68777079743,619.68777079743,780.31222920257,4,0,0,0,horizontal,vertical,vertical,horizontal
3a,22,100347,1,42,42,21,M,interleaved,constant,homogeneous,4,present,0.730417013168335,1,horizontal,horizontal,1,2,green,3,2,619.68777079743,419.68777079743,980.31222920257,419.68777079743,980.31222920257,780.31222920257,980.31222920257,419.68777079743,619.68777079743,419.68777079743,619.68777079743,780.31222920257,0,0,4,0,vertical,horizontal,horizontal,horizontal
3a,22,100347,1,43,43,21,M,interleaved,constant,homogeneous,4,present,0.78289008140564,1,horizontal,horizontal,1,2,green,4,1,619.68777079743,780.31222920257,980.31222920257,780.31222920257,980.31222920257,780.31222920257,980.31222920257,419.68777079743,619.68777079743,419.68777079743,619.68777079743,780.31222920257,0,0,0,4,vertical,vertical,horizontal,horizontal
3a,22,100347,1,44,44,21,M,interleaved,constant,homogeneous,4,present,1.10739994049072,1,horizontal,horizontal,1,8,green,2,3,980.31222920257,419.68777079743,619.68777079743,419.68777079743,980.31222920257,780.31222920257,980.31222920257,419.68777079743,619.68777079743,419.68777079743,619.68777079743,780.31222920257,0,4,0,0,vertical,horizontal,horizontal,vertical
3a,22,100347,1,45,45,21,M,interleaved,constant,homogeneous,4,absent,0.791453838348389,1,horizontal,horizontal,1,2,green,2,NaN,980.31222920257,419.68777079743,NaN,NaN,980.31222920257,780.31222920257,980.31222920257,419.68777079743,619.68777079743,419.68777079743,619.68777079743,780.31222920257,0,4,0,0,horizontal,horizontal,vertical,vertical
3a,22,100347,1,46,46,21,M,interleaved,constant,homogeneous,4,absent,1.2678849697113,1,vertical,vertical,1,3,green,2,NaN,980.31222920257,419.68777079743,NaN,NaN,980.31222920257,780.31222920257,980.31222920257,419.68777079743,619.68777079743,419.68777079743,619.68777079743,780.31222920257,0,4,0,0,horizontal,vertical,horizontal,horizontal
3a,22,100347,1,47,47,21,M,interleaved,constant,homogeneous,4,absent,0.816421985626221,1,vertical,vertical,1,3,green,4,NaN,619.68777079743,780.31222920257,NaN,NaN,980.31222920257,780.31222920257,980.31222920257,419.68777079743,619.68777079743,419.68777079743,619.68777079743,780.31222920257,0,0,0,4,vertical,horizontal,horizontal,vertical
3a,22,100347,1,48,48,21,M,interleaved,constant,homogeneous,4,absent,0.628472805023193,1,horizontal,horizontal,1,2,green,4,NaN,619.68777079743,780.31222920257,NaN,NaN,980.31222920257,780.31222920257,980.31222920257,419.68777079743,619.68777079743,419.68777079743,619.68777079743,780.31222920257,0,0,0,4,horizontal,horizontal,vertical,horizontal
3a,22,100347,2,1,49,21,M,interleaved,variable,homogeneous,4,present,1.56380105018616,1,vertical,vertical,1,3,red,2,1,980.31222920257,419.68777079743,980.31222920257,780.31222920257,980.31222920257,780.31222920257,980.31222920257,419.68777079743,619.68777079743,419.68777079743,619.68777079743,780.31222920257,0,4,0,0,horizontal,vertical,vertical,vertical
3a,22,100347,2,2,50,21,M,interleaved,variable,homogeneous,4,present,1.11215305328369,1,horizontal,horizontal,1,5,green,4,3,619.68777079743,780.31222920257,619.68777079743,419.68777079743,980.31222920257,780.31222920257,980.31222920257,419.68777079743,619.68777079743,419.68777079743,619.68777079743,780.31222920257,0,0,0,4,horizontal,horizontal,horizontal,horizontal
3a,22,100347,2,3,51,21,M,interleaved,variable,homogeneous,4,present,1.18855810165405,1,horizontal,horizontal,1,5,green,1,3,980.31222920257,780.31222920257,619.68777079743,419.68777079743,980.31222920257,780.31222920257,980.31222920257,419.68777079743,619.68777079743,419.68777079743,619.68777079743,780.31222920257,4,0,0,0,horizontal,vertical,horizontal,vertical
3a,22,100347,2,4,52,21,M,interleaved,variable,homogeneous,4,present,0.656816959381104,1,vertical,vertical,1,5,green,1,3,980.31222920257,780.31222920257,619.68777079743,419.68777079743,980.31222920257,780.31222920257,980.31222920257,419.68777079743,619.68777079743,419.68777079743,619.68777079743,780.31222920257,4,0,0,0,vertical,horizontal,horizontal,vertical
3a,22,100347,2,5,53,21,M,interleaved,variable,homogeneous,4,present,0.636931896209717,1,vertical,vertical,1,3,green,3,1,619.68777079743,419.68777079743,980.31222920257,780.31222920257,980.31222920257,780.31222920257,980.31222920257,419.68777079743,619.68777079743,419.68777079743,619.68777079743,780.31222920257,0,0,4,0,vertical,horizontal,vertical,vertical
3a,22,100347,2,6,54,21,M,interleaved,variable,homogeneous,4,present,0.865290880203247,1,horizontal,horizontal,1,2,green,4,2,619.68777079743,780.31222920257,980.31222920257,419.68777079743,980.31222920257,780.31222920257,980.31222920257,419.68777079743,619.68777079743,419.68777079743,619.68777079743,780.31222920257,0,0,0,4,vertical,vertical,horizontal,horizontal
3a,22,100347,2,7,55,21,M,interleaved,variable,homogeneous,4,present,1.34983205795288,0,horizontal,vertical,1,2,red,4,2,619.68777079743,780.31222920257,980.31222920257,419.68777079743,980.31222920257,780.31222920257,980.31222920257,419.68777079743,619.68777079743,419.68777079743,619.68777079743,780.31222920257,0,0,0,4,vertical,vertical,horizontal,horizontal
3a,22,100347,2,8,56,21,M,interleaved,variable,homogeneous,4,present,0.930012941360474,1,vertical,vertical,1,3,green,2,1,980.31222920257,419.68777079743,980.31222920257,780.31222920257,980.31222920257,780.31222920257,980.31222920257,419.68777079743,619.68777079743,419.68777079743,619.68777079743,780.31222920257,0,4,0,0,horizontal,vertical,horizontal,horizontal
3a,22,100347,2,9,57,21,M,interleaved,variable,homogeneous,4,absent,1.28646802902222,1,vertical,vertical,1,8,red,3,NaN,619.68777079743,419.68777079743,NaN,NaN,980.31222920257,780.31222920257,980.31222920257,419.68777079743,619.68777079743,419.68777079743,619.68777079743,780.31222920257,0,0,4,0,horizontal,vertical,vertical,vertical
3a,22,100347,2,10,58,21,M,interleaved,variable,homogeneous,4,present,0.898829936981201,1,horizontal,horizontal,1,3,red,1,3,980.31222920257,780.31222920257,619.68777079743,419.68777079743,980.31222920257,780.31222920257,980.31222920257,419.68777079743,619.68777079743,419.68777079743,619.68777079743,780.31222920257,4,0,0,0,horizontal,horizontal,vertical,vertical
3a,22,100347,2,11,59,21,M,interleaved,variable,homogeneous,4,absent,0.943090915679932,1,horizontal,horizontal,1,5,red,1,NaN,980.31222920257,780.31222920257,NaN,NaN,980.31222920257,780.31222920257,980.31222920257,419.68777079743,619.68777079743,419.68777079743,619.68777079743,780.31222920257,4,0,0,0,horizontal,vertical,vertical,horizontal
3a,22,100347,2,12,60,21,M,interleaved,variable,homogeneous,4,present,0.70747709274292,1,vertical,vertical,1,2,green,3,2,619.68777079743,419.68777079743,980.31222920257,419.68777079743,980.31222920257,780.31222920257,980.31222920257,419.68777079743,619.68777079743,419.68777079743,619.68777079743,780.31222920257,0,0,4,0,vertical,horizontal,vertical,vertical
3a,22,100347,2,13,61,21,M,interleaved,variable,homogeneous,4,present,1.3276059627533,1,vertical,vertical,1,5,red,1,4,980.31222920257,780.31222920257,619.68777079743,780.31222920257,980.31222920257,780.31222920257,980.31222920257,419.68777079743,619.68777079743,419.68777079743,619.68777079743,780.31222920257,4,0,0,0,vertical,vertical,vertical,horizontal
3a,22,100347,2,14,62,21,M,interleaved,variable,homogeneous,4,absent,1.26005792617798,1,vertical,vertical,1,5,green,2,NaN,980.31222920257,419.68777079743,NaN,NaN,980.31222920257,780.31222920257,980.31222920257,419.68777079743,619.68777079743,419.68777079743,619.68777079743,780.31222920257,0,4,0,0,horizontal,vertical,vertical,vertical
3a,22,100347,2,15,63,21,M,interleaved,variable,homogeneous,4,absent,0.640257835388184,1,vertical,vertical,1,2,red,2,NaN,980.31222920257,419.68777079743,NaN,NaN,980.31222920257,780.31222920257,980.31222920257,419.68777079743,619.68777079743,419.68777079743,619.68777079743,780.31222920257,0,4,0,0,horizontal,vertical,horizontal,vertical
3a,22,100347,2,16,64,21,M,interleaved,variable,homogeneous,4,absent,0.892874956130981,1,vertical,vertical,1,3,red,4,NaN,619.68777079743,780.31222920257,NaN,NaN,980.31222920257,780.31222920257,980.31222920257,419.68777079743,619.68777079743,419.68777079743,619.68777079743,780.31222920257,0,0,0,4,vertical,horizontal,vertical,vertical
3a,22,100347,2,17,65,21,M,interleaved,variable,homogeneous,4,absent,0.929033041000366,1,horizontal,horizontal,1,2,red,3,NaN,619.68777079743,419.68777079743,NaN,NaN,980.31222920257,780.31222920257,980.31222920257,419.68777079743,619.68777079743,419.68777079743,619.68777079743,780.31222920257,0,0,4,0,vertical,vertical,horizontal,vertical
3a,22,100347,2,18,66,21,M,interleaved,variable,homogeneous,4,absent,0.693440198898315,1,vertical,vertical,1,2,green,3,NaN,619.68777079743,419.68777079743,NaN,NaN,980.31222920257,780.31222920257,980.31222920257,419.68777079743,619.68777079743,419.68777079743,619.68777079743,780.31222920257,0,0,4,0,horizontal,horizontal,vertical,horizontal
3a,22,100347,2,19,67,21,M,interleaved,variable,homogeneous,4,absent,0.753710985183716,1,horizontal,horizontal,1,3,green,4,NaN,619.68777079743,780.31222920257,NaN,NaN,980.31222920257,780.31222920257,980.31222920257,419.68777079743,619.68777079743,419.68777079743,619.68777079743,780.31222920257,0,0,0,4,vertical,horizontal,vertical,horizontal
3a,22,100347,2,20,68,21,M,interleaved,variable,homogeneous,4,absent,0.718108177185059,1,horizontal,horizontal,1,5,red,2,NaN,980.31222920257,419.68777079743,NaN,NaN,980.31222920257,780.31222920257,980.31222920257,419.68777079743,619.68777079743,419.68777079743,619.68777079743,780.31222920257,0,4,0,0,vertical,horizontal,horizontal,vertical
3a,22,100347,2,21,69,21,M,interleaved,variable,homogeneous,4,present,0.626326084136963,1,vertical,vertical,1,2,green,4,2,619.68777079743,780.31222920257,980.31222920257,419.68777079743,980.31222920257,780.31222920257,980.31222920257,419.68777079743,619.68777079743,419.68777079743,619.68777079743,780.31222920257,0,0,0,4,vertical,vertical,horizontal,vertical
3a,22,100347,2,22,70,21,M,interleaved,variable,homogeneous,4,present,0.630336999893188,1,horizontal,horizontal,1,2,green,1,4,980.31222920257,780.31222920257,619.68777079743,780.31222920257,980.31222920257,780.31222920257,980.31222920257,419.68777079743,619.68777079743,419.68777079743,619.68777079743,780.31222920257,4,0,0,0,horizontal,horizontal,vertical,horizontal
3a,22,100347,2,23,71,21,M,interleaved,variable,homogeneous,4,present,0.690881967544556,1,horizontal,horizontal,1,5,green,4,1,619.68777079743,780.31222920257,980.31222920257,780.31222920257,980.31222920257,780.31222920257,980.31222920257,419.68777079743,619.68777079743,419.68777079743,619.68777079743,780.31222920257,0,0,0,4,vertical,horizontal,vertical,horizontal
3a,22,100347,2,24,72,21,M,interleaved,variable,homogeneous,4,present,0.687222003936768,1,horizontal,horizontal,1,3,green,4,2,619.68777079743,780.31222920257,980.31222920257,419.68777079743,980.31222920257,780.31222920257,980.31222920257,419.68777079743,619.68777079743,419.68777079743,619.68777079743,780.31222920257,0,0,0,4,vertical,horizontal,vertical,horizontal
3a,22,100347,2,25,73,21,M,interleaved,variable,homogeneous,4,present,1.21955394744873,1,vertical,vertical,1,2,green,1,2,980.31222920257,780.31222920257,980.31222920257,419.68777079743,980.31222920257,780.31222920257,980.31222920257,419.68777079743,619.68777079743,419.68777079743,619.68777079743,780.31222920257,4,0,0,0,vertical,horizontal,horizontal,horizontal
3a,22,100347,2,26,74,21,M,interleaved,variable,homogeneous,4,present,0.63191294670105,1,vertical,vertical,1,2,red,1,4,980.31222920257,780.31222920257,619.68777079743,780.31222920257,980.31222920257,780.31222920257,980.31222920257,419.68777079743,619.68777079743,419.68777079743,619.68777079743,780.31222920257,4,0,0,0,vertical,vertical,vertical,vertical
3a,22,100347,2,27,75,21,M,interleaved,variable,homogeneous,4,absent,0.55608081817627,1,vertical,vertical,1,2,red,4,NaN,619.68777079743,780.31222920257,NaN,NaN,980.31222920257,780.31222920257,980.31222920257,419.68777079743,619.68777079743,419.68777079743,619.68777079743,780.31222920257,0,0,0,4,horizontal,horizontal,horizontal,vertical
3a,22,100347,2,28,76,21,M,interleaved,variable,homogeneous,4,absent,0.616627931594849,1,horizontal,horizontal,1,3,green,2,NaN,980.31222920257,419.68777079743,NaN,NaN,980.31222920257,780.31222920257,980.31222920257,419.68777079743,619.68777079743,419.68777079743,619.68777079743,780.31222920257,0,4,0,0,horizontal,horizontal,horizontal,horizontal
3a,22,100347,2,29,77,21,M,interleaved,variable,homogeneous,4,present,1.1489098072052,1,horizontal,horizontal,1,2,red,1,2,980.31222920257,780.31222920257,980.31222920257,419.68777079743,980.31222920257,780.31222920257,980.31222920257,419.68777079743,619.68777079743,419.68777079743,619.68777079743,780.31222920257,4,0,0,0,horizontal,vertical,horizontal,horizontal
3a,22,100347,2,30,78,21,M,interleaved,variable,homogeneous,4,present,1.08885288238525,1,horizontal,horizontal,1,8,red,4,2,619.68777079743,780.31222920257,980.31222920257,419.68777079743,980.31222920257,780.31222920257,980.31222920257,419.68777079743,619.68777079743,419.68777079743,619.68777079743,780.31222920257,0,0,0,4,horizontal,vertical,vertical,horizontal
3a,22,100347,2,31,79,21,M,interleaved,variable,homogeneous,4,absent,0.821616888046265,1,horizontal,horizontal,1,2,green,2,NaN,980.31222920257,419.68777079743,NaN,NaN,980.31222920257,780.31222920257,980.31222920257,419.68777079743,619.68777079743,419.68777079743,619.68777079743,780.31222920257,0,4,0,0,horizontal,horizontal,vertical,horizontal
3a,22,100347,2,32,80,21,M,interleaved,variable,homogeneous,4,present,0.67376708984375,1,horizontal,horizontal,1,5,green,4,1,619.68777079743,780.31222920257,980.31222920257,780.31222920257,980.31222920257,780.31222920257,980.31222920257,419.68777079743,619.68777079743,419.68777079743,619.68777079743,780.31222920257,0,0,0,4,horizontal,horizontal,horizontal,horizontal
3a,22,100347,2,33,81,21,M,interleaved,variable,homogeneous,4,present,0.741996049880981,1,horizontal,horizontal,1,8,green,1,4,980.31222920257,780.31222920257,619.68777079743,780.31222920257,980.31222920257,780.31222920257,980.31222920257,419.68777079743,619.68777079743,419.68777079743,619.68777079743,780.31222920257,4,0,0,0,horizontal,horizontal,horizontal,vertical
3a,22,100347,2,34,82,21,M,interleaved,variable,homogeneous,4,present,0.626372098922729,1,vertical,vertical,1,5,green,3,4,619.68777079743,419.68777079743,619.68777079743,780.31222920257,980.31222920257,780.31222920257,980.31222920257,419.68777079743,619.68777079743,419.68777079743,619.68777079743,780.31222920257,0,0,4,0,horizontal,vertical,vertical,vertical
3a,22,100347,2,35,83,21,M,interleaved,variable,homogeneous,4,present,0.542695999145508,1,vertical,vertical,1,5,green,3,4,619.68777079743,419.68777079743,619.68777079743,780.31222920257,980.31222920257,780.31222920257,980.31222920257,419.68777079743,619.68777079743,419.68777079743,619.68777079743,780.31222920257,0,0,4,0,horizontal,vertical,vertical,horizontal
3a,22,100347,2,36,84,21,M,interleaved,variable,homogeneous,4,absent,0.603147029876709,1,vertical,vertical,1,5,green,2,NaN,980.31222920257,419.68777079743,NaN,NaN,980.31222920257,780.31222920257,980.31222920257,419.68777079743,619.68777079743,419.68777079743,619.68777079743,780.31222920257,0,4,0,0,horizontal,vertical,horizontal,vertical
3a,22,100347,2,37,85,21,M,interleaved,variable,homogeneous,4,present,1.00767397880554,1,vertical,vertical,1,8,red,1,3,980.31222920257,780.31222920257,619.68777079743,419.68777079743,980.31222920257,780.31222920257,980.31222920257,419.68777079743,619.68777079743,419.68777079743,619.68777079743,780.31222920257,4,0,0,0,vertical,vertical,horizontal,horizontal
3a,22,100347,2,38,86,21,M,interleaved,variable,homogeneous,4,present,0.964120864868164,1,horizontal,horizontal,1,2,red,4,1,619.68777079743,780.31222920257,980.31222920257,780.31222920257,980.31222920257,780.31222920257,980.31222920257,419.68777079743,619.68777079743,419.68777079743,619.68777079743,780.31222920257,0,0,0,4,vertical,vertical,vertical,horizontal
3a,22,100347,2,39,87,21,M,interleaved,variable,homogeneous,4,absent,0.824648141860962,1,horizontal,horizontal,1,2,green,3,NaN,619.68777079743,419.68777079743,NaN,NaN,980.31222920257,780.31222920257,980.31222920257,419.68777079743,619.68777079743,419.68777079743,619.68777079743,780.31222920257,0,0,4,0,vertical,horizontal,horizontal,horizontal
3a,22,100347,2,40,88,21,M,interleaved,variable,homogeneous,4,present,0.604726076126099,1,vertical,vertical,1,2,green,1,4,980.31222920257,780.31222920257,619.68777079743,780.31222920257,980.31222920257,780.31222920257,980.31222920257,419.68777079743,619.68777079743,419.68777079743,619.68777079743,780.31222920257,4,0,0,0,vertical,horizontal,horizontal,horizontal
3a,22,100347,2,41,89,21,M,interleaved,variable,homogeneous,4,present,0.768972873687744,1,vertical,vertical,1,8,red,3,1,619.68777079743,419.68777079743,980.31222920257,780.31222920257,980.31222920257,780.31222920257,980.31222920257,419.68777079743,619.68777079743,419.68777079743,619.68777079743,780.31222920257,0,0,4,0,vertical,horizontal,vertical,horizontal
3a,22,100347,2,42,90,21,M,interleaved,variable,homogeneous,4,absent,0.621370077133179,1,vertical,vertical,1,3,red,3,NaN,619.68777079743,419.68777079743,NaN,NaN,980.31222920257,780.31222920257,980.31222920257,419.68777079743,619.68777079743,419.68777079743,619.68777079743,780.31222920257,0,0,4,0,horizontal,horizontal,vertical,horizontal
3a,22,100347,2,43,91,21,M,interleaved,variable,homogeneous,4,present,1.36149978637695,1,vertical,vertical,1,2,red,2,4,980.31222920257,419.68777079743,619.68777079743,780.31222920257,980.31222920257,780.31222920257,980.31222920257,419.68777079743,619.68777079743,419.68777079743,619.68777079743,780.31222920257,0,4,0,0,vertical,vertical,horizontal,vertical
3a,22,100347,2,44,92,21,M,interleaved,variable,homogeneous,4,present,0.749773979187012,1,horizontal,horizontal,1,3,green,4,1,619.68777079743,780.31222920257,980.31222920257,780.31222920257,980.31222920257,780.31222920257,980.31222920257,419.68777079743,619.68777079743,419.68777079743,619.68777079743,780.31222920257,0,0,0,4,vertical,vertical,vertical,horizontal
3a,22,100347,2,45,93,21,M,interleaved,variable,homogeneous,4,present,0.754257917404175,1,horizontal,horizontal,1,2,red,4,1,619.68777079743,780.31222920257,980.31222920257,780.31222920257,980.31222920257,780.31222920257,980.31222920257,419.68777079743,619.68777079743,419.68777079743,619.68777079743,780.31222920257,0,0,0,4,horizontal,vertical,horizontal,horizontal
3a,22,100347,2,46,94,21,M,interleaved,variable,homogeneous,4,present,0.862612009048462,1,vertical,vertical,1,3,green,1,2,980.31222920257,780.31222920257,980.31222920257,419.68777079743,980.31222920257,780.31222920257,980.31222920257,419.68777079743,619.68777079743,419.68777079743,619.68777079743,780.31222920257,4,0,0,0,vertical,vertical,vertical,vertical
3a,22,100347,2,47,95,21,M,interleaved,variable,homogeneous,4,present,0.843003034591675,1,horizontal,horizontal,1,3,green,2,3,980.31222920257,419.68777079743,619.68777079743,419.68777079743,980.31222920257,780.31222920257,980.31222920257,419.68777079743,619.68777079743,419.68777079743,619.68777079743,780.31222920257,0,4,0,0,vertical,horizontal,horizontal,vertical
3a,22,100347,2,48,96,21,M,interleaved,variable,homogeneous,4,absent,1.53540706634521,1,horizontal,horizontal,1,8,red,3,NaN,619.68777079743,419.68777079743,NaN,NaN,980.31222920257,780.31222920257,980.31222920257,419.68777079743,619.68777079743,419.68777079743,619.68777079743,780.31222920257,0,0,4,0,vertical,horizontal,horizontal,horizontal
3a,22,100347,3,1,97,21,M,interleaved,constant,homogeneous,4,absent,0.891145944595337,1,vertical,vertical,1,2,red,4,NaN,619.68777079743,780.31222920257,NaN,NaN,980.31222920257,780.31222920257,980.31222920257,419.68777079743,619.68777079743,419.68777079743,619.68777079743,780.31222920257,0,0,0,4,vertical,vertical,vertical,vertical
3a,22,100347,3,2,98,21,M,interleaved,constant,homogeneous,4,present,0.711443901062012,1,vertical,vertical,1,3,red,1,4,980.31222920257,780.31222920257,619.68777079743,780.31222920257,980.31222920257,780.31222920257,980.31222920257,419.68777079743,619.68777079743,419.68777079743,619.68777079743,780.31222920257,4,0,0,0,vertical,horizontal,horizontal,horizontal
3a,22,100347,3,3,99,21,M,interleaved,constant,homogeneous,4,present,0.62788987159729,1,vertical,vertical,1,3,red,2,1,980.31222920257,419.68777079743,980.31222920257,780.31222920257,980.31222920257,780.31222920257,980.31222920257,419.68777079743,619.68777079743,419.68777079743,619.68777079743,780.31222920257,0,4,0,0,vertical,vertical,vertical,horizontal
3a,22,100347,3,4,100,21,M,interleaved,constant,homogeneous,4,present,0.904156923294067,1,horizontal,horizontal,1,2,red,2,3,980.31222920257,419.68777079743,619.68777079743,419.68777079743,980.31222920257,780.31222920257,980.31222920257,419.68777079743,619.68777079743,419.68777079743,619.68777079743,780.31222920257,0,4,0,0,horizontal,horizontal,horizontal,horizontal
3a,22,100347,3,5,101,21,M,interleaved,constant,homogeneous,4,absent,0.764179944992065,1,horizontal,horizontal,1,2,red,3,NaN,619.68777079743,419.68777079743,NaN,NaN,980.31222920257,780.31222920257,980.31222920257,419.68777079743,619.68777079743,419.68777079743,619.68777079743,780.31222920257,0,0,4,0,horizontal,horizontal,horizontal,vertical
3a,22,100347,3,6,102,21,M,interleaved,constant,homogeneous,4,present,0.664440155029297,1,horizontal,horizontal,1,3,red,4,2,619.68777079743,780.31222920257,980.31222920257,419.68777079743,980.31222920257,780.31222920257,980.31222920257,419.68777079743,619.68777079743,419.68777079743,619.68777079743,780.31222920257,0,0,0,4,vertical,horizontal,vertical,horizontal
3a,22,100347,3,7,103,21,M,interleaved,constant,homogeneous,4,present,1.14906001091003,1,vertical,vertical,1,8,red,1,2,980.31222920257,780.31222920257,980.31222920257,419.68777079743,980.31222920257,780.31222920257,980.31222920257,419.68777079743,619.68777079743,419.68777079743,619.68777079743,780.31222920257,4,0,0,0,vertical,vertical,vertical,vertical
3a,22,100347,3,8,104,21,M,interleaved,constant,homogeneous,4,present,0.601485967636108,1,vertical,vertical,1,5,red,4,3,619.68777079743,780.31222920257,619.68777079743,419.68777079743,980.31222920257,780.31222920257,980.31222920257,419.68777079743,619.68777079743,419.68777079743,619.68777079743,780.31222920257,0,0,0,4,horizontal,horizontal,vertical,vertical
3a,22,100347,3,9,105,21,M,interleaved,constant,homogeneous,4,absent,0.589827060699463,1,horizontal,horizontal,1,2,red,2,NaN,980.31222920257,419.68777079743,NaN,NaN,980.31222920257,780.31222920257,980.31222920257,419.68777079743,619.68777079743,419.68777079743,619.68777079743,780.31222920257,0,4,0,0,horizontal,horizontal,vertical,vertical
3a,22,100347,3,10,106,21,M,interleaved,constant,homogeneous,4,present,0.586186170578003,1,vertical,vertical,1,5,red,1,4,980.31222920257,780.31222920257,619.68777079743,780.31222920257,980.31222920257,780.31222920257,980.31222920257,419.68777079743,619.68777079743,419.68777079743,619.68777079743,780.31222920257,4,0,0,0,vertical,vertical,vertical,horizontal
3a,22,100347,3,11,107,21,M,interleaved,constant,homogeneous,4,absent,0.582396984100342,0,horizontal,vertical,1,5,red,4,NaN,619.68777079743,780.31222920257,NaN,NaN,980.31222920257,780.31222920257,980.31222920257,419.68777079743,619.68777079743,419.68777079743,619.68777079743,780.31222920257,0,0,0,4,vertical,horizontal,horizontal,horizontal
3a,22,100347,3,12,108,21,M,interleaved,constant,homogeneous,4,present,0.538697957992554,1,vertical,vertical,1,2,red,1,3,980.31222920257,780.31222920257,619.68777079743,419.68777079743,980.31222920257,780.31222920257,980.31222920257,419.68777079743,619.68777079743,419.68777079743,619.68777079743,780.31222920257,4,0,0,0,vertical,vertical,horizontal,vertical
3a,22,100347,3,13,109,21,M,interleaved,constant,homogeneous,4,present,0.535177946090698,1,vertical,vertical,1,3,red,4,2,619.68777079743,780.31222920257,980.31222920257,419.68777079743,980.31222920257,780.31222920257,980.31222920257,419.68777079743,619.68777079743,419.68777079743,619.68777079743,780.31222920257,0,0,0,4,vertical,horizontal,horizontal,vertical
3a,22,100347,3,14,110,21,M,interleaved,constant,homogeneous,4,present,0.651466846466064,1,horizontal,horizontal,1,2,red,2,4,980.31222920257,419.68777079743,619.68777079743,780.31222920257,980.31222920257,780.31222920257,980.31222920257,419.68777079743,619.68777079743,419.68777079743,619.68777079743,780.31222920257,0,4,0,0,vertical,horizontal,horizontal,vertical
3a,22,100347,3,15,111,21,M,interleaved,constant,homogeneous,4,present,0.615886211395264,1,horizontal,horizontal,1,3,red,1,3,980.31222920257,780.31222920257,619.68777079743,419.68777079743,980.31222920257,780.31222920257,980.31222920257,419.68777079743,619.68777079743,419.68777079743,619.68777079743,780.31222920257,4,0,0,0,horizontal,horizontal,horizontal,horizontal
3a,22,100347,3,16,112,21,M,interleaved,constant,homogeneous,4,present,0.555895090103149,1,horizontal,horizontal,1,8,red,1,4,980.31222920257,780.31222920257,619.68777079743,780.31222920257,980.31222920257,780.31222920257,980.31222920257,419.68777079743,619.68777079743,419.68777079743,619.68777079743,780.31222920257,4,0,0,0,horizontal,vertical,horizontal,horizontal
3a,22,100347,3,17,113,21,M,interleaved,constant,homogeneous,4,present,0.672525882720947,1,horizontal,horizontal,1,2,red,1,3,980.31222920257,780.31222920257,619.68777079743,419.68777079743,980.31222920257,780.31222920257,980.31222920257,419.68777079743,619.68777079743,419.68777079743,619.68777079743,780.31222920257,4,0,0,0,horizontal,horizontal,vertical,horizontal
3a,22,100347,3,18,114,21,M,interleaved,constant,homogeneous,4,absent,0.748811960220337,1,vertical,vertical,1,3,red,4,NaN,619.68777079743,780.31222920257,NaN,NaN,980.31222920257,780.31222920257,980.31222920257,419.68777079743,619.68777079743,419.68777079743,619.68777079743,780.31222920257,0,0,0,4,horizontal,horizontal,vertical,vertical
3a,22,100347,3,19,115,21,M,interleaved,constant,homogeneous,4,present,0.641049861907959,1,horizontal,horizontal,1,2,red,4,2,619.68777079743,780.31222920257,980.31222920257,419.68777079743,980.31222920257,780.31222920257,980.31222920257,419.68777079743,619.68777079743,419.68777079743,619.68777079743,780.31222920257,0,0,0,4,horizontal,horizontal,vertical,horizontal
3a,22,100347,3,20,116,21,M,interleaved,constant,homogeneous,4,present,0.605395078659058,1,vertical,vertical,1,5,red,4,1,619.68777079743,780.31222920257,980.31222920257,780.31222920257,980.31222920257,780.31222920257,980.31222920257,419.68777079743,619.68777079743,419.68777079743,619.68777079743,780.31222920257,0,0,0,4,horizontal,vertical,vertical,vertical
3a,22,100347,3,21,117,21,M,interleaved,constant,homogeneous,4,present,0.689796924591064,1,vertical,vertical,1,2,red,4,3,619.68777079743,780.31222920257,619.68777079743,419.68777079743,980.31222920257,780.31222920257,980.31222920257,419.68777079743,619.68777079743,419.68777079743,619.68777079743,780.31222920257,0,0,0,4,horizontal,horizontal,horizontal,vertical
3a,22,100347,3,22,118,21,M,interleaved,constant,homogeneous,4,present,0.598139047622681,1,vertical,vertical,1,2,red,4,3,619.68777079743,780.31222920257,619.68777079743,419.68777079743,980.31222920257,780.31222920257,980.31222920257,419.68777079743,619.68777079743,419.68777079743,619.68777079743,780.31222920257,0,0,0,4,horizontal,horizontal,vertical,vertical
3a,22,100347,3,23,119,21,M,interleaved,constant,homogeneous,4,present,1.04241895675659,1,vertical,vertical,1,5,red,2,4,980.31222920257,419.68777079743,619.68777079743,780.31222920257,980.31222920257,780.31222920257,980.31222920257,419.68777079743,619.68777079743,419.68777079743,619.68777079743,780.31222920257,0,4,0,0,horizontal,vertical,vertical,vertical
3a,22,100347,3,24,120,21,M,interleaved,constant,homogeneous,4,absent,0.718621969223022,1,horizontal,horizontal,1,5,red,4,NaN,619.68777079743,780.31222920257,NaN,NaN,980.31222920257,780.31222920257,980.31222920257,419.68777079743,619.68777079743,419.68777079743,619.68777079743,780.31222920257,0,0,0,4,horizontal,horizontal,vertical,horizontal
3a,22,100347,3,25,121,21,M,interleaved,constant,homogeneous,4,present,0.787146091461182,1,vertical,vertical,1,2,red,4,2,619.68777079743,780.31222920257,980.31222920257,419.68777079743,980.31222920257,780.31222920257,980.31222920257,419.68777079743,619.68777079743,419.68777079743,619.68777079743,780.31222920257,0,0,0,4,vertical,vertical,vertical,vertical
3a,22,100347,3,26,122,21,M,interleaved,constant,homogeneous,4,absent,0.799386024475098,1,vertical,vertical,1,3,red,4,NaN,619.68777079743,780.31222920257,NaN,NaN,980.31222920257,780.31222920257,980.31222920257,419.68777079743,619.68777079743,419.68777079743,619.68777079743,780.31222920257,0,0,0,4,vertical,vertical,horizontal,vertical
3a,22,100347,3,27,123,21,M,interleaved,constant,homogeneous,4,present,0.771417140960693,1,horizontal,horizontal,1,2,red,4,1,619.68777079743,780.31222920257,980.31222920257,780.31222920257,980.31222920257,780.31222920257,980.31222920257,419.68777079743,619.68777079743,419.68777079743,619.68777079743,780.31222920257,0,0,0,4,horizontal,horizontal,horizontal,horizontal
3a,22,100347,3,28,124,21,M,interleaved,constant,homogeneous,4,absent,0.887847900390625,1,vertical,vertical,1,2,red,3,NaN,619.68777079743,419.68777079743,NaN,NaN,980.31222920257,780.31222920257,980.31222920257,419.68777079743,619.68777079743,419.68777079743,619.68777079743,780.31222920257,0,0,4,0,horizontal,vertical,vertical,horizontal
3a,22,100347,3,29,125,21,M,interleaved,constant,homogeneous,4,present,0.716264009475708,1,horizontal,horizontal,1,2,red,1,4,980.31222920257,780.31222920257,619.68777079743,780.31222920257,980.31222920257,780.31222920257,980.31222920257,419.68777079743,619.68777079743,419.68777079743,619.68777079743,780.31222920257,4,0,0,0,horizontal,vertical,vertical,vertical
3a,22,100347,3,30,126,21,M,interleaved,constant,homogeneous,4,present,0.72065281867981,1,vertical,vertical,1,8,red,3,1,619.68777079743,419.68777079743,980.31222920257,780.31222920257,980.31222920257,780.31222920257,980.31222920257,419.68777079743,619.68777079743,419.68777079743,619.68777079743,780.31222920257,0,0,4,0,horizontal,vertical,vertical,horizontal
3a,22,100347,3,31,127,21,M,interleaved,constant,homogeneous,4,present,0.804723024368286,1,vertical,vertical,1,2,red,2,3,980.31222920257,419.68777079743,619.68777079743,419.68777079743,980.31222920257,780.31222920257,980.31222920257,419.68777079743,619.68777079743,419.68777079743,619.68777079743,780.31222920257,0,4,0,0,horizontal,vertical,horizontal,horizontal
3a,22,100347,3,32,128,21,M,interleaved,constant,homogeneous,4,present,0.673389911651611,1,horizontal,horizontal,1,5,red,4,2,619.68777079743,780.31222920257,980.31222920257,419.68777079743,980.31222920257,780.31222920257,980.31222920257,419.68777079743,619.68777079743,419.68777079743,619.68777079743,780.31222920257,0,0,0,4,horizontal,horizontal,vertical,horizontal
3a,22,100347,3,33,129,21,M,interleaved,constant,homogeneous,4,absent,0.653686046600342,1,horizontal,horizontal,1,3,red,2,NaN,980.31222920257,419.68777079743,NaN,NaN,980.31222920257,780.31222920257,980.31222920257,419.68777079743,619.68777079743,419.68777079743,619.68777079743,780.31222920257,0,4,0,0,horizontal,horizontal,horizontal,horizontal
3a,22,100347,3,34,130,21,M,interleaved,constant,homogeneous,4,absent,0.762072086334229,1,horizontal,horizontal,1,3,red,2,NaN,980.31222920257,419.68777079743,NaN,NaN,980.31222920257,780.31222920257,980.31222920257,419.68777079743,619.68777079743,419.68777079743,619.68777079743,780.31222920257,0,4,0,0,horizontal,horizontal,horizontal,horizontal
3a,22,100347,3,35,131,21,M,interleaved,constant,homogeneous,4,present,0.67048192024231,1,horizontal,horizontal,1,8,red,4,3,619.68777079743,780.31222920257,619.68777079743,419.68777079743,980.31222920257,780.31222920257,980.31222920257,419.68777079743,619.68777079743,419.68777079743,619.68777079743,780.31222920257,0,0,0,4,vertical,horizontal,vertical,horizontal
3a,22,100347,3,36,132,21,M,interleaved,constant,homogeneous,4,present,0.794556856155396,1,horizontal,horizontal,1,3,red,3,1,619.68777079743,419.68777079743,980.31222920257,780.31222920257,980.31222920257,780.31222920257,980.31222920257,419.68777079743,619.68777079743,419.68777079743,619.68777079743,780.31222920257,0,0,4,0,horizontal,horizontal,horizontal,horizontal
3a,22,100347,3,37,133,21,M,interleaved,constant,homogeneous,4,absent,0.63914680480957,1,vertical,vertical,1,8,red,4,NaN,619.68777079743,780.31222920257,NaN,NaN,980.31222920257,780.31222920257,980.31222920257,419.68777079743,619.68777079743,419.68777079743,619.68777079743,780.31222920257,0,0,0,4,horizontal,horizontal,vertical,vertical
3a,22,100347,3,38,134,21,M,interleaved,constant,homogeneous,4,present,0.683522939682007,1,vertical,vertical,1,3,red,3,1,619.68777079743,419.68777079743,980.31222920257,780.31222920257,980.31222920257,780.31222920257,980.31222920257,419.68777079743,619.68777079743,419.68777079743,619.68777079743,780.31222920257,0,0,4,0,horizontal,horizontal,vertical,vertical
3a,22,100347,3,39,135,21,M,interleaved,constant,homogeneous,4,present,0.727739095687866,1,horizontal,horizontal,1,3,red,2,3,980.31222920257,419.68777079743,619.68777079743,419.68777079743,980.31222920257,780.31222920257,980.31222920257,419.68777079743,619.68777079743,419.68777079743,619.68777079743,780.31222920257,0,4,0,0,horizontal,horizontal,vertical,horizontal
3a,22,100347,3,40,136,21,M,interleaved,constant,homogeneous,4,absent,0.81994104385376,1,vertical,vertical,1,5,red,4,NaN,619.68777079743,780.31222920257,NaN,NaN,980.31222920257,780.31222920257,980.31222920257,419.68777079743,619.68777079743,419.68777079743,619.68777079743,780.31222920257,0,0,0,4,vertical,horizontal,horizontal,vertical
3a,22,100347,3,41,137,21,M,interleaved,constant,homogeneous,4,absent,0.66451096534729,1,horizontal,horizontal,1,8,red,2,NaN,980.31222920257,419.68777079743,NaN,NaN,980.31222920257,780.31222920257,980.31222920257,419.68777079743,619.68777079743,419.68777079743,619.68777079743,780.31222920257,0,4,0,0,horizontal,horizontal,horizontal,vertical
3a,22,100347,3,42,138,21,M,interleaved,constant,homogeneous,4,absent,1.00468301773071,1,horizontal,horizontal,1,2,red,2,NaN,980.31222920257,419.68777079743,NaN,NaN,980.31222920257,780.31222920257,980.31222920257,419.68777079743,619.68777079743,419.68777079743,619.68777079743,780.31222920257,0,4,0,0,horizontal,horizontal,vertical,vertical
3a,22,100347,3,43,139,21,M,interleaved,constant,homogeneous,4,present,0.681013107299805,1,horizontal,horizontal,1,5,red,4,1,619.68777079743,780.31222920257,980.31222920257,780.31222920257,980.31222920257,780.31222920257,980.31222920257,419.68777079743,619.68777079743,419.68777079743,619.68777079743,780.31222920257,0,0,0,4,horizontal,vertical,horizontal,horizontal
3a,22,100347,3,44,140,21,M,interleaved,constant,homogeneous,4,present,0.581496000289917,1,horizontal,horizontal,1,5,red,2,1,980.31222920257,419.68777079743,980.31222920257,780.31222920257,980.31222920257,780.31222920257,980.31222920257,419.68777079743,619.68777079743,419.68777079743,619.68777079743,780.31222920257,0,4,0,0,horizontal,horizontal,horizontal,horizontal
3a,22,100347,3,45,141,21,M,interleaved,constant,homogeneous,4,absent,0.690117835998535,1,vertical,vertical,1,5,red,1,NaN,980.31222920257,780.31222920257,NaN,NaN,980.31222920257,780.31222920257,980.31222920257,419.68777079743,619.68777079743,419.68777079743,619.68777079743,780.31222920257,4,0,0,0,vertical,vertical,horizontal,horizontal
3a,22,100347,3,46,142,21,M,interleaved,constant,homogeneous,4,present,0.902217149734497,1,vertical,vertical,1,2,red,2,4,980.31222920257,419.68777079743,619.68777079743,780.31222920257,980.31222920257,780.31222920257,980.31222920257,419.68777079743,619.68777079743,419.68777079743,619.68777079743,780.31222920257,0,4,0,0,horizontal,vertical,vertical,vertical
3a,22,100347,3,47,143,21,M,interleaved,constant,homogeneous,4,present,0.722628116607666,1,horizontal,horizontal,1,5,red,2,1,980.31222920257,419.68777079743,980.31222920257,780.31222920257,980.31222920257,780.31222920257,980.31222920257,419.68777079743,619.68777079743,419.68777079743,619.68777079743,780.31222920257,0,4,0,0,vertical,horizontal,vertical,horizontal
3a,22,100347,3,48,144,21,M,interleaved,constant,homogeneous,4,absent,0.886756896972656,1,vertical,vertical,1,2,red,4,NaN,619.68777079743,780.31222920257,NaN,NaN,980.31222920257,780.31222920257,980.31222920257,419.68777079743,619.68777079743,419.68777079743,619.68777079743,780.31222920257,0,0,0,4,horizontal,vertical,horizontal,vertical
3a,22,100347,4,1,145,21,M,interleaved,variable,homogeneous,4,absent,0.622818946838379,1,vertical,vertical,1,2,red,3,NaN,619.68777079743,419.68777079743,NaN,NaN,980.31222920257,780.31222920257,980.31222920257,419.68777079743,619.68777079743,419.68777079743,619.68777079743,780.31222920257,0,0,4,0,vertical,horizontal,vertical,vertical
3a,22,100347,4,2,146,21,M,interleaved,variable,homogeneous,4,present,0.883134126663208,1,horizontal,horizontal,1,8,red,4,1,619.68777079743,780.31222920257,980.31222920257,780.31222920257,980.31222920257,780.31222920257,980.31222920257,419.68777079743,619.68777079743,419.68777079743,619.68777079743,780.31222920257,0,0,0,4,vertical,horizontal,vertical,horizontal
3a,22,100347,4,3,147,21,M,interleaved,variable,homogeneous,4,absent,0.687616109848022,1,horizontal,horizontal,1,3,red,3,NaN,619.68777079743,419.68777079743,NaN,NaN,980.31222920257,780.31222920257,980.31222920257,419.68777079743,619.68777079743,419.68777079743,619.68777079743,780.31222920257,0,0,4,0,vertical,vertical,horizontal,horizontal
3a,22,100347,4,4,148,21,M,interleaved,variable,homogeneous,4,present,0.788094997406006,1,vertical,vertical,1,8,red,1,4,980.31222920257,780.31222920257,619.68777079743,780.31222920257,980.31222920257,780.31222920257,980.31222920257,419.68777079743,619.68777079743,419.68777079743,619.68777079743,780.31222920257,4,0,0,0,vertical,horizontal,vertical,horizontal
3a,22,100347,4,5,149,21,M,interleaved,variable,homogeneous,4,absent,0.824039936065674,1,horizontal,horizontal,1,2,red,3,NaN,619.68777079743,419.68777079743,NaN,NaN,980.31222920257,780.31222920257,980.31222920257,419.68777079743,619.68777079743,419.68777079743,619.68777079743,780.31222920257,0,0,4,0,vertical,horizontal,horizontal,horizontal
3a,22,100347,4,6,150,21,M,interleaved,variable,homogeneous,4,present,0.716601848602295,1,vertical,vertical,1,2,red,1,4,980.31222920257,780.31222920257,619.68777079743,780.31222920257,980.31222920257,780.31222920257,980.31222920257,419.68777079743,619.68777079743,419.68777079743,619.68777079743,780.31222920257,4,0,0,0,vertical,horizontal,vertical,horizontal
3a,22,100347,4,7,151,21,M,interleaved,variable,homogeneous,4,present,0.728769063949585,1,horizontal,horizontal,1,5,green,4,3,619.68777079743,780.31222920257,619.68777079743,419.68777079743,980.31222920257,780.31222920257,980.31222920257,419.68777079743,619.68777079743,419.68777079743,619.68777079743,780.31222920257,0,0,0,4,vertical,vertical,vertical,horizontal
3a,22,100347,4,8,152,21,M,interleaved,variable,homogeneous,4,absent,0.645184993743896,1,horizontal,horizontal,1,5,red,3,NaN,619.68777079743,419.68777079743,NaN,NaN,980.31222920257,780.31222920257,980.31222920257,419.68777079743,619.68777079743,419.68777079743,619.68777079743,780.31222920257,0,0,4,0,vertical,vertical,horizontal,horizontal
3a,22,100347,4,9,153,21,M,interleaved,variable,homogeneous,4,present,0.857656002044678,1,vertical,vertical,1,2,red,4,1,619.68777079743,780.31222920257,980.31222920257,780.31222920257,980.31222920257,780.31222920257,980.31222920257,419.68777079743,619.68777079743,419.68777079743,619.68777079743,780.31222920257,0,0,0,4,horizontal,horizontal,vertical,vertical
3a,22,100347,4,10,154,21,M,interleaved,variable,homogeneous,4,present,0.821974039077759,1,horizontal,horizontal,1,3,green,2,3,980.31222920257,419.68777079743,619.68777079743,419.68777079743,980.31222920257,780.31222920257,980.31222920257,419.68777079743,619.68777079743,419.68777079743,619.68777079743,780.31222920257,0,4,0,0,vertical,horizontal,vertical,vertical
3a,22,100347,4,11,155,21,M,interleaved,variable,homogeneous,4,present,1.178297996521,1,vertical,vertical,1,2,red,3,2,619.68777079743,419.68777079743,980.31222920257,419.68777079743,980.31222920257,780.31222920257,980.31222920257,419.68777079743,619.68777079743,419.68777079743,619.68777079743,780.31222920257,0,0,4,0,horizontal,vertical,vertical,vertical
3a,22,100347,4,12,156,21,M,interleaved,variable,homogeneous,4,present,0.646426916122437,1,vertical,vertical,1,3,green,3,4,619.68777079743,419.68777079743,619.68777079743,780.31222920257,980.31222920257,780.31222920257,980.31222920257,419.68777079743,619.68777079743,419.68777079743,619.68777079743,780.31222920257,0,0,4,0,vertical,horizontal,vertical,vertical
3a,22,100347,4,13,157,21,M,interleaved,variable,homogeneous,4,present,0.610913991928101,1,horizontal,horizontal,1,3,green,4,3,619.68777079743,780.31222920257,619.68777079743,419.68777079743,980.31222920257,780.31222920257,980.31222920257,419.68777079743,619.68777079743,419.68777079743,619.68777079743,780.31222920257,0,0,0,4,horizontal,vertical,horizontal,horizontal
3a,22,100347,4,14,158,21,M,interleaved,variable,homogeneous,4,absent,0.743191957473755,1,vertical,vertical,1,8,green,2,NaN,980.31222920257,419.68777079743,NaN,NaN,980.31222920257,780.31222920257,980.31222920257,419.68777079743,619.68777079743,419.68777079743,619.68777079743,780.31222920257,0,4,0,0,horizontal,vertical,horizontal,horizontal
3a,22,100347,4,15,159,21,M,interleaved,variable,homogeneous,4,present,0.835453987121582,1,vertical,vertical,1,5,red,1,4,980.31222920257,780.31222920257,619.68777079743,780.31222920257,980.31222920257,780.31222920257,980.31222920257,419.68777079743,619.68777079743,419.68777079743,619.68777079743,780.31222920257,4,0,0,0,vertical,horizontal,horizontal,horizontal
3a,22,100347,4,16,160,21,M,interleaved,variable,homogeneous,4,absent,0.551925897598267,1,horizontal,horizontal,1,2,red,4,NaN,619.68777079743,780.31222920257,NaN,NaN,980.31222920257,780.31222920257,980.31222920257,419.68777079743,619.68777079743,419.68777079743,619.68777079743,780.31222920257,0,0,0,4,horizontal,horizontal,vertical,horizontal
3a,22,100347,4,17,161,21,M,interleaved,variable,homogeneous,4,present,0.612180948257446,1,horizontal,horizontal,1,3,green,3,1,619.68777079743,419.68777079743,980.31222920257,780.31222920257,980.31222920257,780.31222920257,980.31222920257,419.68777079743,619.68777079743,419.68777079743,619.68777079743,780.31222920257,0,0,4,0,horizontal,horizontal,horizontal,horizontal
3a,22,100347,4,18,162,21,M,interleaved,variable,homogeneous,4,present,0.600640058517456,1,horizontal,horizontal,1,2,green,2,3,980.31222920257,419.68777079743,619.68777079743,419.68777079743,980.31222920257,780.31222920257,980.31222920257,419.68777079743,619.68777079743,419.68777079743,619.68777079743,780.31222920257,0,4,0,0,vertical,horizontal,horizontal,vertical
3a,22,100347,4,19,163,21,M,interleaved,variable,homogeneous,4,absent,0.421020030975342,0,horizontal,vertical,1,3,green,3,NaN,619.68777079743,419.68777079743,NaN,NaN,980.31222920257,780.31222920257,980.31222920257,419.68777079743,619.68777079743,419.68777079743,619.68777079743,780.31222920257,0,0,4,0,vertical,vertical,horizontal,vertical
3a,22,100347,4,20,164,21,M,interleaved,variable,homogeneous,4,absent,0.537226915359497,1,vertical,vertical,1,2,red,3,NaN,619.68777079743,419.68777079743,NaN,NaN,980.31222920257,780.31222920257,980.31222920257,419.68777079743,619.68777079743,419.68777079743,619.68777079743,780.31222920257,0,0,4,0,vertical,vertical,vertical,vertical
3a,22,100347,4,21,165,21,M,interleaved,variable,homogeneous,4,absent,0.581470012664795,1,vertical,vertical,1,5,red,4,NaN,619.68777079743,780.31222920257,NaN,NaN,980.31222920257,780.31222920257,980.31222920257,419.68777079743,619.68777079743,419.68777079743,619.68777079743,780.31222920257,0,0,0,4,horizontal,horizontal,horizontal,vertical
3a,22,100347,4,22,166,21,M,interleaved,variable,homogeneous,4,present,0.610085010528564,1,vertical,vertical,1,5,red,2,1,980.31222920257,419.68777079743,980.31222920257,780.31222920257,980.31222920257,780.31222920257,980.31222920257,419.68777079743,619.68777079743,419.68777079743,619.68777079743,780.31222920257,0,4,0,0,horizontal,vertical,horizontal,horizontal
3a,22,100347,4,23,167,21,M,interleaved,variable,homogeneous,4,present,0.566316843032837,1,horizontal,horizontal,1,2,red,1,4,980.31222920257,780.31222920257,619.68777079743,780.31222920257,980.31222920257,780.31222920257,980.31222920257,419.68777079743,619.68777079743,419.68777079743,619.68777079743,780.31222920257,4,0,0,0,horizontal,horizontal,horizontal,vertical
3a,22,100347,4,24,168,21,M,interleaved,variable,homogeneous,4,present,0.554601907730103,1,vertical,vertical,1,2,red,1,4,980.31222920257,780.31222920257,619.68777079743,780.31222920257,980.31222920257,780.31222920257,980.31222920257,419.68777079743,619.68777079743,419.68777079743,619.68777079743,780.31222920257,4,0,0,0,vertical,vertical,vertical,horizontal
3a,22,100347,4,25,169,21,M,interleaved,variable,homogeneous,4,present,0.550833940505981,1,vertical,vertical,1,3,red,4,3,619.68777079743,780.31222920257,619.68777079743,419.68777079743,980.31222920257,780.31222920257,980.31222920257,419.68777079743,619.68777079743,419.68777079743,619.68777079743,780.31222920257,0,0,0,4,horizontal,horizontal,horizontal,vertical
3a,22,100347,4,26,170,21,M,interleaved,variable,homogeneous,4,present,0.539146900177002,1,horizontal,horizontal,1,2,green,4,3,619.68777079743,780.31222920257,619.68777079743,419.68777079743,980.31222920257,780.31222920257,980.31222920257,419.68777079743,619.68777079743,419.68777079743,619.68777079743,780.31222920257,0,0,0,4,horizontal,vertical,vertical,horizontal
3a,22,100347,4,27,171,21,M,interleaved,variable,homogeneous,4,present,0.431491851806641,0,horizontal,vertical,1,2,red,1,4,980.31222920257,780.31222920257,619.68777079743,780.31222920257,980.31222920257,780.31222920257,980.31222920257,419.68777079743,619.68777079743,419.68777079743,619.68777079743,780.31222920257,4,0,0,0,horizontal,vertical,vertical,horizontal
3a,22,100347,4,28,172,21,M,interleaved,variable,homogeneous,4,absent,0.571892023086548,1,vertical,vertical,1,3,green,3,NaN,619.68777079743,419.68777079743,NaN,NaN,980.31222920257,780.31222920257,980.31222920257,419.68777079743,619.68777079743,419.68777079743,619.68777079743,780.31222920257,0,0,4,0,horizontal,vertical,vertical,vertical
3a,22,100347,4,29,173,21,M,interleaved,variable,homogeneous,4,present,0.576166868209839,1,vertical,vertical,1,2,green,4,2,619.68777079743,780.31222920257,980.31222920257,419.68777079743,980.31222920257,780.31222920257,980.31222920257,419.68777079743,619.68777079743,419.68777079743,619.68777079743,780.31222920257,0,0,0,4,vertical,horizontal,vertical,vertical
3a,22,100347,4,30,174,21,M,interleaved,variable,homogeneous,4,present,0.756469964981079,1,horizontal,horizontal,1,8,green,1,3,980.31222920257,780.31222920257,619.68777079743,419.68777079743,980.31222920257,780.31222920257,980.31222920257,419.68777079743,619.68777079743,419.68777079743,619.68777079743,780.31222920257,4,0,0,0,horizontal,horizontal,vertical,vertical
3a,22,100347,4,31,175,21,M,interleaved,variable,homogeneous,4,absent,0.76862096786499,1,horizontal,horizontal,1,5,green,3,NaN,619.68777079743,419.68777079743,NaN,NaN,980.31222920257,780.31222920257,980.31222920257,419.68777079743,619.68777079743,419.68777079743,619.68777079743,780.31222920257,0,0,4,0,vertical,horizontal,horizontal,vertical
3a,22,100347,4,32,176,21,M,interleaved,variable,homogeneous,4,present,0.909355163574219,1,vertical,vertical,1,3,red,1,2,980.31222920257,780.31222920257,980.31222920257,419.68777079743,980.31222920257,780.31222920257,980.31222920257,419.68777079743,619.68777079743,419.68777079743,619.68777079743,780.31222920257,4,0,0,0,vertical,horizontal,horizontal,vertical
3a,22,100347,4,33,177,21,M,interleaved,variable,homogeneous,4,absent,0.601633071899414,1,vertical,vertical,1,3,green,1,NaN,980.31222920257,780.31222920257,NaN,NaN,980.31222920257,780.31222920257,980.31222920257,419.68777079743,619.68777079743,419.68777079743,619.68777079743,780.31222920257,4,0,0,0,vertical,vertical,vertical,horizontal
3a,22,100347,4,34,178,21,M,interleaved,variable,homogeneous,4,present,0.541721105575562,1,vertical,vertical,1,8,green,1,2,980.31222920257,780.31222920257,980.31222920257,419.68777079743,980.31222920257,780.31222920257,980.31222920257,419.68777079743,619.68777079743,419.68777079743,619.68777079743,780.31222920257,4,0,0,0,vertical,horizontal,vertical,vertical
3a,22,100347,4,35,179,21,M,interleaved,variable,homogeneous,4,present,0.618138074874878,1,horizontal,horizontal,1,5,red,1,3,980.31222920257,780.31222920257,619.68777079743,419.68777079743,980.31222920257,780.31222920257,980.31222920257,419.68777079743,619.68777079743,419.68777079743,619.68777079743,780.31222920257,4,0,0,0,horizontal,vertical,horizontal,horizontal
3a,22,100347,4,36,180,21,M,interleaved,variable,homogeneous,4,present,1.31052398681641,1,horizontal,horizontal,1,2,red,2,1,980.31222920257,419.68777079743,980.31222920257,780.31222920257,980.31222920257,780.31222920257,980.31222920257,419.68777079743,619.68777079743,419.68777079743,619.68777079743,780.31222920257,0,4,0,0,vertical,horizontal,vertical,horizontal
3a,22,100347,4,37,181,21,M,interleaved,variable,homogeneous,4,present,0.746584892272949,1,vertical,vertical,1,5,green,2,1,980.31222920257,419.68777079743,980.31222920257,780.31222920257,980.31222920257,780.31222920257,980.31222920257,419.68777079743,619.68777079743,419.68777079743,619.68777079743,780.31222920257,0,4,0,0,horizontal,vertical,horizontal,vertical
3a,22,100347,4,38,182,21,M,interleaved,variable,homogeneous,4,present,0.855217933654785,1,vertical,vertical,1,3,green,4,1,619.68777079743,780.31222920257,980.31222920257,780.31222920257,980.31222920257,780.31222920257,980.31222920257,419.68777079743,619.68777079743,419.68777079743,619.68777079743,780.31222920257,0,0,0,4,vertical,horizontal,horizontal,vertical
3a,22,100347,4,39,183,21,M,interleaved,variable,homogeneous,4,absent,0.907809972763062,1,horizontal,horizontal,1,8,red,3,NaN,619.68777079743,419.68777079743,NaN,NaN,980.31222920257,780.31222920257,980.31222920257,419.68777079743,619.68777079743,419.68777079743,619.68777079743,780.31222920257,0,0,4,0,vertical,horizontal,horizontal,vertical
3a,22,100347,4,40,184,21,M,interleaved,variable,homogeneous,4,absent,0.639749050140381,1,vertical,vertical,1,2,green,3,NaN,619.68777079743,419.68777079743,NaN,NaN,980.31222920257,780.31222920257,980.31222920257,419.68777079743,619.68777079743,419.68777079743,619.68777079743,780.31222920257,0,0,4,0,horizontal,horizontal,vertical,vertical
3a,22,100347,4,41,185,21,M,interleaved,variable,homogeneous,4,absent,0.612105131149292,1,horizontal,horizontal,1,2,red,4,NaN,619.68777079743,780.31222920257,NaN,NaN,980.31222920257,780.31222920257,980.31222920257,419.68777079743,619.68777079743,419.68777079743,619.68777079743,780.31222920257,0,0,0,4,vertical,vertical,horizontal,horizontal
3a,22,100347,4,42,186,21,M,interleaved,variable,homogeneous,4,present,0.568279027938843,1,horizontal,horizontal,1,2,green,4,1,619.68777079743,780.31222920257,980.31222920257,780.31222920257,980.31222920257,780.31222920257,980.31222920257,419.68777079743,619.68777079743,419.68777079743,619.68777079743,780.31222920257,0,0,0,4,horizontal,horizontal,vertical,horizontal
3a,22,100347,4,43,187,21,M,interleaved,variable,homogeneous,4,present,0.805107831954956,1,vertical,vertical,1,5,red,2,4,980.31222920257,419.68777079743,619.68777079743,780.31222920257,980.31222920257,780.31222920257,980.31222920257,419.68777079743,619.68777079743,419.68777079743,619.68777079743,780.31222920257,0,4,0,0,horizontal,vertical,horizontal,vertical
3a,22,100347,4,44,188,21,M,interleaved,variable,homogeneous,4,absent,0.577095985412598,1,vertical,vertical,1,5,green,4,NaN,619.68777079743,780.31222920257,NaN,NaN,980.31222920257,780.31222920257,980.31222920257,419.68777079743,619.68777079743,419.68777079743,619.68777079743,780.31222920257,0,0,0,4,vertical,horizontal,horizontal,vertical
3a,22,100347,4,45,189,21,M,interleaved,variable,homogeneous,4,present,0.877387046813965,1,horizontal,horizontal,1,5,green,2,3,980.31222920257,419.68777079743,619.68777079743,419.68777079743,980.31222920257,780.31222920257,980.31222920257,419.68777079743,619.68777079743,419.68777079743,619.68777079743,780.31222920257,0,4,0,0,horizontal,horizontal,vertical,horizontal
3a,22,100347,4,46,190,21,M,interleaved,variable,homogeneous,4,present,0.993618011474609,1,vertical,vertical,1,2,red,1,2,980.31222920257,780.31222920257,980.31222920257,419.68777079743,980.31222920257,780.31222920257,980.31222920257,419.68777079743,619.68777079743,419.68777079743,619.68777079743,780.31222920257,4,0,0,0,vertical,horizontal,horizontal,horizontal
3a,22,100347,4,47,191,21,M,interleaved,variable,homogeneous,4,present,1.16628098487854,1,horizontal,horizontal,1,5,red,2,3,980.31222920257,419.68777079743,619.68777079743,419.68777079743,980.31222920257,780.31222920257,980.31222920257,419.68777079743,619.68777079743,419.68777079743,619.68777079743,780.31222920257,0,4,0,0,horizontal,horizontal,horizontal,vertical
3a,22,100347,4,48,192,21,M,interleaved,variable,homogeneous,4,present,1.17840218544006,1,horizontal,horizontal,1,3,red,2,1,980.31222920257,419.68777079743,980.31222920257,780.31222920257,980.31222920257,780.31222920257,980.31222920257,419.68777079743,619.68777079743,419.68777079743,619.68777079743,780.31222920257,0,4,0,0,vertical,horizontal,vertical,horizontal
3a,22,100347,5,1,193,21,M,interleaved,constant,homogeneous,4,absent,0.878625869750977,1,horizontal,horizontal,1,3,green,4,NaN,619.68777079743,780.31222920257,NaN,NaN,980.31222920257,780.31222920257,980.31222920257,419.68777079743,619.68777079743,419.68777079743,619.68777079743,780.31222920257,0,0,0,4,vertical,horizontal,horizontal,horizontal
3a,22,100347,5,2,194,21,M,interleaved,constant,homogeneous,4,absent,0.507195949554443,1,horizontal,horizontal,1,3,green,4,NaN,619.68777079743,780.31222920257,NaN,NaN,980.31222920257,780.31222920257,980.31222920257,419.68777079743,619.68777079743,419.68777079743,619.68777079743,780.31222920257,0,0,0,4,vertical,vertical,vertical,horizontal
3a,22,100347,5,3,195,21,M,interleaved,constant,homogeneous,4,present,0.503602981567383,1,horizontal,horizontal,1,5,green,3,4,619.68777079743,419.68777079743,619.68777079743,780.31222920257,980.31222920257,780.31222920257,980.31222920257,419.68777079743,619.68777079743,419.68777079743,619.68777079743,780.31222920257,0,0,4,0,horizontal,vertical,horizontal,horizontal
3a,22,100347,5,4,196,21,M,interleaved,constant,homogeneous,4,absent,0.508090019226074,1,horizontal,horizontal,1,8,green,4,NaN,619.68777079743,780.31222920257,NaN,NaN,980.31222920257,780.31222920257,980.31222920257,419.68777079743,619.68777079743,419.68777079743,619.68777079743,780.31222920257,0,0,0,4,horizontal,vertical,vertical,horizontal
3a,22,100347,5,5,197,21,M,interleaved,constant,homogeneous,4,present,0.448334932327271,1,horizontal,horizontal,1,2,green,4,1,619.68777079743,780.31222920257,980.31222920257,780.31222920257,980.31222920257,780.31222920257,980.31222920257,419.68777079743,619.68777079743,419.68777079743,619.68777079743,780.31222920257,0,0,0,4,horizontal,vertical,vertical,horizontal
3a,22,100347,5,6,198,21,M,interleaved,constant,homogeneous,4,present,0.532474994659424,1,horizontal,horizontal,1,2,green,3,2,619.68777079743,419.68777079743,980.31222920257,419.68777079743,980.31222920257,780.31222920257,980.31222920257,419.68777079743,619.68777079743,419.68777079743,619.68777079743,780.31222920257,0,0,4,0,vertical,vertical,horizontal,vertical
3a,22,100347,5,7,199,21,M,interleaved,constant,homogeneous,4,present,0.464608907699585,0,vertical,horizontal,1,5,green,4,2,619.68777079743,780.31222920257,980.31222920257,419.68777079743,980.31222920257,780.31222920257,980.31222920257,419.68777079743,619.68777079743,419.68777079743,619.68777079743,780.31222920257,0,0,0,4,horizontal,vertical,vertical,vertical
3a,22,100347,5,8,200,21,M,interleaved,constant,homogeneous,4,present,0.989304065704346,1,vertical,vertical,1,5,green,4,3,619.68777079743,780.31222920257,619.68777079743,419.68777079743,980.31222920257,780.31222920257,980.31222920257,419.68777079743,619.68777079743,419.68777079743,619.68777079743,780.31222920257,0,0,0,4,vertical,vertical,horizontal,vertical
3a,22,100347,5,9,201,21,M,interleaved,constant,homogeneous,4,absent,0.585239887237549,1,horizontal,horizontal,1,5,green,4,NaN,619.68777079743,780.31222920257,NaN,NaN,980.31222920257,780.31222920257,980.31222920257,419.68777079743,619.68777079743,419.68777079743,619.68777079743,780.31222920257,0,0,0,4,horizontal,vertical,vertical,horizontal
3a,22,100347,5,10,202,21,M,interleaved,constant,homogeneous,4,absent,0.589919090270996,1,horizontal,horizontal,1,2,green,3,NaN,619.68777079743,419.68777079743,NaN,NaN,980.31222920257,780.31222920257,980.31222920257,419.68777079743,619.68777079743,419.68777079743,619.68777079743,780.31222920257,0,0,4,0,horizontal,horizontal,horizontal,vertical
3a,22,100347,5,11,203,21,M,interleaved,constant,homogeneous,4,present,0.490056037902832,1,horizontal,horizontal,1,3,green,1,2,980.31222920257,780.31222920257,980.31222920257,419.68777079743,980.31222920257,780.31222920257,980.31222920257,419.68777079743,619.68777079743,419.68777079743,619.68777079743,780.31222920257,4,0,0,0,horizontal,vertical,vertical,horizontal
3a,22,100347,5,12,204,21,M,interleaved,constant,homogeneous,4,present,0.502326965332031,0,vertical,horizontal,1,3,green,1,4,980.31222920257,780.31222920257,619.68777079743,780.31222920257,980.31222920257,780.31222920257,980.31222920257,419.68777079743,619.68777079743,419.68777079743,619.68777079743,780.31222920257,4,0,0,0,vertical,vertical,horizontal,vertical
3a,22,100347,5,13,205,21,M,interleaved,constant,homogeneous,4,absent,0.490545988082886,1,vertical,vertical,1,2,green,1,NaN,980.31222920257,780.31222920257,NaN,NaN,980.31222920257,780.31222920257,980.31222920257,419.68777079743,619.68777079743,419.68777079743,619.68777079743,780.31222920257,4,0,0,0,vertical,horizontal,vertical,vertical
3a,22,100347,5,14,206,21,M,interleaved,constant,homogeneous,4,present,0.88713002204895,1,vertical,vertical,1,3,green,3,1,619.68777079743,419.68777079743,980.31222920257,780.31222920257,980.31222920257,780.31222920257,980.31222920257,419.68777079743,619.68777079743,419.68777079743,619.68777079743,780.31222920257,0,0,4,0,vertical,vertical,vertical,vertical
3a,22,100347,5,15,207,21,M,interleaved,constant,homogeneous,4,present,0.891453981399536,1,vertical,vertical,1,2,green,3,1,619.68777079743,419.68777079743,980.31222920257,780.31222920257,980.31222920257,780.31222920257,980.31222920257,419.68777079743,619.68777079743,419.68777079743,619.68777079743,780.31222920257,0,0,4,0,vertical,horizontal,vertical,vertical
3a,22,100347,5,16,208,21,M,interleaved,constant,homogeneous,4,present,0.55968189239502,1,horizontal,horizontal,1,2,green,3,4,619.68777079743,419.68777079743,619.68777079743,780.31222920257,980.31222920257,780.31222920257,980.31222920257,419.68777079743,619.68777079743,419.68777079743,619.68777079743,780.31222920257,0,0,4,0,vertical,horizontal,horizontal,vertical
3a,22,100347,5,17,209,21,M,interleaved,constant,homogeneous,4,present,0.531903982162476,0,horizontal,vertical,1,2,green,3,4,619.68777079743,419.68777079743,619.68777079743,780.31222920257,980.31222920257,780.31222920257,980.31222920257,419.68777079743,619.68777079743,419.68777079743,619.68777079743,780.31222920257,0,0,4,0,vertical,horizontal,horizontal,horizontal
3a,22,100347,5,18,210,21,M,interleaved,constant,homogeneous,4,present,0.608182907104492,1,vertical,vertical,1,3,green,2,3,980.31222920257,419.68777079743,619.68777079743,419.68777079743,980.31222920257,780.31222920257,980.31222920257,419.68777079743,619.68777079743,419.68777079743,619.68777079743,780.31222920257,0,4,0,0,horizontal,vertical,horizontal,horizontal
3a,22,100347,5,19,211,21,M,interleaved,constant,homogeneous,4,present,0.564806938171387,1,horizontal,horizontal,1,8,green,4,1,619.68777079743,780.31222920257,980.31222920257,780.31222920257,980.31222920257,780.31222920257,980.31222920257,419.68777079743,619.68777079743,419.68777079743,619.68777079743,780.31222920257,0,0,0,4,vertical,horizontal,horizontal,horizontal
3a,22,100347,5,20,212,21,M,interleaved,constant,homogeneous,4,present,0.529113054275513,1,horizontal,horizontal,1,3,green,2,1,980.31222920257,419.68777079743,980.31222920257,780.31222920257,980.31222920257,780.31222920257,980.31222920257,419.68777079743,619.68777079743,419.68777079743,619.68777079743,780.31222920257,0,4,0,0,horizontal,horizontal,vertical,horizontal
3a,22,100347,5,21,213,21,M,interleaved,constant,homogeneous,4,absent,0.549323081970215,1,vertical,vertical,1,2,green,1,NaN,980.31222920257,780.31222920257,NaN,NaN,980.31222920257,780.31222920257,980.31222920257,419.68777079743,619.68777079743,419.68777079743,619.68777079743,780.31222920257,4,0,0,0,vertical,horizontal,vertical,horizontal
3a,22,100347,5,22,214,21,M,interleaved,constant,homogeneous,4,present,0.625616073608398,1,vertical,vertical,1,5,green,1,2,980.31222920257,780.31222920257,980.31222920257,419.68777079743,980.31222920257,780.31222920257,980.31222920257,419.68777079743,619.68777079743,419.68777079743,619.68777079743,780.31222920257,4,0,0,0,vertical,vertical,horizontal,vertical
3a,22,100347,5,23,215,21,M,interleaved,constant,homogeneous,4,present,0.853844881057739,1,horizontal,horizontal,1,2,green,2,4,980.31222920257,419.68777079743,619.68777079743,780.31222920257,980.31222920257,780.31222920257,980.31222920257,419.68777079743,619.68777079743,419.68777079743,619.68777079743,780.31222920257,0,4,0,0,vertical,horizontal,horizontal,horizontal
3a,22,100347,5,24,216,21,M,interleaved,constant,homogeneous,4,present,0.610112905502319,1,horizontal,horizontal,1,3,green,2,3,980.31222920257,419.68777079743,619.68777079743,419.68777079743,980.31222920257,780.31222920257,980.31222920257,419.68777079743,619.68777079743,419.68777079743,619.68777079743,780.31222920257,0,4,0,0,horizontal,horizontal,horizontal,vertical
3a,22,100347,5,25,217,21,M,interleaved,constant,homogeneous,4,present,0.59064793586731,1,vertical,vertical,1,3,green,1,4,980.31222920257,780.31222920257,619.68777079743,780.31222920257,980.31222920257,780.31222920257,980.31222920257,419.68777079743,619.68777079743,419.68777079743,619.68777079743,780.31222920257,4,0,0,0,vertical,vertical,vertical,horizontal
3a,22,100347,5,26,218,21,M,interleaved,constant,homogeneous,4,absent,0.595043182373047,1,vertical,vertical,1,2,green,3,NaN,619.68777079743,419.68777079743,NaN,NaN,980.31222920257,780.31222920257,980.31222920257,419.68777079743,619.68777079743,419.68777079743,619.68777079743,780.31222920257,0,0,4,0,vertical,vertical,vertical,vertical
3a,22,100347,5,27,219,21,M,interleaved,constant,homogeneous,4,absent,0.559343099594116,1,vertical,vertical,1,5,green,3,NaN,619.68777079743,419.68777079743,NaN,NaN,980.31222920257,780.31222920257,980.31222920257,419.68777079743,619.68777079743,419.68777079743,619.68777079743,780.31222920257,0,0,4,0,horizontal,vertical,vertical,horizontal
3a,22,100347,5,28,220,21,M,interleaved,constant,homogeneous,4,present,1.0916759967804,0,horizontal,vertical,1,8,green,1,2,980.31222920257,780.31222920257,980.31222920257,419.68777079743,980.31222920257,780.31222920257,980.31222920257,419.68777079743,619.68777079743,419.68777079743,619.68777079743,780.31222920257,4,0,0,0,horizontal,vertical,horizontal,horizontal
3a,22,100347,5,29,221,21,M,interleaved,constant,homogeneous,4,present,0.575924158096313,1,vertical,vertical,1,5,green,4,1,619.68777079743,780.31222920257,980.31222920257,780.31222920257,980.31222920257,780.31222920257,980.31222920257,419.68777079743,619.68777079743,419.68777079743,619.68777079743,780.31222920257,0,0,0,4,horizontal,vertical,vertical,vertical
3a,22,100347,5,30,222,21,M,interleaved,constant,homogeneous,4,present,0.588450193405151,1,horizontal,horizontal,1,5,green,3,1,619.68777079743,419.68777079743,980.31222920257,780.31222920257,980.31222920257,780.31222920257,980.31222920257,419.68777079743,619.68777079743,419.68777079743,619.68777079743,780.31222920257,0,0,4,0,vertical,vertical,horizontal,vertical
3a,22,100347,5,31,223,21,M,interleaved,constant,homogeneous,4,present,0.640759944915771,1,vertical,vertical,1,2,green,3,2,619.68777079743,419.68777079743,980.31222920257,419.68777079743,980.31222920257,780.31222920257,980.31222920257,419.68777079743,619.68777079743,419.68777079743,619.68777079743,780.31222920257,0,0,4,0,vertical,horizontal,vertical,vertical
3a,22,100347,5,32,224,21,M,interleaved,constant,homogeneous,4,present,0.837049961090088,1,horizontal,horizontal,1,2,green,2,1,980.31222920257,419.68777079743,980.31222920257,780.31222920257,980.31222920257,780.31222920257,980.31222920257,419.68777079743,619.68777079743,419.68777079743,619.68777079743,780.31222920257,0,4,0,0,vertical,horizontal,vertical,vertical
3a,22,100347,5,33,225,21,M,interleaved,constant,homogeneous,4,absent,0.809356927871704,1,vertical,vertical,1,8,green,1,NaN,980.31222920257,780.31222920257,NaN,NaN,980.31222920257,780.31222920257,980.31222920257,419.68777079743,619.68777079743,419.68777079743,619.68777079743,780.31222920257,4,0,0,0,vertical,vertical,horizontal,horizontal
3a,22,100347,5,34,226,21,M,interleaved,constant,homogeneous,4,absent,0.621591091156006,1,horizontal,horizontal,1,2,green,4,NaN,619.68777079743,780.31222920257,NaN,NaN,980.31222920257,780.31222920257,980.31222920257,419.68777079743,619.68777079743,419.68777079743,619.68777079743,780.31222920257,0,0,0,4,horizontal,horizontal,horizontal,horizontal
3a,22,100347,5,35,227,21,M,interleaved,constant,homogeneous,4,present,0.618257999420166,1,horizontal,horizontal,1,3,green,3,2,619.68777079743,419.68777079743,980.31222920257,419.68777079743,980.31222920257,780.31222920257,980.31222920257,419.68777079743,619.68777079743,419.68777079743,619.68777079743,780.31222920257,0,0,4,0,horizontal,vertical,horizontal,horizontal
3a,22,100347,5,36,228,21,M,interleaved,constant,homogeneous,4,present,0.654313087463379,1,vertical,vertical,1,2,green,4,3,619.68777079743,780.31222920257,619.68777079743,419.68777079743,980.31222920257,780.31222920257,980.31222920257,419.68777079743,619.68777079743,419.68777079743,619.68777079743,780.31222920257,0,0,0,4,vertical,vertical,horizontal,vertical
3a,22,100347,5,37,229,21,M,interleaved,constant,homogeneous,4,absent,0.73055100440979,1,vertical,vertical,1,3,green,2,NaN,980.31222920257,419.68777079743,NaN,NaN,980.31222920257,780.31222920257,980.31222920257,419.68777079743,619.68777079743,419.68777079743,619.68777079743,780.31222920257,0,4,0,0,vertical,vertical,vertical,vertical
3a,22,100347,5,38,230,21,M,interleaved,constant,homogeneous,4,present,0.782938003540039,1,vertical,vertical,1,2,green,2,3,980.31222920257,419.68777079743,619.68777079743,419.68777079743,980.31222920257,780.31222920257,980.31222920257,419.68777079743,619.68777079743,419.68777079743,619.68777079743,780.31222920257,0,4,0,0,vertical,vertical,vertical,vertical
3a,22,100347,5,39,231,21,M,interleaved,constant,homogeneous,4,present,0.587059020996094,1,horizontal,horizontal,1,5,green,2,4,980.31222920257,419.68777079743,619.68777079743,780.31222920257,980.31222920257,780.31222920257,980.31222920257,419.68777079743,619.68777079743,419.68777079743,619.68777079743,780.31222920257,0,4,0,0,horizontal,horizontal,horizontal,horizontal
3a,22,100347,5,40,232,21,M,interleaved,constant,homogeneous,4,absent,0.66352915763855,1,vertical,vertical,1,3,green,3,NaN,619.68777079743,419.68777079743,NaN,NaN,980.31222920257,780.31222920257,980.31222920257,419.68777079743,619.68777079743,419.68777079743,619.68777079743,780.31222920257,0,0,4,0,horizontal,horizontal,vertical,horizontal
3a,22,100347,5,41,233,21,M,interleaved,constant,homogeneous,4,absent,0.651983976364136,1,horizontal,horizontal,1,2,green,2,NaN,980.31222920257,419.68777079743,NaN,NaN,980.31222920257,780.31222920257,980.31222920257,419.68777079743,619.68777079743,419.68777079743,619.68777079743,780.31222920257,0,4,0,0,horizontal,horizontal,vertical,vertical
3a,22,100347,5,42,234,21,M,interleaved,constant,homogeneous,4,present,0.592206001281738,1,vertical,vertical,1,2,green,1,3,980.31222920257,780.31222920257,619.68777079743,419.68777079743,980.31222920257,780.31222920257,980.31222920257,419.68777079743,619.68777079743,419.68777079743,619.68777079743,780.31222920257,4,0,0,0,vertical,vertical,horizontal,horizontal
3a,22,100347,5,43,235,21,M,interleaved,constant,homogeneous,4,absent,0.588673114776611,1,horizontal,horizontal,1,5,green,3,NaN,619.68777079743,419.68777079743,NaN,NaN,980.31222920257,780.31222920257,980.31222920257,419.68777079743,619.68777079743,419.68777079743,619.68777079743,780.31222920257,0,0,4,0,vertical,horizontal,horizontal,vertical
3a,22,100347,5,44,236,21,M,interleaved,constant,homogeneous,4,present,0.912773132324219,1,vertical,vertical,1,8,green,4,2,619.68777079743,780.31222920257,980.31222920257,419.68777079743,980.31222920257,780.31222920257,980.31222920257,419.68777079743,619.68777079743,419.68777079743,619.68777079743,780.31222920257,0,0,0,4,vertical,vertical,vertical,vertical
3a,22,100347,5,45,237,21,M,interleaved,constant,homogeneous,4,absent,0.621362924575806,1,vertical,vertical,1,5,green,4,NaN,619.68777079743,780.31222920257,NaN,NaN,980.31222920257,780.31222920257,980.31222920257,419.68777079743,619.68777079743,419.68777079743,619.68777079743,780.31222920257,0,0,0,4,horizontal,horizontal,horizontal,vertical
3a,22,100347,5,46,238,21,M,interleaved,constant,homogeneous,4,present,0.681581974029541,1,horizontal,horizontal,1,5,green,3,2,619.68777079743,419.68777079743,980.31222920257,419.68777079743,980.31222920257,780.31222920257,980.31222920257,419.68777079743,619.68777079743,419.68777079743,619.68777079743,780.31222920257,0,0,4,0,horizontal,horizontal,horizontal,horizontal
3a,22,100347,5,47,239,21,M,interleaved,constant,homogeneous,4,present,0.685982942581177,1,vertical,vertical,1,8,green,4,3,619.68777079743,780.31222920257,619.68777079743,419.68777079743,980.31222920257,780.31222920257,980.31222920257,419.68777079743,619.68777079743,419.68777079743,619.68777079743,780.31222920257,0,0,0,4,horizontal,horizontal,vertical,vertical
3a,22,100347,5,48,240,21,M,interleaved,constant,homogeneous,4,present,0.770279169082642,0,vertical,horizontal,1,2,green,2,4,980.31222920257,419.68777079743,619.68777079743,780.31222920257,980.31222920257,780.31222920257,980.31222920257,419.68777079743,619.68777079743,419.68777079743,619.68777079743,780.31222920257,0,4,0,0,vertical,vertical,horizontal,horizontal
3a,22,100347,6,1,241,21,M,interleaved,variable,homogeneous,4,present,0.845139980316162,0,horizontal,vertical,1,2,green,1,4,980.31222920257,780.31222920257,619.68777079743,780.31222920257,980.31222920257,780.31222920257,980.31222920257,419.68777079743,619.68777079743,419.68777079743,619.68777079743,780.31222920257,4,0,0,0,horizontal,vertical,vertical,vertical
3a,22,100347,6,2,242,21,M,interleaved,variable,homogeneous,4,present,0.809685945510864,1,vertical,vertical,1,3,red,2,1,980.31222920257,419.68777079743,980.31222920257,780.31222920257,980.31222920257,780.31222920257,980.31222920257,419.68777079743,619.68777079743,419.68777079743,619.68777079743,780.31222920257,0,4,0,0,horizontal,vertical,horizontal,vertical
3a,22,100347,6,3,243,21,M,interleaved,variable,homogeneous,4,absent,0.669874906539917,1,horizontal,horizontal,1,2,red,3,NaN,619.68777079743,419.68777079743,NaN,NaN,980.31222920257,780.31222920257,980.31222920257,419.68777079743,619.68777079743,419.68777079743,619.68777079743,780.31222920257,0,0,4,0,horizontal,vertical,horizontal,vertical
3a,22,100347,6,4,244,21,M,interleaved,variable,homogeneous,4,present,0.858317852020264,1,vertical,vertical,1,3,red,4,2,619.68777079743,780.31222920257,980.31222920257,419.68777079743,980.31222920257,780.31222920257,980.31222920257,419.68777079743,619.68777079743,419.68777079743,619.68777079743,780.31222920257,0,0,0,4,vertical,horizontal,horizontal,vertical
3a,22,100347,6,5,245,21,M,interleaved,variable,homogeneous,4,present,0.71052098274231,1,vertical,vertical,1,3,green,1,3,980.31222920257,780.31222920257,619.68777079743,419.68777079743,980.31222920257,780.31222920257,980.31222920257,419.68777079743,619.68777079743,419.68777079743,619.68777079743,780.31222920257,4,0,0,0,vertical,horizontal,horizontal,horizontal
3a,22,100347,6,6,246,21,M,interleaved,variable,homogeneous,4,absent,0.762984991073608,1,vertical,vertical,1,2,green,2,NaN,980.31222920257,419.68777079743,NaN,NaN,980.31222920257,780.31222920257,980.31222920257,419.68777079743,619.68777079743,419.68777079743,619.68777079743,780.31222920257,0,4,0,0,horizontal,vertical,horizontal,vertical
3a,22,100347,6,7,247,21,M,interleaved,variable,homogeneous,4,absent,0.663334846496582,1,horizontal,horizontal,1,5,green,2,NaN,980.31222920257,419.68777079743,NaN,NaN,980.31222920257,780.31222920257,980.31222920257,419.68777079743,619.68777079743,419.68777079743,619.68777079743,780.31222920257,0,4,0,0,vertical,horizontal,horizontal,horizontal
3a,22,100347,6,8,248,21,M,interleaved,variable,homogeneous,4,present,0.811508893966675,1,vertical,vertical,1,8,red,4,1,619.68777079743,780.31222920257,980.31222920257,780.31222920257,980.31222920257,780.31222920257,980.31222920257,419.68777079743,619.68777079743,419.68777079743,619.68777079743,780.31222920257,0,0,0,4,horizontal,vertical,vertical,vertical
3a,22,100347,6,9,249,21,M,interleaved,variable,homogeneous,4,present,0.695870876312256,1,horizontal,horizontal,1,3,red,3,1,619.68777079743,419.68777079743,980.31222920257,780.31222920257,980.31222920257,780.31222920257,980.31222920257,419.68777079743,619.68777079743,419.68777079743,619.68777079743,780.31222920257,0,0,4,0,vertical,horizontal,horizontal,vertical
3a,22,100347,6,10,250,21,M,interleaved,variable,homogeneous,4,absent,0.860105991363525,1,vertical,vertical,1,2,green,2,NaN,980.31222920257,419.68777079743,NaN,NaN,980.31222920257,780.31222920257,980.31222920257,419.68777079743,619.68777079743,419.68777079743,619.68777079743,780.31222920257,0,4,0,0,vertical,vertical,horizontal,horizontal
3a,22,100347,6,11,251,21,M,interleaved,variable,homogeneous,4,absent,0.848655223846436,1,horizontal,horizontal,1,2,green,2,NaN,980.31222920257,419.68777079743,NaN,NaN,980.31222920257,780.31222920257,980.31222920257,419.68777079743,619.68777079743,419.68777079743,619.68777079743,780.31222920257,0,4,0,0,horizontal,horizontal,horizontal,horizontal
3a,22,100347,6,12,252,21,M,interleaved,variable,homogeneous,4,present,0.628977060317993,1,vertical,vertical,1,2,red,3,1,619.68777079743,419.68777079743,980.31222920257,780.31222920257,980.31222920257,780.31222920257,980.31222920257,419.68777079743,619.68777079743,419.68777079743,619.68777079743,780.31222920257,0,0,4,0,vertical,horizontal,vertical,horizontal
3a,22,100347,6,13,253,21,M,interleaved,variable,homogeneous,4,present,0.649297952651978,1,horizontal,horizontal,1,2,green,1,3,980.31222920257,780.31222920257,619.68777079743,419.68777079743,980.31222920257,780.31222920257,980.31222920257,419.68777079743,619.68777079743,419.68777079743,619.68777079743,780.31222920257,4,0,0,0,horizontal,vertical,vertical,vertical
3a,22,100347,6,14,254,21,M,interleaved,variable,homogeneous,4,absent,0.677445888519287,1,vertical,vertical,1,3,green,2,NaN,980.31222920257,419.68777079743,NaN,NaN,980.31222920257,780.31222920257,980.31222920257,419.68777079743,619.68777079743,419.68777079743,619.68777079743,780.31222920257,0,4,0,0,horizontal,vertical,horizontal,vertical
3a,22,100347,6,15,255,21,M,interleaved,variable,homogeneous,4,present,0.665812969207764,1,vertical,vertical,1,8,red,3,1,619.68777079743,419.68777079743,980.31222920257,780.31222920257,980.31222920257,780.31222920257,980.31222920257,419.68777079743,619.68777079743,419.68777079743,619.68777079743,780.31222920257,0,0,4,0,vertical,horizontal,vertical,vertical
3a,22,100347,6,16,256,21,M,interleaved,variable,homogeneous,4,present,0.838204145431519,1,horizontal,horizontal,1,5,red,3,4,619.68777079743,419.68777079743,619.68777079743,780.31222920257,980.31222920257,780.31222920257,980.31222920257,419.68777079743,619.68777079743,419.68777079743,619.68777079743,780.31222920257,0,0,4,0,vertical,horizontal,horizontal,horizontal
3a,22,100347,6,17,257,21,M,interleaved,variable,homogeneous,4,present,1.09048795700073,1,vertical,vertical,1,5,red,3,4,619.68777079743,419.68777079743,619.68777079743,780.31222920257,980.31222920257,780.31222920257,980.31222920257,419.68777079743,619.68777079743,419.68777079743,619.68777079743,780.31222920257,0,0,4,0,horizontal,vertical,vertical,vertical
3a,22,100347,6,18,258,21,M,interleaved,variable,homogeneous,4,present,1.15092802047729,1,horizontal,horizontal,1,5,green,2,4,980.31222920257,419.68777079743,619.68777079743,780.31222920257,980.31222920257,780.31222920257,980.31222920257,419.68777079743,619.68777079743,419.68777079743,619.68777079743,780.31222920257,0,4,0,0,horizontal,horizontal,vertical,horizontal
3a,22,100347,6,19,259,21,M,interleaved,variable,homogeneous,4,absent,0.619256973266602,1,vertical,vertical,1,5,red,4,NaN,619.68777079743,780.31222920257,NaN,NaN,980.31222920257,780.31222920257,980.31222920257,419.68777079743,619.68777079743,419.68777079743,619.68777079743,780.31222920257,0,0,0,4,vertical,vertical,horizontal,vertical
3a,22,100347,6,20,260,21,M,interleaved,variable,homogeneous,4,present,0.879697799682617,1,horizontal,horizontal,1,2,green,3,4,619.68777079743,419.68777079743,619.68777079743,780.31222920257,980.31222920257,780.31222920257,980.31222920257,419.68777079743,619.68777079743,419.68777079743,619.68777079743,780.31222920257,0,0,4,0,vertical,vertical,horizontal,vertical
3a,22,100347,6,21,261,21,M,interleaved,variable,homogeneous,4,present,1.04400897026062,0,horizontal,vertical,1,2,red,1,3,980.31222920257,780.31222920257,619.68777079743,419.68777079743,980.31222920257,780.31222920257,980.31222920257,419.68777079743,619.68777079743,419.68777079743,619.68777079743,780.31222920257,4,0,0,0,horizontal,vertical,horizontal,horizontal
3a,22,100347,6,22,262,21,M,interleaved,variable,homogeneous,4,present,0.712230920791626,1,horizontal,horizontal,1,8,green,2,1,980.31222920257,419.68777079743,980.31222920257,780.31222920257,980.31222920257,780.31222920257,980.31222920257,419.68777079743,619.68777079743,419.68777079743,619.68777079743,780.31222920257,0,4,0,0,vertical,horizontal,horizontal,horizontal
3a,22,100347,6,23,263,21,M,interleaved,variable,homogeneous,4,present,0.660549163818359,1,vertical,vertical,1,5,green,1,2,980.31222920257,780.31222920257,980.31222920257,419.68777079743,980.31222920257,780.31222920257,980.31222920257,419.68777079743,619.68777079743,419.68777079743,619.68777079743,780.31222920257,4,0,0,0,vertical,horizontal,vertical,vertical
3a,22,100347,6,24,264,21,M,interleaved,variable,homogeneous,4,present,0.609018087387085,1,vertical,vertical,1,5,green,1,3,980.31222920257,780.31222920257,619.68777079743,419.68777079743,980.31222920257,780.31222920257,980.31222920257,419.68777079743,619.68777079743,419.68777079743,619.68777079743,780.31222920257,4,0,0,0,vertical,vertical,vertical,horizontal
3a,22,100347,6,25,265,21,M,interleaved,variable,homogeneous,4,present,0.533257961273193,1,horizontal,horizontal,1,2,red,1,4,980.31222920257,780.31222920257,619.68777079743,780.31222920257,980.31222920257,780.31222920257,980.31222920257,419.68777079743,619.68777079743,419.68777079743,619.68777079743,780.31222920257,4,0,0,0,horizontal,vertical,horizontal,horizontal
3a,22,100347,6,26,266,21,M,interleaved,variable,homogeneous,4,absent,0.577587127685547,1,horizontal,horizontal,1,5,red,2,NaN,980.31222920257,419.68777079743,NaN,NaN,980.31222920257,780.31222920257,980.31222920257,419.68777079743,619.68777079743,419.68777079743,619.68777079743,780.31222920257,0,4,0,0,vertical,horizontal,vertical,horizontal
3a,22,100347,6,27,267,21,M,interleaved,variable,homogeneous,4,present,0.758075952529907,1,horizontal,horizontal,1,2,green,3,2,619.68777079743,419.68777079743,980.31222920257,419.68777079743,980.31222920257,780.31222920257,980.31222920257,419.68777079743,619.68777079743,419.68777079743,619.68777079743,780.31222920257,0,0,4,0,vertical,horizontal,horizontal,vertical
3a,22,100347,6,28,268,21,M,interleaved,variable,homogeneous,4,absent,0.498373985290527,1,horizontal,horizontal,1,3,red,3,NaN,619.68777079743,419.68777079743,NaN,NaN,980.31222920257,780.31222920257,980.31222920257,419.68777079743,619.68777079743,419.68777079743,619.68777079743,780.31222920257,0,0,4,0,horizontal,horizontal,horizontal,vertical
3a,22,100347,6,29,269,21,M,interleaved,variable,homogeneous,4,absent,0.582792997360229,1,horizontal,horizontal,1,8,red,2,NaN,980.31222920257,419.68777079743,NaN,NaN,980.31222920257,780.31222920257,980.31222920257,419.68777079743,619.68777079743,419.68777079743,619.68777079743,780.31222920257,0,4,0,0,horizontal,horizontal,vertical,horizontal
3a,22,100347,6,30,270,21,M,interleaved,variable,homogeneous,4,present,0.939068794250488,1,vertical,vertical,1,2,red,2,4,980.31222920257,419.68777079743,619.68777079743,780.31222920257,980.31222920257,780.31222920257,980.31222920257,419.68777079743,619.68777079743,419.68777079743,619.68777079743,780.31222920257,0,4,0,0,vertical,vertical,horizontal,vertical
3a,22,100347,6,31,271,21,M,interleaved,variable,homogeneous,4,absent,0.623372077941895,1,horizontal,horizontal,1,2,green,4,NaN,619.68777079743,780.31222920257,NaN,NaN,980.31222920257,780.31222920257,980.31222920257,419.68777079743,619.68777079743,419.68777079743,619.68777079743,780.31222920257,0,0,0,4,horizontal,vertical,horizontal,horizontal
3a,22,100347,6,32,272,21,M,interleaved,variable,homogeneous,4,present,0.587723970413208,1,horizontal,horizontal,1,3,green,3,2,619.68777079743,419.68777079743,980.31222920257,419.68777079743,980.31222920257,780.31222920257,980.31222920257,419.68777079743,619.68777079743,419.68777079743,619.68777079743,780.31222920257,0,0,4,0,horizontal,vertical,horizontal,horizontal
3a,22,100347,6,33,273,21,M,interleaved,variable,homogeneous,4,present,0.640050888061523,0,vertical,horizontal,1,2,green,4,1,619.68777079743,780.31222920257,980.31222920257,780.31222920257,980.31222920257,780.31222920257,980.31222920257,419.68777079743,619.68777079743,419.68777079743,619.68777079743,780.31222920257,0,0,0,4,vertical,vertical,horizontal,vertical
3a,22,100347,6,34,274,21,M,interleaved,variable,homogeneous,4,absent,0.740437030792236,1,vertical,vertical,1,8,green,4,NaN,619.68777079743,780.31222920257,NaN,NaN,980.31222920257,780.31222920257,980.31222920257,419.68777079743,619.68777079743,419.68777079743,619.68777079743,780.31222920257,0,0,0,4,horizontal,horizontal,horizontal,vertical
3a,22,100347,6,35,275,21,M,interleaved,variable,homogeneous,4,absent,0.544764995574951,1,vertical,vertical,1,3,red,4,NaN,619.68777079743,780.31222920257,NaN,NaN,980.31222920257,780.31222920257,980.31222920257,419.68777079743,619.68777079743,419.68777079743,619.68777079743,780.31222920257,0,0,0,4,horizontal,horizontal,vertical,vertical
3a,22,100347,6,36,276,21,M,interleaved,variable,homogeneous,4,present,1.26886796951294,0,horizontal,vertical,1,8,red,1,4,980.31222920257,780.31222920257,619.68777079743,780.31222920257,980.31222920257,780.31222920257,980.31222920257,419.68777079743,619.68777079743,419.68777079743,619.68777079743,780.31222920257,4,0,0,0,horizontal,vertical,vertical,vertical
3a,22,100347,6,37,277,21,M,interleaved,variable,homogeneous,4,present,1.10548400878906,1,horizontal,horizontal,1,3,red,3,1,619.68777079743,419.68777079743,980.31222920257,780.31222920257,980.31222920257,780.31222920257,980.31222920257,419.68777079743,619.68777079743,419.68777079743,619.68777079743,780.31222920257,0,0,4,0,vertical,vertical,horizontal,vertical
3a,22,100347,6,38,278,21,M,interleaved,variable,homogeneous,4,absent,0.909678936004639,1,horizontal,horizontal,1,3,green,4,NaN,619.68777079743,780.31222920257,NaN,NaN,980.31222920257,780.31222920257,980.31222920257,419.68777079743,619.68777079743,419.68777079743,619.68777079743,780.31222920257,0,0,0,4,horizontal,vertical,vertical,horizontal
3a,22,100347,6,39,279,21,M,interleaved,variable,homogeneous,4,absent,0.666136980056763,1,vertical,vertical,1,5,red,2,NaN,980.31222920257,419.68777079743,NaN,NaN,980.31222920257,780.31222920257,980.31222920257,419.68777079743,619.68777079743,419.68777079743,619.68777079743,780.31222920257,0,4,0,0,horizontal,vertical,vertical,horizontal
3a,22,100347,6,40,280,21,M,interleaved,variable,homogeneous,4,present,0.662460803985596,1,horizontal,horizontal,1,5,green,4,3,619.68777079743,780.31222920257,619.68777079743,419.68777079743,980.31222920257,780.31222920257,980.31222920257,419.68777079743,619.68777079743,419.68777079743,619.68777079743,780.31222920257,0,0,0,4,horizontal,vertical,horizontal,horizontal
