experiment,subject,uniqueID,block,trial,trial_cumulative,age,gender,color_cond_blocking,color_history,shape_type,set_size,distractor,rt,acc,target_orient,response_key,response_made,iti,target_color,target_item,distractor_item,target_X,target_Y,distractor_X,distractor_Y,item1_X,item1_Y,item2_X,item2_Y,item3_X,item3_Y,item4_X,item4_Y,item1_shape,item2_shape,item3_shape,item4_shape,item1_line,item2_line,item3_line,item4_line
3a,6,100298,1,1,1,21,F,interleaved,constant,homogeneous,4,present,1.51380300521851,1,vertical,vertical,1,5,green,1,2,980.31222920257,780.31222920257,980.31222920257,419.68777079743,980.31222920257,780.31222920257,980.31222920257,419.68777079743,619.68777079743,419.68777079743,619.68777079743,780.31222920257,4,0,0,0,vertical,vertical,horizontal,vertical
3a,6,100298,1,2,2,21,F,interleaved,constant,homogeneous,4,absent,1.14124798774719,1,horizontal,horizontal,1,3,green,1,NaN,980.31222920257,780.31222920257,NaN,NaN,980.31222920257,780.31222920257,980.31222920257,419.68777079743,619.68777079743,419.68777079743,619.68777079743,780.31222920257,4,0,0,0,horizontal,vertical,horizontal,vertical
3a,6,100298,1,3,3,21,F,interleaved,constant,homogeneous,4,present,1.54591989517212,1,horizontal,horizontal,1,2,green,2,4,980.31222920257,419.68777079743,619.68777079743,780.31222920257,980.31222920257,780.31222920257,980.31222920257,419.68777079743,619.68777079743,419.68777079743,619.68777079743,780.31222920257,0,4,0,0,horizontal,horizontal,vertical,horizontal
3a,6,100298,1,4,4,21,F,interleaved,constant,homogeneous,4,present,1.31021595001221,1,horizontal,horizontal,1,2,green,3,1,619.68777079743,419.68777079743,980.31222920257,780.31222920257,980.31222920257,780.31222920257,980.31222920257,419.68777079743,619.68777079743,419.68777079743,619.68777079743,780.31222920257,0,0,4,0,horizontal,horizontal,horizontal,horizontal
3a,6,100298,1,5,5,21,F,interleaved,constant,homogeneous,4,absent,1.49043798446655,1,horizontal,horizontal,1,8,green,4,NaN,619.68777079743,780.31222920257,NaN,NaN,980.31222920257,780.31222920257,980.31222920257,419.68777079743,619.68777079743,419.68777079743,619.68777079743,780.31222920257,0,0,0,4,vertical,horizontal,horizontal,horizontal
3a,6,100298,1,6,6,21,F,interleaved,constant,homogeneous,4,absent,0.838706016540527,1,horizontal,horizontal,1,2,green,3,NaN,619.68777079743,419.68777079743,NaN,NaN,980.31222920257,780.31222920257,980.31222920257,419.68777079743,619.68777079743,419.68777079743,619.68777079743,780.31222920257,0,0,4,0,vertical,vertical,horizontal,vertical
3a,6,100298,1,7,7,21,F,interleaved,constant,homogeneous,4,present,1.0111870765686,1,horizontal,horizontal,1,5,green,2,4,980.31222920257,419.68777079743,619.68777079743,780.31222920257,980.31222920257,780.31222920257,980.31222920257,419.68777079743,619.68777079743,419.68777079743,619.68777079743,780.31222920257,0,4,0,0,vertical,horizontal,horizontal,vertical
3a,6,100298,1,8,8,21,F,interleaved,constant,homogeneous,4,absent,0.599522113800049,1,horizontal,horizontal,1,2,green,2,NaN,980.31222920257,419.68777079743,NaN,NaN,980.31222920257,780.31222920257,980.31222920257,419.68777079743,619.68777079743,419.68777079743,619.68777079743,780.31222920257,0,4,0,0,vertical,horizontal,horizontal,horizontal
3a,6,100298,1,9,9,21,F,interleaved,constant,homogeneous,4,present,0.635802030563354,1,horizontal,horizontal,1,2,green,3,1,619.68777079743,419.68777079743,980.31222920257,780.31222920257,980.31222920257,780.31222920257,980.31222920257,419.68777079743,619.68777079743,419.68777079743,619.68777079743,780.31222920257,0,0,4,0,vertical,vertical,horizontal,horizontal
3a,6,100298,1,10,10,21,F,interleaved,constant,homogeneous,4,absent,0.536167144775391,1,horizontal,horizontal,1,5,green,3,NaN,619.68777079743,419.68777079743,NaN,NaN,980.31222920257,780.31222920257,980.31222920257,419.68777079743,619.68777079743,419.68777079743,619.68777079743,780.31222920257,0,0,4,0,vertical,vertical,horizontal,horizontal
3a,6,100298,1,11,11,21,F,interleaved,constant,homogeneous,4,absent,0.820422887802124,1,horizontal,horizontal,1,3,green,4,NaN,619.68777079743,780.31222920257,NaN,NaN,980.31222920257,780.31222920257,980.31222920257,419.68777079743,619.68777079743,419.68777079743,619.68777079743,780.31222920257,0,0,0,4,vertical,horizontal,horizontal,horizontal
3a,6,100298,1,12,12,21,F,interleaved,constant,homogeneous,4,present,1.32895803451538,1,horizontal,horizontal,1,3,green,3,1,619.68777079743,419.68777079743,980.31222920257,780.31222920257,980.31222920257,780.31222920257,980.31222920257,419.68777079743,619.68777079743,419.68777079743,619.68777079743,780.31222920257,0,0,4,0,vertical,horizontal,horizontal,horizontal
3a,6,100298,1,13,13,21,F,interleaved,constant,homogeneous,4,present,1.22103786468506,1,vertical,vertical,1,2,green,4,1,619.68777079743,780.31222920257,980.31222920257,780.31222920257,980.31222920257,780.31222920257,980.31222920257,419.68777079743,619.68777079743,419.68777079743,619.68777079743,780.31222920257,0,0,0,4,horizontal,vertical,horizontal,vertical
3a,6,100298,1,14,14,21,F,interleaved,constant,homogeneous,4,absent,1.40921306610107,1,vertical,vertical,1,3,green,2,NaN,980.31222920257,419.68777079743,NaN,NaN,980.31222920257,780.31222920257,980.31222920257,419.68777079743,619.68777079743,419.68777079743,619.68777079743,780.31222920257,0,4,0,0,vertical,vertical,vertical,horizontal
3a,6,100298,1,15,15,21,F,interleaved,constant,homogeneous,4,absent,0.733805894851685,1,vertical,vertical,1,5,green,3,NaN,619.68777079743,419.68777079743,NaN,NaN,980.31222920257,780.31222920257,980.31222920257,419.68777079743,619.68777079743,419.68777079743,619.68777079743,780.31222920257,0,0,4,0,horizontal,horizontal,vertical,horizontal
3a,6,100298,1,16,16,21,F,interleaved,constant,homogeneous,4,present,0.761916160583496,1,vertical,vertical,1,3,green,4,3,619.68777079743,780.31222920257,619.68777079743,419.68777079743,980.31222920257,780.31222920257,980.31222920257,419.68777079743,619.68777079743,419.68777079743,619.68777079743,780.31222920257,0,0,0,4,vertical,vertical,horizontal,vertical
3a,6,100298,1,17,17,21,F,interleaved,constant,homogeneous,4,present,0.838366985321045,1,horizontal,horizontal,1,5,green,2,1,980.31222920257,419.68777079743,980.31222920257,780.31222920257,980.31222920257,780.31222920257,980.31222920257,419.68777079743,619.68777079743,419.68777079743,619.68777079743,780.31222920257,0,4,0,0,vertical,horizontal,horizontal,horizontal
3a,6,100298,1,18,18,21,F,interleaved,constant,homogeneous,4,present,0.786705017089844,1,vertical,vertical,1,3,green,4,3,619.68777079743,780.31222920257,619.68777079743,419.68777079743,980.31222920257,780.31222920257,980.31222920257,419.68777079743,619.68777079743,419.68777079743,619.68777079743,780.31222920257,0,0,0,4,horizontal,horizontal,vertical,vertical
3a,6,100298,1,19,19,21,F,interleaved,constant,homogeneous,4,present,0.679435968399048,1,horizontal,horizontal,1,2,green,1,2,980.31222920257,780.31222920257,980.31222920257,419.68777079743,980.31222920257,780.31222920257,980.31222920257,419.68777079743,619.68777079743,419.68777079743,619.68777079743,780.31222920257,4,0,0,0,horizontal,vertical,horizontal,horizontal
3a,6,100298,1,20,20,21,F,interleaved,constant,homogeneous,4,present,0.66739296913147,1,vertical,vertical,1,2,green,3,1,619.68777079743,419.68777079743,980.31222920257,780.31222920257,980.31222920257,780.31222920257,980.31222920257,419.68777079743,619.68777079743,419.68777079743,619.68777079743,780.31222920257,0,0,4,0,vertical,horizontal,vertical,horizontal
3a,6,100298,1,21,21,21,F,interleaved,constant,homogeneous,4,present,0.623948097229004,1,horizontal,horizontal,1,2,green,3,4,619.68777079743,419.68777079743,619.68777079743,780.31222920257,980.31222920257,780.31222920257,980.31222920257,419.68777079743,619.68777079743,419.68777079743,619.68777079743,780.31222920257,0,0,4,0,vertical,horizontal,horizontal,vertical
3a,6,100298,1,22,22,21,F,interleaved,constant,homogeneous,4,present,0.996181011199951,1,vertical,vertical,1,2,green,2,1,980.31222920257,419.68777079743,980.31222920257,780.31222920257,980.31222920257,780.31222920257,980.31222920257,419.68777079743,619.68777079743,419.68777079743,619.68777079743,780.31222920257,0,4,0,0,horizontal,vertical,horizontal,vertical
3a,6,100298,1,23,23,21,F,interleaved,constant,homogeneous,4,absent,0.736254930496216,1,vertical,vertical,1,5,green,2,NaN,980.31222920257,419.68777079743,NaN,NaN,980.31222920257,780.31222920257,980.31222920257,419.68777079743,619.68777079743,419.68777079743,619.68777079743,780.31222920257,0,4,0,0,horizontal,vertical,vertical,vertical
3a,6,100298,1,24,24,21,F,interleaved,constant,homogeneous,4,absent,1.0049159526825,1,horizontal,horizontal,1,5,green,4,NaN,619.68777079743,780.31222920257,NaN,NaN,980.31222920257,780.31222920257,980.31222920257,419.68777079743,619.68777079743,419.68777079743,619.68777079743,780.31222920257,0,0,0,4,horizontal,vertical,vertical,horizontal
3a,6,100298,1,25,25,21,F,interleaved,constant,homogeneous,4,present,0.905077934265137,1,vertical,vertical,1,5,green,1,4,980.31222920257,780.31222920257,619.68777079743,780.31222920257,980.31222920257,780.31222920257,980.31222920257,419.68777079743,619.68777079743,419.68777079743,619.68777079743,780.31222920257,4,0,0,0,vertical,horizontal,horizontal,horizontal
3a,6,100298,1,26,26,21,F,interleaved,constant,homogeneous,4,present,0.853244066238403,1,horizontal,horizontal,1,5,green,2,4,980.31222920257,419.68777079743,619.68777079743,780.31222920257,980.31222920257,780.31222920257,980.31222920257,419.68777079743,619.68777079743,419.68777079743,619.68777079743,780.31222920257,0,4,0,0,horizontal,horizontal,vertical,vertical
3a,6,100298,1,27,27,21,F,interleaved,constant,homogeneous,4,present,0.881568908691406,1,vertical,vertical,1,5,green,4,2,619.68777079743,780.31222920257,980.31222920257,419.68777079743,980.31222920257,780.31222920257,980.31222920257,419.68777079743,619.68777079743,419.68777079743,619.68777079743,780.31222920257,0,0,0,4,vertical,vertical,vertical,vertical
3a,6,100298,1,28,28,21,F,interleaved,constant,homogeneous,4,present,1.0543007850647,1,vertical,vertical,1,3,green,3,4,619.68777079743,419.68777079743,619.68777079743,780.31222920257,980.31222920257,780.31222920257,980.31222920257,419.68777079743,619.68777079743,419.68777079743,619.68777079743,780.31222920257,0,0,4,0,vertical,horizontal,vertical,horizontal
3a,6,100298,1,29,29,21,F,interleaved,constant,homogeneous,4,present,0.802298069000244,1,horizontal,horizontal,1,8,green,2,3,980.31222920257,419.68777079743,619.68777079743,419.68777079743,980.31222920257,780.31222920257,980.31222920257,419.68777079743,619.68777079743,419.68777079743,619.68777079743,780.31222920257,0,4,0,0,vertical,horizontal,vertical,horizontal
3a,6,100298,1,30,30,21,F,interleaved,constant,homogeneous,4,absent,1.03084111213684,1,vertical,vertical,1,2,green,4,NaN,619.68777079743,780.31222920257,NaN,NaN,980.31222920257,780.31222920257,980.31222920257,419.68777079743,619.68777079743,419.68777079743,619.68777079743,780.31222920257,0,0,0,4,horizontal,vertical,horizontal,vertical
3a,6,100298,1,31,31,21,F,interleaved,constant,homogeneous,4,present,1.08323383331299,1,vertical,vertical,1,8,green,1,4,980.31222920257,780.31222920257,619.68777079743,780.31222920257,980.31222920257,780.31222920257,980.31222920257,419.68777079743,619.68777079743,419.68777079743,619.68777079743,780.31222920257,4,0,0,0,vertical,horizontal,horizontal,vertical
3a,6,100298,1,32,32,21,F,interleaved,constant,homogeneous,4,present,0.727743864059448,1,vertical,vertical,1,5,green,3,1,619.68777079743,419.68777079743,980.31222920257,780.31222920257,980.31222920257,780.31222920257,980.31222920257,419.68777079743,619.68777079743,419.68777079743,619.68777079743,780.31222920257,0,0,4,0,horizontal,vertical,vertical,vertical
3a,6,100298,1,33,33,21,F,interleaved,constant,homogeneous,4,absent,0.74782395362854,1,horizontal,horizontal,1,2,green,1,NaN,980.31222920257,780.31222920257,NaN,NaN,980.31222920257,780.31222920257,980.31222920257,419.68777079743,619.68777079743,419.68777079743,619.68777079743,780.31222920257,4,0,0,0,horizontal,horizontal,horizontal,vertical
3a,6,100298,1,34,34,21,F,interleaved,constant,homogeneous,4,present,0.656171798706055,1,vertical,vertical,1,2,green,2,1,980.31222920257,419.68777079743,980.31222920257,780.31222920257,980.31222920257,780.31222920257,980.31222920257,419.68777079743,619.68777079743,419.68777079743,619.68777079743,780.31222920257,0,4,0,0,horizontal,vertical,vertical,horizontal
3a,6,100298,1,35,35,21,F,interleaved,constant,homogeneous,4,present,0.972624063491821,1,horizontal,horizontal,1,3,green,1,3,980.31222920257,780.31222920257,619.68777079743,419.68777079743,980.31222920257,780.31222920257,980.31222920257,419.68777079743,619.68777079743,419.68777079743,619.68777079743,780.31222920257,4,0,0,0,horizontal,horizontal,vertical,vertical
3a,6,100298,1,36,36,21,F,interleaved,constant,homogeneous,4,present,0.880583047866821,1,horizontal,horizontal,1,8,green,3,4,619.68777079743,419.68777079743,619.68777079743,780.31222920257,980.31222920257,780.31222920257,980.31222920257,419.68777079743,619.68777079743,419.68777079743,619.68777079743,780.31222920257,0,0,4,0,horizontal,horizontal,horizontal,horizontal
3a,6,100298,1,37,37,21,F,interleaved,constant,homogeneous,4,present,0.7814040184021,1,vertical,vertical,1,3,green,4,2,619.68777079743,780.31222920257,980.31222920257,419.68777079743,980.31222920257,780.31222920257,980.31222920257,419.68777079743,619.68777079743,419.68777079743,619.68777079743,780.31222920257,0,0,0,4,horizontal,vertical,horizontal,vertical
3a,6,100298,1,38,38,21,F,interleaved,constant,homogeneous,4,present,0.865612983703613,1,vertical,vertical,1,2,green,2,4,980.31222920257,419.68777079743,619.68777079743,780.31222920257,980.31222920257,780.31222920257,980.31222920257,419.68777079743,619.68777079743,419.68777079743,619.68777079743,780.31222920257,0,4,0,0,vertical,vertical,vertical,vertical
3a,6,100298,1,39,39,21,F,interleaved,constant,homogeneous,4,present,0.901870965957642,1,horizontal,horizontal,1,2,green,1,2,980.31222920257,780.31222920257,980.31222920257,419.68777079743,980.31222920257,780.31222920257,980.31222920257,419.68777079743,619.68777079743,419.68777079743,619.68777079743,780.31222920257,4,0,0,0,horizontal,horizontal,vertical,vertical
3a,6,100298,1,40,40,21,F,interleaved,constant,homogeneous,4,absent,0.986167907714844,1,vertical,vertical,1,2,green,1,NaN,980.31222920257,780.31222920257,NaN,NaN,980.31222920257,780.31222920257,980.31222920257,419.68777079743,619.68777079743,419.68777079743,619.68777079743,780.31222920257,4,0,0,0,vertical,vertical,horizontal,horizontal
3a,6,100298,1,41,41,21,F,interleaved,constant,homogeneous,4,present,0.814297914505005,1,vertical,vertical,1,8,green,3,4,619.68777079743,419.68777079743,619.68777079743,780.31222920257,980.31222920257,780.31222920257,980.31222920257,419.68777079743,619.68777079743,419.68777079743,619.68777079743,780.31222920257,0,0,4,0,horizontal,vertical,vertical,horizontal
3a,6,100298,1,42,42,21,F,interleaved,constant,homogeneous,4,present,0.75506591796875,1,vertical,vertical,1,2,green,1,2,980.31222920257,780.31222920257,980.31222920257,419.68777079743,980.31222920257,780.31222920257,980.31222920257,419.68777079743,619.68777079743,419.68777079743,619.68777079743,780.31222920257,4,0,0,0,vertical,vertical,horizontal,vertical
3a,6,100298,1,43,43,21,F,interleaved,constant,homogeneous,4,absent,0.919121026992798,1,vertical,vertical,1,8,green,4,NaN,619.68777079743,780.31222920257,NaN,NaN,980.31222920257,780.31222920257,980.31222920257,419.68777079743,619.68777079743,419.68777079743,619.68777079743,780.31222920257,0,0,0,4,vertical,horizontal,horizontal,vertical
3a,6,100298,1,44,44,21,F,interleaved,constant,homogeneous,4,absent,0.707548856735229,1,vertical,vertical,1,3,green,4,NaN,619.68777079743,780.31222920257,NaN,NaN,980.31222920257,780.31222920257,980.31222920257,419.68777079743,619.68777079743,419.68777079743,619.68777079743,780.31222920257,0,0,0,4,vertical,horizontal,vertical,vertical
3a,6,100298,1,45,45,21,F,interleaved,constant,homogeneous,4,present,0.703984022140503,1,horizontal,horizontal,1,3,green,1,2,980.31222920257,780.31222920257,980.31222920257,419.68777079743,980.31222920257,780.31222920257,980.31222920257,419.68777079743,619.68777079743,419.68777079743,619.68777079743,780.31222920257,4,0,0,0,horizontal,vertical,vertical,vertical
3a,6,100298,1,46,46,21,F,interleaved,constant,homogeneous,4,absent,0.964194059371948,1,vertical,vertical,1,2,green,3,NaN,619.68777079743,419.68777079743,NaN,NaN,980.31222920257,780.31222920257,980.31222920257,419.68777079743,619.68777079743,419.68777079743,619.68777079743,780.31222920257,0,0,4,0,horizontal,horizontal,vertical,horizontal
3a,6,100298,1,47,47,21,F,interleaved,constant,homogeneous,4,present,0.832473039627075,1,horizontal,horizontal,1,5,green,3,2,619.68777079743,419.68777079743,980.31222920257,419.68777079743,980.31222920257,780.31222920257,980.31222920257,419.68777079743,619.68777079743,419.68777079743,619.68777079743,780.31222920257,0,0,4,0,vertical,vertical,horizontal,horizontal
3a,6,100298,1,48,48,21,F,interleaved,constant,homogeneous,4,present,0.956745147705078,1,horizontal,horizontal,1,3,green,2,3,980.31222920257,419.68777079743,619.68777079743,419.68777079743,980.31222920257,780.31222920257,980.31222920257,419.68777079743,619.68777079743,419.68777079743,619.68777079743,780.31222920257,0,4,0,0,vertical,horizontal,vertical,vertical
3a,6,100298,2,1,49,21,F,interleaved,variable,homogeneous,4,absent,1.63879418373108,1,horizontal,horizontal,1,2,red,1,NaN,980.31222920257,780.31222920257,NaN,NaN,980.31222920257,780.31222920257,980.31222920257,419.68777079743,619.68777079743,419.68777079743,619.68777079743,780.31222920257,4,0,0,0,horizontal,horizontal,horizontal,horizontal
3a,6,100298,2,2,50,21,F,interleaved,variable,homogeneous,4,absent,1.03485894203186,1,vertical,vertical,1,2,green,4,NaN,619.68777079743,780.31222920257,NaN,NaN,980.31222920257,780.31222920257,980.31222920257,419.68777079743,619.68777079743,419.68777079743,619.68777079743,780.31222920257,0,0,0,4,vertical,horizontal,horizontal,vertical
3a,6,100298,2,3,51,21,F,interleaved,variable,homogeneous,4,present,0.838902950286865,1,vertical,vertical,1,3,red,2,3,980.31222920257,419.68777079743,619.68777079743,419.68777079743,980.31222920257,780.31222920257,980.31222920257,419.68777079743,619.68777079743,419.68777079743,619.68777079743,780.31222920257,0,4,0,0,horizontal,vertical,horizontal,vertical
3a,6,100298,2,4,52,21,F,interleaved,variable,homogeneous,4,present,NaN,0,vertical,none,0,8,red,4,2,619.68777079743,780.31222920257,980.31222920257,419.68777079743,980.31222920257,780.31222920257,980.31222920257,419.68777079743,619.68777079743,419.68777079743,619.68777079743,780.31222920257,0,0,0,4,horizontal,vertical,vertical,vertical
3a,6,100298,2,5,53,21,F,interleaved,variable,homogeneous,4,present,0.895819187164307,1,vertical,vertical,1,2,red,2,4,980.31222920257,419.68777079743,619.68777079743,780.31222920257,980.31222920257,780.31222920257,980.31222920257,419.68777079743,619.68777079743,419.68777079743,619.68777079743,780.31222920257,0,4,0,0,horizontal,vertical,horizontal,vertical
3a,6,100298,2,6,54,21,F,interleaved,variable,homogeneous,4,present,1.11614108085632,1,vertical,vertical,1,5,red,3,1,619.68777079743,419.68777079743,980.31222920257,780.31222920257,980.31222920257,780.31222920257,980.31222920257,419.68777079743,619.68777079743,419.68777079743,619.68777079743,780.31222920257,0,0,4,0,horizontal,horizontal,vertical,horizontal
3a,6,100298,2,7,55,21,F,interleaved,variable,homogeneous,4,present,1.12037110328674,1,vertical,vertical,1,2,red,4,3,619.68777079743,780.31222920257,619.68777079743,419.68777079743,980.31222920257,780.31222920257,980.31222920257,419.68777079743,619.68777079743,419.68777079743,619.68777079743,780.31222920257,0,0,0,4,horizontal,vertical,horizontal,vertical
3a,6,100298,2,8,56,21,F,interleaved,variable,homogeneous,4,absent,0.580750942230225,1,vertical,vertical,1,2,red,2,NaN,980.31222920257,419.68777079743,NaN,NaN,980.31222920257,780.31222920257,980.31222920257,419.68777079743,619.68777079743,419.68777079743,619.68777079743,780.31222920257,0,4,0,0,horizontal,vertical,horizontal,horizontal
3a,6,100298,2,9,57,21,F,interleaved,variable,homogeneous,4,absent,0.680892944335938,1,vertical,vertical,1,2,red,3,NaN,619.68777079743,419.68777079743,NaN,NaN,980.31222920257,780.31222920257,980.31222920257,419.68777079743,619.68777079743,419.68777079743,619.68777079743,780.31222920257,0,0,4,0,vertical,horizontal,vertical,vertical
3a,6,100298,2,10,58,21,F,interleaved,variable,homogeneous,4,present,1.11731100082397,1,horizontal,horizontal,1,8,red,4,2,619.68777079743,780.31222920257,980.31222920257,419.68777079743,980.31222920257,780.31222920257,980.31222920257,419.68777079743,619.68777079743,419.68777079743,619.68777079743,780.31222920257,0,0,0,4,vertical,vertical,horizontal,horizontal
3a,6,100298,2,11,59,21,F,interleaved,variable,homogeneous,4,absent,0.585567951202393,1,horizontal,horizontal,1,5,red,4,NaN,619.68777079743,780.31222920257,NaN,NaN,980.31222920257,780.31222920257,980.31222920257,419.68777079743,619.68777079743,419.68777079743,619.68777079743,780.31222920257,0,0,0,4,horizontal,horizontal,horizontal,horizontal
3a,6,100298,2,12,60,21,F,interleaved,variable,homogeneous,4,present,0.814107894897461,1,vertical,vertical,1,8,green,2,3,980.31222920257,419.68777079743,619.68777079743,419.68777079743,980.31222920257,780.31222920257,980.31222920257,419.68777079743,619.68777079743,419.68777079743,619.68777079743,780.31222920257,0,4,0,0,vertical,vertical,vertical,horizontal
3a,6,100298,2,13,61,21,F,interleaved,variable,homogeneous,4,present,0.570409059524536,1,vertical,vertical,1,5,green,2,3,980.31222920257,419.68777079743,619.68777079743,419.68777079743,980.31222920257,780.31222920257,980.31222920257,419.68777079743,619.68777079743,419.68777079743,619.68777079743,780.31222920257,0,4,0,0,horizontal,vertical,horizontal,vertical
3a,6,100298,2,14,62,21,F,interleaved,variable,homogeneous,4,present,0.518879890441895,1,vertical,vertical,1,5,green,3,2,619.68777079743,419.68777079743,980.31222920257,419.68777079743,980.31222920257,780.31222920257,980.31222920257,419.68777079743,619.68777079743,419.68777079743,619.68777079743,780.31222920257,0,0,4,0,vertical,vertical,vertical,horizontal
3a,6,100298,2,15,63,21,F,interleaved,variable,homogeneous,4,present,0.691433906555176,1,vertical,vertical,1,3,red,2,4,980.31222920257,419.68777079743,619.68777079743,780.31222920257,980.31222920257,780.31222920257,980.31222920257,419.68777079743,619.68777079743,419.68777079743,619.68777079743,780.31222920257,0,4,0,0,vertical,vertical,horizontal,horizontal
3a,6,100298,2,16,64,21,F,interleaved,variable,homogeneous,4,absent,0.719321012496948,1,horizontal,horizontal,1,5,red,2,NaN,980.31222920257,419.68777079743,NaN,NaN,980.31222920257,780.31222920257,980.31222920257,419.68777079743,619.68777079743,419.68777079743,619.68777079743,780.31222920257,0,4,0,0,vertical,horizontal,horizontal,vertical
3a,6,100298,2,17,65,21,F,interleaved,variable,homogeneous,4,present,0.780090093612671,1,horizontal,horizontal,1,3,red,1,4,980.31222920257,780.31222920257,619.68777079743,780.31222920257,980.31222920257,780.31222920257,980.31222920257,419.68777079743,619.68777079743,419.68777079743,619.68777079743,780.31222920257,4,0,0,0,horizontal,horizontal,horizontal,vertical
3a,6,100298,2,18,66,21,F,interleaved,variable,homogeneous,4,present,0.808475971221924,1,horizontal,horizontal,1,3,green,4,2,619.68777079743,780.31222920257,980.31222920257,419.68777079743,980.31222920257,780.31222920257,980.31222920257,419.68777079743,619.68777079743,419.68777079743,619.68777079743,780.31222920257,0,0,0,4,vertical,vertical,vertical,horizontal
3a,6,100298,2,19,67,21,F,interleaved,variable,homogeneous,4,present,0.636582851409912,1,horizontal,horizontal,1,8,green,4,2,619.68777079743,780.31222920257,980.31222920257,419.68777079743,980.31222920257,780.31222920257,980.31222920257,419.68777079743,619.68777079743,419.68777079743,619.68777079743,780.31222920257,0,0,0,4,horizontal,vertical,horizontal,horizontal
3a,6,100298,2,20,68,21,F,interleaved,variable,homogeneous,4,absent,0.769093990325928,1,horizontal,horizontal,1,2,red,2,NaN,980.31222920257,419.68777079743,NaN,NaN,980.31222920257,780.31222920257,980.31222920257,419.68777079743,619.68777079743,419.68777079743,619.68777079743,780.31222920257,0,4,0,0,vertical,horizontal,horizontal,horizontal
3a,6,100298,2,21,69,21,F,interleaved,variable,homogeneous,4,present,1.14125204086304,1,vertical,vertical,1,2,red,4,3,619.68777079743,780.31222920257,619.68777079743,419.68777079743,980.31222920257,780.31222920257,980.31222920257,419.68777079743,619.68777079743,419.68777079743,619.68777079743,780.31222920257,0,0,0,4,vertical,horizontal,horizontal,vertical
3a,6,100298,2,22,70,21,F,interleaved,variable,homogeneous,4,present,1.61743092536926,1,horizontal,horizontal,1,5,red,3,2,619.68777079743,419.68777079743,980.31222920257,419.68777079743,980.31222920257,780.31222920257,980.31222920257,419.68777079743,619.68777079743,419.68777079743,619.68777079743,780.31222920257,0,0,4,0,vertical,vertical,horizontal,horizontal
3a,6,100298,2,23,71,21,F,interleaved,variable,homogeneous,4,present,0.701871871948242,1,horizontal,horizontal,1,3,green,1,2,980.31222920257,780.31222920257,980.31222920257,419.68777079743,980.31222920257,780.31222920257,980.31222920257,419.68777079743,619.68777079743,419.68777079743,619.68777079743,780.31222920257,4,0,0,0,horizontal,horizontal,horizontal,vertical
3a,6,100298,2,24,72,21,F,interleaved,variable,homogeneous,4,present,0.562256097793579,1,horizontal,horizontal,1,2,green,1,3,980.31222920257,780.31222920257,619.68777079743,419.68777079743,980.31222920257,780.31222920257,980.31222920257,419.68777079743,619.68777079743,419.68777079743,619.68777079743,780.31222920257,4,0,0,0,horizontal,horizontal,horizontal,vertical
3a,6,100298,2,25,73,21,F,interleaved,variable,homogeneous,4,present,0.942563056945801,1,vertical,vertical,1,5,green,3,4,619.68777079743,419.68777079743,619.68777079743,780.31222920257,980.31222920257,780.31222920257,980.31222920257,419.68777079743,619.68777079743,419.68777079743,619.68777079743,780.31222920257,0,0,4,0,vertical,vertical,vertical,horizontal
3a,6,100298,2,26,74,21,F,interleaved,variable,homogeneous,4,absent,0.682911157608032,1,horizontal,horizontal,1,3,green,1,NaN,980.31222920257,780.31222920257,NaN,NaN,980.31222920257,780.31222920257,980.31222920257,419.68777079743,619.68777079743,419.68777079743,619.68777079743,780.31222920257,4,0,0,0,horizontal,vertical,horizontal,vertical
3a,6,100298,2,27,75,21,F,interleaved,variable,homogeneous,4,present,0.839185953140259,1,horizontal,horizontal,1,3,red,4,3,619.68777079743,780.31222920257,619.68777079743,419.68777079743,980.31222920257,780.31222920257,980.31222920257,419.68777079743,619.68777079743,419.68777079743,619.68777079743,780.31222920257,0,0,0,4,vertical,vertical,horizontal,horizontal
3a,6,100298,2,28,76,21,F,interleaved,variable,homogeneous,4,present,0.79548978805542,1,horizontal,horizontal,1,2,green,3,2,619.68777079743,419.68777079743,980.31222920257,419.68777079743,980.31222920257,780.31222920257,980.31222920257,419.68777079743,619.68777079743,419.68777079743,619.68777079743,780.31222920257,0,0,4,0,horizontal,vertical,horizontal,horizontal
3a,6,100298,2,29,77,21,F,interleaved,variable,homogeneous,4,absent,0.61567497253418,1,horizontal,horizontal,1,3,red,1,NaN,980.31222920257,780.31222920257,NaN,NaN,980.31222920257,780.31222920257,980.31222920257,419.68777079743,619.68777079743,419.68777079743,619.68777079743,780.31222920257,4,0,0,0,horizontal,horizontal,vertical,vertical
3a,6,100298,2,30,78,21,F,interleaved,variable,homogeneous,4,present,0.628294944763184,1,horizontal,horizontal,1,5,green,1,3,980.31222920257,780.31222920257,619.68777079743,419.68777079743,980.31222920257,780.31222920257,980.31222920257,419.68777079743,619.68777079743,419.68777079743,619.68777079743,780.31222920257,4,0,0,0,horizontal,horizontal,vertical,vertical
3a,6,100298,2,31,79,21,F,interleaved,variable,homogeneous,4,present,0.952298879623413,1,horizontal,horizontal,1,2,red,2,1,980.31222920257,419.68777079743,980.31222920257,780.31222920257,980.31222920257,780.31222920257,980.31222920257,419.68777079743,619.68777079743,419.68777079743,619.68777079743,780.31222920257,0,4,0,0,horizontal,horizontal,horizontal,horizontal
3a,6,100298,2,32,80,21,F,interleaved,variable,homogeneous,4,present,0.948539972305298,1,vertical,vertical,1,3,red,2,1,980.31222920257,419.68777079743,980.31222920257,780.31222920257,980.31222920257,780.31222920257,980.31222920257,419.68777079743,619.68777079743,419.68777079743,619.68777079743,780.31222920257,0,4,0,0,horizontal,vertical,horizontal,vertical
3a,6,100298,2,33,81,21,F,interleaved,variable,homogeneous,4,absent,0.936783075332642,1,horizontal,horizontal,1,2,green,3,NaN,619.68777079743,419.68777079743,NaN,NaN,980.31222920257,780.31222920257,980.31222920257,419.68777079743,619.68777079743,419.68777079743,619.68777079743,780.31222920257,0,0,4,0,horizontal,vertical,horizontal,horizontal
3a,6,100298,2,34,82,21,F,interleaved,variable,homogeneous,4,present,0.893315076828003,1,vertical,vertical,1,2,green,1,2,980.31222920257,780.31222920257,980.31222920257,419.68777079743,980.31222920257,780.31222920257,980.31222920257,419.68777079743,619.68777079743,419.68777079743,619.68777079743,780.31222920257,4,0,0,0,vertical,horizontal,vertical,horizontal
3a,6,100298,2,35,83,21,F,interleaved,variable,homogeneous,4,present,0.841593980789185,1,horizontal,horizontal,1,5,green,4,2,619.68777079743,780.31222920257,980.31222920257,419.68777079743,980.31222920257,780.31222920257,980.31222920257,419.68777079743,619.68777079743,419.68777079743,619.68777079743,780.31222920257,0,0,0,4,horizontal,horizontal,vertical,horizontal
3a,6,100298,2,36,84,21,F,interleaved,variable,homogeneous,4,present,0.766016960144043,1,horizontal,horizontal,1,2,red,1,2,980.31222920257,780.31222920257,980.31222920257,419.68777079743,980.31222920257,780.31222920257,980.31222920257,419.68777079743,619.68777079743,419.68777079743,619.68777079743,780.31222920257,4,0,0,0,horizontal,vertical,vertical,vertical
3a,6,100298,2,37,85,21,F,interleaved,variable,homogeneous,4,present,0.682362079620361,1,vertical,vertical,1,3,green,1,2,980.31222920257,780.31222920257,980.31222920257,419.68777079743,980.31222920257,780.31222920257,980.31222920257,419.68777079743,619.68777079743,419.68777079743,619.68777079743,780.31222920257,4,0,0,0,vertical,horizontal,vertical,horizontal
3a,6,100298,2,38,86,21,F,interleaved,variable,homogeneous,4,present,0.558509111404419,1,vertical,vertical,1,2,green,1,3,980.31222920257,780.31222920257,619.68777079743,419.68777079743,980.31222920257,780.31222920257,980.31222920257,419.68777079743,619.68777079743,419.68777079743,619.68777079743,780.31222920257,4,0,0,0,vertical,horizontal,vertical,vertical
3a,6,100298,2,39,87,21,F,interleaved,variable,homogeneous,4,present,0.674738883972168,1,horizontal,horizontal,1,2,green,1,2,980.31222920257,780.31222920257,980.31222920257,419.68777079743,980.31222920257,780.31222920257,980.31222920257,419.68777079743,619.68777079743,419.68777079743,619.68777079743,780.31222920257,4,0,0,0,horizontal,horizontal,horizontal,vertical
3a,6,100298,2,40,88,21,F,interleaved,variable,homogeneous,4,absent,0.767204999923706,1,vertical,vertical,1,3,green,4,NaN,619.68777079743,780.31222920257,NaN,NaN,980.31222920257,780.31222920257,980.31222920257,419.68777079743,619.68777079743,419.68777079743,619.68777079743,780.31222920257,0,0,0,4,horizontal,horizontal,horizontal,vertical
3a,6,100298,2,41,89,21,F,interleaved,variable,homogeneous,4,absent,0.747704029083252,1,vertical,vertical,1,5,red,1,NaN,980.31222920257,780.31222920257,NaN,NaN,980.31222920257,780.31222920257,980.31222920257,419.68777079743,619.68777079743,419.68777079743,619.68777079743,780.31222920257,4,0,0,0,vertical,horizontal,horizontal,horizontal
3a,6,100298,2,42,90,21,F,interleaved,variable,homogeneous,4,absent,1.13585519790649,1,vertical,vertical,1,8,green,2,NaN,980.31222920257,419.68777079743,NaN,NaN,980.31222920257,780.31222920257,980.31222920257,419.68777079743,619.68777079743,419.68777079743,619.68777079743,780.31222920257,0,4,0,0,vertical,vertical,horizontal,horizontal
3a,6,100298,2,43,91,21,F,interleaved,variable,homogeneous,4,absent,0.756517887115479,1,horizontal,horizontal,1,8,green,3,NaN,619.68777079743,419.68777079743,NaN,NaN,980.31222920257,780.31222920257,980.31222920257,419.68777079743,619.68777079743,419.68777079743,619.68777079743,780.31222920257,0,0,4,0,vertical,vertical,horizontal,horizontal
3a,6,100298,2,44,92,21,F,interleaved,variable,homogeneous,4,absent,1.3764591217041,1,vertical,vertical,1,3,green,4,NaN,619.68777079743,780.31222920257,NaN,NaN,980.31222920257,780.31222920257,980.31222920257,419.68777079743,619.68777079743,419.68777079743,619.68777079743,780.31222920257,0,0,0,4,horizontal,vertical,vertical,vertical
3a,6,100298,2,45,93,21,F,interleaved,variable,homogeneous,4,present,1.14917016029358,1,horizontal,horizontal,1,5,red,2,3,980.31222920257,419.68777079743,619.68777079743,419.68777079743,980.31222920257,780.31222920257,980.31222920257,419.68777079743,619.68777079743,419.68777079743,619.68777079743,780.31222920257,0,4,0,0,vertical,horizontal,horizontal,horizontal
3a,6,100298,2,46,94,21,F,interleaved,variable,homogeneous,4,present,1.13747811317444,1,vertical,vertical,1,2,red,1,3,980.31222920257,780.31222920257,619.68777079743,419.68777079743,980.31222920257,780.31222920257,980.31222920257,419.68777079743,619.68777079743,419.68777079743,619.68777079743,780.31222920257,4,0,0,0,vertical,vertical,horizontal,vertical
3a,6,100298,2,47,95,21,F,interleaved,variable,homogeneous,4,present,1.25357890129089,1,horizontal,horizontal,1,2,red,4,3,619.68777079743,780.31222920257,619.68777079743,419.68777079743,980.31222920257,780.31222920257,980.31222920257,419.68777079743,619.68777079743,419.68777079743,619.68777079743,780.31222920257,0,0,0,4,vertical,horizontal,vertical,horizontal
3a,6,100298,2,48,96,21,F,interleaved,variable,homogeneous,4,absent,0.67388391494751,1,vertical,vertical,1,5,red,1,NaN,980.31222920257,780.31222920257,NaN,NaN,980.31222920257,780.31222920257,980.31222920257,419.68777079743,619.68777079743,419.68777079743,619.68777079743,780.31222920257,4,0,0,0,vertical,vertical,horizontal,horizontal
3a,6,100298,3,1,97,21,F,interleaved,constant,homogeneous,4,absent,0.937344074249268,1,vertical,vertical,1,2,red,2,NaN,980.31222920257,419.68777079743,NaN,NaN,980.31222920257,780.31222920257,980.31222920257,419.68777079743,619.68777079743,419.68777079743,619.68777079743,780.31222920257,0,4,0,0,vertical,vertical,horizontal,vertical
3a,6,100298,3,2,98,21,F,interleaved,constant,homogeneous,4,present,0.909750938415527,1,horizontal,horizontal,1,2,red,4,2,619.68777079743,780.31222920257,980.31222920257,419.68777079743,980.31222920257,780.31222920257,980.31222920257,419.68777079743,619.68777079743,419.68777079743,619.68777079743,780.31222920257,0,0,0,4,vertical,vertical,horizontal,horizontal
3a,6,100298,3,3,99,21,F,interleaved,constant,homogeneous,4,present,0.633848905563354,1,horizontal,horizontal,1,5,red,4,3,619.68777079743,780.31222920257,619.68777079743,419.68777079743,980.31222920257,780.31222920257,980.31222920257,419.68777079743,619.68777079743,419.68777079743,619.68777079743,780.31222920257,0,0,0,4,horizontal,vertical,horizontal,horizontal
3a,6,100298,3,4,100,21,F,interleaved,constant,homogeneous,4,present,0.710244178771973,1,vertical,vertical,1,3,red,2,1,980.31222920257,419.68777079743,980.31222920257,780.31222920257,980.31222920257,780.31222920257,980.31222920257,419.68777079743,619.68777079743,419.68777079743,619.68777079743,780.31222920257,0,4,0,0,horizontal,vertical,horizontal,horizontal
3a,6,100298,3,5,101,21,F,interleaved,constant,homogeneous,4,present,0.578864097595215,1,vertical,vertical,1,5,red,2,3,980.31222920257,419.68777079743,619.68777079743,419.68777079743,980.31222920257,780.31222920257,980.31222920257,419.68777079743,619.68777079743,419.68777079743,619.68777079743,780.31222920257,0,4,0,0,vertical,vertical,vertical,vertical
3a,6,100298,3,6,102,21,F,interleaved,constant,homogeneous,4,present,0.678950071334839,1,horizontal,horizontal,1,2,red,2,1,980.31222920257,419.68777079743,980.31222920257,780.31222920257,980.31222920257,780.31222920257,980.31222920257,419.68777079743,619.68777079743,419.68777079743,619.68777079743,780.31222920257,0,4,0,0,vertical,horizontal,vertical,horizontal
3a,6,100298,3,7,103,21,F,interleaved,constant,homogeneous,4,present,0.787144899368286,1,horizontal,horizontal,1,5,red,4,3,619.68777079743,780.31222920257,619.68777079743,419.68777079743,980.31222920257,780.31222920257,980.31222920257,419.68777079743,619.68777079743,419.68777079743,619.68777079743,780.31222920257,0,0,0,4,vertical,horizontal,vertical,horizontal
3a,6,100298,3,8,104,21,F,interleaved,constant,homogeneous,4,absent,0.639070987701416,1,vertical,vertical,1,3,red,4,NaN,619.68777079743,780.31222920257,NaN,NaN,980.31222920257,780.31222920257,980.31222920257,419.68777079743,619.68777079743,419.68777079743,619.68777079743,780.31222920257,0,0,0,4,horizontal,horizontal,horizontal,vertical
3a,6,100298,3,9,105,21,F,interleaved,constant,homogeneous,4,absent,0.675812005996704,1,horizontal,horizontal,1,2,red,2,NaN,980.31222920257,419.68777079743,NaN,NaN,980.31222920257,780.31222920257,980.31222920257,419.68777079743,619.68777079743,419.68777079743,619.68777079743,780.31222920257,0,4,0,0,vertical,horizontal,horizontal,horizontal
3a,6,100298,3,10,106,21,F,interleaved,constant,homogeneous,4,present,0.672359943389893,1,horizontal,horizontal,1,3,red,4,3,619.68777079743,780.31222920257,619.68777079743,419.68777079743,980.31222920257,780.31222920257,980.31222920257,419.68777079743,619.68777079743,419.68777079743,619.68777079743,780.31222920257,0,0,0,4,vertical,horizontal,vertical,horizontal
3a,6,100298,3,11,107,21,F,interleaved,constant,homogeneous,4,present,0.572593927383423,1,horizontal,horizontal,1,3,red,4,1,619.68777079743,780.31222920257,980.31222920257,780.31222920257,980.31222920257,780.31222920257,980.31222920257,419.68777079743,619.68777079743,419.68777079743,619.68777079743,780.31222920257,0,0,0,4,horizontal,horizontal,horizontal,horizontal
3a,6,100298,3,12,108,21,F,interleaved,constant,homogeneous,4,present,0.616934061050415,1,vertical,vertical,1,5,red,4,3,619.68777079743,780.31222920257,619.68777079743,419.68777079743,980.31222920257,780.31222920257,980.31222920257,419.68777079743,619.68777079743,419.68777079743,619.68777079743,780.31222920257,0,0,0,4,horizontal,vertical,vertical,vertical
3a,6,100298,3,13,109,21,F,interleaved,constant,homogeneous,4,absent,0.637242078781128,1,vertical,vertical,1,2,red,2,NaN,980.31222920257,419.68777079743,NaN,NaN,980.31222920257,780.31222920257,980.31222920257,419.68777079743,619.68777079743,419.68777079743,619.68777079743,780.31222920257,0,4,0,0,horizontal,vertical,horizontal,vertical
3a,6,100298,3,14,110,21,F,interleaved,constant,homogeneous,4,present,0.641528129577637,1,horizontal,horizontal,1,8,red,4,1,619.68777079743,780.31222920257,980.31222920257,780.31222920257,980.31222920257,780.31222920257,980.31222920257,419.68777079743,619.68777079743,419.68777079743,619.68777079743,780.31222920257,0,0,0,4,vertical,vertical,horizontal,horizontal
3a,6,100298,3,15,111,21,F,interleaved,constant,homogeneous,4,absent,0.653855085372925,1,vertical,vertical,1,5,red,2,NaN,980.31222920257,419.68777079743,NaN,NaN,980.31222920257,780.31222920257,980.31222920257,419.68777079743,619.68777079743,419.68777079743,619.68777079743,780.31222920257,0,4,0,0,horizontal,vertical,horizontal,vertical
3a,6,100298,3,16,112,21,F,interleaved,constant,homogeneous,4,present,0.874162912368774,1,horizontal,horizontal,1,5,red,1,4,980.31222920257,780.31222920257,619.68777079743,780.31222920257,980.31222920257,780.31222920257,980.31222920257,419.68777079743,619.68777079743,419.68777079743,619.68777079743,780.31222920257,4,0,0,0,horizontal,horizontal,vertical,horizontal
3a,6,100298,3,17,113,21,F,interleaved,constant,homogeneous,4,present,0.81463098526001,1,horizontal,horizontal,1,2,red,3,4,619.68777079743,419.68777079743,619.68777079743,780.31222920257,980.31222920257,780.31222920257,980.31222920257,419.68777079743,619.68777079743,419.68777079743,619.68777079743,780.31222920257,0,0,4,0,vertical,horizontal,horizontal,horizontal
3a,6,100298,3,18,114,21,F,interleaved,constant,homogeneous,4,present,0.594936847686768,1,vertical,vertical,1,2,red,2,3,980.31222920257,419.68777079743,619.68777079743,419.68777079743,980.31222920257,780.31222920257,980.31222920257,419.68777079743,619.68777079743,419.68777079743,619.68777079743,780.31222920257,0,4,0,0,vertical,vertical,horizontal,horizontal
3a,6,100298,3,19,115,21,F,interleaved,constant,homogeneous,4,present,0.591227054595947,1,vertical,vertical,1,5,red,3,2,619.68777079743,419.68777079743,980.31222920257,419.68777079743,980.31222920257,780.31222920257,980.31222920257,419.68777079743,619.68777079743,419.68777079743,619.68777079743,780.31222920257,0,0,4,0,horizontal,vertical,vertical,vertical
3a,6,100298,3,20,116,21,F,interleaved,constant,homogeneous,4,present,0.683495998382568,1,horizontal,horizontal,1,5,red,1,3,980.31222920257,780.31222920257,619.68777079743,419.68777079743,980.31222920257,780.31222920257,980.31222920257,419.68777079743,619.68777079743,419.68777079743,619.68777079743,780.31222920257,4,0,0,0,horizontal,vertical,horizontal,vertical
3a,6,100298,3,21,117,21,F,interleaved,constant,homogeneous,4,present,0.623981952667236,1,vertical,vertical,1,2,red,2,1,980.31222920257,419.68777079743,980.31222920257,780.31222920257,980.31222920257,780.31222920257,980.31222920257,419.68777079743,619.68777079743,419.68777079743,619.68777079743,780.31222920257,0,4,0,0,vertical,vertical,vertical,horizontal
3a,6,100298,3,22,118,21,F,interleaved,constant,homogeneous,4,present,0.58010196685791,1,vertical,vertical,1,2,red,1,3,980.31222920257,780.31222920257,619.68777079743,419.68777079743,980.31222920257,780.31222920257,980.31222920257,419.68777079743,619.68777079743,419.68777079743,619.68777079743,780.31222920257,4,0,0,0,vertical,vertical,vertical,horizontal
3a,6,100298,3,23,119,21,F,interleaved,constant,homogeneous,4,present,0.664309978485107,1,horizontal,horizontal,1,2,red,2,3,980.31222920257,419.68777079743,619.68777079743,419.68777079743,980.31222920257,780.31222920257,980.31222920257,419.68777079743,619.68777079743,419.68777079743,619.68777079743,780.31222920257,0,4,0,0,vertical,horizontal,vertical,vertical
3a,6,100298,3,24,120,21,F,interleaved,constant,homogeneous,4,present,0.540579080581665,1,vertical,vertical,1,2,red,2,3,980.31222920257,419.68777079743,619.68777079743,419.68777079743,980.31222920257,780.31222920257,980.31222920257,419.68777079743,619.68777079743,419.68777079743,619.68777079743,780.31222920257,0,4,0,0,vertical,vertical,vertical,vertical
3a,6,100298,3,25,121,21,F,interleaved,constant,homogeneous,4,present,0.568869829177856,1,horizontal,horizontal,1,3,red,2,3,980.31222920257,419.68777079743,619.68777079743,419.68777079743,980.31222920257,780.31222920257,980.31222920257,419.68777079743,619.68777079743,419.68777079743,619.68777079743,780.31222920257,0,4,0,0,horizontal,horizontal,horizontal,horizontal
3a,6,100298,3,26,122,21,F,interleaved,constant,homogeneous,4,absent,0.829539060592651,1,horizontal,horizontal,1,2,red,1,NaN,980.31222920257,780.31222920257,NaN,NaN,980.31222920257,780.31222920257,980.31222920257,419.68777079743,619.68777079743,419.68777079743,619.68777079743,780.31222920257,4,0,0,0,horizontal,vertical,vertical,horizontal
3a,6,100298,3,27,123,21,F,interleaved,constant,homogeneous,4,present,0.577656030654907,1,horizontal,horizontal,1,2,red,1,4,980.31222920257,780.31222920257,619.68777079743,780.31222920257,980.31222920257,780.31222920257,980.31222920257,419.68777079743,619.68777079743,419.68777079743,619.68777079743,780.31222920257,4,0,0,0,horizontal,vertical,vertical,vertical
3a,6,100298,3,28,124,21,F,interleaved,constant,homogeneous,4,absent,0.6703200340271,1,vertical,vertical,1,3,red,2,NaN,980.31222920257,419.68777079743,NaN,NaN,980.31222920257,780.31222920257,980.31222920257,419.68777079743,619.68777079743,419.68777079743,619.68777079743,780.31222920257,0,4,0,0,horizontal,vertical,horizontal,vertical
3a,6,100298,3,29,125,21,F,interleaved,constant,homogeneous,4,present,0.754287004470825,1,horizontal,horizontal,1,2,red,2,1,980.31222920257,419.68777079743,980.31222920257,780.31222920257,980.31222920257,780.31222920257,980.31222920257,419.68777079743,619.68777079743,419.68777079743,619.68777079743,780.31222920257,0,4,0,0,horizontal,horizontal,vertical,horizontal
3a,6,100298,3,30,126,21,F,interleaved,constant,homogeneous,4,absent,0.686674118041992,1,horizontal,horizontal,1,3,red,1,NaN,980.31222920257,780.31222920257,NaN,NaN,980.31222920257,780.31222920257,980.31222920257,419.68777079743,619.68777079743,419.68777079743,619.68777079743,780.31222920257,4,0,0,0,horizontal,horizontal,vertical,vertical
3a,6,100298,3,31,127,21,F,interleaved,constant,homogeneous,4,present,0.682919979095459,1,vertical,vertical,1,3,red,2,3,980.31222920257,419.68777079743,619.68777079743,419.68777079743,980.31222920257,780.31222920257,980.31222920257,419.68777079743,619.68777079743,419.68777079743,619.68777079743,780.31222920257,0,4,0,0,vertical,vertical,horizontal,horizontal
3a,6,100298,3,32,128,21,F,interleaved,constant,homogeneous,4,absent,0.695181131362915,1,vertical,vertical,1,5,red,1,NaN,980.31222920257,780.31222920257,NaN,NaN,980.31222920257,780.31222920257,980.31222920257,419.68777079743,619.68777079743,419.68777079743,619.68777079743,780.31222920257,4,0,0,0,vertical,vertical,horizontal,horizontal
3a,6,100298,3,33,129,21,F,interleaved,constant,homogeneous,4,present,0.595605134963989,1,vertical,vertical,1,3,red,2,4,980.31222920257,419.68777079743,619.68777079743,780.31222920257,980.31222920257,780.31222920257,980.31222920257,419.68777079743,619.68777079743,419.68777079743,619.68777079743,780.31222920257,0,4,0,0,vertical,vertical,horizontal,horizontal
3a,6,100298,3,34,130,21,F,interleaved,constant,homogeneous,4,present,0.551944017410278,1,vertical,vertical,1,8,red,2,1,980.31222920257,419.68777079743,980.31222920257,780.31222920257,980.31222920257,780.31222920257,980.31222920257,419.68777079743,619.68777079743,419.68777079743,619.68777079743,780.31222920257,0,4,0,0,vertical,vertical,horizontal,vertical
3a,6,100298,3,35,131,21,F,interleaved,constant,homogeneous,4,absent,0.668414115905762,1,horizontal,horizontal,1,2,red,4,NaN,619.68777079743,780.31222920257,NaN,NaN,980.31222920257,780.31222920257,980.31222920257,419.68777079743,619.68777079743,419.68777079743,619.68777079743,780.31222920257,0,0,0,4,horizontal,vertical,vertical,horizontal
3a,6,100298,3,36,132,21,F,interleaved,constant,homogeneous,4,absent,0.64096999168396,1,vertical,vertical,1,8,red,1,NaN,980.31222920257,780.31222920257,NaN,NaN,980.31222920257,780.31222920257,980.31222920257,419.68777079743,619.68777079743,419.68777079743,619.68777079743,780.31222920257,4,0,0,0,vertical,horizontal,horizontal,vertical
3a,6,100298,3,37,133,21,F,interleaved,constant,homogeneous,4,present,0.669156074523926,1,vertical,vertical,1,3,red,1,4,980.31222920257,780.31222920257,619.68777079743,780.31222920257,980.31222920257,780.31222920257,980.31222920257,419.68777079743,619.68777079743,419.68777079743,619.68777079743,780.31222920257,4,0,0,0,vertical,vertical,vertical,horizontal
3a,6,100298,3,38,134,21,F,interleaved,constant,homogeneous,4,present,0.705373048782349,1,vertical,vertical,1,2,red,3,2,619.68777079743,419.68777079743,980.31222920257,419.68777079743,980.31222920257,780.31222920257,980.31222920257,419.68777079743,619.68777079743,419.68777079743,619.68777079743,780.31222920257,0,0,4,0,vertical,horizontal,vertical,horizontal
3a,6,100298,3,39,135,21,F,interleaved,constant,homogeneous,4,absent,0.67767596244812,1,horizontal,horizontal,1,8,red,1,NaN,980.31222920257,780.31222920257,NaN,NaN,980.31222920257,780.31222920257,980.31222920257,419.68777079743,619.68777079743,419.68777079743,619.68777079743,780.31222920257,4,0,0,0,horizontal,horizontal,vertical,vertical
3a,6,100298,3,40,136,21,F,interleaved,constant,homogeneous,4,present,0.505964994430542,1,horizontal,horizontal,1,8,red,3,2,619.68777079743,419.68777079743,980.31222920257,419.68777079743,980.31222920257,780.31222920257,980.31222920257,419.68777079743,619.68777079743,419.68777079743,619.68777079743,780.31222920257,0,0,4,0,vertical,vertical,horizontal,horizontal
3a,6,100298,3,41,137,21,F,interleaved,constant,homogeneous,4,present,0.614804983139038,1,vertical,vertical,1,5,red,2,3,980.31222920257,419.68777079743,619.68777079743,419.68777079743,980.31222920257,780.31222920257,980.31222920257,419.68777079743,619.68777079743,419.68777079743,619.68777079743,780.31222920257,0,4,0,0,horizontal,vertical,horizontal,vertical
3a,6,100298,3,42,138,21,F,interleaved,constant,homogeneous,4,present,0.706701993942261,1,horizontal,horizontal,1,3,red,2,1,980.31222920257,419.68777079743,980.31222920257,780.31222920257,980.31222920257,780.31222920257,980.31222920257,419.68777079743,619.68777079743,419.68777079743,619.68777079743,780.31222920257,0,4,0,0,horizontal,horizontal,vertical,horizontal
3a,6,100298,3,43,139,21,F,interleaved,constant,homogeneous,4,absent,0.463288068771362,1,horizontal,horizontal,1,5,red,2,NaN,980.31222920257,419.68777079743,NaN,NaN,980.31222920257,780.31222920257,980.31222920257,419.68777079743,619.68777079743,419.68777079743,619.68777079743,780.31222920257,0,4,0,0,vertical,horizontal,vertical,vertical
3a,6,100298,3,44,140,21,F,interleaved,constant,homogeneous,4,present,0.56349515914917,1,vertical,vertical,1,8,red,2,3,980.31222920257,419.68777079743,619.68777079743,419.68777079743,980.31222920257,780.31222920257,980.31222920257,419.68777079743,619.68777079743,419.68777079743,619.68777079743,780.31222920257,0,4,0,0,horizontal,vertical,vertical,horizontal
3a,6,100298,3,45,141,21,F,interleaved,constant,homogeneous,4,absent,0.680048942565918,1,vertical,vertical,1,2,red,2,NaN,980.31222920257,419.68777079743,NaN,NaN,980.31222920257,780.31222920257,980.31222920257,419.68777079743,619.68777079743,419.68777079743,619.68777079743,780.31222920257,0,4,0,0,horizontal,vertical,vertical,vertical
3a,6,100298,3,46,142,21,F,interleaved,constant,homogeneous,4,absent,1.52440094947815,1,horizontal,horizontal,1,3,red,1,NaN,980.31222920257,780.31222920257,NaN,NaN,980.31222920257,780.31222920257,980.31222920257,419.68777079743,619.68777079743,419.68777079743,619.68777079743,780.31222920257,4,0,0,0,horizontal,horizontal,horizontal,horizontal
3a,6,100298,3,47,143,21,F,interleaved,constant,homogeneous,4,absent,1.02480792999268,1,horizontal,horizontal,1,5,red,2,NaN,980.31222920257,419.68777079743,NaN,NaN,980.31222920257,780.31222920257,980.31222920257,419.68777079743,619.68777079743,419.68777079743,619.68777079743,780.31222920257,0,4,0,0,horizontal,horizontal,horizontal,vertical
3a,6,100298,3,48,144,21,F,interleaved,constant,homogeneous,4,present,0.629040956497192,1,vertical,vertical,1,2,red,3,1,619.68777079743,419.68777079743,980.31222920257,780.31222920257,980.31222920257,780.31222920257,980.31222920257,419.68777079743,619.68777079743,419.68777079743,619.68777079743,780.31222920257,0,0,4,0,vertical,vertical,vertical,vertical
3a,6,100298,4,1,145,21,F,interleaved,variable,homogeneous,4,present,0.776866912841797,1,vertical,vertical,1,3,green,1,2,980.31222920257,780.31222920257,980.31222920257,419.68777079743,980.31222920257,780.31222920257,980.31222920257,419.68777079743,619.68777079743,419.68777079743,619.68777079743,780.31222920257,4,0,0,0,vertical,horizontal,horizontal,vertical
3a,6,100298,4,2,146,21,F,interleaved,variable,homogeneous,4,absent,0.909175872802734,1,horizontal,horizontal,1,2,red,4,NaN,619.68777079743,780.31222920257,NaN,NaN,980.31222920257,780.31222920257,980.31222920257,419.68777079743,619.68777079743,419.68777079743,619.68777079743,780.31222920257,0,0,0,4,vertical,horizontal,vertical,horizontal
3a,6,100298,4,3,147,21,F,interleaved,variable,homogeneous,4,present,0.753538846969604,1,vertical,vertical,1,2,red,3,2,619.68777079743,419.68777079743,980.31222920257,419.68777079743,980.31222920257,780.31222920257,980.31222920257,419.68777079743,619.68777079743,419.68777079743,619.68777079743,780.31222920257,0,0,4,0,horizontal,horizontal,vertical,vertical
3a,6,100298,4,4,148,21,F,interleaved,variable,homogeneous,4,present,0.661790132522583,1,vertical,vertical,1,2,green,1,3,980.31222920257,780.31222920257,619.68777079743,419.68777079743,980.31222920257,780.31222920257,980.31222920257,419.68777079743,619.68777079743,419.68777079743,619.68777079743,780.31222920257,4,0,0,0,vertical,horizontal,vertical,horizontal
3a,6,100298,4,5,149,21,F,interleaved,variable,homogeneous,4,present,0.737856149673462,1,vertical,vertical,1,5,red,3,1,619.68777079743,419.68777079743,980.31222920257,780.31222920257,980.31222920257,780.31222920257,980.31222920257,419.68777079743,619.68777079743,419.68777079743,619.68777079743,780.31222920257,0,0,4,0,horizontal,vertical,vertical,horizontal
3a,6,100298,4,6,150,21,F,interleaved,variable,homogeneous,4,absent,0.66244912147522,1,vertical,vertical,1,2,red,4,NaN,619.68777079743,780.31222920257,NaN,NaN,980.31222920257,780.31222920257,980.31222920257,419.68777079743,619.68777079743,419.68777079743,619.68777079743,780.31222920257,0,0,0,4,horizontal,vertical,vertical,vertical
3a,6,100298,4,7,151,21,F,interleaved,variable,homogeneous,4,present,0.754785060882568,1,horizontal,horizontal,1,5,green,2,4,980.31222920257,419.68777079743,619.68777079743,780.31222920257,980.31222920257,780.31222920257,980.31222920257,419.68777079743,619.68777079743,419.68777079743,619.68777079743,780.31222920257,0,4,0,0,horizontal,horizontal,vertical,horizontal
3a,6,100298,4,8,152,21,F,interleaved,variable,homogeneous,4,present,0.830901861190796,1,vertical,vertical,1,5,red,1,2,980.31222920257,780.31222920257,980.31222920257,419.68777079743,980.31222920257,780.31222920257,980.31222920257,419.68777079743,619.68777079743,419.68777079743,619.68777079743,780.31222920257,4,0,0,0,vertical,horizontal,vertical,vertical
3a,6,100298,4,9,153,21,F,interleaved,variable,homogeneous,4,present,0.739511013031006,1,horizontal,horizontal,1,2,green,4,1,619.68777079743,780.31222920257,980.31222920257,780.31222920257,980.31222920257,780.31222920257,980.31222920257,419.68777079743,619.68777079743,419.68777079743,619.68777079743,780.31222920257,0,0,0,4,vertical,vertical,horizontal,horizontal
3a,6,100298,4,10,154,21,F,interleaved,variable,homogeneous,4,present,0.567811012268066,1,horizontal,horizontal,1,2,green,4,1,619.68777079743,780.31222920257,980.31222920257,780.31222920257,980.31222920257,780.31222920257,980.31222920257,419.68777079743,619.68777079743,419.68777079743,619.68777079743,780.31222920257,0,0,0,4,horizontal,horizontal,horizontal,horizontal
3a,6,100298,4,11,155,21,F,interleaved,variable,homogeneous,4,present,0.756067991256714,1,vertical,vertical,1,3,red,1,3,980.31222920257,780.31222920257,619.68777079743,419.68777079743,980.31222920257,780.31222920257,980.31222920257,419.68777079743,619.68777079743,419.68777079743,619.68777079743,780.31222920257,4,0,0,0,vertical,vertical,horizontal,vertical
3a,6,100298,4,12,156,21,F,interleaved,variable,homogeneous,4,absent,0.728088140487671,1,vertical,vertical,1,2,red,4,NaN,619.68777079743,780.31222920257,NaN,NaN,980.31222920257,780.31222920257,980.31222920257,419.68777079743,619.68777079743,419.68777079743,619.68777079743,780.31222920257,0,0,0,4,horizontal,vertical,horizontal,vertical
3a,6,100298,4,13,157,21,F,interleaved,variable,homogeneous,4,absent,0.532659769058228,1,vertical,vertical,1,3,green,1,NaN,980.31222920257,780.31222920257,NaN,NaN,980.31222920257,780.31222920257,980.31222920257,419.68777079743,619.68777079743,419.68777079743,619.68777079743,780.31222920257,4,0,0,0,vertical,vertical,vertical,vertical
3a,6,100298,4,14,158,21,F,interleaved,variable,homogeneous,4,absent,0.513053894042969,1,vertical,vertical,1,5,red,2,NaN,980.31222920257,419.68777079743,NaN,NaN,980.31222920257,780.31222920257,980.31222920257,419.68777079743,619.68777079743,419.68777079743,619.68777079743,780.31222920257,0,4,0,0,vertical,vertical,horizontal,vertical
3a,6,100298,4,15,159,21,F,interleaved,variable,homogeneous,4,present,0.701539039611816,1,horizontal,horizontal,1,5,red,4,2,619.68777079743,780.31222920257,980.31222920257,419.68777079743,980.31222920257,780.31222920257,980.31222920257,419.68777079743,619.68777079743,419.68777079743,619.68777079743,780.31222920257,0,0,0,4,vertical,horizontal,vertical,horizontal
3a,6,100298,4,16,160,21,F,interleaved,variable,homogeneous,4,present,0.593487977981567,1,vertical,vertical,1,2,red,1,3,980.31222920257,780.31222920257,619.68777079743,419.68777079743,980.31222920257,780.31222920257,980.31222920257,419.68777079743,619.68777079743,419.68777079743,619.68777079743,780.31222920257,4,0,0,0,vertical,horizontal,horizontal,horizontal
3a,6,100298,4,17,161,21,F,interleaved,variable,homogeneous,4,absent,0.589709997177124,1,horizontal,horizontal,1,3,red,1,NaN,980.31222920257,780.31222920257,NaN,NaN,980.31222920257,780.31222920257,980.31222920257,419.68777079743,619.68777079743,419.68777079743,619.68777079743,780.31222920257,4,0,0,0,horizontal,horizontal,horizontal,horizontal
3a,6,100298,4,18,162,21,F,interleaved,variable,homogeneous,4,present,0.754604816436768,1,horizontal,horizontal,1,2,red,4,1,619.68777079743,780.31222920257,980.31222920257,780.31222920257,980.31222920257,780.31222920257,980.31222920257,419.68777079743,619.68777079743,419.68777079743,619.68777079743,780.31222920257,0,0,0,4,vertical,horizontal,vertical,horizontal
3a,6,100298,4,19,163,21,F,interleaved,variable,homogeneous,4,absent,0.718699932098389,1,horizontal,horizontal,1,5,green,4,NaN,619.68777079743,780.31222920257,NaN,NaN,980.31222920257,780.31222920257,980.31222920257,419.68777079743,619.68777079743,419.68777079743,619.68777079743,780.31222920257,0,0,0,4,horizontal,vertical,vertical,horizontal
3a,6,100298,4,20,164,21,F,interleaved,variable,homogeneous,4,present,0.618863105773926,1,vertical,vertical,1,5,red,1,2,980.31222920257,780.31222920257,980.31222920257,419.68777079743,980.31222920257,780.31222920257,980.31222920257,419.68777079743,619.68777079743,419.68777079743,619.68777079743,780.31222920257,4,0,0,0,vertical,horizontal,horizontal,vertical
3a,6,100298,4,21,165,21,F,interleaved,variable,homogeneous,4,present,0.783241987228394,1,vertical,vertical,1,8,red,1,3,980.31222920257,780.31222920257,619.68777079743,419.68777079743,980.31222920257,780.31222920257,980.31222920257,419.68777079743,619.68777079743,419.68777079743,619.68777079743,780.31222920257,4,0,0,0,vertical,vertical,horizontal,horizontal
3a,6,100298,4,22,166,21,F,interleaved,variable,homogeneous,4,present,0.651763200759888,1,horizontal,horizontal,1,5,red,1,2,980.31222920257,780.31222920257,980.31222920257,419.68777079743,980.31222920257,780.31222920257,980.31222920257,419.68777079743,619.68777079743,419.68777079743,619.68777079743,780.31222920257,4,0,0,0,horizontal,vertical,vertical,horizontal
3a,6,100298,4,23,167,21,F,interleaved,variable,homogeneous,4,absent,0.792137145996094,1,horizontal,horizontal,1,5,red,2,NaN,980.31222920257,419.68777079743,NaN,NaN,980.31222920257,780.31222920257,980.31222920257,419.68777079743,619.68777079743,419.68777079743,619.68777079743,780.31222920257,0,4,0,0,horizontal,horizontal,vertical,horizontal
3a,6,100298,4,24,168,21,F,interleaved,variable,homogeneous,4,present,0.604315996170044,1,horizontal,horizontal,1,8,red,2,4,980.31222920257,419.68777079743,619.68777079743,780.31222920257,980.31222920257,780.31222920257,980.31222920257,419.68777079743,619.68777079743,419.68777079743,619.68777079743,780.31222920257,0,4,0,0,vertical,horizontal,horizontal,vertical
3a,6,100298,4,25,169,21,F,interleaved,variable,homogeneous,4,present,0.648676872253418,1,horizontal,horizontal,1,5,green,4,1,619.68777079743,780.31222920257,980.31222920257,780.31222920257,980.31222920257,780.31222920257,980.31222920257,419.68777079743,619.68777079743,419.68777079743,619.68777079743,780.31222920257,0,0,0,4,horizontal,horizontal,vertical,horizontal
3a,6,100298,4,26,170,21,F,interleaved,variable,homogeneous,4,absent,0.493402004241943,1,horizontal,horizontal,1,2,green,4,NaN,619.68777079743,780.31222920257,NaN,NaN,980.31222920257,780.31222920257,980.31222920257,419.68777079743,619.68777079743,419.68777079743,619.68777079743,780.31222920257,0,0,0,4,horizontal,vertical,vertical,horizontal
3a,6,100298,4,27,171,21,F,interleaved,variable,homogeneous,4,present,0.825384855270386,1,vertical,vertical,1,3,green,3,2,619.68777079743,419.68777079743,980.31222920257,419.68777079743,980.31222920257,780.31222920257,980.31222920257,419.68777079743,619.68777079743,419.68777079743,619.68777079743,780.31222920257,0,0,4,0,vertical,vertical,vertical,vertical
3a,6,100298,4,28,172,21,F,interleaved,variable,homogeneous,4,present,0.637783050537109,1,vertical,vertical,1,8,red,2,4,980.31222920257,419.68777079743,619.68777079743,780.31222920257,980.31222920257,780.31222920257,980.31222920257,419.68777079743,619.68777079743,419.68777079743,619.68777079743,780.31222920257,0,4,0,0,vertical,vertical,horizontal,vertical
3a,6,100298,4,29,173,21,F,interleaved,variable,homogeneous,4,present,0.754273891448975,1,horizontal,horizontal,1,2,red,2,3,980.31222920257,419.68777079743,619.68777079743,419.68777079743,980.31222920257,780.31222920257,980.31222920257,419.68777079743,619.68777079743,419.68777079743,619.68777079743,780.31222920257,0,4,0,0,horizontal,horizontal,vertical,horizontal
3a,6,100298,4,30,174,21,F,interleaved,variable,homogeneous,4,absent,0.662459135055542,1,vertical,vertical,1,8,green,4,NaN,619.68777079743,780.31222920257,NaN,NaN,980.31222920257,780.31222920257,980.31222920257,419.68777079743,619.68777079743,419.68777079743,619.68777079743,780.31222920257,0,0,0,4,horizontal,vertical,horizontal,vertical
3a,6,100298,4,31,175,21,F,interleaved,variable,homogeneous,4,absent,0.778879165649414,1,horizontal,horizontal,1,2,red,4,NaN,619.68777079743,780.31222920257,NaN,NaN,980.31222920257,780.31222920257,980.31222920257,419.68777079743,619.68777079743,419.68777079743,619.68777079743,780.31222920257,0,0,0,4,horizontal,vertical,vertical,horizontal
3a,6,100298,4,32,176,21,F,interleaved,variable,homogeneous,4,present,0.743377208709717,1,vertical,vertical,1,3,red,2,1,980.31222920257,419.68777079743,980.31222920257,780.31222920257,980.31222920257,780.31222920257,980.31222920257,419.68777079743,619.68777079743,419.68777079743,619.68777079743,780.31222920257,0,4,0,0,vertical,vertical,vertical,horizontal
3a,6,100298,4,33,177,21,F,interleaved,variable,homogeneous,4,present,0.635857105255127,1,vertical,vertical,1,2,green,4,1,619.68777079743,780.31222920257,980.31222920257,780.31222920257,980.31222920257,780.31222920257,980.31222920257,419.68777079743,619.68777079743,419.68777079743,619.68777079743,780.31222920257,0,0,0,4,vertical,horizontal,vertical,vertical
3a,6,100298,4,34,178,21,F,interleaved,variable,homogeneous,4,present,0.751924991607666,1,horizontal,horizontal,1,2,red,4,1,619.68777079743,780.31222920257,980.31222920257,780.31222920257,980.31222920257,780.31222920257,980.31222920257,419.68777079743,619.68777079743,419.68777079743,619.68777079743,780.31222920257,0,0,0,4,vertical,vertical,vertical,horizontal
3a,6,100298,4,35,179,21,F,interleaved,variable,homogeneous,4,absent,0.77209997177124,1,horizontal,horizontal,1,8,red,1,NaN,980.31222920257,780.31222920257,NaN,NaN,980.31222920257,780.31222920257,980.31222920257,419.68777079743,619.68777079743,419.68777079743,619.68777079743,780.31222920257,4,0,0,0,horizontal,vertical,vertical,vertical
3a,6,100298,4,36,180,21,F,interleaved,variable,homogeneous,4,absent,0.656583070755005,1,horizontal,horizontal,1,3,green,2,NaN,980.31222920257,419.68777079743,NaN,NaN,980.31222920257,780.31222920257,980.31222920257,419.68777079743,619.68777079743,419.68777079743,619.68777079743,780.31222920257,0,4,0,0,vertical,horizontal,horizontal,horizontal
3a,6,100298,4,37,181,21,F,interleaved,variable,homogeneous,4,present,0.676969051361084,1,horizontal,horizontal,1,8,green,1,4,980.31222920257,780.31222920257,619.68777079743,780.31222920257,980.31222920257,780.31222920257,980.31222920257,419.68777079743,619.68777079743,419.68777079743,619.68777079743,780.31222920257,4,0,0,0,horizontal,horizontal,vertical,vertical
3a,6,100298,4,38,182,21,F,interleaved,variable,homogeneous,4,present,0.529308080673218,1,horizontal,horizontal,1,3,green,2,3,980.31222920257,419.68777079743,619.68777079743,419.68777079743,980.31222920257,780.31222920257,980.31222920257,419.68777079743,619.68777079743,419.68777079743,619.68777079743,780.31222920257,0,4,0,0,vertical,horizontal,vertical,vertical
3a,6,100298,4,39,183,21,F,interleaved,variable,homogeneous,4,absent,0.717517137527466,1,vertical,vertical,1,3,red,2,NaN,980.31222920257,419.68777079743,NaN,NaN,980.31222920257,780.31222920257,980.31222920257,419.68777079743,619.68777079743,419.68777079743,619.68777079743,780.31222920257,0,4,0,0,vertical,vertical,horizontal,horizontal
3a,6,100298,4,40,184,21,F,interleaved,variable,homogeneous,4,present,0.59368109703064,1,vertical,vertical,1,2,green,2,1,980.31222920257,419.68777079743,980.31222920257,780.31222920257,980.31222920257,780.31222920257,980.31222920257,419.68777079743,619.68777079743,419.68777079743,619.68777079743,780.31222920257,0,4,0,0,vertical,vertical,vertical,vertical
3a,6,100298,4,41,185,21,F,interleaved,variable,homogeneous,4,present,0.846160173416138,1,horizontal,horizontal,1,3,red,4,2,619.68777079743,780.31222920257,980.31222920257,419.68777079743,980.31222920257,780.31222920257,980.31222920257,419.68777079743,619.68777079743,419.68777079743,619.68777079743,780.31222920257,0,0,0,4,vertical,horizontal,horizontal,horizontal
3a,6,100298,4,42,186,21,F,interleaved,variable,homogeneous,4,present,0.874671936035156,1,vertical,vertical,1,5,red,1,2,980.31222920257,780.31222920257,980.31222920257,419.68777079743,980.31222920257,780.31222920257,980.31222920257,419.68777079743,619.68777079743,419.68777079743,619.68777079743,780.31222920257,4,0,0,0,vertical,horizontal,horizontal,horizontal
3a,6,100298,4,43,187,21,F,interleaved,variable,homogeneous,4,present,0.82273006439209,1,horizontal,horizontal,1,3,red,3,2,619.68777079743,419.68777079743,980.31222920257,419.68777079743,980.31222920257,780.31222920257,980.31222920257,419.68777079743,619.68777079743,419.68777079743,619.68777079743,780.31222920257,0,0,4,0,vertical,vertical,horizontal,vertical
3a,6,100298,4,44,188,21,F,interleaved,variable,homogeneous,4,absent,0.539171934127808,1,vertical,vertical,1,2,green,4,NaN,619.68777079743,780.31222920257,NaN,NaN,980.31222920257,780.31222920257,980.31222920257,419.68777079743,619.68777079743,419.68777079743,619.68777079743,780.31222920257,0,0,0,4,horizontal,vertical,vertical,vertical
3a,6,100298,4,45,189,21,F,interleaved,variable,homogeneous,4,present,0.599252939224243,1,horizontal,horizontal,1,3,red,3,2,619.68777079743,419.68777079743,980.31222920257,419.68777079743,980.31222920257,780.31222920257,980.31222920257,419.68777079743,619.68777079743,419.68777079743,619.68777079743,780.31222920257,0,0,4,0,vertical,vertical,horizontal,vertical
3a,6,100298,4,46,190,21,F,interleaved,variable,homogeneous,4,present,0.492042064666748,1,vertical,vertical,1,2,green,3,4,619.68777079743,419.68777079743,619.68777079743,780.31222920257,980.31222920257,780.31222920257,980.31222920257,419.68777079743,619.68777079743,419.68777079743,619.68777079743,780.31222920257,0,0,4,0,horizontal,vertical,vertical,vertical
3a,6,100298,4,47,191,21,F,interleaved,variable,homogeneous,4,absent,0.664007902145386,1,vertical,vertical,1,5,red,2,NaN,980.31222920257,419.68777079743,NaN,NaN,980.31222920257,780.31222920257,980.31222920257,419.68777079743,619.68777079743,419.68777079743,619.68777079743,780.31222920257,0,4,0,0,horizontal,vertical,horizontal,horizontal
3a,6,100298,4,48,192,21,F,interleaved,variable,homogeneous,4,present,0.956598043441772,1,horizontal,horizontal,1,2,red,4,1,619.68777079743,780.31222920257,980.31222920257,780.31222920257,980.31222920257,780.31222920257,980.31222920257,419.68777079743,619.68777079743,419.68777079743,619.68777079743,780.31222920257,0,0,0,4,horizontal,horizontal,vertical,horizontal
3a,6,100298,5,1,193,21,F,interleaved,constant,homogeneous,4,present,1.0217559337616,1,vertical,vertical,1,2,green,2,1,980.31222920257,419.68777079743,980.31222920257,780.31222920257,980.31222920257,780.31222920257,980.31222920257,419.68777079743,619.68777079743,419.68777079743,619.68777079743,780.31222920257,0,4,0,0,horizontal,vertical,vertical,vertical
3a,6,100298,5,2,194,21,F,interleaved,constant,homogeneous,4,present,0.425822973251343,1,vertical,vertical,1,5,green,2,4,980.31222920257,419.68777079743,619.68777079743,780.31222920257,980.31222920257,780.31222920257,980.31222920257,419.68777079743,619.68777079743,419.68777079743,619.68777079743,780.31222920257,0,4,0,0,vertical,vertical,horizontal,vertical
3a,6,100298,5,3,195,21,F,interleaved,constant,homogeneous,4,absent,0.398146152496338,1,vertical,vertical,1,2,green,2,NaN,980.31222920257,419.68777079743,NaN,NaN,980.31222920257,780.31222920257,980.31222920257,419.68777079743,619.68777079743,419.68777079743,619.68777079743,780.31222920257,0,4,0,0,vertical,vertical,horizontal,horizontal
3a,6,100298,5,4,196,21,F,interleaved,constant,homogeneous,4,present,0.602358102798462,1,horizontal,horizontal,1,3,green,3,2,619.68777079743,419.68777079743,980.31222920257,419.68777079743,980.31222920257,780.31222920257,980.31222920257,419.68777079743,619.68777079743,419.68777079743,619.68777079743,780.31222920257,0,0,4,0,vertical,vertical,horizontal,vertical
3a,6,100298,5,5,197,21,F,interleaved,constant,homogeneous,4,absent,0.630805015563965,1,vertical,vertical,1,5,green,4,NaN,619.68777079743,780.31222920257,NaN,NaN,980.31222920257,780.31222920257,980.31222920257,419.68777079743,619.68777079743,419.68777079743,619.68777079743,780.31222920257,0,0,0,4,horizontal,vertical,horizontal,vertical
3a,6,100298,5,6,198,21,F,interleaved,constant,homogeneous,4,present,0.627292156219482,1,horizontal,horizontal,1,5,green,4,2,619.68777079743,780.31222920257,980.31222920257,419.68777079743,980.31222920257,780.31222920257,980.31222920257,419.68777079743,619.68777079743,419.68777079743,619.68777079743,780.31222920257,0,0,0,4,horizontal,horizontal,vertical,horizontal
3a,6,100298,5,7,199,21,F,interleaved,constant,homogeneous,4,present,0.583525896072388,1,horizontal,horizontal,1,2,green,3,2,619.68777079743,419.68777079743,980.31222920257,419.68777079743,980.31222920257,780.31222920257,980.31222920257,419.68777079743,619.68777079743,419.68777079743,619.68777079743,780.31222920257,0,0,4,0,horizontal,vertical,horizontal,horizontal
3a,6,100298,5,8,200,21,F,interleaved,constant,homogeneous,4,absent,0.555892944335938,1,horizontal,horizontal,1,2,green,1,NaN,980.31222920257,780.31222920257,NaN,NaN,980.31222920257,780.31222920257,980.31222920257,419.68777079743,619.68777079743,419.68777079743,619.68777079743,780.31222920257,4,0,0,0,horizontal,vertical,horizontal,vertical
3a,6,100298,5,9,201,21,F,interleaved,constant,homogeneous,4,present,0.57643985748291,1,horizontal,horizontal,1,8,green,3,2,619.68777079743,419.68777079743,980.31222920257,419.68777079743,980.31222920257,780.31222920257,980.31222920257,419.68777079743,619.68777079743,419.68777079743,619.68777079743,780.31222920257,0,0,4,0,horizontal,horizontal,horizontal,vertical
3a,6,100298,5,10,202,21,F,interleaved,constant,homogeneous,4,present,0.540565967559814,1,vertical,vertical,1,3,green,2,3,980.31222920257,419.68777079743,619.68777079743,419.68777079743,980.31222920257,780.31222920257,980.31222920257,419.68777079743,619.68777079743,419.68777079743,619.68777079743,780.31222920257,0,4,0,0,vertical,vertical,horizontal,vertical
3a,6,100298,5,11,203,21,F,interleaved,constant,homogeneous,4,present,0.720807075500488,1,vertical,vertical,1,8,green,1,2,980.31222920257,780.31222920257,980.31222920257,419.68777079743,980.31222920257,780.31222920257,980.31222920257,419.68777079743,619.68777079743,419.68777079743,619.68777079743,780.31222920257,4,0,0,0,vertical,horizontal,horizontal,horizontal
3a,6,100298,5,12,204,21,F,interleaved,constant,homogeneous,4,present,0.549088001251221,1,horizontal,horizontal,1,2,green,4,1,619.68777079743,780.31222920257,980.31222920257,780.31222920257,980.31222920257,780.31222920257,980.31222920257,419.68777079743,619.68777079743,419.68777079743,619.68777079743,780.31222920257,0,0,0,4,vertical,horizontal,vertical,horizontal
3a,6,100298,5,13,205,21,F,interleaved,constant,homogeneous,4,present,0.665531873703003,1,horizontal,horizontal,1,2,green,3,4,619.68777079743,419.68777079743,619.68777079743,780.31222920257,980.31222920257,780.31222920257,980.31222920257,419.68777079743,619.68777079743,419.68777079743,619.68777079743,780.31222920257,0,0,4,0,vertical,vertical,horizontal,horizontal
3a,6,100298,5,14,206,21,F,interleaved,constant,homogeneous,4,present,0.605848789215088,1,vertical,vertical,1,2,green,1,3,980.31222920257,780.31222920257,619.68777079743,419.68777079743,980.31222920257,780.31222920257,980.31222920257,419.68777079743,619.68777079743,419.68777079743,619.68777079743,780.31222920257,4,0,0,0,vertical,horizontal,vertical,vertical
3a,6,100298,5,15,207,21,F,interleaved,constant,homogeneous,4,present,0.60208797454834,1,vertical,vertical,1,5,green,3,4,619.68777079743,419.68777079743,619.68777079743,780.31222920257,980.31222920257,780.31222920257,980.31222920257,419.68777079743,619.68777079743,419.68777079743,619.68777079743,780.31222920257,0,0,4,0,vertical,horizontal,vertical,vertical
3a,6,100298,5,16,208,21,F,interleaved,constant,homogeneous,4,absent,0.638519048690796,1,horizontal,horizontal,1,2,green,4,NaN,619.68777079743,780.31222920257,NaN,NaN,980.31222920257,780.31222920257,980.31222920257,419.68777079743,619.68777079743,419.68777079743,619.68777079743,780.31222920257,0,0,0,4,horizontal,vertical,horizontal,horizontal
3a,6,100298,5,17,209,21,F,interleaved,constant,homogeneous,4,absent,0.52278208732605,1,vertical,vertical,1,3,green,4,NaN,619.68777079743,780.31222920257,NaN,NaN,980.31222920257,780.31222920257,980.31222920257,419.68777079743,619.68777079743,419.68777079743,619.68777079743,780.31222920257,0,0,0,4,horizontal,horizontal,vertical,vertical
3a,6,100298,5,18,210,21,F,interleaved,constant,homogeneous,4,present,0.495241165161133,1,vertical,vertical,1,8,green,4,3,619.68777079743,780.31222920257,619.68777079743,419.68777079743,980.31222920257,780.31222920257,980.31222920257,419.68777079743,619.68777079743,419.68777079743,619.68777079743,780.31222920257,0,0,0,4,horizontal,vertical,vertical,vertical
3a,6,100298,5,19,211,21,F,interleaved,constant,homogeneous,4,absent,0.523658037185669,1,vertical,vertical,1,3,green,1,NaN,980.31222920257,780.31222920257,NaN,NaN,980.31222920257,780.31222920257,980.31222920257,419.68777079743,619.68777079743,419.68777079743,619.68777079743,780.31222920257,4,0,0,0,vertical,vertical,vertical,horizontal
3a,6,100298,5,20,212,21,F,interleaved,constant,homogeneous,4,present,0.559930086135864,1,horizontal,horizontal,1,2,green,1,2,980.31222920257,780.31222920257,980.31222920257,419.68777079743,980.31222920257,780.31222920257,980.31222920257,419.68777079743,619.68777079743,419.68777079743,619.68777079743,780.31222920257,4,0,0,0,horizontal,horizontal,vertical,horizontal
3a,6,100298,5,21,213,21,F,interleaved,constant,homogeneous,4,present,0.428414821624756,1,vertical,vertical,1,3,green,3,2,619.68777079743,419.68777079743,980.31222920257,419.68777079743,980.31222920257,780.31222920257,980.31222920257,419.68777079743,619.68777079743,419.68777079743,619.68777079743,780.31222920257,0,0,4,0,vertical,vertical,vertical,vertical
3a,6,100298,5,22,214,21,F,interleaved,constant,homogeneous,4,absent,0.632528781890869,1,horizontal,horizontal,1,3,green,4,NaN,619.68777079743,780.31222920257,NaN,NaN,980.31222920257,780.31222920257,980.31222920257,419.68777079743,619.68777079743,419.68777079743,619.68777079743,780.31222920257,0,0,0,4,vertical,horizontal,vertical,horizontal
3a,6,100298,5,23,215,21,F,interleaved,constant,homogeneous,4,absent,0.557138919830322,0,horizontal,vertical,1,2,green,3,NaN,619.68777079743,419.68777079743,NaN,NaN,980.31222920257,780.31222920257,980.31222920257,419.68777079743,619.68777079743,419.68777079743,619.68777079743,780.31222920257,0,0,4,0,horizontal,vertical,horizontal,horizontal
3a,6,100298,5,24,216,21,F,interleaved,constant,homogeneous,4,present,0.649348020553589,1,vertical,vertical,1,3,green,1,3,980.31222920257,780.31222920257,619.68777079743,419.68777079743,980.31222920257,780.31222920257,980.31222920257,419.68777079743,619.68777079743,419.68777079743,619.68777079743,780.31222920257,4,0,0,0,vertical,horizontal,vertical,vertical
3a,6,100298,5,25,217,21,F,interleaved,constant,homogeneous,4,present,0.6614830493927,1,horizontal,horizontal,1,3,green,4,1,619.68777079743,780.31222920257,980.31222920257,780.31222920257,980.31222920257,780.31222920257,980.31222920257,419.68777079743,619.68777079743,419.68777079743,619.68777079743,780.31222920257,0,0,0,4,horizontal,vertical,horizontal,horizontal
3a,6,100298,5,26,218,21,F,interleaved,constant,homogeneous,4,present,0.673719882965088,1,horizontal,horizontal,1,3,green,4,3,619.68777079743,780.31222920257,619.68777079743,419.68777079743,980.31222920257,780.31222920257,980.31222920257,419.68777079743,619.68777079743,419.68777079743,619.68777079743,780.31222920257,0,0,0,4,horizontal,vertical,vertical,horizontal
3a,6,100298,5,27,219,21,F,interleaved,constant,homogeneous,4,absent,0.502181053161621,1,vertical,vertical,1,8,green,2,NaN,980.31222920257,419.68777079743,NaN,NaN,980.31222920257,780.31222920257,980.31222920257,419.68777079743,619.68777079743,419.68777079743,619.68777079743,780.31222920257,0,4,0,0,vertical,vertical,vertical,vertical
3a,6,100298,5,28,220,21,F,interleaved,constant,homogeneous,4,present,0.762549877166748,1,horizontal,horizontal,1,2,green,1,4,980.31222920257,780.31222920257,619.68777079743,780.31222920257,980.31222920257,780.31222920257,980.31222920257,419.68777079743,619.68777079743,419.68777079743,619.68777079743,780.31222920257,4,0,0,0,horizontal,vertical,horizontal,vertical
3a,6,100298,5,29,221,21,F,interleaved,constant,homogeneous,4,present,0.718822002410889,1,vertical,vertical,1,2,green,1,4,980.31222920257,780.31222920257,619.68777079743,780.31222920257,980.31222920257,780.31222920257,980.31222920257,419.68777079743,619.68777079743,419.68777079743,619.68777079743,780.31222920257,4,0,0,0,vertical,horizontal,vertical,horizontal
3a,6,100298,5,30,222,21,F,interleaved,constant,homogeneous,4,absent,0.635128974914551,1,horizontal,horizontal,1,5,green,1,NaN,980.31222920257,780.31222920257,NaN,NaN,980.31222920257,780.31222920257,980.31222920257,419.68777079743,619.68777079743,419.68777079743,619.68777079743,780.31222920257,4,0,0,0,horizontal,vertical,vertical,vertical
3a,6,100298,5,31,223,21,F,interleaved,constant,homogeneous,4,present,0.599361896514893,1,vertical,vertical,1,5,green,3,2,619.68777079743,419.68777079743,980.31222920257,419.68777079743,980.31222920257,780.31222920257,980.31222920257,419.68777079743,619.68777079743,419.68777079743,619.68777079743,780.31222920257,0,0,4,0,vertical,horizontal,vertical,horizontal
3a,6,100298,5,32,224,21,F,interleaved,constant,homogeneous,4,present,0.571760177612305,1,vertical,vertical,1,2,green,1,4,980.31222920257,780.31222920257,619.68777079743,780.31222920257,980.31222920257,780.31222920257,980.31222920257,419.68777079743,619.68777079743,419.68777079743,619.68777079743,780.31222920257,4,0,0,0,vertical,vertical,vertical,horizontal
3a,6,100298,5,33,225,21,F,interleaved,constant,homogeneous,4,present,0.560184001922607,1,vertical,vertical,1,2,green,3,2,619.68777079743,419.68777079743,980.31222920257,419.68777079743,980.31222920257,780.31222920257,980.31222920257,419.68777079743,619.68777079743,419.68777079743,619.68777079743,780.31222920257,0,0,4,0,vertical,horizontal,vertical,horizontal
3a,6,100298,5,34,226,21,F,interleaved,constant,homogeneous,4,present,0.684324026107788,1,horizontal,horizontal,1,5,green,1,3,980.31222920257,780.31222920257,619.68777079743,419.68777079743,980.31222920257,780.31222920257,980.31222920257,419.68777079743,619.68777079743,419.68777079743,619.68777079743,780.31222920257,4,0,0,0,horizontal,horizontal,horizontal,vertical
3a,6,100298,5,35,227,21,F,interleaved,constant,homogeneous,4,present,0.808833837509155,1,horizontal,horizontal,1,5,green,4,3,619.68777079743,780.31222920257,619.68777079743,419.68777079743,980.31222920257,780.31222920257,980.31222920257,419.68777079743,619.68777079743,419.68777079743,619.68777079743,780.31222920257,0,0,0,4,horizontal,vertical,vertical,horizontal
3a,6,100298,5,36,228,21,F,interleaved,constant,homogeneous,4,absent,0.54939603805542,1,vertical,vertical,1,5,green,2,NaN,980.31222920257,419.68777079743,NaN,NaN,980.31222920257,780.31222920257,980.31222920257,419.68777079743,619.68777079743,419.68777079743,619.68777079743,780.31222920257,0,4,0,0,vertical,vertical,horizontal,vertical
3a,6,100298,5,37,229,21,F,interleaved,constant,homogeneous,4,present,0.561439990997314,1,horizontal,horizontal,1,3,green,4,1,619.68777079743,780.31222920257,980.31222920257,780.31222920257,980.31222920257,780.31222920257,980.31222920257,419.68777079743,619.68777079743,419.68777079743,619.68777079743,780.31222920257,0,0,0,4,horizontal,vertical,vertical,horizontal
3a,6,100298,5,38,230,21,F,interleaved,constant,homogeneous,4,absent,0.533875226974487,1,vertical,vertical,1,2,green,2,NaN,980.31222920257,419.68777079743,NaN,NaN,980.31222920257,780.31222920257,980.31222920257,419.68777079743,619.68777079743,419.68777079743,619.68777079743,780.31222920257,0,4,0,0,horizontal,vertical,horizontal,horizontal
3a,6,100298,5,39,231,21,F,interleaved,constant,homogeneous,4,present,0.570297002792358,1,vertical,vertical,1,2,green,1,2,980.31222920257,780.31222920257,980.31222920257,419.68777079743,980.31222920257,780.31222920257,980.31222920257,419.68777079743,619.68777079743,419.68777079743,619.68777079743,780.31222920257,4,0,0,0,vertical,vertical,vertical,vertical
3a,6,100298,5,40,232,21,F,interleaved,constant,homogeneous,4,present,0.56666898727417,1,horizontal,horizontal,1,5,green,1,3,980.31222920257,780.31222920257,619.68777079743,419.68777079743,980.31222920257,780.31222920257,980.31222920257,419.68777079743,619.68777079743,419.68777079743,619.68777079743,780.31222920257,4,0,0,0,horizontal,vertical,horizontal,vertical
3a,6,100298,5,41,233,21,F,interleaved,constant,homogeneous,4,absent,0.506911993026733,1,horizontal,horizontal,1,8,green,1,NaN,980.31222920257,780.31222920257,NaN,NaN,980.31222920257,780.31222920257,980.31222920257,419.68777079743,619.68777079743,419.68777079743,619.68777079743,780.31222920257,4,0,0,0,horizontal,vertical,vertical,horizontal
3a,6,100298,5,42,234,21,F,interleaved,constant,homogeneous,4,present,0.815268993377686,1,horizontal,horizontal,1,8,green,2,3,980.31222920257,419.68777079743,619.68777079743,419.68777079743,980.31222920257,780.31222920257,980.31222920257,419.68777079743,619.68777079743,419.68777079743,619.68777079743,780.31222920257,0,4,0,0,horizontal,horizontal,vertical,vertical
3a,6,100298,5,43,235,21,F,interleaved,constant,homogeneous,4,absent,0.523623943328857,1,horizontal,horizontal,1,3,green,1,NaN,980.31222920257,780.31222920257,NaN,NaN,980.31222920257,780.31222920257,980.31222920257,419.68777079743,619.68777079743,419.68777079743,619.68777079743,780.31222920257,4,0,0,0,horizontal,horizontal,horizontal,vertical
3a,6,100298,5,44,236,21,F,interleaved,constant,homogeneous,4,present,0.600151062011719,1,vertical,vertical,1,5,green,1,2,980.31222920257,780.31222920257,980.31222920257,419.68777079743,980.31222920257,780.31222920257,980.31222920257,419.68777079743,619.68777079743,419.68777079743,619.68777079743,780.31222920257,4,0,0,0,vertical,vertical,vertical,horizontal
3a,6,100298,5,45,237,21,F,interleaved,constant,homogeneous,4,absent,0.500387907028198,0,horizontal,vertical,1,5,green,3,NaN,619.68777079743,419.68777079743,NaN,NaN,980.31222920257,780.31222920257,980.31222920257,419.68777079743,619.68777079743,419.68777079743,619.68777079743,780.31222920257,0,0,4,0,horizontal,vertical,horizontal,vertical
3a,6,100298,5,46,238,21,F,interleaved,constant,homogeneous,4,present,0.57679009437561,1,vertical,vertical,1,3,green,1,3,980.31222920257,780.31222920257,619.68777079743,419.68777079743,980.31222920257,780.31222920257,980.31222920257,419.68777079743,619.68777079743,419.68777079743,619.68777079743,780.31222920257,4,0,0,0,vertical,horizontal,horizontal,vertical
3a,6,100298,5,47,239,21,F,interleaved,constant,homogeneous,4,present,0.788832902908325,1,horizontal,horizontal,1,2,green,4,3,619.68777079743,780.31222920257,619.68777079743,419.68777079743,980.31222920257,780.31222920257,980.31222920257,419.68777079743,619.68777079743,419.68777079743,619.68777079743,780.31222920257,0,0,0,4,vertical,vertical,vertical,horizontal
3a,6,100298,5,48,240,21,F,interleaved,constant,homogeneous,4,absent,0.521131038665771,1,vertical,vertical,1,2,green,1,NaN,980.31222920257,780.31222920257,NaN,NaN,980.31222920257,780.31222920257,980.31222920257,419.68777079743,619.68777079743,419.68777079743,619.68777079743,780.31222920257,4,0,0,0,vertical,vertical,vertical,vertical
3a,6,100298,6,1,241,21,F,interleaved,variable,homogeneous,4,present,0.712824106216431,1,horizontal,horizontal,1,8,green,1,4,980.31222920257,780.31222920257,619.68777079743,780.31222920257,980.31222920257,780.31222920257,980.31222920257,419.68777079743,619.68777079743,419.68777079743,619.68777079743,780.31222920257,4,0,0,0,horizontal,vertical,vertical,horizontal
3a,6,100298,6,2,242,21,F,interleaved,variable,homogeneous,4,absent,0.653442859649658,1,vertical,vertical,1,8,red,3,NaN,619.68777079743,419.68777079743,NaN,NaN,980.31222920257,780.31222920257,980.31222920257,419.68777079743,619.68777079743,419.68777079743,619.68777079743,780.31222920257,0,0,4,0,vertical,horizontal,vertical,vertical
3a,6,100298,6,3,243,21,F,interleaved,variable,homogeneous,4,absent,0.889650106430054,1,vertical,vertical,1,5,red,4,NaN,619.68777079743,780.31222920257,NaN,NaN,980.31222920257,780.31222920257,980.31222920257,419.68777079743,619.68777079743,419.68777079743,619.68777079743,780.31222920257,0,0,0,4,horizontal,horizontal,horizontal,vertical
3a,6,100298,6,4,244,21,F,interleaved,variable,homogeneous,4,present,0.678202152252197,1,horizontal,horizontal,1,3,green,3,1,619.68777079743,419.68777079743,980.31222920257,780.31222920257,980.31222920257,780.31222920257,980.31222920257,419.68777079743,619.68777079743,419.68777079743,619.68777079743,780.31222920257,0,0,4,0,horizontal,horizontal,horizontal,vertical
3a,6,100298,6,5,245,21,F,interleaved,variable,homogeneous,4,present,0.818569183349609,1,vertical,vertical,1,3,red,4,3,619.68777079743,780.31222920257,619.68777079743,419.68777079743,980.31222920257,780.31222920257,980.31222920257,419.68777079743,619.68777079743,419.68777079743,619.68777079743,780.31222920257,0,0,0,4,vertical,horizontal,vertical,vertical
3a,6,100298,6,6,246,21,F,interleaved,variable,homogeneous,4,present,1.02269196510315,1,horizontal,horizontal,1,5,red,2,1,980.31222920257,419.68777079743,980.31222920257,780.31222920257,980.31222920257,780.31222920257,980.31222920257,419.68777079743,619.68777079743,419.68777079743,619.68777079743,780.31222920257,0,4,0,0,vertical,horizontal,vertical,horizontal
3a,6,100298,6,7,247,21,F,interleaved,variable,homogeneous,4,present,0.531272888183594,1,vertical,vertical,1,2,red,3,4,619.68777079743,419.68777079743,619.68777079743,780.31222920257,980.31222920257,780.31222920257,980.31222920257,419.68777079743,619.68777079743,419.68777079743,619.68777079743,780.31222920257,0,0,4,0,horizontal,horizontal,vertical,vertical
3a,6,100298,6,8,248,21,F,interleaved,variable,homogeneous,4,present,0.527485847473145,1,vertical,vertical,1,3,green,3,1,619.68777079743,419.68777079743,980.31222920257,780.31222920257,980.31222920257,780.31222920257,980.31222920257,419.68777079743,619.68777079743,419.68777079743,619.68777079743,780.31222920257,0,0,4,0,horizontal,vertical,vertical,horizontal
3a,6,100298,6,9,249,21,F,interleaved,variable,homogeneous,4,present,1.17980217933655,1,vertical,vertical,1,5,red,1,2,980.31222920257,780.31222920257,980.31222920257,419.68777079743,980.31222920257,780.31222920257,980.31222920257,419.68777079743,619.68777079743,419.68777079743,619.68777079743,780.31222920257,4,0,0,0,vertical,vertical,vertical,horizontal
3a,6,100298,6,10,250,21,F,interleaved,variable,homogeneous,4,present,0.672186851501465,1,horizontal,horizontal,1,2,green,2,1,980.31222920257,419.68777079743,980.31222920257,780.31222920257,980.31222920257,780.31222920257,980.31222920257,419.68777079743,619.68777079743,419.68777079743,619.68777079743,780.31222920257,0,4,0,0,vertical,horizontal,vertical,vertical
3a,6,100298,6,11,251,21,F,interleaved,variable,homogeneous,4,absent,0.53229808807373,1,horizontal,horizontal,1,2,green,2,NaN,980.31222920257,419.68777079743,NaN,NaN,980.31222920257,780.31222920257,980.31222920257,419.68777079743,619.68777079743,419.68777079743,619.68777079743,780.31222920257,0,4,0,0,horizontal,horizontal,vertical,vertical
3a,6,100298,6,12,252,21,F,interleaved,variable,homogeneous,4,absent,0.616636991500854,1,horizontal,horizontal,1,8,green,2,NaN,980.31222920257,419.68777079743,NaN,NaN,980.31222920257,780.31222920257,980.31222920257,419.68777079743,619.68777079743,419.68777079743,619.68777079743,780.31222920257,0,4,0,0,horizontal,horizontal,horizontal,horizontal
3a,6,100298,6,13,253,21,F,interleaved,variable,homogeneous,4,absent,0.573086977005005,1,vertical,vertical,1,2,red,2,NaN,980.31222920257,419.68777079743,NaN,NaN,980.31222920257,780.31222920257,980.31222920257,419.68777079743,619.68777079743,419.68777079743,619.68777079743,780.31222920257,0,4,0,0,vertical,vertical,vertical,horizontal
3a,6,100298,6,14,254,21,F,interleaved,variable,homogeneous,4,present,0.69734001159668,1,vertical,vertical,1,3,red,3,1,619.68777079743,419.68777079743,980.31222920257,780.31222920257,980.31222920257,780.31222920257,980.31222920257,419.68777079743,619.68777079743,419.68777079743,619.68777079743,780.31222920257,0,0,4,0,horizontal,horizontal,vertical,horizontal
3a,6,100298,6,15,255,21,F,interleaved,variable,homogeneous,4,present,0.829737901687622,1,vertical,vertical,1,2,red,1,2,980.31222920257,780.31222920257,980.31222920257,419.68777079743,980.31222920257,780.31222920257,980.31222920257,419.68777079743,619.68777079743,419.68777079743,619.68777079743,780.31222920257,4,0,0,0,vertical,vertical,vertical,horizontal
3a,6,100298,6,16,256,21,F,interleaved,variable,homogeneous,4,absent,0.506074905395508,1,vertical,vertical,1,5,green,3,NaN,619.68777079743,419.68777079743,NaN,NaN,980.31222920257,780.31222920257,980.31222920257,419.68777079743,619.68777079743,419.68777079743,619.68777079743,780.31222920257,0,0,4,0,vertical,horizontal,vertical,horizontal
3a,6,100298,6,17,257,21,F,interleaved,variable,homogeneous,4,present,0.646370887756348,1,horizontal,horizontal,1,3,green,3,2,619.68777079743,419.68777079743,980.31222920257,419.68777079743,980.31222920257,780.31222920257,980.31222920257,419.68777079743,619.68777079743,419.68777079743,619.68777079743,780.31222920257,0,0,4,0,horizontal,horizontal,horizontal,horizontal
3a,6,100298,6,18,258,21,F,interleaved,variable,homogeneous,4,present,0.722820997238159,1,horizontal,horizontal,1,3,red,2,3,980.31222920257,419.68777079743,619.68777079743,419.68777079743,980.31222920257,780.31222920257,980.31222920257,419.68777079743,619.68777079743,419.68777079743,619.68777079743,780.31222920257,0,4,0,0,vertical,horizontal,horizontal,horizontal
3a,6,100298,6,19,259,21,F,interleaved,variable,homogeneous,4,present,0.694931983947754,1,vertical,vertical,1,2,green,4,1,619.68777079743,780.31222920257,980.31222920257,780.31222920257,980.31222920257,780.31222920257,980.31222920257,419.68777079743,619.68777079743,419.68777079743,619.68777079743,780.31222920257,0,0,0,4,vertical,vertical,vertical,vertical
3a,6,100298,6,20,260,21,F,interleaved,variable,homogeneous,4,absent,0.691342115402222,1,horizontal,horizontal,1,5,green,4,NaN,619.68777079743,780.31222920257,NaN,NaN,980.31222920257,780.31222920257,980.31222920257,419.68777079743,619.68777079743,419.68777079743,619.68777079743,780.31222920257,0,0,0,4,vertical,horizontal,horizontal,horizontal
3a,6,100298,6,21,261,21,F,interleaved,variable,homogeneous,4,present,0.671755075454712,1,vertical,vertical,1,5,red,1,4,980.31222920257,780.31222920257,619.68777079743,780.31222920257,980.31222920257,780.31222920257,980.31222920257,419.68777079743,619.68777079743,419.68777079743,619.68777079743,780.31222920257,4,0,0,0,vertical,horizontal,horizontal,horizontal
3a,6,100298,6,22,262,21,F,interleaved,variable,homogeneous,4,present,0.579971075057983,1,horizontal,horizontal,1,8,green,2,4,980.31222920257,419.68777079743,619.68777079743,780.31222920257,980.31222920257,780.31222920257,980.31222920257,419.68777079743,619.68777079743,419.68777079743,619.68777079743,780.31222920257,0,4,0,0,horizontal,horizontal,vertical,vertical
3a,6,100298,6,23,263,21,F,interleaved,variable,homogeneous,4,present,0.55242395401001,1,horizontal,horizontal,1,2,red,2,1,980.31222920257,419.68777079743,980.31222920257,780.31222920257,980.31222920257,780.31222920257,980.31222920257,419.68777079743,619.68777079743,419.68777079743,619.68777079743,780.31222920257,0,4,0,0,horizontal,horizontal,vertical,horizontal
3a,6,100298,6,24,264,21,F,interleaved,variable,homogeneous,4,present,0.452623128890991,1,horizontal,horizontal,1,3,green,2,1,980.31222920257,419.68777079743,980.31222920257,780.31222920257,980.31222920257,780.31222920257,980.31222920257,419.68777079743,619.68777079743,419.68777079743,619.68777079743,780.31222920257,0,4,0,0,horizontal,horizontal,horizontal,horizontal
3a,6,100298,6,25,265,21,F,interleaved,variable,homogeneous,4,absent,0.601273059844971,1,horizontal,horizontal,1,2,green,4,NaN,619.68777079743,780.31222920257,NaN,NaN,980.31222920257,780.31222920257,980.31222920257,419.68777079743,619.68777079743,419.68777079743,619.68777079743,780.31222920257,0,0,0,4,vertical,vertical,vertical,horizontal
3a,6,100298,6,26,266,21,F,interleaved,variable,homogeneous,4,present,0.557606935501099,1,vertical,vertical,1,8,red,1,3,980.31222920257,780.31222920257,619.68777079743,419.68777079743,980.31222920257,780.31222920257,980.31222920257,419.68777079743,619.68777079743,419.68777079743,619.68777079743,780.31222920257,4,0,0,0,vertical,horizontal,vertical,vertical
3a,6,100298,6,27,267,21,F,interleaved,variable,homogeneous,4,present,0.601980924606323,1,horizontal,horizontal,1,5,red,2,1,980.31222920257,419.68777079743,980.31222920257,780.31222920257,980.31222920257,780.31222920257,980.31222920257,419.68777079743,619.68777079743,419.68777079743,619.68777079743,780.31222920257,0,4,0,0,horizontal,horizontal,vertical,horizontal
3a,6,100298,6,28,268,21,F,interleaved,variable,homogeneous,4,present,0.438102006912231,0,vertical,horizontal,1,5,green,4,1,619.68777079743,780.31222920257,980.31222920257,780.31222920257,980.31222920257,780.31222920257,980.31222920257,419.68777079743,619.68777079743,419.68777079743,619.68777079743,780.31222920257,0,0,0,4,vertical,horizontal,vertical,vertical
3a,6,100298,6,29,269,21,F,interleaved,variable,homogeneous,4,present,0.682570934295654,1,horizontal,horizontal,1,2,green,1,2,980.31222920257,780.31222920257,980.31222920257,419.68777079743,980.31222920257,780.31222920257,980.31222920257,419.68777079743,619.68777079743,419.68777079743,619.68777079743,780.31222920257,4,0,0,0,horizontal,vertical,horizontal,vertical
3a,6,100298,6,30,270,21,F,interleaved,variable,homogeneous,4,absent,0.62299108505249,1,horizontal,horizontal,1,2,green,4,NaN,619.68777079743,780.31222920257,NaN,NaN,980.31222920257,780.31222920257,980.31222920257,419.68777079743,619.68777079743,419.68777079743,619.68777079743,780.31222920257,0,0,0,4,horizontal,horizontal,horizontal,horizontal
3a,6,100298,6,31,271,21,F,interleaved,variable,homogeneous,4,present,0.699231147766113,1,vertical,vertical,1,3,green,1,3,980.31222920257,780.31222920257,619.68777079743,419.68777079743,980.31222920257,780.31222920257,980.31222920257,419.68777079743,619.68777079743,419.68777079743,619.68777079743,780.31222920257,4,0,0,0,vertical,vertical,vertical,horizontal
3a,6,100298,6,32,272,21,F,interleaved,variable,homogeneous,4,present,0.735404014587402,1,vertical,vertical,1,2,red,1,3,980.31222920257,780.31222920257,619.68777079743,419.68777079743,980.31222920257,780.31222920257,980.31222920257,419.68777079743,619.68777079743,419.68777079743,619.68777079743,780.31222920257,4,0,0,0,vertical,vertical,horizontal,vertical
3a,6,100298,6,33,273,21,F,interleaved,variable,homogeneous,4,present,0.5957190990448,1,horizontal,horizontal,1,2,red,4,1,619.68777079743,780.31222920257,980.31222920257,780.31222920257,980.31222920257,780.31222920257,980.31222920257,419.68777079743,619.68777079743,419.68777079743,619.68777079743,780.31222920257,0,0,0,4,horizontal,vertical,horizontal,horizontal
3a,6,100298,6,34,274,21,F,interleaved,variable,homogeneous,4,present,0.560086011886597,1,vertical,vertical,1,5,green,3,1,619.68777079743,419.68777079743,980.31222920257,780.31222920257,980.31222920257,780.31222920257,980.31222920257,419.68777079743,619.68777079743,419.68777079743,619.68777079743,780.31222920257,0,0,4,0,horizontal,vertical,vertical,horizontal
3a,6,100298,6,35,275,21,F,interleaved,variable,homogeneous,4,present,0.628400087356567,1,vertical,vertical,1,2,red,1,3,980.31222920257,780.31222920257,619.68777079743,419.68777079743,980.31222920257,780.31222920257,980.31222920257,419.68777079743,619.68777079743,419.68777079743,619.68777079743,780.31222920257,4,0,0,0,vertical,vertical,horizontal,vertical
3a,6,100298,6,36,276,21,F,interleaved,variable,homogeneous,4,present,0.456814050674438,1,vertical,vertical,1,2,red,3,2,619.68777079743,419.68777079743,980.31222920257,419.68777079743,980.31222920257,780.31222920257,980.31222920257,419.68777079743,619.68777079743,419.68777079743,619.68777079743,780.31222920257,0,0,4,0,horizontal,horizontal,vertical,vertical
3a,6,100298,6,37,277,21,F,interleaved,variable,homogeneous,4,absent,0.469034910202026,1,horizontal,horizontal,1,5,green,1,NaN,980.31222920257,780.31222920257,NaN,NaN,980.31222920257,780.31222920257,980.31222920257,419.68777079743,619.68777079743,419.68777079743,619.68777079743,780.31222920257,4,0,0,0,horizontal,vertical,horizontal,horizontal
3a,6,100298,6,38,278,21,F,interleaved,variable,homogeneous,4,absent,0.617349863052368,1,vertical,vertical,1,2,green,4,NaN,619.68777079743,780.31222920257,NaN,NaN,980.31222920257,780.31222920257,980.31222920257,419.68777079743,619.68777079743,419.68777079743,619.68777079743,780.31222920257,0,0,0,4,horizontal,vertical,vertical,vertical
3a,6,100298,6,39,279,21,F,interleaved,variable,homogeneous,4,absent,0.421416997909546,1,vertical,vertical,1,3,green,1,NaN,980.31222920257,780.31222920257,NaN,NaN,980.31222920257,780.31222920257,980.31222920257,419.68777079743,619.68777079743,419.68777079743,619.68777079743,780.31222920257,4,0,0,0,vertical,vertical,horizontal,horizontal
3a,6,100298,6,40,280,21,F,interleaved,variable,homogeneous,4,absent,0.545975923538208,1,vertical,vertical,1,3,red,4,NaN,619.68777079743,780.31222920257,NaN,NaN,980.31222920257,780.31222920257,980.31222920257,419.68777079743,619.68777079743,419.68777079743,619.68777079743,780.31222920257,0,0,0,4,vertical,horizontal,vertical,vertical
3a,6,100298,6,41,281,21,F,interleaved,variable,homogeneous,4,present,0.42241382598877,1,horizontal,horizontal,1,2,green,4,3,619.68777079743,780.31222920257,619.68777079743,419.68777079743,980.31222920257,780.31222920257,980.31222920257,419.68777079743,619.68777079743,419.68777079743,619.68777079743,780.31222920257,0,0,0,4,horizontal,horizontal,horizontal,horizontal
