experiment,subject,uniqueID,block,trial,trial_cumulative,age,gender,color_cond_blocking,color_history,shape_type,set_size,distractor,rt,acc,target_orient,response_key,response_made,iti,target_color,target_item,distractor_item,target_X,target_Y,distractor_X,distractor_Y,item1_X,item1_Y,item2_X,item2_Y,item3_X,item3_Y,item4_X,item4_Y,item1_shape,item2_shape,item3_shape,item4_shape,item1_line,item2_line,item3_line,item4_line
3a,7,100300,1,1,1,21,F,interleaved,constant,homogeneous,4,absent,0.758326053619385,1,horizontal,horizontal,1,5,green,2,NaN,980.31222920257,419.68777079743,NaN,NaN,980.31222920257,780.31222920257,980.31222920257,419.68777079743,619.68777079743,419.68777079743,619.68777079743,780.31222920257,0,4,0,0,vertical,horizontal,horizontal,horizontal
3a,7,100300,1,2,2,21,F,interleaved,constant,homogeneous,4,present,0.77021312713623,1,horizontal,horizontal,1,5,green,1,3,980.31222920257,780.31222920257,619.68777079743,419.68777079743,980.31222920257,780.31222920257,980.31222920257,419.68777079743,619.68777079743,419.68777079743,619.68777079743,780.31222920257,4,0,0,0,horizontal,horizontal,horizontal,vertical
3a,7,100300,1,3,3,21,F,interleaved,constant,homogeneous,4,absent,0.75078010559082,1,horizontal,horizontal,1,3,green,2,NaN,980.31222920257,419.68777079743,NaN,NaN,980.31222920257,780.31222920257,980.31222920257,419.68777079743,619.68777079743,419.68777079743,619.68777079743,780.31222920257,0,4,0,0,vertical,horizontal,vertical,vertical
3a,7,100300,1,4,4,21,F,interleaved,constant,homogeneous,4,present,0.507031917572021,1,horizontal,horizontal,1,2,green,2,4,980.31222920257,419.68777079743,619.68777079743,780.31222920257,980.31222920257,780.31222920257,980.31222920257,419.68777079743,619.68777079743,419.68777079743,619.68777079743,780.31222920257,0,4,0,0,horizontal,horizontal,horizontal,horizontal
3a,7,100300,1,5,5,21,F,interleaved,constant,homogeneous,4,absent,0.759588003158569,1,vertical,vertical,1,2,green,4,NaN,619.68777079743,780.31222920257,NaN,NaN,980.31222920257,780.31222920257,980.31222920257,419.68777079743,619.68777079743,419.68777079743,619.68777079743,780.31222920257,0,0,0,4,vertical,vertical,horizontal,vertical
3a,7,100300,1,6,6,21,F,interleaved,constant,homogeneous,4,present,1.45963907241821,1,vertical,vertical,1,3,green,3,2,619.68777079743,419.68777079743,980.31222920257,419.68777079743,980.31222920257,780.31222920257,980.31222920257,419.68777079743,619.68777079743,419.68777079743,619.68777079743,780.31222920257,0,0,4,0,vertical,horizontal,vertical,vertical
3a,7,100300,1,7,7,21,F,interleaved,constant,homogeneous,4,present,0.864102125167847,1,horizontal,horizontal,1,8,green,1,4,980.31222920257,780.31222920257,619.68777079743,780.31222920257,980.31222920257,780.31222920257,980.31222920257,419.68777079743,619.68777079743,419.68777079743,619.68777079743,780.31222920257,4,0,0,0,horizontal,horizontal,vertical,horizontal
3a,7,100300,1,8,8,21,F,interleaved,constant,homogeneous,4,present,1.50811791419983,1,vertical,vertical,1,2,green,2,3,980.31222920257,419.68777079743,619.68777079743,419.68777079743,980.31222920257,780.31222920257,980.31222920257,419.68777079743,619.68777079743,419.68777079743,619.68777079743,780.31222920257,0,4,0,0,horizontal,vertical,vertical,horizontal
3a,7,100300,1,9,9,21,F,interleaved,constant,homogeneous,4,present,1.48855781555176,1,vertical,vertical,1,3,green,4,1,619.68777079743,780.31222920257,980.31222920257,780.31222920257,980.31222920257,780.31222920257,980.31222920257,419.68777079743,619.68777079743,419.68777079743,619.68777079743,780.31222920257,0,0,0,4,horizontal,vertical,horizontal,vertical
3a,7,100300,1,10,10,21,F,interleaved,constant,homogeneous,4,present,1.12507700920105,1,vertical,vertical,1,3,green,3,1,619.68777079743,419.68777079743,980.31222920257,780.31222920257,980.31222920257,780.31222920257,980.31222920257,419.68777079743,619.68777079743,419.68777079743,619.68777079743,780.31222920257,0,0,4,0,horizontal,vertical,vertical,vertical
3a,7,100300,1,11,11,21,F,interleaved,constant,homogeneous,4,present,0.849392175674438,1,horizontal,horizontal,1,2,green,4,2,619.68777079743,780.31222920257,980.31222920257,419.68777079743,980.31222920257,780.31222920257,980.31222920257,419.68777079743,619.68777079743,419.68777079743,619.68777079743,780.31222920257,0,0,0,4,horizontal,horizontal,vertical,horizontal
3a,7,100300,1,12,12,21,F,interleaved,constant,homogeneous,4,present,0.733743190765381,1,horizontal,horizontal,1,5,green,4,1,619.68777079743,780.31222920257,980.31222920257,780.31222920257,980.31222920257,780.31222920257,980.31222920257,419.68777079743,619.68777079743,419.68777079743,619.68777079743,780.31222920257,0,0,0,4,horizontal,vertical,horizontal,horizontal
3a,7,100300,1,13,13,21,F,interleaved,constant,homogeneous,4,absent,0.786304950714111,1,vertical,vertical,1,8,green,2,NaN,980.31222920257,419.68777079743,NaN,NaN,980.31222920257,780.31222920257,980.31222920257,419.68777079743,619.68777079743,419.68777079743,619.68777079743,780.31222920257,0,4,0,0,horizontal,vertical,vertical,vertical
3a,7,100300,1,14,14,21,F,interleaved,constant,homogeneous,4,present,0.774335145950317,1,vertical,vertical,1,8,green,2,3,980.31222920257,419.68777079743,619.68777079743,419.68777079743,980.31222920257,780.31222920257,980.31222920257,419.68777079743,619.68777079743,419.68777079743,619.68777079743,780.31222920257,0,4,0,0,vertical,vertical,vertical,vertical
3a,7,100300,1,15,15,21,F,interleaved,constant,homogeneous,4,absent,0.818595170974731,1,vertical,vertical,1,5,green,3,NaN,619.68777079743,419.68777079743,NaN,NaN,980.31222920257,780.31222920257,980.31222920257,419.68777079743,619.68777079743,419.68777079743,619.68777079743,780.31222920257,0,0,4,0,vertical,horizontal,vertical,vertical
3a,7,100300,1,16,16,21,F,interleaved,constant,homogeneous,4,present,0.855250120162964,1,vertical,vertical,1,5,green,4,3,619.68777079743,780.31222920257,619.68777079743,419.68777079743,980.31222920257,780.31222920257,980.31222920257,419.68777079743,619.68777079743,419.68777079743,619.68777079743,780.31222920257,0,0,0,4,vertical,vertical,horizontal,vertical
3a,7,100300,1,17,17,21,F,interleaved,constant,homogeneous,4,present,0.755729913711548,1,vertical,vertical,1,5,green,4,1,619.68777079743,780.31222920257,980.31222920257,780.31222920257,980.31222920257,780.31222920257,980.31222920257,419.68777079743,619.68777079743,419.68777079743,619.68777079743,780.31222920257,0,0,0,4,horizontal,vertical,vertical,vertical
3a,7,100300,1,18,18,21,F,interleaved,constant,homogeneous,4,present,0.656266927719116,1,vertical,vertical,1,8,green,3,2,619.68777079743,419.68777079743,980.31222920257,419.68777079743,980.31222920257,780.31222920257,980.31222920257,419.68777079743,619.68777079743,419.68777079743,619.68777079743,780.31222920257,0,0,4,0,horizontal,horizontal,vertical,vertical
3a,7,100300,1,19,19,21,F,interleaved,constant,homogeneous,4,present,0.764162063598633,0,horizontal,vertical,1,5,green,2,1,980.31222920257,419.68777079743,980.31222920257,780.31222920257,980.31222920257,780.31222920257,980.31222920257,419.68777079743,619.68777079743,419.68777079743,619.68777079743,780.31222920257,0,4,0,0,horizontal,horizontal,horizontal,vertical
3a,7,100300,1,20,20,21,F,interleaved,constant,homogeneous,4,present,1.39281892776489,1,horizontal,horizontal,1,2,green,1,2,980.31222920257,780.31222920257,980.31222920257,419.68777079743,980.31222920257,780.31222920257,980.31222920257,419.68777079743,619.68777079743,419.68777079743,619.68777079743,780.31222920257,4,0,0,0,horizontal,vertical,vertical,vertical
3a,7,100300,1,21,21,21,F,interleaved,constant,homogeneous,4,present,1.60503911972046,1,vertical,vertical,1,2,green,2,4,980.31222920257,419.68777079743,619.68777079743,780.31222920257,980.31222920257,780.31222920257,980.31222920257,419.68777079743,619.68777079743,419.68777079743,619.68777079743,780.31222920257,0,4,0,0,horizontal,vertical,vertical,vertical
3a,7,100300,1,22,22,21,F,interleaved,constant,homogeneous,4,present,0.921258926391602,1,vertical,vertical,1,5,green,4,3,619.68777079743,780.31222920257,619.68777079743,419.68777079743,980.31222920257,780.31222920257,980.31222920257,419.68777079743,619.68777079743,419.68777079743,619.68777079743,780.31222920257,0,0,0,4,horizontal,vertical,horizontal,vertical
3a,7,100300,1,23,23,21,F,interleaved,constant,homogeneous,4,present,0.885786056518555,1,vertical,vertical,1,3,green,3,1,619.68777079743,419.68777079743,980.31222920257,780.31222920257,980.31222920257,780.31222920257,980.31222920257,419.68777079743,619.68777079743,419.68777079743,619.68777079743,780.31222920257,0,0,4,0,vertical,horizontal,vertical,vertical
3a,7,100300,1,24,24,21,F,interleaved,constant,homogeneous,4,present,0.94576096534729,1,horizontal,horizontal,1,2,green,4,2,619.68777079743,780.31222920257,980.31222920257,419.68777079743,980.31222920257,780.31222920257,980.31222920257,419.68777079743,619.68777079743,419.68777079743,619.68777079743,780.31222920257,0,0,0,4,vertical,horizontal,vertical,horizontal
3a,7,100300,1,25,25,21,F,interleaved,constant,homogeneous,4,present,0.838557958602905,0,vertical,horizontal,1,2,green,2,4,980.31222920257,419.68777079743,619.68777079743,780.31222920257,980.31222920257,780.31222920257,980.31222920257,419.68777079743,619.68777079743,419.68777079743,619.68777079743,780.31222920257,0,4,0,0,vertical,vertical,vertical,vertical
3a,7,100300,1,26,26,21,F,interleaved,constant,homogeneous,4,present,0.842448949813843,1,horizontal,horizontal,1,3,green,2,1,980.31222920257,419.68777079743,980.31222920257,780.31222920257,980.31222920257,780.31222920257,980.31222920257,419.68777079743,619.68777079743,419.68777079743,619.68777079743,780.31222920257,0,4,0,0,vertical,horizontal,vertical,horizontal
3a,7,100300,1,27,27,21,F,interleaved,constant,homogeneous,4,absent,1.34288311004639,1,vertical,vertical,1,3,green,3,NaN,619.68777079743,419.68777079743,NaN,NaN,980.31222920257,780.31222920257,980.31222920257,419.68777079743,619.68777079743,419.68777079743,619.68777079743,780.31222920257,0,0,4,0,horizontal,vertical,vertical,vertical
3a,7,100300,1,28,28,21,F,interleaved,constant,homogeneous,4,present,0.731542110443115,1,horizontal,horizontal,1,2,green,4,3,619.68777079743,780.31222920257,619.68777079743,419.68777079743,980.31222920257,780.31222920257,980.31222920257,419.68777079743,619.68777079743,419.68777079743,619.68777079743,780.31222920257,0,0,0,4,horizontal,vertical,vertical,horizontal
3a,7,100300,1,29,29,21,F,interleaved,constant,homogeneous,4,absent,0.479652166366577,1,horizontal,horizontal,1,2,green,4,NaN,619.68777079743,780.31222920257,NaN,NaN,980.31222920257,780.31222920257,980.31222920257,419.68777079743,619.68777079743,419.68777079743,619.68777079743,780.31222920257,0,0,0,4,horizontal,vertical,horizontal,horizontal
3a,7,100300,1,30,30,21,F,interleaved,constant,homogeneous,4,absent,0.795798063278198,1,vertical,vertical,1,2,green,3,NaN,619.68777079743,419.68777079743,NaN,NaN,980.31222920257,780.31222920257,980.31222920257,419.68777079743,619.68777079743,419.68777079743,619.68777079743,780.31222920257,0,0,4,0,vertical,vertical,vertical,horizontal
3a,7,100300,1,31,31,21,F,interleaved,constant,homogeneous,4,absent,1.12825894355774,1,vertical,vertical,1,3,green,2,NaN,980.31222920257,419.68777079743,NaN,NaN,980.31222920257,780.31222920257,980.31222920257,419.68777079743,619.68777079743,419.68777079743,619.68777079743,780.31222920257,0,4,0,0,horizontal,vertical,vertical,horizontal
3a,7,100300,1,32,32,21,F,interleaved,constant,homogeneous,4,present,0.916383028030396,1,horizontal,horizontal,1,3,green,2,4,980.31222920257,419.68777079743,619.68777079743,780.31222920257,980.31222920257,780.31222920257,980.31222920257,419.68777079743,619.68777079743,419.68777079743,619.68777079743,780.31222920257,0,4,0,0,horizontal,horizontal,vertical,horizontal
3a,7,100300,1,33,33,21,F,interleaved,constant,homogeneous,4,present,0.776819944381714,1,vertical,vertical,1,2,green,2,3,980.31222920257,419.68777079743,619.68777079743,419.68777079743,980.31222920257,780.31222920257,980.31222920257,419.68777079743,619.68777079743,419.68777079743,619.68777079743,780.31222920257,0,4,0,0,vertical,vertical,vertical,vertical
3a,7,100300,1,34,34,21,F,interleaved,constant,homogeneous,4,present,1.04519510269165,1,horizontal,horizontal,1,3,green,1,2,980.31222920257,780.31222920257,980.31222920257,419.68777079743,980.31222920257,780.31222920257,980.31222920257,419.68777079743,619.68777079743,419.68777079743,619.68777079743,780.31222920257,4,0,0,0,horizontal,vertical,vertical,vertical
3a,7,100300,1,35,35,21,F,interleaved,constant,homogeneous,4,present,1.12153911590576,1,horizontal,horizontal,1,2,green,3,1,619.68777079743,419.68777079743,980.31222920257,780.31222920257,980.31222920257,780.31222920257,980.31222920257,419.68777079743,619.68777079743,419.68777079743,619.68777079743,780.31222920257,0,0,4,0,horizontal,horizontal,horizontal,horizontal
3a,7,100300,1,36,36,21,F,interleaved,constant,homogeneous,4,absent,0.693744897842407,1,horizontal,horizontal,1,8,green,1,NaN,980.31222920257,780.31222920257,NaN,NaN,980.31222920257,780.31222920257,980.31222920257,419.68777079743,619.68777079743,419.68777079743,619.68777079743,780.31222920257,4,0,0,0,horizontal,vertical,vertical,vertical
3a,7,100300,1,37,37,21,F,interleaved,constant,homogeneous,4,absent,0.658265113830566,1,horizontal,horizontal,1,5,green,1,NaN,980.31222920257,780.31222920257,NaN,NaN,980.31222920257,780.31222920257,980.31222920257,419.68777079743,619.68777079743,419.68777079743,619.68777079743,780.31222920257,4,0,0,0,horizontal,vertical,horizontal,vertical
3a,7,100300,1,38,38,21,F,interleaved,constant,homogeneous,4,present,0.694766044616699,1,horizontal,horizontal,1,3,green,3,2,619.68777079743,419.68777079743,980.31222920257,419.68777079743,980.31222920257,780.31222920257,980.31222920257,419.68777079743,619.68777079743,419.68777079743,619.68777079743,780.31222920257,0,0,4,0,vertical,horizontal,horizontal,vertical
3a,7,100300,1,39,39,21,F,interleaved,constant,homogeneous,4,present,0.859251976013184,1,vertical,vertical,1,2,green,3,4,619.68777079743,419.68777079743,619.68777079743,780.31222920257,980.31222920257,780.31222920257,980.31222920257,419.68777079743,619.68777079743,419.68777079743,619.68777079743,780.31222920257,0,0,4,0,vertical,vertical,vertical,vertical
3a,7,100300,1,40,40,21,F,interleaved,constant,homogeneous,4,absent,0.551175832748413,1,horizontal,horizontal,1,2,green,4,NaN,619.68777079743,780.31222920257,NaN,NaN,980.31222920257,780.31222920257,980.31222920257,419.68777079743,619.68777079743,419.68777079743,619.68777079743,780.31222920257,0,0,0,4,horizontal,horizontal,horizontal,horizontal
3a,7,100300,1,41,41,21,F,interleaved,constant,homogeneous,4,present,0.659536123275757,1,horizontal,horizontal,1,8,green,3,2,619.68777079743,419.68777079743,980.31222920257,419.68777079743,980.31222920257,780.31222920257,980.31222920257,419.68777079743,619.68777079743,419.68777079743,619.68777079743,780.31222920257,0,0,4,0,vertical,horizontal,horizontal,horizontal
3a,7,100300,1,42,42,21,F,interleaved,constant,homogeneous,4,absent,0.97580099105835,1,vertical,vertical,1,2,green,4,NaN,619.68777079743,780.31222920257,NaN,NaN,980.31222920257,780.31222920257,980.31222920257,419.68777079743,619.68777079743,419.68777079743,619.68777079743,780.31222920257,0,0,0,4,horizontal,horizontal,horizontal,vertical
3a,7,100300,1,43,43,21,F,interleaved,constant,homogeneous,4,absent,0.88441801071167,1,vertical,vertical,1,5,green,4,NaN,619.68777079743,780.31222920257,NaN,NaN,980.31222920257,780.31222920257,980.31222920257,419.68777079743,619.68777079743,419.68777079743,619.68777079743,780.31222920257,0,0,0,4,horizontal,vertical,vertical,vertical
3a,7,100300,1,44,44,21,F,interleaved,constant,homogeneous,4,absent,0.85633111000061,1,horizontal,horizontal,1,2,green,1,NaN,980.31222920257,780.31222920257,NaN,NaN,980.31222920257,780.31222920257,980.31222920257,419.68777079743,619.68777079743,419.68777079743,619.68777079743,780.31222920257,4,0,0,0,horizontal,vertical,vertical,vertical
3a,7,100300,1,45,45,21,F,interleaved,constant,homogeneous,4,present,1.08529806137085,1,vertical,vertical,1,5,green,2,1,980.31222920257,419.68777079743,980.31222920257,780.31222920257,980.31222920257,780.31222920257,980.31222920257,419.68777079743,619.68777079743,419.68777079743,619.68777079743,780.31222920257,0,4,0,0,vertical,vertical,horizontal,horizontal
3a,7,100300,1,46,46,21,F,interleaved,constant,homogeneous,4,present,1.03321504592896,0,vertical,horizontal,1,2,green,4,3,619.68777079743,780.31222920257,619.68777079743,419.68777079743,980.31222920257,780.31222920257,980.31222920257,419.68777079743,619.68777079743,419.68777079743,619.68777079743,780.31222920257,0,0,0,4,horizontal,horizontal,vertical,vertical
3a,7,100300,1,47,47,21,F,interleaved,constant,homogeneous,4,present,0.613620042800903,1,horizontal,horizontal,1,5,green,2,4,980.31222920257,419.68777079743,619.68777079743,780.31222920257,980.31222920257,780.31222920257,980.31222920257,419.68777079743,619.68777079743,419.68777079743,619.68777079743,780.31222920257,0,4,0,0,vertical,horizontal,vertical,horizontal
3a,7,100300,1,48,48,21,F,interleaved,constant,homogeneous,4,absent,0.777836084365845,1,horizontal,horizontal,1,3,green,3,NaN,619.68777079743,419.68777079743,NaN,NaN,980.31222920257,780.31222920257,980.31222920257,419.68777079743,619.68777079743,419.68777079743,619.68777079743,780.31222920257,0,0,4,0,vertical,horizontal,horizontal,horizontal
3a,7,100300,2,1,49,21,F,interleaved,variable,homogeneous,4,absent,0.660696029663086,1,horizontal,horizontal,1,3,red,1,NaN,980.31222920257,780.31222920257,NaN,NaN,980.31222920257,780.31222920257,980.31222920257,419.68777079743,619.68777079743,419.68777079743,619.68777079743,780.31222920257,4,0,0,0,horizontal,vertical,horizontal,horizontal
3a,7,100300,2,2,50,21,F,interleaved,variable,homogeneous,4,absent,0.824787855148315,1,vertical,vertical,1,2,green,2,NaN,980.31222920257,419.68777079743,NaN,NaN,980.31222920257,780.31222920257,980.31222920257,419.68777079743,619.68777079743,419.68777079743,619.68777079743,780.31222920257,0,4,0,0,vertical,vertical,vertical,horizontal
3a,7,100300,2,3,51,21,F,interleaved,variable,homogeneous,4,present,0.708875894546509,1,vertical,vertical,1,3,green,1,4,980.31222920257,780.31222920257,619.68777079743,780.31222920257,980.31222920257,780.31222920257,980.31222920257,419.68777079743,619.68777079743,419.68777079743,619.68777079743,780.31222920257,4,0,0,0,vertical,horizontal,vertical,vertical
3a,7,100300,2,4,52,21,F,interleaved,variable,homogeneous,4,absent,0.729292869567871,1,horizontal,horizontal,1,5,red,1,NaN,980.31222920257,780.31222920257,NaN,NaN,980.31222920257,780.31222920257,980.31222920257,419.68777079743,619.68777079743,419.68777079743,619.68777079743,780.31222920257,4,0,0,0,horizontal,vertical,vertical,horizontal
3a,7,100300,2,5,53,21,F,interleaved,variable,homogeneous,4,absent,0.589517116546631,1,vertical,vertical,1,8,green,2,NaN,980.31222920257,419.68777079743,NaN,NaN,980.31222920257,780.31222920257,980.31222920257,419.68777079743,619.68777079743,419.68777079743,619.68777079743,780.31222920257,0,4,0,0,vertical,vertical,vertical,vertical
3a,7,100300,2,6,54,21,F,interleaved,variable,homogeneous,4,present,0.681848049163818,1,horizontal,horizontal,1,5,green,4,2,619.68777079743,780.31222920257,980.31222920257,419.68777079743,980.31222920257,780.31222920257,980.31222920257,419.68777079743,619.68777079743,419.68777079743,619.68777079743,780.31222920257,0,0,0,4,vertical,horizontal,vertical,horizontal
3a,7,100300,2,7,55,21,F,interleaved,variable,homogeneous,4,absent,1.27829599380493,1,vertical,vertical,1,2,green,1,NaN,980.31222920257,780.31222920257,NaN,NaN,980.31222920257,780.31222920257,980.31222920257,419.68777079743,619.68777079743,419.68777079743,619.68777079743,780.31222920257,4,0,0,0,vertical,horizontal,horizontal,vertical
3a,7,100300,2,8,56,21,F,interleaved,variable,homogeneous,4,present,0.810621023178101,1,vertical,vertical,1,2,green,1,4,980.31222920257,780.31222920257,619.68777079743,780.31222920257,980.31222920257,780.31222920257,980.31222920257,419.68777079743,619.68777079743,419.68777079743,619.68777079743,780.31222920257,4,0,0,0,vertical,vertical,horizontal,horizontal
3a,7,100300,2,9,57,21,F,interleaved,variable,homogeneous,4,absent,0.710864067077637,1,horizontal,horizontal,1,2,green,3,NaN,619.68777079743,419.68777079743,NaN,NaN,980.31222920257,780.31222920257,980.31222920257,419.68777079743,619.68777079743,419.68777079743,619.68777079743,780.31222920257,0,0,4,0,vertical,vertical,horizontal,vertical
3a,7,100300,2,10,58,21,F,interleaved,variable,homogeneous,4,present,0.619250059127808,1,vertical,vertical,1,2,red,1,2,980.31222920257,780.31222920257,980.31222920257,419.68777079743,980.31222920257,780.31222920257,980.31222920257,419.68777079743,619.68777079743,419.68777079743,619.68777079743,780.31222920257,4,0,0,0,vertical,vertical,vertical,vertical
3a,7,100300,2,11,59,21,F,interleaved,variable,homogeneous,4,absent,0.60757303237915,1,vertical,vertical,1,3,green,3,NaN,619.68777079743,419.68777079743,NaN,NaN,980.31222920257,780.31222920257,980.31222920257,419.68777079743,619.68777079743,419.68777079743,619.68777079743,780.31222920257,0,0,4,0,horizontal,vertical,vertical,horizontal
3a,7,100300,2,12,60,21,F,interleaved,variable,homogeneous,4,absent,0.579552173614502,1,vertical,vertical,1,5,green,2,NaN,980.31222920257,419.68777079743,NaN,NaN,980.31222920257,780.31222920257,980.31222920257,419.68777079743,619.68777079743,419.68777079743,619.68777079743,780.31222920257,0,4,0,0,vertical,vertical,vertical,vertical
3a,7,100300,2,13,61,21,F,interleaved,variable,homogeneous,4,present,0.656057834625244,1,horizontal,horizontal,1,2,red,1,3,980.31222920257,780.31222920257,619.68777079743,419.68777079743,980.31222920257,780.31222920257,980.31222920257,419.68777079743,619.68777079743,419.68777079743,619.68777079743,780.31222920257,4,0,0,0,horizontal,horizontal,horizontal,vertical
3a,7,100300,2,14,62,21,F,interleaved,variable,homogeneous,4,present,0.628634929656982,1,vertical,vertical,1,2,green,1,3,980.31222920257,780.31222920257,619.68777079743,419.68777079743,980.31222920257,780.31222920257,980.31222920257,419.68777079743,619.68777079743,419.68777079743,619.68777079743,780.31222920257,4,0,0,0,vertical,vertical,horizontal,vertical
3a,7,100300,2,15,63,21,F,interleaved,variable,homogeneous,4,present,0.58500599861145,1,vertical,vertical,1,2,red,2,4,980.31222920257,419.68777079743,619.68777079743,780.31222920257,980.31222920257,780.31222920257,980.31222920257,419.68777079743,619.68777079743,419.68777079743,619.68777079743,780.31222920257,0,4,0,0,vertical,vertical,vertical,vertical
3a,7,100300,2,16,64,21,F,interleaved,variable,homogeneous,4,present,0.565264940261841,1,vertical,vertical,1,5,green,2,1,980.31222920257,419.68777079743,980.31222920257,780.31222920257,980.31222920257,780.31222920257,980.31222920257,419.68777079743,619.68777079743,419.68777079743,619.68777079743,780.31222920257,0,4,0,0,vertical,vertical,horizontal,horizontal
3a,7,100300,2,17,65,21,F,interleaved,variable,homogeneous,4,absent,0.577508926391602,1,vertical,vertical,1,3,green,1,NaN,980.31222920257,780.31222920257,NaN,NaN,980.31222920257,780.31222920257,980.31222920257,419.68777079743,619.68777079743,419.68777079743,619.68777079743,780.31222920257,4,0,0,0,vertical,horizontal,horizontal,horizontal
3a,7,100300,2,18,66,21,F,interleaved,variable,homogeneous,4,present,0.661870956420898,1,vertical,vertical,1,3,green,2,1,980.31222920257,419.68777079743,980.31222920257,780.31222920257,980.31222920257,780.31222920257,980.31222920257,419.68777079743,619.68777079743,419.68777079743,619.68777079743,780.31222920257,0,4,0,0,vertical,vertical,vertical,horizontal
3a,7,100300,2,19,67,21,F,interleaved,variable,homogeneous,4,present,0.714055776596069,1,horizontal,horizontal,1,3,green,4,3,619.68777079743,780.31222920257,619.68777079743,419.68777079743,980.31222920257,780.31222920257,980.31222920257,419.68777079743,619.68777079743,419.68777079743,619.68777079743,780.31222920257,0,0,0,4,vertical,horizontal,vertical,horizontal
3a,7,100300,2,20,68,21,F,interleaved,variable,homogeneous,4,present,0.670410871505737,0,horizontal,vertical,1,2,green,3,1,619.68777079743,419.68777079743,980.31222920257,780.31222920257,980.31222920257,780.31222920257,980.31222920257,419.68777079743,619.68777079743,419.68777079743,619.68777079743,780.31222920257,0,0,4,0,vertical,vertical,horizontal,vertical
3a,7,100300,2,21,69,21,F,interleaved,variable,homogeneous,4,present,0.738569974899292,1,horizontal,horizontal,1,5,red,1,4,980.31222920257,780.31222920257,619.68777079743,780.31222920257,980.31222920257,780.31222920257,980.31222920257,419.68777079743,619.68777079743,419.68777079743,619.68777079743,780.31222920257,4,0,0,0,horizontal,horizontal,vertical,vertical
3a,7,100300,2,22,70,21,F,interleaved,variable,homogeneous,4,absent,0.6470627784729,1,horizontal,horizontal,1,8,red,4,NaN,619.68777079743,780.31222920257,NaN,NaN,980.31222920257,780.31222920257,980.31222920257,419.68777079743,619.68777079743,419.68777079743,619.68777079743,780.31222920257,0,0,0,4,horizontal,horizontal,vertical,horizontal
3a,7,100300,2,23,71,21,F,interleaved,variable,homogeneous,4,present,0.475555896759033,1,horizontal,horizontal,1,2,red,4,3,619.68777079743,780.31222920257,619.68777079743,419.68777079743,980.31222920257,780.31222920257,980.31222920257,419.68777079743,619.68777079743,419.68777079743,619.68777079743,780.31222920257,0,0,0,4,horizontal,vertical,vertical,horizontal
3a,7,100300,2,24,72,21,F,interleaved,variable,homogeneous,4,present,0.791857004165649,1,horizontal,horizontal,1,2,red,2,1,980.31222920257,419.68777079743,980.31222920257,780.31222920257,980.31222920257,780.31222920257,980.31222920257,419.68777079743,619.68777079743,419.68777079743,619.68777079743,780.31222920257,0,4,0,0,vertical,horizontal,vertical,horizontal
3a,7,100300,2,25,73,21,F,interleaved,variable,homogeneous,4,present,0.620115041732788,1,horizontal,horizontal,1,5,green,3,2,619.68777079743,419.68777079743,980.31222920257,419.68777079743,980.31222920257,780.31222920257,980.31222920257,419.68777079743,619.68777079743,419.68777079743,619.68777079743,780.31222920257,0,0,4,0,horizontal,horizontal,horizontal,horizontal
3a,7,100300,2,26,74,21,F,interleaved,variable,homogeneous,4,present,0.744452953338623,1,vertical,vertical,1,8,red,2,4,980.31222920257,419.68777079743,619.68777079743,780.31222920257,980.31222920257,780.31222920257,980.31222920257,419.68777079743,619.68777079743,419.68777079743,619.68777079743,780.31222920257,0,4,0,0,horizontal,vertical,vertical,vertical
3a,7,100300,2,27,75,21,F,interleaved,variable,homogeneous,4,present,0.909072875976562,1,vertical,vertical,1,2,red,1,4,980.31222920257,780.31222920257,619.68777079743,780.31222920257,980.31222920257,780.31222920257,980.31222920257,419.68777079743,619.68777079743,419.68777079743,619.68777079743,780.31222920257,4,0,0,0,vertical,horizontal,vertical,horizontal
3a,7,100300,2,28,76,21,F,interleaved,variable,homogeneous,4,absent,0.52124810218811,0,vertical,horizontal,1,2,green,3,NaN,619.68777079743,419.68777079743,NaN,NaN,980.31222920257,780.31222920257,980.31222920257,419.68777079743,619.68777079743,419.68777079743,619.68777079743,780.31222920257,0,0,4,0,horizontal,vertical,vertical,horizontal
3a,7,100300,2,29,77,21,F,interleaved,variable,homogeneous,4,present,0.629804849624634,1,horizontal,horizontal,1,2,green,3,1,619.68777079743,419.68777079743,980.31222920257,780.31222920257,980.31222920257,780.31222920257,980.31222920257,419.68777079743,619.68777079743,419.68777079743,619.68777079743,780.31222920257,0,0,4,0,horizontal,horizontal,horizontal,horizontal
3a,7,100300,2,30,78,21,F,interleaved,variable,homogeneous,4,absent,0.866080045700073,1,horizontal,horizontal,1,2,red,1,NaN,980.31222920257,780.31222920257,NaN,NaN,980.31222920257,780.31222920257,980.31222920257,419.68777079743,619.68777079743,419.68777079743,619.68777079743,780.31222920257,4,0,0,0,horizontal,horizontal,vertical,horizontal
3a,7,100300,2,31,79,21,F,interleaved,variable,homogeneous,4,present,0.798439979553223,1,horizontal,horizontal,1,3,green,4,1,619.68777079743,780.31222920257,980.31222920257,780.31222920257,980.31222920257,780.31222920257,980.31222920257,419.68777079743,619.68777079743,419.68777079743,619.68777079743,780.31222920257,0,0,0,4,horizontal,vertical,horizontal,horizontal
3a,7,100300,2,32,80,21,F,interleaved,variable,homogeneous,4,absent,0.602541923522949,0,vertical,horizontal,1,5,red,3,NaN,619.68777079743,419.68777079743,NaN,NaN,980.31222920257,780.31222920257,980.31222920257,419.68777079743,619.68777079743,419.68777079743,619.68777079743,780.31222920257,0,0,4,0,horizontal,vertical,vertical,horizontal
3a,7,100300,2,33,81,21,F,interleaved,variable,homogeneous,4,present,0.670868158340454,1,horizontal,horizontal,1,8,red,3,2,619.68777079743,419.68777079743,980.31222920257,419.68777079743,980.31222920257,780.31222920257,980.31222920257,419.68777079743,619.68777079743,419.68777079743,619.68777079743,780.31222920257,0,0,4,0,vertical,horizontal,horizontal,vertical
3a,7,100300,2,34,82,21,F,interleaved,variable,homogeneous,4,present,1.29949188232422,1,vertical,vertical,1,2,green,2,4,980.31222920257,419.68777079743,619.68777079743,780.31222920257,980.31222920257,780.31222920257,980.31222920257,419.68777079743,619.68777079743,419.68777079743,619.68777079743,780.31222920257,0,4,0,0,horizontal,vertical,vertical,vertical
3a,7,100300,2,35,83,21,F,interleaved,variable,homogeneous,4,absent,0.575538873672485,1,horizontal,horizontal,1,2,green,3,NaN,619.68777079743,419.68777079743,NaN,NaN,980.31222920257,780.31222920257,980.31222920257,419.68777079743,619.68777079743,419.68777079743,619.68777079743,780.31222920257,0,0,4,0,vertical,horizontal,horizontal,vertical
3a,7,100300,2,36,84,21,F,interleaved,variable,homogeneous,4,present,0.587847232818604,1,vertical,vertical,1,5,red,3,4,619.68777079743,419.68777079743,619.68777079743,780.31222920257,980.31222920257,780.31222920257,980.31222920257,419.68777079743,619.68777079743,419.68777079743,619.68777079743,780.31222920257,0,0,4,0,horizontal,horizontal,vertical,vertical
3a,7,100300,2,37,85,21,F,interleaved,variable,homogeneous,4,present,0.56825590133667,1,horizontal,horizontal,1,3,green,3,1,619.68777079743,419.68777079743,980.31222920257,780.31222920257,980.31222920257,780.31222920257,980.31222920257,419.68777079743,619.68777079743,419.68777079743,619.68777079743,780.31222920257,0,0,4,0,horizontal,vertical,horizontal,vertical
3a,7,100300,2,38,86,21,F,interleaved,variable,homogeneous,4,absent,0.516272068023682,1,horizontal,horizontal,1,3,red,3,NaN,619.68777079743,419.68777079743,NaN,NaN,980.31222920257,780.31222920257,980.31222920257,419.68777079743,619.68777079743,419.68777079743,619.68777079743,780.31222920257,0,0,4,0,vertical,vertical,horizontal,vertical
3a,7,100300,2,39,87,21,F,interleaved,variable,homogeneous,4,present,1.01695394515991,1,vertical,vertical,1,3,green,2,1,980.31222920257,419.68777079743,980.31222920257,780.31222920257,980.31222920257,780.31222920257,980.31222920257,419.68777079743,619.68777079743,419.68777079743,619.68777079743,780.31222920257,0,4,0,0,horizontal,vertical,vertical,horizontal
3a,7,100300,2,40,88,21,F,interleaved,variable,homogeneous,4,present,0.72504186630249,0,horizontal,vertical,1,5,green,2,4,980.31222920257,419.68777079743,619.68777079743,780.31222920257,980.31222920257,780.31222920257,980.31222920257,419.68777079743,619.68777079743,419.68777079743,619.68777079743,780.31222920257,0,4,0,0,horizontal,horizontal,horizontal,horizontal
3a,7,100300,2,41,89,21,F,interleaved,variable,homogeneous,4,absent,0.585525989532471,1,horizontal,horizontal,1,5,green,3,NaN,619.68777079743,419.68777079743,NaN,NaN,980.31222920257,780.31222920257,980.31222920257,419.68777079743,619.68777079743,419.68777079743,619.68777079743,780.31222920257,0,0,4,0,vertical,horizontal,horizontal,horizontal
3a,7,100300,2,42,90,21,F,interleaved,variable,homogeneous,4,present,0.686061143875122,1,horizontal,horizontal,1,8,green,1,3,980.31222920257,780.31222920257,619.68777079743,419.68777079743,980.31222920257,780.31222920257,980.31222920257,419.68777079743,619.68777079743,419.68777079743,619.68777079743,780.31222920257,4,0,0,0,horizontal,horizontal,horizontal,vertical
3a,7,100300,2,43,91,21,F,interleaved,variable,homogeneous,4,present,0.802428007125854,1,horizontal,horizontal,1,2,red,2,1,980.31222920257,419.68777079743,980.31222920257,780.31222920257,980.31222920257,780.31222920257,980.31222920257,419.68777079743,619.68777079743,419.68777079743,619.68777079743,780.31222920257,0,4,0,0,vertical,horizontal,horizontal,vertical
3a,7,100300,2,44,92,21,F,interleaved,variable,homogeneous,4,present,0.886646032333374,1,vertical,vertical,1,3,green,1,4,980.31222920257,780.31222920257,619.68777079743,780.31222920257,980.31222920257,780.31222920257,980.31222920257,419.68777079743,619.68777079743,419.68777079743,619.68777079743,780.31222920257,4,0,0,0,vertical,horizontal,horizontal,vertical
3a,7,100300,2,45,93,21,F,interleaved,variable,homogeneous,4,present,0.76297402381897,1,horizontal,horizontal,1,3,red,4,3,619.68777079743,780.31222920257,619.68777079743,419.68777079743,980.31222920257,780.31222920257,980.31222920257,419.68777079743,619.68777079743,419.68777079743,619.68777079743,780.31222920257,0,0,0,4,horizontal,horizontal,horizontal,horizontal
3a,7,100300,2,46,94,21,F,interleaved,variable,homogeneous,4,present,0.903346061706543,1,vertical,vertical,1,5,red,3,4,619.68777079743,419.68777079743,619.68777079743,780.31222920257,980.31222920257,780.31222920257,980.31222920257,419.68777079743,619.68777079743,419.68777079743,619.68777079743,780.31222920257,0,0,4,0,horizontal,horizontal,vertical,vertical
3a,7,100300,2,47,95,21,F,interleaved,variable,homogeneous,4,present,0.819841146469116,1,vertical,vertical,1,5,red,1,2,980.31222920257,780.31222920257,980.31222920257,419.68777079743,980.31222920257,780.31222920257,980.31222920257,419.68777079743,619.68777079743,419.68777079743,619.68777079743,780.31222920257,4,0,0,0,vertical,vertical,vertical,horizontal
3a,7,100300,2,48,96,21,F,interleaved,variable,homogeneous,4,present,0.880128860473633,1,vertical,vertical,1,8,green,2,4,980.31222920257,419.68777079743,619.68777079743,780.31222920257,980.31222920257,780.31222920257,980.31222920257,419.68777079743,619.68777079743,419.68777079743,619.68777079743,780.31222920257,0,4,0,0,vertical,vertical,horizontal,horizontal
3a,7,100300,3,1,97,21,F,interleaved,constant,homogeneous,4,absent,0.949158906936646,0,vertical,horizontal,1,8,red,3,NaN,619.68777079743,419.68777079743,NaN,NaN,980.31222920257,780.31222920257,980.31222920257,419.68777079743,619.68777079743,419.68777079743,619.68777079743,780.31222920257,0,0,4,0,horizontal,horizontal,vertical,vertical
3a,7,100300,3,2,98,21,F,interleaved,constant,homogeneous,4,present,0.881319999694824,1,vertical,vertical,1,8,red,4,2,619.68777079743,780.31222920257,980.31222920257,419.68777079743,980.31222920257,780.31222920257,980.31222920257,419.68777079743,619.68777079743,419.68777079743,619.68777079743,780.31222920257,0,0,0,4,vertical,horizontal,horizontal,vertical
3a,7,100300,3,3,99,21,F,interleaved,constant,homogeneous,4,present,0.86178994178772,1,vertical,vertical,1,2,red,2,1,980.31222920257,419.68777079743,980.31222920257,780.31222920257,980.31222920257,780.31222920257,980.31222920257,419.68777079743,619.68777079743,419.68777079743,619.68777079743,780.31222920257,0,4,0,0,vertical,vertical,horizontal,horizontal
3a,7,100300,3,4,100,21,F,interleaved,constant,homogeneous,4,present,0.570165872573853,1,horizontal,horizontal,1,8,red,4,3,619.68777079743,780.31222920257,619.68777079743,419.68777079743,980.31222920257,780.31222920257,980.31222920257,419.68777079743,619.68777079743,419.68777079743,619.68777079743,780.31222920257,0,0,0,4,horizontal,horizontal,horizontal,horizontal
3a,7,100300,3,5,101,21,F,interleaved,constant,homogeneous,4,absent,0.606539011001587,1,vertical,vertical,1,3,red,4,NaN,619.68777079743,780.31222920257,NaN,NaN,980.31222920257,780.31222920257,980.31222920257,419.68777079743,619.68777079743,419.68777079743,619.68777079743,780.31222920257,0,0,0,4,horizontal,vertical,vertical,vertical
3a,7,100300,3,6,102,21,F,interleaved,constant,homogeneous,4,present,0.874858140945435,1,horizontal,horizontal,1,2,red,1,4,980.31222920257,780.31222920257,619.68777079743,780.31222920257,980.31222920257,780.31222920257,980.31222920257,419.68777079743,619.68777079743,419.68777079743,619.68777079743,780.31222920257,4,0,0,0,horizontal,horizontal,horizontal,vertical
3a,7,100300,3,7,103,21,F,interleaved,constant,homogeneous,4,present,0.791313171386719,1,vertical,vertical,1,5,red,1,3,980.31222920257,780.31222920257,619.68777079743,419.68777079743,980.31222920257,780.31222920257,980.31222920257,419.68777079743,619.68777079743,419.68777079743,619.68777079743,780.31222920257,4,0,0,0,vertical,vertical,horizontal,vertical
3a,7,100300,3,8,104,21,F,interleaved,constant,homogeneous,4,present,0.627722024917603,1,vertical,vertical,1,8,red,3,1,619.68777079743,419.68777079743,980.31222920257,780.31222920257,980.31222920257,780.31222920257,980.31222920257,419.68777079743,619.68777079743,419.68777079743,619.68777079743,780.31222920257,0,0,4,0,vertical,horizontal,vertical,vertical
3a,7,100300,3,9,105,21,F,interleaved,constant,homogeneous,4,present,0.592226028442383,1,horizontal,horizontal,1,3,red,1,2,980.31222920257,780.31222920257,980.31222920257,419.68777079743,980.31222920257,780.31222920257,980.31222920257,419.68777079743,619.68777079743,419.68777079743,619.68777079743,780.31222920257,4,0,0,0,horizontal,horizontal,vertical,vertical
3a,7,100300,3,10,106,21,F,interleaved,constant,homogeneous,4,present,0.556514024734497,1,vertical,vertical,1,3,red,3,2,619.68777079743,419.68777079743,980.31222920257,419.68777079743,980.31222920257,780.31222920257,980.31222920257,419.68777079743,619.68777079743,419.68777079743,619.68777079743,780.31222920257,0,0,4,0,vertical,horizontal,vertical,vertical
3a,7,100300,3,11,107,21,F,interleaved,constant,homogeneous,4,absent,0.760693073272705,1,horizontal,horizontal,1,2,red,2,NaN,980.31222920257,419.68777079743,NaN,NaN,980.31222920257,780.31222920257,980.31222920257,419.68777079743,619.68777079743,419.68777079743,619.68777079743,780.31222920257,0,4,0,0,vertical,horizontal,horizontal,horizontal
3a,7,100300,3,12,108,21,F,interleaved,constant,homogeneous,4,absent,0.876834154129028,1,vertical,vertical,1,2,red,4,NaN,619.68777079743,780.31222920257,NaN,NaN,980.31222920257,780.31222920257,980.31222920257,419.68777079743,619.68777079743,419.68777079743,619.68777079743,780.31222920257,0,0,0,4,vertical,horizontal,vertical,vertical
3a,7,100300,3,13,109,21,F,interleaved,constant,homogeneous,4,absent,0.617167949676514,1,vertical,vertical,1,5,red,4,NaN,619.68777079743,780.31222920257,NaN,NaN,980.31222920257,780.31222920257,980.31222920257,419.68777079743,619.68777079743,419.68777079743,619.68777079743,780.31222920257,0,0,0,4,vertical,vertical,horizontal,vertical
3a,7,100300,3,14,110,21,F,interleaved,constant,homogeneous,4,present,0.773877143859863,1,vertical,vertical,1,3,red,3,2,619.68777079743,419.68777079743,980.31222920257,419.68777079743,980.31222920257,780.31222920257,980.31222920257,419.68777079743,619.68777079743,419.68777079743,619.68777079743,780.31222920257,0,0,4,0,horizontal,vertical,vertical,horizontal
3a,7,100300,3,15,111,21,F,interleaved,constant,homogeneous,4,absent,0.730257034301758,1,vertical,vertical,1,2,red,2,NaN,980.31222920257,419.68777079743,NaN,NaN,980.31222920257,780.31222920257,980.31222920257,419.68777079743,619.68777079743,419.68777079743,619.68777079743,780.31222920257,0,4,0,0,vertical,vertical,vertical,horizontal
3a,7,100300,3,16,112,21,F,interleaved,constant,homogeneous,4,present,0.662127017974854,1,horizontal,horizontal,1,2,red,3,1,619.68777079743,419.68777079743,980.31222920257,780.31222920257,980.31222920257,780.31222920257,980.31222920257,419.68777079743,619.68777079743,419.68777079743,619.68777079743,780.31222920257,0,0,4,0,vertical,vertical,horizontal,vertical
3a,7,100300,3,17,113,21,F,interleaved,constant,homogeneous,4,absent,0.642483949661255,1,horizontal,horizontal,1,5,red,4,NaN,619.68777079743,780.31222920257,NaN,NaN,980.31222920257,780.31222920257,980.31222920257,419.68777079743,619.68777079743,419.68777079743,619.68777079743,780.31222920257,0,0,0,4,horizontal,horizontal,horizontal,horizontal
3a,7,100300,3,18,114,21,F,interleaved,constant,homogeneous,4,present,0.623251914978027,1,horizontal,horizontal,1,5,red,3,2,619.68777079743,419.68777079743,980.31222920257,419.68777079743,980.31222920257,780.31222920257,980.31222920257,419.68777079743,619.68777079743,419.68777079743,619.68777079743,780.31222920257,0,0,4,0,vertical,vertical,horizontal,horizontal
3a,7,100300,3,19,115,21,F,interleaved,constant,homogeneous,4,present,0.811131954193115,0,horizontal,vertical,1,2,red,2,4,980.31222920257,419.68777079743,619.68777079743,780.31222920257,980.31222920257,780.31222920257,980.31222920257,419.68777079743,619.68777079743,419.68777079743,619.68777079743,780.31222920257,0,4,0,0,horizontal,horizontal,vertical,horizontal
3a,7,100300,3,20,116,21,F,interleaved,constant,homogeneous,4,absent,0.727701902389526,1,vertical,vertical,1,5,red,2,NaN,980.31222920257,419.68777079743,NaN,NaN,980.31222920257,780.31222920257,980.31222920257,419.68777079743,619.68777079743,419.68777079743,619.68777079743,780.31222920257,0,4,0,0,vertical,vertical,horizontal,vertical
3a,7,100300,3,21,117,21,F,interleaved,constant,homogeneous,4,present,0.748111009597778,1,horizontal,horizontal,1,3,red,4,2,619.68777079743,780.31222920257,980.31222920257,419.68777079743,980.31222920257,780.31222920257,980.31222920257,419.68777079743,619.68777079743,419.68777079743,619.68777079743,780.31222920257,0,0,0,4,vertical,horizontal,horizontal,horizontal
3a,7,100300,3,22,118,21,F,interleaved,constant,homogeneous,4,present,0.832487106323242,1,vertical,vertical,1,5,red,3,1,619.68777079743,419.68777079743,980.31222920257,780.31222920257,980.31222920257,780.31222920257,980.31222920257,419.68777079743,619.68777079743,419.68777079743,619.68777079743,780.31222920257,0,0,4,0,vertical,vertical,vertical,horizontal
3a,7,100300,3,23,119,21,F,interleaved,constant,homogeneous,4,present,0.668775081634521,1,vertical,vertical,1,2,red,3,1,619.68777079743,419.68777079743,980.31222920257,780.31222920257,980.31222920257,780.31222920257,980.31222920257,419.68777079743,619.68777079743,419.68777079743,619.68777079743,780.31222920257,0,0,4,0,vertical,vertical,vertical,horizontal
3a,7,100300,3,24,120,21,F,interleaved,constant,homogeneous,4,absent,0.721019983291626,0,vertical,horizontal,1,2,red,4,NaN,619.68777079743,780.31222920257,NaN,NaN,980.31222920257,780.31222920257,980.31222920257,419.68777079743,619.68777079743,419.68777079743,619.68777079743,780.31222920257,0,0,0,4,horizontal,vertical,vertical,vertical
3a,7,100300,3,25,121,21,F,interleaved,constant,homogeneous,4,absent,0.613059997558594,1,horizontal,horizontal,1,3,red,4,NaN,619.68777079743,780.31222920257,NaN,NaN,980.31222920257,780.31222920257,980.31222920257,419.68777079743,619.68777079743,419.68777079743,619.68777079743,780.31222920257,0,0,0,4,vertical,horizontal,horizontal,horizontal
3a,7,100300,3,26,122,21,F,interleaved,constant,homogeneous,4,present,0.833799123764038,0,horizontal,vertical,1,2,red,4,1,619.68777079743,780.31222920257,980.31222920257,780.31222920257,980.31222920257,780.31222920257,980.31222920257,419.68777079743,619.68777079743,419.68777079743,619.68777079743,780.31222920257,0,0,0,4,horizontal,vertical,vertical,horizontal
3a,7,100300,3,27,123,21,F,interleaved,constant,homogeneous,4,present,0.966023921966553,1,vertical,vertical,1,2,red,1,2,980.31222920257,780.31222920257,980.31222920257,419.68777079743,980.31222920257,780.31222920257,980.31222920257,419.68777079743,619.68777079743,419.68777079743,619.68777079743,780.31222920257,4,0,0,0,vertical,horizontal,horizontal,vertical
3a,7,100300,3,28,124,21,F,interleaved,constant,homogeneous,4,present,0.714380025863647,1,horizontal,horizontal,1,8,red,2,4,980.31222920257,419.68777079743,619.68777079743,780.31222920257,980.31222920257,780.31222920257,980.31222920257,419.68777079743,619.68777079743,419.68777079743,619.68777079743,780.31222920257,0,4,0,0,horizontal,horizontal,vertical,vertical
3a,7,100300,3,29,125,21,F,interleaved,constant,homogeneous,4,present,0.526793956756592,1,horizontal,horizontal,1,2,red,2,4,980.31222920257,419.68777079743,619.68777079743,780.31222920257,980.31222920257,780.31222920257,980.31222920257,419.68777079743,619.68777079743,419.68777079743,619.68777079743,780.31222920257,0,4,0,0,horizontal,horizontal,horizontal,vertical
3a,7,100300,3,30,126,21,F,interleaved,constant,homogeneous,4,absent,0.651259899139404,1,horizontal,horizontal,1,2,red,4,NaN,619.68777079743,780.31222920257,NaN,NaN,980.31222920257,780.31222920257,980.31222920257,419.68777079743,619.68777079743,419.68777079743,619.68777079743,780.31222920257,0,0,0,4,horizontal,vertical,vertical,horizontal
3a,7,100300,3,31,127,21,F,interleaved,constant,homogeneous,4,present,0.735257863998413,1,horizontal,horizontal,1,3,red,2,4,980.31222920257,419.68777079743,619.68777079743,780.31222920257,980.31222920257,780.31222920257,980.31222920257,419.68777079743,619.68777079743,419.68777079743,619.68777079743,780.31222920257,0,4,0,0,vertical,horizontal,horizontal,vertical
3a,7,100300,3,32,128,21,F,interleaved,constant,homogeneous,4,absent,0.507623910903931,1,horizontal,horizontal,1,5,red,2,NaN,980.31222920257,419.68777079743,NaN,NaN,980.31222920257,780.31222920257,980.31222920257,419.68777079743,619.68777079743,419.68777079743,619.68777079743,780.31222920257,0,4,0,0,vertical,horizontal,horizontal,horizontal
3a,7,100300,3,33,129,21,F,interleaved,constant,homogeneous,4,present,0.687947034835815,1,vertical,vertical,1,3,red,3,2,619.68777079743,419.68777079743,980.31222920257,419.68777079743,980.31222920257,780.31222920257,980.31222920257,419.68777079743,619.68777079743,419.68777079743,619.68777079743,780.31222920257,0,0,4,0,vertical,vertical,vertical,horizontal
3a,7,100300,3,34,130,21,F,interleaved,constant,homogeneous,4,absent,0.54038405418396,1,horizontal,horizontal,1,2,red,4,NaN,619.68777079743,780.31222920257,NaN,NaN,980.31222920257,780.31222920257,980.31222920257,419.68777079743,619.68777079743,419.68777079743,619.68777079743,780.31222920257,0,0,0,4,horizontal,horizontal,horizontal,horizontal
3a,7,100300,3,35,131,21,F,interleaved,constant,homogeneous,4,present,0.53679895401001,1,vertical,vertical,1,2,red,4,1,619.68777079743,780.31222920257,980.31222920257,780.31222920257,980.31222920257,780.31222920257,980.31222920257,419.68777079743,619.68777079743,419.68777079743,619.68777079743,780.31222920257,0,0,0,4,horizontal,horizontal,vertical,vertical
3a,7,100300,3,36,132,21,F,interleaved,constant,homogeneous,4,absent,0.652781009674072,1,vertical,vertical,1,3,red,2,NaN,980.31222920257,419.68777079743,NaN,NaN,980.31222920257,780.31222920257,980.31222920257,419.68777079743,619.68777079743,419.68777079743,619.68777079743,780.31222920257,0,4,0,0,vertical,vertical,horizontal,vertical
3a,7,100300,3,37,133,21,F,interleaved,constant,homogeneous,4,present,0.617275953292847,1,vertical,vertical,1,2,red,2,3,980.31222920257,419.68777079743,619.68777079743,419.68777079743,980.31222920257,780.31222920257,980.31222920257,419.68777079743,619.68777079743,419.68777079743,619.68777079743,780.31222920257,0,4,0,0,horizontal,vertical,vertical,horizontal
3a,7,100300,3,38,134,21,F,interleaved,constant,homogeneous,4,absent,0.597631931304932,1,horizontal,horizontal,1,8,red,4,NaN,619.68777079743,780.31222920257,NaN,NaN,980.31222920257,780.31222920257,980.31222920257,419.68777079743,619.68777079743,419.68777079743,619.68777079743,780.31222920257,0,0,0,4,vertical,vertical,vertical,horizontal
3a,7,100300,3,39,135,21,F,interleaved,constant,homogeneous,4,present,0.705793142318726,1,vertical,vertical,1,3,red,2,3,980.31222920257,419.68777079743,619.68777079743,419.68777079743,980.31222920257,780.31222920257,980.31222920257,419.68777079743,619.68777079743,419.68777079743,619.68777079743,780.31222920257,0,4,0,0,vertical,vertical,vertical,horizontal
3a,7,100300,3,40,136,21,F,interleaved,constant,homogeneous,4,present,0.550096988677979,1,horizontal,horizontal,1,3,red,4,1,619.68777079743,780.31222920257,980.31222920257,780.31222920257,980.31222920257,780.31222920257,980.31222920257,419.68777079743,619.68777079743,419.68777079743,619.68777079743,780.31222920257,0,0,0,4,vertical,horizontal,vertical,horizontal
3a,7,100300,3,41,137,21,F,interleaved,constant,homogeneous,4,present,0.730830907821655,1,vertical,vertical,1,2,red,1,2,980.31222920257,780.31222920257,980.31222920257,419.68777079743,980.31222920257,780.31222920257,980.31222920257,419.68777079743,619.68777079743,419.68777079743,619.68777079743,780.31222920257,4,0,0,0,vertical,vertical,horizontal,vertical
3a,7,100300,3,42,138,21,F,interleaved,constant,homogeneous,4,absent,0.550999164581299,1,horizontal,horizontal,1,3,red,4,NaN,619.68777079743,780.31222920257,NaN,NaN,980.31222920257,780.31222920257,980.31222920257,419.68777079743,619.68777079743,419.68777079743,619.68777079743,780.31222920257,0,0,0,4,vertical,horizontal,vertical,horizontal
3a,7,100300,3,43,139,21,F,interleaved,constant,homogeneous,4,present,1.00344300270081,1,horizontal,horizontal,1,5,red,2,1,980.31222920257,419.68777079743,980.31222920257,780.31222920257,980.31222920257,780.31222920257,980.31222920257,419.68777079743,619.68777079743,419.68777079743,619.68777079743,780.31222920257,0,4,0,0,vertical,horizontal,horizontal,vertical
3a,7,100300,3,44,140,21,F,interleaved,constant,homogeneous,4,present,0.631772994995117,1,vertical,vertical,1,5,red,2,1,980.31222920257,419.68777079743,980.31222920257,780.31222920257,980.31222920257,780.31222920257,980.31222920257,419.68777079743,619.68777079743,419.68777079743,619.68777079743,780.31222920257,0,4,0,0,vertical,vertical,vertical,horizontal
3a,7,100300,3,45,141,21,F,interleaved,constant,homogeneous,4,present,0.604012012481689,1,horizontal,horizontal,1,5,red,2,1,980.31222920257,419.68777079743,980.31222920257,780.31222920257,980.31222920257,780.31222920257,980.31222920257,419.68777079743,619.68777079743,419.68777079743,619.68777079743,780.31222920257,0,4,0,0,horizontal,horizontal,horizontal,horizontal
3a,7,100300,3,46,142,21,F,interleaved,constant,homogeneous,4,present,0.784175872802734,1,horizontal,horizontal,1,5,red,1,3,980.31222920257,780.31222920257,619.68777079743,419.68777079743,980.31222920257,780.31222920257,980.31222920257,419.68777079743,619.68777079743,419.68777079743,619.68777079743,780.31222920257,4,0,0,0,horizontal,horizontal,vertical,vertical
3a,7,100300,3,47,143,21,F,interleaved,constant,homogeneous,4,present,0.805140972137451,1,vertical,vertical,1,5,red,3,1,619.68777079743,419.68777079743,980.31222920257,780.31222920257,980.31222920257,780.31222920257,980.31222920257,419.68777079743,619.68777079743,419.68777079743,619.68777079743,780.31222920257,0,0,4,0,vertical,vertical,vertical,horizontal
3a,7,100300,3,48,144,21,F,interleaved,constant,homogeneous,4,present,0.64122200012207,1,horizontal,horizontal,1,2,red,3,2,619.68777079743,419.68777079743,980.31222920257,419.68777079743,980.31222920257,780.31222920257,980.31222920257,419.68777079743,619.68777079743,419.68777079743,619.68777079743,780.31222920257,0,0,4,0,horizontal,vertical,horizontal,horizontal
3a,7,100300,4,1,145,21,F,interleaved,variable,homogeneous,4,present,0.594215154647827,1,horizontal,horizontal,1,5,red,2,4,980.31222920257,419.68777079743,619.68777079743,780.31222920257,980.31222920257,780.31222920257,980.31222920257,419.68777079743,619.68777079743,419.68777079743,619.68777079743,780.31222920257,0,4,0,0,horizontal,horizontal,horizontal,vertical
3a,7,100300,4,2,146,21,F,interleaved,variable,homogeneous,4,present,0.638520002365112,1,vertical,vertical,1,2,green,4,3,619.68777079743,780.31222920257,619.68777079743,419.68777079743,980.31222920257,780.31222920257,980.31222920257,419.68777079743,619.68777079743,419.68777079743,619.68777079743,780.31222920257,0,0,0,4,vertical,vertical,horizontal,vertical
3a,7,100300,4,3,147,21,F,interleaved,variable,homogeneous,4,absent,0.675195932388306,1,vertical,vertical,1,3,red,2,NaN,980.31222920257,419.68777079743,NaN,NaN,980.31222920257,780.31222920257,980.31222920257,419.68777079743,619.68777079743,419.68777079743,619.68777079743,780.31222920257,0,4,0,0,vertical,vertical,horizontal,horizontal
3a,7,100300,4,4,148,21,F,interleaved,variable,homogeneous,4,present,0.479276180267334,1,vertical,vertical,1,3,red,3,4,619.68777079743,419.68777079743,619.68777079743,780.31222920257,980.31222920257,780.31222920257,980.31222920257,419.68777079743,619.68777079743,419.68777079743,619.68777079743,780.31222920257,0,0,4,0,vertical,horizontal,vertical,horizontal
3a,7,100300,4,5,149,21,F,interleaved,variable,homogeneous,4,absent,0.659524917602539,1,vertical,vertical,1,3,green,4,NaN,619.68777079743,780.31222920257,NaN,NaN,980.31222920257,780.31222920257,980.31222920257,419.68777079743,619.68777079743,419.68777079743,619.68777079743,780.31222920257,0,0,0,4,vertical,vertical,vertical,vertical
3a,7,100300,4,6,150,21,F,interleaved,variable,homogeneous,4,present,0.58386492729187,1,horizontal,horizontal,1,8,red,4,3,619.68777079743,780.31222920257,619.68777079743,419.68777079743,980.31222920257,780.31222920257,980.31222920257,419.68777079743,619.68777079743,419.68777079743,619.68777079743,780.31222920257,0,0,0,4,vertical,horizontal,horizontal,horizontal
3a,7,100300,4,7,151,21,F,interleaved,variable,homogeneous,4,present,0.724406003952026,1,horizontal,horizontal,1,5,green,4,3,619.68777079743,780.31222920257,619.68777079743,419.68777079743,980.31222920257,780.31222920257,980.31222920257,419.68777079743,619.68777079743,419.68777079743,619.68777079743,780.31222920257,0,0,0,4,vertical,vertical,vertical,horizontal
3a,7,100300,4,8,152,21,F,interleaved,variable,homogeneous,4,present,0.65668797492981,1,horizontal,horizontal,1,2,red,1,4,980.31222920257,780.31222920257,619.68777079743,780.31222920257,980.31222920257,780.31222920257,980.31222920257,419.68777079743,619.68777079743,419.68777079743,619.68777079743,780.31222920257,4,0,0,0,horizontal,horizontal,horizontal,horizontal
3a,7,100300,4,9,153,21,F,interleaved,variable,homogeneous,4,absent,0.620985984802246,1,vertical,vertical,1,2,red,4,NaN,619.68777079743,780.31222920257,NaN,NaN,980.31222920257,780.31222920257,980.31222920257,419.68777079743,619.68777079743,419.68777079743,619.68777079743,780.31222920257,0,0,0,4,horizontal,horizontal,vertical,vertical
3a,7,100300,4,10,154,21,F,interleaved,variable,homogeneous,4,present,0.745429992675781,1,horizontal,horizontal,1,3,red,2,1,980.31222920257,419.68777079743,980.31222920257,780.31222920257,980.31222920257,780.31222920257,980.31222920257,419.68777079743,619.68777079743,419.68777079743,619.68777079743,780.31222920257,0,4,0,0,horizontal,horizontal,horizontal,horizontal
3a,7,100300,4,11,155,21,F,interleaved,variable,homogeneous,4,present,0.645777940750122,1,horizontal,horizontal,1,2,red,2,4,980.31222920257,419.68777079743,619.68777079743,780.31222920257,980.31222920257,780.31222920257,980.31222920257,419.68777079743,619.68777079743,419.68777079743,619.68777079743,780.31222920257,0,4,0,0,horizontal,horizontal,vertical,vertical
3a,7,100300,4,12,156,21,F,interleaved,variable,homogeneous,4,absent,0.714092016220093,1,vertical,vertical,1,5,red,1,NaN,980.31222920257,780.31222920257,NaN,NaN,980.31222920257,780.31222920257,980.31222920257,419.68777079743,619.68777079743,419.68777079743,619.68777079743,780.31222920257,4,0,0,0,vertical,vertical,vertical,horizontal
3a,7,100300,4,13,157,21,F,interleaved,variable,homogeneous,4,present,0.646389961242676,1,vertical,vertical,1,2,red,4,3,619.68777079743,780.31222920257,619.68777079743,419.68777079743,980.31222920257,780.31222920257,980.31222920257,419.68777079743,619.68777079743,419.68777079743,619.68777079743,780.31222920257,0,0,0,4,horizontal,vertical,horizontal,vertical
3a,7,100300,4,14,158,21,F,interleaved,variable,homogeneous,4,present,0.506509065628052,1,vertical,vertical,1,2,red,1,2,980.31222920257,780.31222920257,980.31222920257,419.68777079743,980.31222920257,780.31222920257,980.31222920257,419.68777079743,619.68777079743,419.68777079743,619.68777079743,780.31222920257,4,0,0,0,vertical,horizontal,horizontal,vertical
3a,7,100300,4,15,159,21,F,interleaved,variable,homogeneous,4,present,0.63096284866333,1,horizontal,horizontal,1,2,red,4,3,619.68777079743,780.31222920257,619.68777079743,419.68777079743,980.31222920257,780.31222920257,980.31222920257,419.68777079743,619.68777079743,419.68777079743,619.68777079743,780.31222920257,0,0,0,4,vertical,vertical,vertical,horizontal
3a,7,100300,4,16,160,21,F,interleaved,variable,homogeneous,4,present,0.699234962463379,1,vertical,vertical,1,5,red,1,2,980.31222920257,780.31222920257,980.31222920257,419.68777079743,980.31222920257,780.31222920257,980.31222920257,419.68777079743,619.68777079743,419.68777079743,619.68777079743,780.31222920257,4,0,0,0,vertical,horizontal,horizontal,horizontal
3a,7,100300,4,17,161,21,F,interleaved,variable,homogeneous,4,absent,0.735473871231079,1,vertical,vertical,1,8,red,3,NaN,619.68777079743,419.68777079743,NaN,NaN,980.31222920257,780.31222920257,980.31222920257,419.68777079743,619.68777079743,419.68777079743,619.68777079743,780.31222920257,0,0,4,0,vertical,vertical,vertical,horizontal
3a,7,100300,4,18,162,21,F,interleaved,variable,homogeneous,4,absent,0.532166004180908,1,vertical,vertical,1,2,red,3,NaN,619.68777079743,419.68777079743,NaN,NaN,980.31222920257,780.31222920257,980.31222920257,419.68777079743,619.68777079743,419.68777079743,619.68777079743,780.31222920257,0,0,4,0,vertical,horizontal,vertical,vertical
3a,7,100300,4,19,163,21,F,interleaved,variable,homogeneous,4,present,0.728225946426392,1,vertical,vertical,1,5,green,4,1,619.68777079743,780.31222920257,980.31222920257,780.31222920257,980.31222920257,780.31222920257,980.31222920257,419.68777079743,619.68777079743,419.68777079743,619.68777079743,780.31222920257,0,0,0,4,horizontal,horizontal,vertical,vertical
3a,7,100300,4,20,164,21,F,interleaved,variable,homogeneous,4,absent,0.644803047180176,1,horizontal,horizontal,1,2,green,3,NaN,619.68777079743,419.68777079743,NaN,NaN,980.31222920257,780.31222920257,980.31222920257,419.68777079743,619.68777079743,419.68777079743,619.68777079743,780.31222920257,0,0,4,0,vertical,vertical,horizontal,vertical
3a,7,100300,4,21,165,21,F,interleaved,variable,homogeneous,4,present,0.520957946777344,1,vertical,vertical,1,5,green,2,3,980.31222920257,419.68777079743,619.68777079743,419.68777079743,980.31222920257,780.31222920257,980.31222920257,419.68777079743,619.68777079743,419.68777079743,619.68777079743,780.31222920257,0,4,0,0,vertical,vertical,vertical,vertical
3a,7,100300,4,22,166,21,F,interleaved,variable,homogeneous,4,present,0.901307106018066,1,vertical,vertical,1,2,green,4,2,619.68777079743,780.31222920257,980.31222920257,419.68777079743,980.31222920257,780.31222920257,980.31222920257,419.68777079743,619.68777079743,419.68777079743,619.68777079743,780.31222920257,0,0,0,4,horizontal,vertical,vertical,vertical
3a,7,100300,4,23,167,21,F,interleaved,variable,homogeneous,4,present,0.649795055389404,1,horizontal,horizontal,1,3,green,3,1,619.68777079743,419.68777079743,980.31222920257,780.31222920257,980.31222920257,780.31222920257,980.31222920257,419.68777079743,619.68777079743,419.68777079743,619.68777079743,780.31222920257,0,0,4,0,vertical,vertical,horizontal,vertical
3a,7,100300,4,24,168,21,F,interleaved,variable,homogeneous,4,present,0.766105890274048,1,horizontal,horizontal,1,2,green,1,3,980.31222920257,780.31222920257,619.68777079743,419.68777079743,980.31222920257,780.31222920257,980.31222920257,419.68777079743,619.68777079743,419.68777079743,619.68777079743,780.31222920257,4,0,0,0,horizontal,horizontal,horizontal,vertical
3a,7,100300,4,25,169,21,F,interleaved,variable,homogeneous,4,present,0.842495918273926,1,vertical,vertical,1,8,red,1,2,980.31222920257,780.31222920257,980.31222920257,419.68777079743,980.31222920257,780.31222920257,980.31222920257,419.68777079743,619.68777079743,419.68777079743,619.68777079743,780.31222920257,4,0,0,0,vertical,vertical,horizontal,vertical
3a,7,100300,4,26,170,21,F,interleaved,variable,homogeneous,4,absent,0.830703973770142,1,horizontal,horizontal,1,2,green,1,NaN,980.31222920257,780.31222920257,NaN,NaN,980.31222920257,780.31222920257,980.31222920257,419.68777079743,619.68777079743,419.68777079743,619.68777079743,780.31222920257,4,0,0,0,horizontal,vertical,horizontal,horizontal
3a,7,100300,4,27,171,21,F,interleaved,variable,homogeneous,4,present,0.818975925445557,1,horizontal,horizontal,1,3,red,3,1,619.68777079743,419.68777079743,980.31222920257,780.31222920257,980.31222920257,780.31222920257,980.31222920257,419.68777079743,619.68777079743,419.68777079743,619.68777079743,780.31222920257,0,0,4,0,vertical,vertical,horizontal,horizontal
3a,7,100300,4,28,172,21,F,interleaved,variable,homogeneous,4,absent,1.03149390220642,1,vertical,vertical,1,2,green,1,NaN,980.31222920257,780.31222920257,NaN,NaN,980.31222920257,780.31222920257,980.31222920257,419.68777079743,619.68777079743,419.68777079743,619.68777079743,780.31222920257,4,0,0,0,vertical,horizontal,vertical,vertical
3a,7,100300,4,29,173,21,F,interleaved,variable,homogeneous,4,absent,0.771706819534302,1,horizontal,horizontal,1,8,red,1,NaN,980.31222920257,780.31222920257,NaN,NaN,980.31222920257,780.31222920257,980.31222920257,419.68777079743,619.68777079743,419.68777079743,619.68777079743,780.31222920257,4,0,0,0,horizontal,vertical,horizontal,vertical
3a,7,100300,4,30,174,21,F,interleaved,variable,homogeneous,4,present,0.999889135360718,1,vertical,vertical,1,2,red,2,3,980.31222920257,419.68777079743,619.68777079743,419.68777079743,980.31222920257,780.31222920257,980.31222920257,419.68777079743,619.68777079743,419.68777079743,619.68777079743,780.31222920257,0,4,0,0,horizontal,vertical,vertical,vertical
3a,7,100300,4,31,175,21,F,interleaved,variable,homogeneous,4,present,1.32418894767761,1,horizontal,horizontal,1,2,green,3,4,619.68777079743,419.68777079743,619.68777079743,780.31222920257,980.31222920257,780.31222920257,980.31222920257,419.68777079743,619.68777079743,419.68777079743,619.68777079743,780.31222920257,0,0,4,0,vertical,horizontal,horizontal,vertical
3a,7,100300,4,32,176,21,F,interleaved,variable,homogeneous,4,present,0.560888051986694,1,horizontal,horizontal,1,8,red,3,4,619.68777079743,419.68777079743,619.68777079743,780.31222920257,980.31222920257,780.31222920257,980.31222920257,419.68777079743,619.68777079743,419.68777079743,619.68777079743,780.31222920257,0,0,4,0,horizontal,vertical,horizontal,vertical
3a,7,100300,4,33,177,21,F,interleaved,variable,homogeneous,4,present,0.9255530834198,1,vertical,vertical,1,3,green,3,4,619.68777079743,419.68777079743,619.68777079743,780.31222920257,980.31222920257,780.31222920257,980.31222920257,419.68777079743,619.68777079743,419.68777079743,619.68777079743,780.31222920257,0,0,4,0,horizontal,horizontal,vertical,horizontal
3a,7,100300,4,34,178,21,F,interleaved,variable,homogeneous,4,absent,0.745841026306152,1,horizontal,horizontal,1,2,red,4,NaN,619.68777079743,780.31222920257,NaN,NaN,980.31222920257,780.31222920257,980.31222920257,419.68777079743,619.68777079743,419.68777079743,619.68777079743,780.31222920257,0,0,0,4,vertical,vertical,vertical,horizontal
3a,7,100300,4,35,179,21,F,interleaved,variable,homogeneous,4,absent,1.0936450958252,1,horizontal,horizontal,1,5,red,2,NaN,980.31222920257,419.68777079743,NaN,NaN,980.31222920257,780.31222920257,980.31222920257,419.68777079743,619.68777079743,419.68777079743,619.68777079743,780.31222920257,0,4,0,0,horizontal,horizontal,horizontal,vertical
3a,7,100300,4,36,180,21,F,interleaved,variable,homogeneous,4,present,0.602301120758057,1,horizontal,horizontal,1,5,red,4,2,619.68777079743,780.31222920257,980.31222920257,419.68777079743,980.31222920257,780.31222920257,980.31222920257,419.68777079743,619.68777079743,419.68777079743,619.68777079743,780.31222920257,0,0,0,4,vertical,vertical,horizontal,horizontal
3a,7,100300,4,37,181,21,F,interleaved,variable,homogeneous,4,absent,0.67071008682251,1,vertical,vertical,1,5,red,3,NaN,619.68777079743,419.68777079743,NaN,NaN,980.31222920257,780.31222920257,980.31222920257,419.68777079743,619.68777079743,419.68777079743,619.68777079743,780.31222920257,0,0,4,0,horizontal,vertical,vertical,vertical
3a,7,100300,4,38,182,21,F,interleaved,variable,homogeneous,4,present,0.946928977966309,1,vertical,vertical,1,8,green,2,3,980.31222920257,419.68777079743,619.68777079743,419.68777079743,980.31222920257,780.31222920257,980.31222920257,419.68777079743,619.68777079743,419.68777079743,619.68777079743,780.31222920257,0,4,0,0,horizontal,vertical,vertical,horizontal
3a,7,100300,4,39,183,21,F,interleaved,variable,homogeneous,4,absent,0.703428983688354,1,horizontal,horizontal,1,3,green,2,NaN,980.31222920257,419.68777079743,NaN,NaN,980.31222920257,780.31222920257,980.31222920257,419.68777079743,619.68777079743,419.68777079743,619.68777079743,780.31222920257,0,4,0,0,horizontal,horizontal,horizontal,horizontal
3a,7,100300,4,40,184,21,F,interleaved,variable,homogeneous,4,present,0.579795837402344,1,vertical,vertical,1,2,red,1,4,980.31222920257,780.31222920257,619.68777079743,780.31222920257,980.31222920257,780.31222920257,980.31222920257,419.68777079743,619.68777079743,419.68777079743,619.68777079743,780.31222920257,4,0,0,0,vertical,vertical,vertical,horizontal
3a,7,100300,4,41,185,21,F,interleaved,variable,homogeneous,4,absent,0.712061882019043,1,horizontal,horizontal,1,5,green,3,NaN,619.68777079743,419.68777079743,NaN,NaN,980.31222920257,780.31222920257,980.31222920257,419.68777079743,619.68777079743,419.68777079743,619.68777079743,780.31222920257,0,0,4,0,horizontal,horizontal,horizontal,vertical
3a,7,100300,4,42,186,21,F,interleaved,variable,homogeneous,4,present,0.756397008895874,1,vertical,vertical,1,5,green,2,3,980.31222920257,419.68777079743,619.68777079743,419.68777079743,980.31222920257,780.31222920257,980.31222920257,419.68777079743,619.68777079743,419.68777079743,619.68777079743,780.31222920257,0,4,0,0,horizontal,vertical,vertical,horizontal
3a,7,100300,4,43,187,21,F,interleaved,variable,homogeneous,4,present,0.888833045959473,1,vertical,vertical,1,3,green,4,1,619.68777079743,780.31222920257,980.31222920257,780.31222920257,980.31222920257,780.31222920257,980.31222920257,419.68777079743,619.68777079743,419.68777079743,619.68777079743,780.31222920257,0,0,0,4,vertical,horizontal,vertical,vertical
3a,7,100300,4,44,188,21,F,interleaved,variable,homogeneous,4,present,0.660810947418213,1,horizontal,horizontal,1,3,red,4,3,619.68777079743,780.31222920257,619.68777079743,419.68777079743,980.31222920257,780.31222920257,980.31222920257,419.68777079743,619.68777079743,419.68777079743,619.68777079743,780.31222920257,0,0,0,4,vertical,horizontal,vertical,horizontal
3a,7,100300,4,45,189,21,F,interleaved,variable,homogeneous,4,present,0.817506074905396,1,horizontal,horizontal,1,2,red,1,2,980.31222920257,780.31222920257,980.31222920257,419.68777079743,980.31222920257,780.31222920257,980.31222920257,419.68777079743,619.68777079743,419.68777079743,619.68777079743,780.31222920257,4,0,0,0,horizontal,horizontal,vertical,horizontal
3a,7,100300,4,46,190,21,F,interleaved,variable,homogeneous,4,present,0.629772901535034,1,horizontal,horizontal,1,5,red,4,2,619.68777079743,780.31222920257,980.31222920257,419.68777079743,980.31222920257,780.31222920257,980.31222920257,419.68777079743,619.68777079743,419.68777079743,619.68777079743,780.31222920257,0,0,0,4,horizontal,horizontal,vertical,horizontal
3a,7,100300,4,47,191,21,F,interleaved,variable,homogeneous,4,present,0.633943796157837,1,vertical,vertical,1,3,green,4,2,619.68777079743,780.31222920257,980.31222920257,419.68777079743,980.31222920257,780.31222920257,980.31222920257,419.68777079743,619.68777079743,419.68777079743,619.68777079743,780.31222920257,0,0,0,4,vertical,vertical,vertical,vertical
3a,7,100300,4,48,192,21,F,interleaved,variable,homogeneous,4,absent,0.966228008270264,1,horizontal,horizontal,1,3,red,3,NaN,619.68777079743,419.68777079743,NaN,NaN,980.31222920257,780.31222920257,980.31222920257,419.68777079743,619.68777079743,419.68777079743,619.68777079743,780.31222920257,0,0,4,0,vertical,vertical,horizontal,vertical
3a,7,100300,5,1,193,21,F,interleaved,constant,homogeneous,4,absent,0.50337815284729,1,horizontal,horizontal,1,8,green,3,NaN,619.68777079743,419.68777079743,NaN,NaN,980.31222920257,780.31222920257,980.31222920257,419.68777079743,619.68777079743,419.68777079743,619.68777079743,780.31222920257,0,0,4,0,horizontal,horizontal,horizontal,horizontal
3a,7,100300,5,2,194,21,F,interleaved,constant,homogeneous,4,present,0.468093156814575,1,horizontal,horizontal,1,3,green,3,1,619.68777079743,419.68777079743,980.31222920257,780.31222920257,980.31222920257,780.31222920257,980.31222920257,419.68777079743,619.68777079743,419.68777079743,619.68777079743,780.31222920257,0,0,4,0,horizontal,vertical,horizontal,horizontal
3a,7,100300,5,3,195,21,F,interleaved,constant,homogeneous,4,present,0.832320928573608,1,vertical,vertical,1,2,green,2,3,980.31222920257,419.68777079743,619.68777079743,419.68777079743,980.31222920257,780.31222920257,980.31222920257,419.68777079743,619.68777079743,419.68777079743,619.68777079743,780.31222920257,0,4,0,0,vertical,vertical,horizontal,horizontal
3a,7,100300,5,4,196,21,F,interleaved,constant,homogeneous,4,present,0.668424844741821,1,vertical,vertical,1,2,green,4,2,619.68777079743,780.31222920257,980.31222920257,419.68777079743,980.31222920257,780.31222920257,980.31222920257,419.68777079743,619.68777079743,419.68777079743,619.68777079743,780.31222920257,0,0,0,4,vertical,horizontal,horizontal,vertical
3a,7,100300,5,5,197,21,F,interleaved,constant,homogeneous,4,absent,0.512914896011353,1,vertical,vertical,1,3,green,4,NaN,619.68777079743,780.31222920257,NaN,NaN,980.31222920257,780.31222920257,980.31222920257,419.68777079743,619.68777079743,419.68777079743,619.68777079743,780.31222920257,0,0,0,4,horizontal,horizontal,horizontal,vertical
3a,7,100300,5,6,198,21,F,interleaved,constant,homogeneous,4,present,0.644989967346191,1,horizontal,horizontal,1,3,green,2,4,980.31222920257,419.68777079743,619.68777079743,780.31222920257,980.31222920257,780.31222920257,980.31222920257,419.68777079743,619.68777079743,419.68777079743,619.68777079743,780.31222920257,0,4,0,0,vertical,horizontal,vertical,horizontal
3a,7,100300,5,7,199,21,F,interleaved,constant,homogeneous,4,absent,0.537667989730835,0,horizontal,vertical,1,5,green,4,NaN,619.68777079743,780.31222920257,NaN,NaN,980.31222920257,780.31222920257,980.31222920257,419.68777079743,619.68777079743,419.68777079743,619.68777079743,780.31222920257,0,0,0,4,vertical,horizontal,horizontal,horizontal
3a,7,100300,5,8,200,21,F,interleaved,constant,homogeneous,4,absent,0.534090995788574,1,vertical,vertical,1,5,green,1,NaN,980.31222920257,780.31222920257,NaN,NaN,980.31222920257,780.31222920257,980.31222920257,419.68777079743,619.68777079743,419.68777079743,619.68777079743,780.31222920257,4,0,0,0,vertical,horizontal,horizontal,vertical
3a,7,100300,5,9,201,21,F,interleaved,constant,homogeneous,4,present,0.650564908981323,1,vertical,vertical,1,8,green,3,2,619.68777079743,419.68777079743,980.31222920257,419.68777079743,980.31222920257,780.31222920257,980.31222920257,419.68777079743,619.68777079743,419.68777079743,619.68777079743,780.31222920257,0,0,4,0,vertical,vertical,vertical,vertical
3a,7,100300,5,10,202,21,F,interleaved,constant,homogeneous,4,absent,0.582890033721924,1,horizontal,horizontal,1,3,green,3,NaN,619.68777079743,419.68777079743,NaN,NaN,980.31222920257,780.31222920257,980.31222920257,419.68777079743,619.68777079743,419.68777079743,619.68777079743,780.31222920257,0,0,4,0,horizontal,horizontal,horizontal,horizontal
3a,7,100300,5,11,203,21,F,interleaved,constant,homogeneous,4,absent,0.642877101898193,1,horizontal,horizontal,1,5,green,4,NaN,619.68777079743,780.31222920257,NaN,NaN,980.31222920257,780.31222920257,980.31222920257,419.68777079743,619.68777079743,419.68777079743,619.68777079743,780.31222920257,0,0,0,4,vertical,vertical,vertical,horizontal
3a,7,100300,5,12,204,21,F,interleaved,constant,homogeneous,4,present,0.57544207572937,1,vertical,vertical,1,5,green,3,2,619.68777079743,419.68777079743,980.31222920257,419.68777079743,980.31222920257,780.31222920257,980.31222920257,419.68777079743,619.68777079743,419.68777079743,619.68777079743,780.31222920257,0,0,4,0,horizontal,horizontal,vertical,vertical
3a,7,100300,5,13,205,21,F,interleaved,constant,homogeneous,4,present,0.595693111419678,1,vertical,vertical,1,5,green,2,4,980.31222920257,419.68777079743,619.68777079743,780.31222920257,980.31222920257,780.31222920257,980.31222920257,419.68777079743,619.68777079743,419.68777079743,619.68777079743,780.31222920257,0,4,0,0,vertical,vertical,vertical,vertical
3a,7,100300,5,14,206,21,F,interleaved,constant,homogeneous,4,absent,0.50403904914856,1,horizontal,horizontal,1,2,green,2,NaN,980.31222920257,419.68777079743,NaN,NaN,980.31222920257,780.31222920257,980.31222920257,419.68777079743,619.68777079743,419.68777079743,619.68777079743,780.31222920257,0,4,0,0,horizontal,horizontal,horizontal,horizontal
3a,7,100300,5,15,207,21,F,interleaved,constant,homogeneous,4,absent,0.756091117858887,1,horizontal,horizontal,1,2,green,2,NaN,980.31222920257,419.68777079743,NaN,NaN,980.31222920257,780.31222920257,980.31222920257,419.68777079743,619.68777079743,419.68777079743,619.68777079743,780.31222920257,0,4,0,0,vertical,horizontal,horizontal,vertical
3a,7,100300,5,16,208,21,F,interleaved,constant,homogeneous,4,present,0.712534189224243,1,vertical,vertical,1,3,green,1,4,980.31222920257,780.31222920257,619.68777079743,780.31222920257,980.31222920257,780.31222920257,980.31222920257,419.68777079743,619.68777079743,419.68777079743,619.68777079743,780.31222920257,4,0,0,0,vertical,horizontal,horizontal,horizontal
3a,7,100300,5,17,209,21,F,interleaved,constant,homogeneous,4,absent,0.613008975982666,1,vertical,vertical,1,2,green,1,NaN,980.31222920257,780.31222920257,NaN,NaN,980.31222920257,780.31222920257,980.31222920257,419.68777079743,619.68777079743,419.68777079743,619.68777079743,780.31222920257,4,0,0,0,vertical,horizontal,vertical,horizontal
3a,7,100300,5,18,210,21,F,interleaved,constant,homogeneous,4,present,0.649164199829102,1,horizontal,horizontal,1,2,green,3,4,619.68777079743,419.68777079743,619.68777079743,780.31222920257,980.31222920257,780.31222920257,980.31222920257,419.68777079743,619.68777079743,419.68777079743,619.68777079743,780.31222920257,0,0,4,0,vertical,vertical,horizontal,horizontal
3a,7,100300,5,19,211,21,F,interleaved,constant,homogeneous,4,present,0.725924968719482,1,vertical,vertical,1,2,green,2,4,980.31222920257,419.68777079743,619.68777079743,780.31222920257,980.31222920257,780.31222920257,980.31222920257,419.68777079743,619.68777079743,419.68777079743,619.68777079743,780.31222920257,0,4,0,0,vertical,vertical,horizontal,horizontal
3a,7,100300,5,20,212,21,F,interleaved,constant,homogeneous,4,present,0.617832899093628,1,horizontal,horizontal,1,3,green,1,3,980.31222920257,780.31222920257,619.68777079743,419.68777079743,980.31222920257,780.31222920257,980.31222920257,419.68777079743,619.68777079743,419.68777079743,619.68777079743,780.31222920257,4,0,0,0,horizontal,vertical,horizontal,horizontal
3a,7,100300,5,21,213,21,F,interleaved,constant,homogeneous,4,present,0.702469110488892,1,vertical,vertical,1,2,green,2,1,980.31222920257,419.68777079743,980.31222920257,780.31222920257,980.31222920257,780.31222920257,980.31222920257,419.68777079743,619.68777079743,419.68777079743,619.68777079743,780.31222920257,0,4,0,0,vertical,vertical,horizontal,vertical
3a,7,100300,5,22,214,21,F,interleaved,constant,homogeneous,4,absent,0.626611948013306,1,vertical,vertical,1,2,green,4,NaN,619.68777079743,780.31222920257,NaN,NaN,980.31222920257,780.31222920257,980.31222920257,419.68777079743,619.68777079743,419.68777079743,619.68777079743,780.31222920257,0,0,0,4,horizontal,horizontal,vertical,vertical
3a,7,100300,5,23,215,21,F,interleaved,constant,homogeneous,4,present,0.638949871063232,1,vertical,vertical,1,2,green,4,2,619.68777079743,780.31222920257,980.31222920257,419.68777079743,980.31222920257,780.31222920257,980.31222920257,419.68777079743,619.68777079743,419.68777079743,619.68777079743,780.31222920257,0,0,0,4,vertical,horizontal,horizontal,vertical
3a,7,100300,5,24,216,21,F,interleaved,constant,homogeneous,4,present,0.523116111755371,1,vertical,vertical,1,2,green,4,3,619.68777079743,780.31222920257,619.68777079743,419.68777079743,980.31222920257,780.31222920257,980.31222920257,419.68777079743,619.68777079743,419.68777079743,619.68777079743,780.31222920257,0,0,0,4,horizontal,horizontal,vertical,vertical
3a,7,100300,5,25,217,21,F,interleaved,constant,homogeneous,4,present,0.719615936279297,1,vertical,vertical,1,3,green,2,3,980.31222920257,419.68777079743,619.68777079743,419.68777079743,980.31222920257,780.31222920257,980.31222920257,419.68777079743,619.68777079743,419.68777079743,619.68777079743,780.31222920257,0,4,0,0,vertical,vertical,vertical,vertical
3a,7,100300,5,26,218,21,F,interleaved,constant,homogeneous,4,present,0.659931898117065,1,horizontal,horizontal,1,5,green,3,1,619.68777079743,419.68777079743,980.31222920257,780.31222920257,980.31222920257,780.31222920257,980.31222920257,419.68777079743,619.68777079743,419.68777079743,619.68777079743,780.31222920257,0,0,4,0,horizontal,horizontal,horizontal,horizontal
3a,7,100300,5,27,219,21,F,interleaved,constant,homogeneous,4,present,1.00027012825012,1,vertical,vertical,1,3,green,2,1,980.31222920257,419.68777079743,980.31222920257,780.31222920257,980.31222920257,780.31222920257,980.31222920257,419.68777079743,619.68777079743,419.68777079743,619.68777079743,780.31222920257,0,4,0,0,vertical,vertical,vertical,horizontal
3a,7,100300,5,28,220,21,F,interleaved,constant,homogeneous,4,present,0.588551998138428,1,vertical,vertical,1,5,green,2,1,980.31222920257,419.68777079743,980.31222920257,780.31222920257,980.31222920257,780.31222920257,980.31222920257,419.68777079743,619.68777079743,419.68777079743,619.68777079743,780.31222920257,0,4,0,0,vertical,vertical,vertical,vertical
3a,7,100300,5,29,221,21,F,interleaved,constant,homogeneous,4,present,0.816874027252197,1,vertical,vertical,1,3,green,2,3,980.31222920257,419.68777079743,619.68777079743,419.68777079743,980.31222920257,780.31222920257,980.31222920257,419.68777079743,619.68777079743,419.68777079743,619.68777079743,780.31222920257,0,4,0,0,horizontal,vertical,vertical,horizontal
3a,7,100300,5,30,222,21,F,interleaved,constant,homogeneous,4,present,1.02939009666443,1,horizontal,horizontal,1,3,green,1,2,980.31222920257,780.31222920257,980.31222920257,419.68777079743,980.31222920257,780.31222920257,980.31222920257,419.68777079743,619.68777079743,419.68777079743,619.68777079743,780.31222920257,4,0,0,0,horizontal,vertical,horizontal,vertical
3a,7,100300,5,31,223,21,F,interleaved,constant,homogeneous,4,absent,0.665279865264893,0,vertical,horizontal,1,2,green,3,NaN,619.68777079743,419.68777079743,NaN,NaN,980.31222920257,780.31222920257,980.31222920257,419.68777079743,619.68777079743,419.68777079743,619.68777079743,780.31222920257,0,0,4,0,horizontal,horizontal,vertical,horizontal
3a,7,100300,5,32,224,21,F,interleaved,constant,homogeneous,4,present,0.773979187011719,1,horizontal,horizontal,1,8,green,3,1,619.68777079743,419.68777079743,980.31222920257,780.31222920257,980.31222920257,780.31222920257,980.31222920257,419.68777079743,619.68777079743,419.68777079743,619.68777079743,780.31222920257,0,0,4,0,horizontal,horizontal,horizontal,vertical
3a,7,100300,5,33,225,21,F,interleaved,constant,homogeneous,4,absent,0.866356134414673,1,horizontal,horizontal,1,3,green,4,NaN,619.68777079743,780.31222920257,NaN,NaN,980.31222920257,780.31222920257,980.31222920257,419.68777079743,619.68777079743,419.68777079743,619.68777079743,780.31222920257,0,0,0,4,vertical,vertical,vertical,horizontal
3a,7,100300,5,34,226,21,F,interleaved,constant,homogeneous,4,absent,0.662661075592041,1,horizontal,horizontal,1,2,green,3,NaN,619.68777079743,419.68777079743,NaN,NaN,980.31222920257,780.31222920257,980.31222920257,419.68777079743,619.68777079743,419.68777079743,619.68777079743,780.31222920257,0,0,4,0,horizontal,vertical,horizontal,horizontal
3a,7,100300,5,35,227,21,F,interleaved,constant,homogeneous,4,present,0.650890827178955,1,horizontal,horizontal,1,8,green,4,1,619.68777079743,780.31222920257,980.31222920257,780.31222920257,980.31222920257,780.31222920257,980.31222920257,419.68777079743,619.68777079743,419.68777079743,619.68777079743,780.31222920257,0,0,0,4,horizontal,vertical,vertical,horizontal
3a,7,100300,5,36,228,21,F,interleaved,constant,homogeneous,4,present,0.543341875076294,1,horizontal,horizontal,1,5,green,3,1,619.68777079743,419.68777079743,980.31222920257,780.31222920257,980.31222920257,780.31222920257,980.31222920257,419.68777079743,619.68777079743,419.68777079743,619.68777079743,780.31222920257,0,0,4,0,vertical,horizontal,horizontal,horizontal
3a,7,100300,5,37,229,21,F,interleaved,constant,homogeneous,4,absent,0.627549886703491,1,vertical,vertical,1,5,green,2,NaN,980.31222920257,419.68777079743,NaN,NaN,980.31222920257,780.31222920257,980.31222920257,419.68777079743,619.68777079743,419.68777079743,619.68777079743,780.31222920257,0,4,0,0,vertical,vertical,horizontal,horizontal
3a,7,100300,5,38,230,21,F,interleaved,constant,homogeneous,4,present,0.624181985855103,1,vertical,vertical,1,8,green,3,1,619.68777079743,419.68777079743,980.31222920257,780.31222920257,980.31222920257,780.31222920257,980.31222920257,419.68777079743,619.68777079743,419.68777079743,619.68777079743,780.31222920257,0,0,4,0,horizontal,vertical,vertical,vertical
3a,7,100300,5,39,231,21,F,interleaved,constant,homogeneous,4,present,0.988402128219604,1,horizontal,horizontal,1,5,green,1,3,980.31222920257,780.31222920257,619.68777079743,419.68777079743,980.31222920257,780.31222920257,980.31222920257,419.68777079743,619.68777079743,419.68777079743,619.68777079743,780.31222920257,4,0,0,0,horizontal,vertical,vertical,horizontal
3a,7,100300,5,40,232,21,F,interleaved,constant,homogeneous,4,present,0.560710906982422,1,horizontal,horizontal,1,5,green,4,3,619.68777079743,780.31222920257,619.68777079743,419.68777079743,980.31222920257,780.31222920257,980.31222920257,419.68777079743,619.68777079743,419.68777079743,619.68777079743,780.31222920257,0,0,0,4,vertical,horizontal,horizontal,horizontal
3a,7,100300,5,41,233,21,F,interleaved,constant,homogeneous,4,present,0.741278886795044,1,horizontal,horizontal,1,2,green,3,1,619.68777079743,419.68777079743,980.31222920257,780.31222920257,980.31222920257,780.31222920257,980.31222920257,419.68777079743,619.68777079743,419.68777079743,619.68777079743,780.31222920257,0,0,4,0,vertical,vertical,horizontal,horizontal
3a,7,100300,5,42,234,21,F,interleaved,constant,homogeneous,4,present,1.01783585548401,1,horizontal,horizontal,1,2,green,1,2,980.31222920257,780.31222920257,980.31222920257,419.68777079743,980.31222920257,780.31222920257,980.31222920257,419.68777079743,619.68777079743,419.68777079743,619.68777079743,780.31222920257,4,0,0,0,horizontal,vertical,vertical,vertical
3a,7,100300,5,43,235,21,F,interleaved,constant,homogeneous,4,present,0.901914119720459,1,vertical,vertical,1,5,green,3,2,619.68777079743,419.68777079743,980.31222920257,419.68777079743,980.31222920257,780.31222920257,980.31222920257,419.68777079743,619.68777079743,419.68777079743,619.68777079743,780.31222920257,0,0,4,0,horizontal,vertical,vertical,vertical
3a,7,100300,5,44,236,21,F,interleaved,constant,homogeneous,4,absent,0.682234048843384,1,vertical,vertical,1,3,green,4,NaN,619.68777079743,780.31222920257,NaN,NaN,980.31222920257,780.31222920257,980.31222920257,419.68777079743,619.68777079743,419.68777079743,619.68777079743,780.31222920257,0,0,0,4,vertical,vertical,vertical,vertical
3a,7,100300,5,45,237,21,F,interleaved,constant,homogeneous,4,absent,0.638401985168457,1,vertical,vertical,1,8,green,4,NaN,619.68777079743,780.31222920257,NaN,NaN,980.31222920257,780.31222920257,980.31222920257,419.68777079743,619.68777079743,419.68777079743,619.68777079743,780.31222920257,0,0,0,4,vertical,vertical,vertical,vertical
3a,7,100300,5,46,238,21,F,interleaved,constant,homogeneous,4,present,0.514961957931519,1,horizontal,horizontal,1,2,green,4,1,619.68777079743,780.31222920257,980.31222920257,780.31222920257,980.31222920257,780.31222920257,980.31222920257,419.68777079743,619.68777079743,419.68777079743,619.68777079743,780.31222920257,0,0,0,4,horizontal,horizontal,vertical,horizontal
3a,7,100300,5,47,239,21,F,interleaved,constant,homogeneous,4,present,0.559016942977905,1,horizontal,horizontal,1,2,green,2,4,980.31222920257,419.68777079743,619.68777079743,780.31222920257,980.31222920257,780.31222920257,980.31222920257,419.68777079743,619.68777079743,419.68777079743,619.68777079743,780.31222920257,0,4,0,0,horizontal,horizontal,horizontal,horizontal
3a,7,100300,5,48,240,21,F,interleaved,constant,homogeneous,4,present,0.651621103286743,1,horizontal,horizontal,1,2,green,2,1,980.31222920257,419.68777079743,980.31222920257,780.31222920257,980.31222920257,780.31222920257,980.31222920257,419.68777079743,619.68777079743,419.68777079743,619.68777079743,780.31222920257,0,4,0,0,vertical,horizontal,horizontal,horizontal
3a,7,100300,6,1,241,21,F,interleaved,variable,homogeneous,4,present,1.05526399612427,1,vertical,vertical,1,3,red,3,2,619.68777079743,419.68777079743,980.31222920257,419.68777079743,980.31222920257,780.31222920257,980.31222920257,419.68777079743,619.68777079743,419.68777079743,619.68777079743,780.31222920257,0,0,4,0,vertical,horizontal,vertical,horizontal
3a,7,100300,6,2,242,21,F,interleaved,variable,homogeneous,4,present,0.795356035232544,1,horizontal,horizontal,1,2,green,1,2,980.31222920257,780.31222920257,980.31222920257,419.68777079743,980.31222920257,780.31222920257,980.31222920257,419.68777079743,619.68777079743,419.68777079743,619.68777079743,780.31222920257,4,0,0,0,horizontal,vertical,vertical,horizontal
3a,7,100300,6,3,243,21,F,interleaved,variable,homogeneous,4,present,0.671850919723511,1,horizontal,horizontal,1,3,red,2,4,980.31222920257,419.68777079743,619.68777079743,780.31222920257,980.31222920257,780.31222920257,980.31222920257,419.68777079743,619.68777079743,419.68777079743,619.68777079743,780.31222920257,0,4,0,0,vertical,horizontal,vertical,horizontal
3a,7,100300,6,4,244,21,F,interleaved,variable,homogeneous,4,absent,0.732032060623169,1,vertical,vertical,1,5,green,4,NaN,619.68777079743,780.31222920257,NaN,NaN,980.31222920257,780.31222920257,980.31222920257,419.68777079743,619.68777079743,419.68777079743,619.68777079743,780.31222920257,0,0,0,4,horizontal,horizontal,horizontal,vertical
3a,7,100300,6,5,245,21,F,interleaved,variable,homogeneous,4,present,0.680304050445557,1,vertical,vertical,1,5,red,2,1,980.31222920257,419.68777079743,980.31222920257,780.31222920257,980.31222920257,780.31222920257,980.31222920257,419.68777079743,619.68777079743,419.68777079743,619.68777079743,780.31222920257,0,4,0,0,vertical,vertical,horizontal,horizontal
3a,7,100300,6,6,246,21,F,interleaved,variable,homogeneous,4,present,0.52500319480896,1,vertical,vertical,1,5,red,4,1,619.68777079743,780.31222920257,980.31222920257,780.31222920257,980.31222920257,780.31222920257,980.31222920257,419.68777079743,619.68777079743,419.68777079743,619.68777079743,780.31222920257,0,0,0,4,horizontal,vertical,horizontal,vertical
3a,7,100300,6,7,247,21,F,interleaved,variable,homogeneous,4,present,0.593271970748901,1,vertical,vertical,1,5,red,3,4,619.68777079743,419.68777079743,619.68777079743,780.31222920257,980.31222920257,780.31222920257,980.31222920257,419.68777079743,619.68777079743,419.68777079743,619.68777079743,780.31222920257,0,0,4,0,horizontal,horizontal,vertical,vertical
3a,7,100300,6,8,248,21,F,interleaved,variable,homogeneous,4,absent,0.509620904922485,1,vertical,vertical,1,2,green,3,NaN,619.68777079743,419.68777079743,NaN,NaN,980.31222920257,780.31222920257,980.31222920257,419.68777079743,619.68777079743,419.68777079743,619.68777079743,780.31222920257,0,0,4,0,horizontal,vertical,vertical,vertical
3a,7,100300,6,9,249,21,F,interleaved,variable,homogeneous,4,absent,0.545845985412598,1,vertical,vertical,1,3,red,3,NaN,619.68777079743,419.68777079743,NaN,NaN,980.31222920257,780.31222920257,980.31222920257,419.68777079743,619.68777079743,419.68777079743,619.68777079743,780.31222920257,0,0,4,0,vertical,vertical,vertical,horizontal
3a,7,100300,6,10,250,21,F,interleaved,variable,homogeneous,4,present,0.854183912277222,1,vertical,vertical,1,3,red,2,1,980.31222920257,419.68777079743,980.31222920257,780.31222920257,980.31222920257,780.31222920257,980.31222920257,419.68777079743,619.68777079743,419.68777079743,619.68777079743,780.31222920257,0,4,0,0,horizontal,vertical,vertical,vertical
3a,7,100300,6,11,251,21,F,interleaved,variable,homogeneous,4,present,0.578563928604126,1,vertical,vertical,1,8,green,4,3,619.68777079743,780.31222920257,619.68777079743,419.68777079743,980.31222920257,780.31222920257,980.31222920257,419.68777079743,619.68777079743,419.68777079743,619.68777079743,780.31222920257,0,0,0,4,horizontal,horizontal,vertical,vertical
3a,7,100300,6,12,252,21,F,interleaved,variable,homogeneous,4,present,0.750972032546997,1,horizontal,horizontal,1,3,green,3,4,619.68777079743,419.68777079743,619.68777079743,780.31222920257,980.31222920257,780.31222920257,980.31222920257,419.68777079743,619.68777079743,419.68777079743,619.68777079743,780.31222920257,0,0,4,0,horizontal,horizontal,horizontal,horizontal
3a,7,100300,6,13,253,21,F,interleaved,variable,homogeneous,4,present,0.763217926025391,1,horizontal,horizontal,1,8,green,2,4,980.31222920257,419.68777079743,619.68777079743,780.31222920257,980.31222920257,780.31222920257,980.31222920257,419.68777079743,619.68777079743,419.68777079743,619.68777079743,780.31222920257,0,4,0,0,vertical,horizontal,vertical,vertical
3a,7,100300,6,14,254,21,F,interleaved,variable,homogeneous,4,present,0.615728855133057,1,vertical,vertical,1,8,green,1,3,980.31222920257,780.31222920257,619.68777079743,419.68777079743,980.31222920257,780.31222920257,980.31222920257,419.68777079743,619.68777079743,419.68777079743,619.68777079743,780.31222920257,4,0,0,0,vertical,vertical,vertical,vertical
3a,7,100300,6,15,255,21,F,interleaved,variable,homogeneous,4,absent,0.740144014358521,1,horizontal,horizontal,1,2,green,3,NaN,619.68777079743,419.68777079743,NaN,NaN,980.31222920257,780.31222920257,980.31222920257,419.68777079743,619.68777079743,419.68777079743,619.68777079743,780.31222920257,0,0,4,0,vertical,vertical,horizontal,horizontal
3a,7,100300,6,16,256,21,F,interleaved,variable,homogeneous,4,absent,0.736334085464478,1,horizontal,horizontal,1,8,red,4,NaN,619.68777079743,780.31222920257,NaN,NaN,980.31222920257,780.31222920257,980.31222920257,419.68777079743,619.68777079743,419.68777079743,619.68777079743,780.31222920257,0,0,0,4,vertical,horizontal,horizontal,horizontal
3a,7,100300,6,17,257,21,F,interleaved,variable,homogeneous,4,present,0.572874069213867,0,horizontal,vertical,1,2,red,2,1,980.31222920257,419.68777079743,980.31222920257,780.31222920257,980.31222920257,780.31222920257,980.31222920257,419.68777079743,619.68777079743,419.68777079743,619.68777079743,780.31222920257,0,4,0,0,horizontal,horizontal,vertical,vertical
3a,7,100300,6,18,258,21,F,interleaved,variable,homogeneous,4,present,0.553218126296997,1,vertical,vertical,1,2,red,2,1,980.31222920257,419.68777079743,980.31222920257,780.31222920257,980.31222920257,780.31222920257,980.31222920257,419.68777079743,619.68777079743,419.68777079743,619.68777079743,780.31222920257,0,4,0,0,horizontal,vertical,horizontal,vertical
3a,7,100300,6,19,259,21,F,interleaved,variable,homogeneous,4,absent,0.597433090209961,1,horizontal,horizontal,1,3,red,2,NaN,980.31222920257,419.68777079743,NaN,NaN,980.31222920257,780.31222920257,980.31222920257,419.68777079743,619.68777079743,419.68777079743,619.68777079743,780.31222920257,0,4,0,0,horizontal,horizontal,horizontal,vertical
3a,7,100300,6,20,260,21,F,interleaved,variable,homogeneous,4,present,0.70577597618103,0,vertical,horizontal,1,2,green,4,2,619.68777079743,780.31222920257,980.31222920257,419.68777079743,980.31222920257,780.31222920257,980.31222920257,419.68777079743,619.68777079743,419.68777079743,619.68777079743,780.31222920257,0,0,0,4,horizontal,vertical,horizontal,vertical
3a,7,100300,6,21,261,21,F,interleaved,variable,homogeneous,4,absent,0.670141935348511,1,vertical,vertical,1,3,red,4,NaN,619.68777079743,780.31222920257,NaN,NaN,980.31222920257,780.31222920257,980.31222920257,419.68777079743,619.68777079743,419.68777079743,619.68777079743,780.31222920257,0,0,0,4,vertical,horizontal,horizontal,vertical
3a,7,100300,6,22,262,21,F,interleaved,variable,homogeneous,4,present,0.586410999298096,1,horizontal,horizontal,1,5,green,2,3,980.31222920257,419.68777079743,619.68777079743,419.68777079743,980.31222920257,780.31222920257,980.31222920257,419.68777079743,619.68777079743,419.68777079743,619.68777079743,780.31222920257,0,4,0,0,horizontal,horizontal,vertical,vertical
3a,7,100300,6,23,263,21,F,interleaved,variable,homogeneous,4,present,0.758717060089111,1,horizontal,horizontal,1,2,green,3,2,619.68777079743,419.68777079743,980.31222920257,419.68777079743,980.31222920257,780.31222920257,980.31222920257,419.68777079743,619.68777079743,419.68777079743,619.68777079743,780.31222920257,0,0,4,0,horizontal,horizontal,horizontal,horizontal
3a,7,100300,6,24,264,21,F,interleaved,variable,homogeneous,4,present,1.33112597465515,1,horizontal,horizontal,1,2,green,1,4,980.31222920257,780.31222920257,619.68777079743,780.31222920257,980.31222920257,780.31222920257,980.31222920257,419.68777079743,619.68777079743,419.68777079743,619.68777079743,780.31222920257,4,0,0,0,horizontal,horizontal,vertical,vertical
3a,7,100300,6,25,265,21,F,interleaved,variable,homogeneous,4,present,0.663449048995972,1,horizontal,horizontal,1,3,green,4,1,619.68777079743,780.31222920257,980.31222920257,780.31222920257,980.31222920257,780.31222920257,980.31222920257,419.68777079743,619.68777079743,419.68777079743,619.68777079743,780.31222920257,0,0,0,4,vertical,vertical,vertical,horizontal
3a,7,100300,6,26,266,21,F,interleaved,variable,homogeneous,4,present,0.587830066680908,1,horizontal,horizontal,1,5,green,1,2,980.31222920257,780.31222920257,980.31222920257,419.68777079743,980.31222920257,780.31222920257,980.31222920257,419.68777079743,619.68777079743,419.68777079743,619.68777079743,780.31222920257,4,0,0,0,horizontal,horizontal,horizontal,horizontal
3a,7,100300,6,27,267,21,F,interleaved,variable,homogeneous,4,absent,0.648476839065552,1,horizontal,horizontal,1,2,red,3,NaN,619.68777079743,419.68777079743,NaN,NaN,980.31222920257,780.31222920257,980.31222920257,419.68777079743,619.68777079743,419.68777079743,619.68777079743,780.31222920257,0,0,4,0,vertical,vertical,horizontal,vertical
3a,7,100300,6,28,268,21,F,interleaved,variable,homogeneous,4,present,0.628360033035278,1,horizontal,horizontal,1,8,green,4,3,619.68777079743,780.31222920257,619.68777079743,419.68777079743,980.31222920257,780.31222920257,980.31222920257,419.68777079743,619.68777079743,419.68777079743,619.68777079743,780.31222920257,0,0,0,4,horizontal,vertical,horizontal,horizontal
3a,7,100300,6,29,269,21,F,interleaved,variable,homogeneous,4,absent,0.704639911651611,1,vertical,vertical,1,5,red,4,NaN,619.68777079743,780.31222920257,NaN,NaN,980.31222920257,780.31222920257,980.31222920257,419.68777079743,619.68777079743,419.68777079743,619.68777079743,780.31222920257,0,0,0,4,vertical,horizontal,horizontal,vertical
3a,7,100300,6,30,270,21,F,interleaved,variable,homogeneous,4,absent,0.853246927261353,1,vertical,vertical,1,2,green,2,NaN,980.31222920257,419.68777079743,NaN,NaN,980.31222920257,780.31222920257,980.31222920257,419.68777079743,619.68777079743,419.68777079743,619.68777079743,780.31222920257,0,4,0,0,horizontal,vertical,horizontal,horizontal
3a,7,100300,6,31,271,21,F,interleaved,variable,homogeneous,4,absent,0.61766505241394,1,horizontal,horizontal,1,3,red,4,NaN,619.68777079743,780.31222920257,NaN,NaN,980.31222920257,780.31222920257,980.31222920257,419.68777079743,619.68777079743,419.68777079743,619.68777079743,780.31222920257,0,0,0,4,vertical,vertical,horizontal,horizontal
3a,7,100300,6,32,272,21,F,interleaved,variable,homogeneous,4,absent,0.773808002471924,1,horizontal,horizontal,1,5,green,1,NaN,980.31222920257,780.31222920257,NaN,NaN,980.31222920257,780.31222920257,980.31222920257,419.68777079743,619.68777079743,419.68777079743,619.68777079743,780.31222920257,4,0,0,0,horizontal,horizontal,horizontal,vertical
3a,7,100300,6,33,273,21,F,interleaved,variable,homogeneous,4,present,0.529975891113281,1,horizontal,horizontal,1,3,green,4,3,619.68777079743,780.31222920257,619.68777079743,419.68777079743,980.31222920257,780.31222920257,980.31222920257,419.68777079743,619.68777079743,419.68777079743,619.68777079743,780.31222920257,0,0,0,4,vertical,horizontal,horizontal,horizontal
3a,7,100300,6,34,274,21,F,interleaved,variable,homogeneous,4,present,0.566548824310303,1,horizontal,horizontal,1,2,green,4,1,619.68777079743,780.31222920257,980.31222920257,780.31222920257,980.31222920257,780.31222920257,980.31222920257,419.68777079743,619.68777079743,419.68777079743,619.68777079743,780.31222920257,0,0,0,4,vertical,horizontal,vertical,horizontal
3a,7,100300,6,35,275,21,F,interleaved,variable,homogeneous,4,present,0.619058132171631,1,vertical,vertical,1,2,green,3,1,619.68777079743,419.68777079743,980.31222920257,780.31222920257,980.31222920257,780.31222920257,980.31222920257,419.68777079743,619.68777079743,419.68777079743,619.68777079743,780.31222920257,0,0,4,0,vertical,vertical,vertical,vertical
3a,7,100300,6,36,276,21,F,interleaved,variable,homogeneous,4,present,0.871088981628418,1,horizontal,horizontal,1,2,green,2,3,980.31222920257,419.68777079743,619.68777079743,419.68777079743,980.31222920257,780.31222920257,980.31222920257,419.68777079743,619.68777079743,419.68777079743,619.68777079743,780.31222920257,0,4,0,0,horizontal,horizontal,horizontal,horizontal
3a,7,100300,6,37,277,21,F,interleaved,variable,homogeneous,4,absent,0.771198987960815,1,horizontal,horizontal,1,5,green,3,NaN,619.68777079743,419.68777079743,NaN,NaN,980.31222920257,780.31222920257,980.31222920257,419.68777079743,619.68777079743,419.68777079743,619.68777079743,780.31222920257,0,0,4,0,horizontal,horizontal,horizontal,vertical
3a,7,100300,6,38,278,21,F,interleaved,variable,homogeneous,4,present,0.999997854232788,1,vertical,vertical,1,3,red,4,2,619.68777079743,780.31222920257,980.31222920257,419.68777079743,980.31222920257,780.31222920257,980.31222920257,419.68777079743,619.68777079743,419.68777079743,619.68777079743,780.31222920257,0,0,0,4,horizontal,vertical,horizontal,vertical
3a,7,100300,6,39,279,21,F,interleaved,variable,homogeneous,4,present,0.588184833526611,1,vertical,vertical,1,5,red,2,4,980.31222920257,419.68777079743,619.68777079743,780.31222920257,980.31222920257,780.31222920257,980.31222920257,419.68777079743,619.68777079743,419.68777079743,619.68777079743,780.31222920257,0,4,0,0,vertical,vertical,vertical,vertical
3a,7,100300,6,40,280,21,F,interleaved,variable,homogeneous,4,present,0.576524972915649,1,vertical,vertical,1,2,red,4,1,619.68777079743,780.31222920257,980.31222920257,780.31222920257,980.31222920257,780.31222920257,980.31222920257,419.68777079743,619.68777079743,419.68777079743,619.68777079743,780.31222920257,0,0,0,4,horizontal,horizontal,vertical,vertical
3a,7,100300,6,41,281,21,F,interleaved,variable,homogeneous,4,present,0.709007024765015,1,horizontal,horizontal,1,5,green,3,2,619.68777079743,419.68777079743,980.31222920257,419.68777079743,980.31222920257,780.31222920257,980.31222920257,419.68777079743,619.68777079743,419.68777079743,619.68777079743,780.31222920257,0,0,4,0,horizontal,vertical,horizontal,horizontal
