"Subject" "TrialNr" "Arrow" "ArrowTask.CRESP" "ArrowTask.RESP" "ArrowTask.ACC" "ArrowTask.RT" "Target" "Distractor" "Task" "TypeOfRelation" "Relatedness" "Word" "WordColor" "Picture" "PictureColor" "VoiceTask.RT" "WordError" "SpeechError" "IncorrectTrigger" "AnyError"
10 1 "left" 1 1 1 1585 "beker" "waaier" "pic" "phonological" "unrelated" "waaier" "red" "beker_green.bmp" "green" 1979.3 0 0 0 0
10 2 "right" 2 2 1 1835 "lepel" "lelie" "word" "phonological" "related" "lepel" "green" "lelie_red.bmp" "red" 1128.3 1 0 0 1
10 3 "right" 2 2 1 1222 "zwemvlies" "banaan" "pic" "semantic" "unrelated" "banaan" "red" "zwemvlies_green.bmp" "green" 1578.3 0 0 0 0
10 4 "left" 1 1 1 957 "kabel" "lelie" "word" "phonological" "unrelated" "kabel" "green" "lelie_red.bmp" "red" 1274.3 0 0 0 0
10 5 "right" 2 1 0 546 "wapen" "waaier" "pic" "phonological" "related" "waaier" "red" "wapen_green.bmp" "green" 1393.3 0 0 0 0
10 6 "left" 1 1 1 1248 "trompet" "cello" "word" "semantic" "related" "trompet" "green" "cello_red.bmp" "red" 2319.3 0 0 0 0
10 7 "left" 1 1 1 969 "koning" "rugby" "word" "phonological" "unrelated" "koning" "green" "rugby_red.bmp" "red" 1246.3 0 0 0 0
10 8 "right" 2 2 1 1129 "lelie" "kabel" "word" "phonological" "unrelated" "lelie" "green" "kabel_red.bmp" "red" 1379.3 0 0 0 0
10 9 "left" 1 1 1 709 "beitel" "bureau" "pic" "semantic" "unrelated" "bureau" "red" "beitel_green.bmp" "green" 1390.3 0 0 0 0
10 10 "right" 2 2 1 702 "sandaal" "appel" "pic" "semantic" "unrelated" "appel" "red" "sandaal_green.bmp" "green" 1029.3 0 0 0 0
10 11 "right" 2 2 1 677 "koning" "rugby" "pic" "phonological" "unrelated" "rugby" "red" "koning_green.bmp" "green" 1051.3 0 0 0 0
10 12 "left" 1 1 1 669 "kogel" "rugzak" "pic" "phonological" "unrelated" "rugzak" "red" "kogel_green.bmp" "green" 1803.3 0 0 0 0
10 13 "left" 1 1 1 313 "totem" "toren" "word" "phonological" "related" "totem" "green" "toren_red.bmp" "red" 1366.3 0 0 0 0
10 14 "left" 1 1 1 534 "tafel" "zebra" "pic" "phonological" "unrelated" "zebra" "red" "tafel_green.bmp" "green" 1492.3 0 0 0 0
10 15 "right" 2 2 1 533 "sandaal" "appel" "word" "semantic" "unrelated" "sandaal" "green" "appel_red.bmp" "red" 1325.3 0 0 0 0
10 16 "right" 2 2 1 549 "rugby" "koning" "word" "phonological" "unrelated" "rugby" "green" "koning_red.bmp" "red" 930.3 0 0 0 0
10 17 "right" 2 2 1 454 "cello" "trompet" "word" "semantic" "related" "cello" "green" "trompet_red.bmp" "red" 974.3 0 0 0 0
10 18 "right" 2 2 1 663 "beker" "bezem" "pic" "phonological" "related" "bezem" "red" "beker_green.bmp" "green" 1008.3 0 0 0 0
10 19 "left" 1 1 1 521 "zebra" "tafel" "word" "phonological" "unrelated" "zebra" "green" "tafel_red.bmp" "red" 1025.3 0 0 0 0
10 20 "left" 1 1 1 339 "toren" "totem" "word" "phonological" "related" "toren" "green" "totem_red.bmp" "red" 1168.3 0 0 0 0
10 21 "right" 2 2 1 575 "taco" "tafel" "word" "phonological" "related" "taco" "green" "tafel_red.bmp" "red" 751.3 0 0 0 0
10 22 "left" 1 1 1 621 "bezem" "wapen" "pic" "phonological" "unrelated" "wapen" "red" "bezem_green.bmp" "green" 923.3 0 0 0 0
10 23 "left" 1 1 1 363 "auto" "vliegtuig" "word" "semantic" "related" "auto" "green" "vliegtuig_red.bmp" "red" 812.3 0 0 0 0
10 24 "left" 1 1 1 406 "molen" "pistool" "pic" "semantic" "unrelated" "pistool" "red" "molen_green.bmp" "green" 999.3 0 0 0 0
10 25 "left" 1 1 1 328 "toren" "circus" "pic" "phonological" "unrelated" "circus" "red" "toren_green.bmp" "green" 1684.3 0 0 0 0
10 26 "left" 1 1 1 302 "kanon" "pistool" "pic" "semantic" "related" "pistool" "red" "kanon_green.bmp" "green" 1198.3 0 0 0 0
10 27 "left" 1 1 1 365 "waaier" "wapen" "pic" "phonological" "related" "wapen" "red" "waaier_green.bmp" "green" 1010.3 0 0 0 0
10 28 "right" 2 2 1 528 "taco" "tafel" "pic" "phonological" "related" "tafel" "red" "taco_green.bmp" "green" 909.3 0 0 0 0
10 29 "left" 1 1 1 486 "kogel" "koning" "pic" "phonological" "related" "koning" "red" "kogel_green.bmp" "green" 1583.3 0 0 0 0
10 30 "left" 1 1 1 318 "cello" "potlood" "pic" "semantic" "unrelated" "potlood" "red" "cello_green.bmp" "green" 1051.3 0 0 0 0
10 31 "left" 1 1 1 265 "konijn" "auto" "word" "semantic" "unrelated" "konijn" "green" "auto_red.bmp" "red" 883.3 0 0 0 0
10 32 "right" 2 1 0 302 "tafel" "taco" "word" "phonological" "related" "tafel" "green" "taco_red.bmp" "red" 943.3 0 0 0 0
10 33 "left" 1 1 1 282 "wapen" "bezem" "pic" "phonological" "unrelated" "bezem" "red" "wapen_green.bmp" "green" 1715.3 0 0 0 0
10 34 "right" 2 2 1 197 "fabriek" "molen" "pic" "semantic" "related" "molen" "red" "fabriek_green.bmp" "green" 1186.3 0 0 0 0
10 35 "right" 2 2 1 453 "cirkel" "totem" "word" "phonological" "unrelated" "cirkel" "green" "totem_red.bmp" "red" 1749.3 0 0 0 0
10 36 "left" 1 1 1 319 "taco" "zegel" "word" "phonological" "unrelated" "taco" "green" "zegel_red.bmp" "red" 900.3 0 0 0 0
10 37 "right" 2 2 1 219 "trompet" "cello" "pic" "semantic" "related" "cello" "red" "trompet_green.bmp" "green" 3160.3 0 0 0 0
10 38 "right" 2 2 1 338 "zegel" "taco" "word" "phonological" "unrelated" "zegel" "green" "taco_red.bmp" "red" 1057.3 0 0 0 0
10 39 "right" 2 2 1 194 "appel" "sandaal" "word" "semantic" "unrelated" "appel" "green" "sandaal_red.bmp" "red" 1788.3 0 0 0 0
10 40 "left" 1 1 1 373 "cirkel" "totem" "pic" "phonological" "unrelated" "totem" "red" "cirkel_green.bmp" "green" 1334.3 0 0 0 0
10 41 "right" 2 2 1 350 "circus" "toren" "word" "phonological" "unrelated" "circus" "green" "toren_red.bmp" "red" 2043.3 0 0 0 0
10 42 "right" 2 2 1 390 "konijn" "schildpad" "word" "semantic" "related" "konijn" "green" "schildpad_red.bmp" "red" 806.3 0 0 0 0
10 43 "right" 2 2 1 171 "fabriek" "kanon" "pic" "semantic" "unrelated" "kanon" "red" "fabriek_green.bmp" "green" 1223.3 0 0 0 0
10 44 "right" 2 2 1 276 "zetel" "hamer" "pic" "semantic" "unrelated" "hamer" "red" "zetel_green.bmp" "green" 1240.3 0 0 0 0
10 45 "left" 1 1 1 273 "schildpad" "vliegtuig" "word" "semantic" "unrelated" "schildpad" "green" "vliegtuig_red.bmp" "red" 900.3 0 0 0 0
10 46 "left" 1 1 1 739 "potlood" "cello" "pic" "semantic" "unrelated" "cello" "red" "potlood_green.bmp" "green" 2096.3 0 0 0 0
10 47 "left" 1 1 1 249 "kano" "kabel" "word" "phonological" "related" "kano" "green" "kabel_red.bmp" "red" 1056.3 0 0 0 0
10 48 "right" 2 2 1 420 "vulpen" "trompet" "pic" "semantic" "unrelated" "trompet" "red" "vulpen_green.bmp" "green" 1446.3 0 0 0 0
10 49 "right" 2 2 1 412 "appel" "sandaal" "pic" "semantic" "unrelated" "sandaal" "red" "appel_green.bmp" "green" 2138.3 0 0 0 0
10 50 "right" 2 2 1 220 "pistool" "kanon" "pic" "semantic" "related" "kanon" "red" "pistool_green.bmp" "green" 1322.3 0 0 0 0
10 51 "left" 1 1 1 343 "zwemvlies" "sandaal" "pic" "semantic" "related" "sandaal" "red" "zwemvlies_green.bmp" "green" 1341.3 0 0 0 0
10 52 "left" 1 1 1 167 "waaier" "beker" "pic" "phonological" "unrelated" "beker" "red" "waaier_green.bmp" "green" 983.3 0 0 0 0
10 53 "left" 1 1 1 254 "tafel" "taco" "pic" "phonological" "related" "taco" "red" "tafel_green.bmp" "green" 1179.3 0 0 0 0
10 54 "right" 2 2 1 202 "zegel" "zebra" "word" "phonological" "related" "zegel" "green" "zebra_red.bmp" "red" 1044.3 0 0 0 0
10 55 "left" 1 1 1 373 "konijn" "schildpad" "pic" "semantic" "related" "schildpad" "red" "konijn_green.bmp" "green" 1140.3 0 0 0 0
10 56 "left" 1 1 1 183 "banaan" "appel" "word" "semantic" "related" "banaan" "green" "appel_red.bmp" "red" 766.3 0 0 0 0
10 57 "right" 2 2 1 170 "cirkel" "circus" "pic" "phonological" "related" "circus" "red" "cirkel_green.bmp" "green" 1037.3 0 0 0 0
10 58 "right" 2 2 1 304 "wapen" "bezem" "word" "phonological" "unrelated" "wapen" "green" "bezem_red.bmp" "red" 980.3 0 0 0 0
10 59 "left" 1 1 1 294 "sandaal" "zwemvlies" "word" "semantic" "related" "sandaal" "green" "zwemvlies_red.bmp" "red" 940.3 0 0 0 0
10 60 "right" 2 2 1 220 "hamer" "beitel" "pic" "semantic" "related" "beitel" "red" "hamer_green.bmp" "green" 1149.3 0 0 0 0
10 61 "right" 2 2 1 150 "pistool" "molen" "pic" "semantic" "unrelated" "molen" "red" "pistool_green.bmp" "green" 2603.3 0 0 0 0
10 62 "right" 2 2 1 260 "zetel" "bureau" "pic" "semantic" "related" "bureau" "red" "zetel_green.bmp" "green" 1082.3 0 0 0 0
10 63 "right" 2 2 1 301 "zegel" "zebra" "pic" "phonological" "related" "zebra" "red" "zegel_green.bmp" "green" 1667.3 0 0 0 0
10 64 "right" 2 2 1 480 "pistool" "kanon" "word" "semantic" "related" "pistool" "green" "kanon_red.bmp" "red" 1465.3 0 0 0 0
10 65 "right" 2 2 1 178 "lelie" "lepel" "word" "phonological" "related" "lelie" "green" "lepel_red.bmp" "red" 722.3 0 0 0 0
10 66 "right" 2 2 1 398 "rugzak" "rugby" "pic" "phonological" "related" "rugby" "red" "rugzak_green.bmp" "green" 1475.3 0 0 0 0
10 67 "left" 1 2 0 226 "cello" "trompet" "pic" "semantic" "related" "trompet" "red" "cello_green.bmp" "green" 1242.3 0 0 0 0
10 68 "left" 1 2 0 1584 "taco" "zegel" "pic" "phonological" "unrelated" "zegel" "red" "taco_green.bmp" "green" 919.3 0 0 0 0
10 69 "left" 1 1 1 554 "kano" "lepel" "word" "phonological" "unrelated" "kano" "green" "lepel_red.bmp" "red" 936.3 0 0 0 0
10 70 "right" 2 2 1 353 "zwemvlies" "banaan" "word" "semantic" "unrelated" "zwemvlies" "green" "banaan_red.bmp" "red" 997.3 0 0 0 0
10 71 "right" 2 2 1 521 "totem" "cirkel" "pic" "phonological" "unrelated" "cirkel" "red" "totem_green.bmp" "green" 2037.3 0 0 0 0
10 72 "right" 2 2 1 347 "potlood" "vulpen" "pic" "semantic" "related" "vulpen" "red" "potlood_green.bmp" "green" 1739.3 0 0 0 0
10 73 "left" 1 1 1 624 "beitel" "hamer" "word" "semantic" "related" "beitel" "green" "hamer_red.bmp" "red" 1452.3 0 0 0 0
10 74 "left" 1 1 1 916 "rugzak" "kogel" "word" "phonological" "unrelated" "rugzak" "green" "kogel_red.bmp" "red" 970.3 0 0 0 0
10 75 "left" 1 1 1 431 "zegel" "taco" "pic" "phonological" "unrelated" "taco" "red" "zegel_green.bmp" "green" 1610.3 0 0 0 0
10 76 "right" 2 2 1 469 "bezem" "beker" "pic" "phonological" "related" "beker" "red" "bezem_green.bmp" "green" 1208.3 0 0 0 0
10 77 "left" 1 1 1 330 "kabel" "kano" "pic" "phonological" "related" "kano" "red" "kabel_green.bmp" "green" 887.3 0 0 0 0
10 78 "left" 1 1 1 294 "beker" "bezem" "word" "phonological" "related" "beker" "green" "bezem_red.bmp" "red" 1124.3 0 0 0 0
10 79 "right" 2 2 1 495 "lepel" "kano" "word" "phonological" "unrelated" "lepel" "green" "kano_red.bmp" "red" 903.3 0 0 0 0
10 80 "left" 1 1 1 457 "waaier" "beker" "word" "phonological" "unrelated" "waaier" "green" "beker_red.bmp" "red" 866.3 0 0 0 0
10 81 "right" 2 2 1 215 "fabriek" "kanon" "word" "semantic" "unrelated" "fabriek" "green" "kanon_red.bmp" "red" 763.3 0 0 0 0
10 82 "right" 2 2 1 163 "waaier" "wapen" "word" "phonological" "related" "waaier" "green" "wapen_red.bmp" "red" 948.3 0 0 0 0
10 83 "right" 2 2 1 195 "zebra" "zegel" "word" "phonological" "related" "zebra" "green" "zegel_red.bmp" "red" 899.3 0 0 0 0
10 84 "right" 2 2 1 241 "trompet" "vulpen" "word" "semantic" "unrelated" "trompet" "green" "vulpen_red.bmp" "red" 831.3 0 0 0 0
10 85 "right" 2 2 1 130 "schildpad" "konijn" "word" "semantic" "related" "schildpad" "green" "konijn_red.bmp" "red" 980.3 0 0 0 0
10 86 "right" 2 2 1 365 "vliegtuig" "auto" "word" "semantic" "related" "vliegtuig" "green" "auto_red.bmp" "red" 790.3 0 0 0 0
10 87 "right" 2 2 1 278 "rugby" "rugzak" "pic" "phonological" "related" "rugzak" "red" "rugby_green.bmp" "green" 1096.3 0 0 0 0
10 88 "left" 1 1 1 400 "vliegtuig" "schildpad" "word" "semantic" "unrelated" "vliegtuig" "green" "schildpad_red.bmp" "red" 1110.3 0 0 0 0
10 89 "right" 2 2 1 198 "koning" "kogel" "pic" "phonological" "related" "kogel" "red" "koning_green.bmp" "green" 1080.3 0 0 0 0
10 90 "left" 1 1 1 470 "kano" "lepel" "pic" "phonological" "unrelated" "lepel" "red" "kano_green.bmp" "green" 1161.3 0 0 0 0
10 91 "right" 2 2 1 365 "kabel" "lelie" "pic" "phonological" "unrelated" "lelie" "red" "kabel_green.bmp" "green" 850.3 0 0 0 0
10 92 "left" 1 1 1 431 "bureau" "beitel" "word" "semantic" "unrelated" "bureau" "green" "beitel_red.bmp" "red" 854.3 0 0 0 0
10 93 "right" 2 2 1 307 "wapen" "waaier" "word" "phonological" "related" "wapen" "green" "waaier_red.bmp" "red" 1103.3 0 0 0 0
10 94 "left" 1 1 1 262 "auto" "konijn" "word" "semantic" "unrelated" "auto" "green" "konijn_red.bmp" "red" 860.3 0 0 0 0
10 95 "left" 1 1 1 282 "lepel" "kano" "pic" "phonological" "unrelated" "kano" "red" "lepel_green.bmp" "green" 1094.3 0 0 0 0
10 96 "left" 1 1 1 338 "kogel" "koning" "word" "phonological" "related" "kogel" "green" "koning_red.bmp" "red" 807.3 0 0 0 0
10 97 "left" 1 1 1 39 "schildpad" "konijn" "pic" "semantic" "related" "konijn" "red" "schildpad_green.bmp" "green" 1136.3 0 0 0 0
10 98 "left" 1 1 1 498 "kano" "kabel" "pic" "phonological" "related" "kabel" "red" "kano_green.bmp" "green" 1283.3 0 0 0 0
10 99 "right" 2 2 1 264 "zebra" "tafel" "pic" "phonological" "unrelated" "tafel" "red" "zebra_green.bmp" "green" 913.3 0 0 0 0
10 100 "right" 2 2 1 372 "zwemvlies" "sandaal" "word" "semantic" "related" "zwemvlies" "green" "sandaal_red.bmp" "red" 891.3 0 0 0 0
10 101 "right" 2 2 1 294 "hamer" "zetel" "word" "semantic" "unrelated" "hamer" "green" "zetel_red.bmp" "red" 717.3 0 0 0 0
10 102 "right" 2 2 1 279 "auto" "konijn" "pic" "semantic" "unrelated" "konijn" "red" "auto_green.bmp" "green" 942.3 0 0 0 0
10 103 "left" 1 1 1 209 "toren" "circus" "word" "phonological" "unrelated" "toren" "green" "circus_red.bmp" "red" 918.3 0 0 0 0
10 104 "left" 1 1 1 1039 "kogel" "rugzak" "word" "phonological" "unrelated" "kogel" "green" "rugzak_red.bmp" "red" 765.3 0 0 0 0
10 105 "left" 1 1 1 502 "fabriek" "molen" "word" "semantic" "related" "fabriek" "green" "molen_red.bmp" "red" 763.3 0 0 0 0
10 106 "right" 2 2 1 327 "konijn" "auto" "pic" "semantic" "unrelated" "auto" "red" "konijn_green.bmp" "green" 745.3 0 0 0 0
10 107 "left" 1 1 1 428 "rugzak" "rugby" "word" "phonological" "related" "rugzak" "green" "rugby_red.bmp" "red" 865.3 0 0 0 0
10 108 "right" 2 2 1 291 "beker" "waaier" "word" "phonological" "unrelated" "beker" "green" "waaier_red.bmp" "red" 751.3 0 0 0 0
10 109 "right" 2 2 1 224 "totem" "cirkel" "word" "phonological" "unrelated" "totem" "green" "cirkel_red.bmp" "red" 891.3 0 0 0 0
10 110 "right" 2 2 1 224 "bureau" "beitel" "pic" "semantic" "unrelated" "beitel" "red" "bureau_green.bmp" "green" 959.3 0 0 0 0
10 111 "left" 1 1 1 425 "kanon" "fabriek" "word" "semantic" "unrelated" "kanon" "green" "fabriek_red.bmp" "red" 928.3 0 0 0 0
10 112 "right" 2 2 1 216 "potlood" "vulpen" "word" "semantic" "related" "potlood" "green" "vulpen_red.bmp" "red" 724.3 0 0 0 0
10 113 "left" 1 1 1 237 "zetel" "bureau" "word" "semantic" "related" "zetel" "green" "bureau_red.bmp" "red" 894.3 0 0 0 0
10 114 "right" 2 2 1 363 "kanon" "pistool" "word" "semantic" "related" "kanon" "green" "pistool_red.bmp" "red" 743.3 0 0 0 0
10 115 "right" 2 2 1 202 "zebra" "zegel" "pic" "phonological" "related" "zegel" "red" "zebra_green.bmp" "green" 985.3 0 0 0 0
10 116 "left" 1 1 1 309 "molen" "fabriek" "pic" "semantic" "related" "fabriek" "red" "molen_green.bmp" "green" 806.3 0 0 0 0
10 117 "left" 1 1 1 319 "bezem" "wapen" "word" "phonological" "unrelated" "bezem" "green" "wapen_red.bmp" "red" 769.3 0 0 0 0
10 118 "right" 2 2 1 87 "beitel" "bureau" "word" "semantic" "unrelated" "beitel" "green" "bureau_red.bmp" "red" 754.3 0 0 0 0
10 119 "left" 1 1 1 200 "toren" "totem" "pic" "phonological" "related" "totem" "red" "toren_green.bmp" "green" 1038.3 0 0 0 0
10 120 "left" 1 1 1 443 "molen" "pistool" "word" "semantic" "unrelated" "molen" "green" "pistool_red.bmp" "red" 969.3 0 0 0 0
10 121 "left" 1 1 1 202 "vliegtuig" "schildpad" "pic" "semantic" "unrelated" "schildpad" "red" "vliegtuig_green.bmp" "green" 930.3 0 0 0 0
10 122 "right" 2 1 0 211 "cello" "potlood" "word" "semantic" "unrelated" "cello" "green" "potlood_red.bmp" "red" 857.3 0 0 0 0
10 123 "left" 1 1 1 1284 "rugzak" "kogel" "pic" "phonological" "unrelated" "kogel" "red" "rugzak_green.bmp" "green" 1009.3 0 1 0 1
10 124 "right" 2 2 1 285 "potlood" "cello" "word" "semantic" "unrelated" "potlood" "green" "cello_red.bmp" "red" 864.3 0 0 0 0
10 125 "right" 2 2 1 326 "banaan" "zwemvlies" "pic" "semantic" "unrelated" "zwemvlies" "red" "banaan_green.bmp" "green" 1009.3 0 0 0 0
10 126 "left" 1 1 1 308 "hamer" "zetel" "pic" "semantic" "unrelated" "zetel" "red" "hamer_green.bmp" "green" 1119.3 0 0 0 0
10 127 "right" 2 2 1 204 "vulpen" "trompet" "word" "semantic" "unrelated" "vulpen" "green" "trompet_red.bmp" "red" 688.3 0 0 0 0
10 128 "left" 1 1 1 128 "appel" "banaan" "word" "semantic" "related" "appel" "green" "banaan_red.bmp" "red" 812.3 0 0 0 0
10 129 "left" 1 1 1 192 "cirkel" "circus" "word" "phonological" "related" "cirkel" "green" "circus_red.bmp" "red" 848.3 0 0 0 0
10 130 "left" 1 1 1 405 "bureau" "zetel" "word" "semantic" "related" "bureau" "green" "zetel_red.bmp" "red" 733.3 0 0 0 0
10 131 "left" 1 1 1 382 "molen" "fabriek" "word" "semantic" "related" "molen" "green" "fabriek_red.bmp" "red" 1187.3 0 0 0 0
10 132 "left" 1 1 1 122 "trompet" "vulpen" "pic" "semantic" "unrelated" "vulpen" "red" "trompet_green.bmp" "green" 3480.3 0 0 0 0
10 133 "left" 1 1 1 159 "lelie" "kabel" "pic" "phonological" "unrelated" "kabel" "red" "lelie_green.bmp" "green" 960.3 0 0 0 0
10 134 "right" 2 2 1 270 "banaan" "zwemvlies" "word" "semantic" "unrelated" "banaan" "green" "zwemvlies_red.bmp" "red" 780.3 0 0 0 0
10 135 "right" 2 2 1 184 "rugby" "koning" "pic" "phonological" "unrelated" "koning" "red" "rugby_green.bmp" "green" 959.3 0 0 0 0
10 136 "right" 2 2 1 370 "vulpen" "potlood" "word" "semantic" "related" "vulpen" "green" "potlood_red.bmp" "red" 863.3 0 0 0 0
10 137 "right" 2 2 1 440 "sandaal" "zwemvlies" "pic" "semantic" "related" "zwemvlies" "red" "sandaal_green.bmp" "green" 979.3 0 0 0 0
10 138 "right" 2 1 0 266 "rugby" "rugzak" "word" "phonological" "related" "rugby" "green" "rugzak_red.bmp" "red" 639.3 0 0 0 0
10 139 "right" 2 2 1 242 "beitel" "hamer" "pic" "semantic" "related" "hamer" "red" "beitel_green.bmp" "green" 912.3 0 0 0 0
10 140 "left" 1 2 0 151 "lepel" "lelie" "pic" "phonological" "related" "lelie" "red" "lepel_green.bmp" "green" 1320.3 0 0 0 0
10 141 "right" 2 2 1 522 "zetel" "hamer" "word" "semantic" "unrelated" "zetel" "green" "hamer_red.bmp" "red" 1304.3 0 0 0 0
10 142 "right" 2 2 1 294 "appel" "banaan" "pic" "semantic" "related" "banaan" "red" "appel_green.bmp" "green" 1497.3 0 0 0 0
10 143 "right" 2 2 1 241 "bezem" "beker" "word" "phonological" "related" "bezem" "green" "beker_red.bmp" "red" 802.3 0 0 0 0
10 144 "right" 2 2 1 316 "kanon" "fabriek" "pic" "semantic" "unrelated" "fabriek" "red" "kanon_green.bmp" "green" 1068.3 0 0 0 0
10 145 "left" 1 1 1 504 "totem" "toren" "pic" "phonological" "related" "toren" "red" "totem_green.bmp" "green" 1097.3 0 0 0 0
10 146 "right" 2 2 1 356 "hamer" "beitel" "word" "semantic" "related" "hamer" "green" "beitel_red.bmp" "red" 1097.3 0 0 0 0
10 147 "left" 1 1 1 234 "schildpad" "vliegtuig" "pic" "semantic" "unrelated" "vliegtuig" "red" "schildpad_green.bmp" "green" 1164.3 0 0 0 0
10 148 "left" 1 1 1 195 "tafel" "zebra" "word" "phonological" "unrelated" "tafel" "green" "zebra_red.bmp" "red" 815.3 0 0 0 0
10 149 "left" 1 1 1 57 "pistool" "molen" "word" "semantic" "unrelated" "pistool" "green" "molen_red.bmp" "red" 932.3 0 0 0 0
10 150 "right" 2 2 1 241 "auto" "vliegtuig" "pic" "semantic" "related" "vliegtuig" "red" "auto_green.bmp" "green" 936.3 0 0 0 0
10 151 "right" 2 2 1 203 "lelie" "lepel" "pic" "phonological" "related" "lepel" "red" "lelie_green.bmp" "green" 1037.3 0 0 0 0
10 152 "left" 1 1 1 172 "vulpen" "potlood" "pic" "semantic" "related" "potlood" "red" "vulpen_green.bmp" "green" 1411.3 0 0 0 0
10 153 "right" 2 2 1 144 "circus" "toren" "pic" "phonological" "unrelated" "toren" "red" "circus_green.bmp" "green" 1019.3 0 0 0 0
10 154 "left" 1 1 1 214 "vliegtuig" "auto" "pic" "semantic" "related" "auto" "red" "vliegtuig_green.bmp" "green" 1060.3 0 0 0 0
10 155 "right" 2 2 1 350 "koning" "kogel" "word" "phonological" "related" "koning" "green" "kogel_red.bmp" "red" 928.3 0 0 0 0
10 156 "right" 2 2 1 317 "banaan" "appel" "pic" "semantic" "related" "appel" "red" "banaan_green.bmp" "green" 932.3 0 0 0 0
10 157 "right" 2 2 1 79 "circus" "cirkel" "word" "phonological" "related" "circus" "green" "cirkel_red.bmp" "red" 941.3 0 0 0 0
10 158 "right" 2 2 1 206 "kabel" "kano" "word" "phonological" "related" "kabel" "green" "kano_red.bmp" "red" 814.3 0 0 0 0
10 159 "right" 2 2 1 227 "bureau" "zetel" "pic" "semantic" "related" "zetel" "red" "bureau_green.bmp" "green" 1330.3 0 0 0 0
10 160 "right" 2 2 1 251 "circus" "cirkel" "pic" "phonological" "related" "cirkel" "red" "circus_green.bmp" "green" 1042.3 0 0 0 0
11 1 "left" 1 1 1 636 "kanon" "fabriek" "word" "semantic" "unrelated" "kanon" "green" "fabriek_red.bmp" "red" 930.3 0 0 0 0
11 2 "right" 2 2 1 570 "lelie" "kabel" "pic" "phonological" "unrelated" "kabel" "red" "lelie_green.bmp" "green" 1237.3 0 0 0 0
11 3 "right" 2 2 1 694 "kanon" "fabriek" "pic" "semantic" "unrelated" "fabriek" "red" "kanon_green.bmp" "green" 1272.3 0 0 0 0
11 4 "left" 1 1 1 892 "kano" "kabel" "pic" "phonological" "related" "kabel" "red" "kano_green.bmp" "green" 1119.3 0 0 0 0
11 5 "right" 2 2 1 990 "zetel" "hamer" "pic" "semantic" "unrelated" "hamer" "red" "zetel_green.bmp" "green" 1139.3 0 0 0 0
11 6 "right" 2 2 1 842 "totem" "toren" "pic" "phonological" "related" "toren" "red" "totem_green.bmp" "green" 1634.3 0 0 0 0
11 7 "left" 1 1 1 888 "konijn" "auto" "pic" "semantic" "unrelated" "auto" "red" "konijn_green.bmp" "green" 870.3 0 0 0 0
11 8 "left" 1 1 1 1111 "bezem" "wapen" "pic" "phonological" "unrelated" "wapen" "red" "bezem_green.bmp" "green" 1123.3 0 0 0 0
11 9 "left" 1 1 1 792 "auto" "vliegtuig" "word" "semantic" "related" "auto" "green" "vliegtuig_red.bmp" "red" 899.3 0 0 0 0
11 10 "left" 1 1 1 645 "kogel" "koning" "word" "phonological" "related" "kogel" "green" "koning_red.bmp" "red" 794.3 0 0 0 0
11 11 "right" 2 2 1 775 "zebra" "zegel" "word" "phonological" "related" "zebra" "green" "zegel_red.bmp" "red" 988.3 0 0 0 0
11 12 "right" 2 2 1 531 "banaan" "zwemvlies" "pic" "semantic" "unrelated" "zwemvlies" "red" "banaan_green.bmp" "green" 925.3 0 0 0 0
11 13 "right" 2 2 1 818 "rugby" "koning" "pic" "phonological" "unrelated" "koning" "red" "rugby_green.bmp" "green" 1112.3 0 0 0 0
11 14 "right" 2 2 1 629 "kano" "kabel" "word" "phonological" "related" "kano" "green" "kabel_red.bmp" "red" 774.3 0 0 0 0
11 15 "left" 1 1 1 604 "kanon" "pistool" "word" "semantic" "related" "kanon" "green" "pistool_red.bmp" "red" 964.3 0 0 0 0
11 16 "right" 2 2 1 476 "potlood" "vulpen" "word" "semantic" "related" "potlood" "green" "vulpen_red.bmp" "red" 925.3 0 0 0 0
11 17 "left" 1 1 1 690 "wapen" "waaier" "word" "phonological" "related" "wapen" "green" "waaier_red.bmp" "red" 821.3 0 0 0 0
11 18 "left" 1 1 1 547 "vulpen" "potlood" "pic" "semantic" "related" "potlood" "red" "vulpen_green.bmp" "green" 1557.3 0 0 0 0
11 19 "left" 1 1 1 858 "konijn" "auto" "word" "semantic" "unrelated" "konijn" "green" "auto_red.bmp" "red" 909.3 0 0 0 0
11 20 "left" 1 1 1 411 "banaan" "appel" "word" "semantic" "related" "banaan" "green" "appel_red.bmp" "red" 1033.3 0 0 0 0
11 21 "left" 1 1 1 542 "totem" "cirkel" "word" "phonological" "unrelated" "totem" "green" "cirkel_red.bmp" "red" 845.3 0 0 0 0
11 22 "right" 2 2 1 431 "bureau" "zetel" "word" "semantic" "related" "bureau" "green" "zetel_red.bmp" "red" 792.3 0 0 0 0
11 23 "right" 2 2 1 542 "zegel" "zebra" "word" "phonological" "related" "zegel" "green" "zebra_red.bmp" "red" 855.3 0 0 0 0
11 24 "right" 2 2 1 719 "koning" "kogel" "word" "phonological" "related" "koning" "green" "kogel_red.bmp" "red" 799.3 0 0 0 0
11 25 "right" 2 2 1 656 "totem" "toren" "word" "phonological" "related" "totem" "green" "toren_red.bmp" "red" 779.3 0 0 0 0
11 26 "right" 2 2 1 440 "schildpad" "vliegtuig" "word" "semantic" "unrelated" "schildpad" "green" "vliegtuig_red.bmp" "red" 925.3 0 0 0 0
11 27 "left" 1 1 1 751 "zwemvlies" "sandaal" "word" "semantic" "related" "zwemvlies" "green" "sandaal_red.bmp" "red" 770.3 0 0 0 0
11 28 "left" 1 1 1 640 "fabriek" "molen" "word" "semantic" "related" "fabriek" "green" "molen_red.bmp" "red" 680.3 0 0 0 0
11 29 "right" 2 2 1 573 "rugby" "rugzak" "word" "phonological" "related" "rugby" "green" "rugzak_red.bmp" "red" 783.3 0 0 0 0
11 30 "left" 1 1 1 622 "fabriek" "kanon" "word" "semantic" "unrelated" "fabriek" "green" "kanon_red.bmp" "red" 912.3 0 0 0 0
11 31 "right" 2 2 1 1296 "rugzak" "kogel" "pic" "phonological" "unrelated" "kogel" "red" "rugzak_green.bmp" "green" 1103.3 0 0 0 0
11 32 "left" 1 1 1 1560 "wapen" "bezem" "word" "phonological" "unrelated" "wapen" "green" "bezem_red.bmp" "red" 856.3 0 0 0 0
11 33 "right" 2 2 1 728 "circus" "toren" "word" "phonological" "unrelated" "circus" "green" "toren_red.bmp" "red" 936.3 0 0 0 0
11 34 "left" 1 1 1 921 "zwemvlies" "banaan" "word" "semantic" "unrelated" "zwemvlies" "green" "banaan_red.bmp" "red" 847.3 0 0 0 0
11 35 "left" 1 1 1 602 "vulpen" "trompet" "word" "semantic" "unrelated" "vulpen" "green" "trompet_red.bmp" "red" 910.3 0 0 0 0
11 36 "left" 1 1 1 1532 "bezem" "wapen" "word" "phonological" "unrelated" "bezem" "green" "wapen_red.bmp" "red" 810.3 0 0 0 0
11 37 "left" 1 1 1 679 "kanon" "pistool" "pic" "semantic" "related" "pistool" "red" "kanon_green.bmp" "green" 1258.3 0 0 0 0
11 38 "left" 1 1 1 860 "hamer" "zetel" "word" "semantic" "unrelated" "hamer" "green" "zetel_red.bmp" "red" 630.3 0 0 0 0
11 39 "left" 1 1 1 581 "molen" "fabriek" "word" "semantic" "related" "molen" "green" "fabriek_red.bmp" "red" 591.3 0 0 0 0
11 40 "right" 2 2 1 749 "schildpad" "konijn" "word" "semantic" "related" "schildpad" "green" "konijn_red.bmp" "red" 773.3 0 0 0 0
11 41 "left" 1 1 1 1065 "trompet" "cello" "pic" "semantic" "related" "cello" "red" "trompet_green.bmp" "green" 2059.3 0 0 0 0
11 42 "left" 1 1 1 1091 "circus" "cirkel" "word" "phonological" "related" "circus" "green" "cirkel_red.bmp" "red" 959.3 0 0 0 0
11 43 "left" 1 1 1 785 "koning" "rugby" "word" "phonological" "unrelated" "koning" "green" "rugby_red.bmp" "red" 619.3 0 0 0 0
11 44 "right" 2 2 1 1134 "bureau" "zetel" "pic" "semantic" "related" "zetel" "red" "bureau_green.bmp" "green" 992.3 0 0 0 0
11 45 "right" 2 2 1 934 "rugzak" "rugby" "word" "phonological" "related" "rugzak" "green" "rugby_red.bmp" "red" 633.3 0 0 0 0
11 46 "right" 2 2 1 761 "toren" "circus" "word" "phonological" "unrelated" "toren" "green" "circus_red.bmp" "red" 635.3 0 0 0 0
11 47 "left" 1 1 1 1085 "vliegtuig" "schildpad" "pic" "semantic" "unrelated" "schildpad" "red" "vliegtuig_green.bmp" "green" 1361.3 0 0 0 0
11 48 "right" 2 2 1 884 "koning" "kogel" "pic" "phonological" "related" "kogel" "red" "koning_green.bmp" "green" 783.3 0 0 0 0
11 49 "right" 2 2 1 806 "konijn" "schildpad" "word" "semantic" "related" "konijn" "green" "schildpad_red.bmp" "red" 858.3 0 0 0 0
11 50 "right" 2 2 1 825 "molen" "fabriek" "pic" "semantic" "related" "fabriek" "red" "molen_green.bmp" "green" 1304.3 0 0 0 0
11 51 "right" 2 2 1 748 "hamer" "beitel" "pic" "semantic" "related" "beitel" "red" "hamer_green.bmp" "green" 1305.3 0 0 0 0
11 52 "right" 2 2 1 913 "zwemvlies" "banaan" "pic" "semantic" "unrelated" "banaan" "red" "zwemvlies_green.bmp" "green" 1634.3 0 0 0 0
11 53 "left" 1 1 1 642 "tafel" "zebra" "pic" "phonological" "unrelated" "zebra" "red" "tafel_green.bmp" "green" 1347.3 0 0 0 0
11 54 "right" 2 2 1 450 "fabriek" "molen" "pic" "semantic" "related" "molen" "red" "fabriek_green.bmp" "green" 891.3 0 0 0 0
11 55 "left" 1 1 1 617 "lepel" "lelie" "pic" "phonological" "related" "lelie" "red" "lepel_green.bmp" "green" 883.3 0 0 0 0
11 56 "right" 2 2 1 337 "rugzak" "kogel" "word" "phonological" "unrelated" "rugzak" "green" "kogel_red.bmp" "red" 836.3 0 0 0 0
11 57 "right" 2 2 1 368 "lepel" "kano" "pic" "phonological" "unrelated" "kano" "red" "lepel_green.bmp" "green" 716.3 0 0 0 0
11 58 "right" 2 2 1 777 "beker" "waaier" "word" "phonological" "unrelated" "beker" "green" "waaier_red.bmp" "red" 770.3 0 0 0 0
11 59 "left" 1 1 1 262 "trompet" "vulpen" "word" "semantic" "unrelated" "trompet" "green" "vulpen_red.bmp" "red" 852.3 0 0 0 0
11 60 "right" 2 2 1 383 "sandaal" "zwemvlies" "word" "semantic" "related" "sandaal" "green" "zwemvlies_red.bmp" "red" 676.3 0 0 0 0
11 61 "right" 2 2 1 496 "beitel" "bureau" "pic" "semantic" "unrelated" "bureau" "red" "beitel_green.bmp" "green" 856.3 0 0 0 0
11 62 "right" 2 2 1 361 "koning" "rugby" "pic" "phonological" "unrelated" "rugby" "red" "koning_green.bmp" "green" 869.3 0 0 0 0
11 63 "left" 1 1 1 884 "wapen" "bezem" "pic" "phonological" "unrelated" "bezem" "red" "wapen_green.bmp" "green" 1912.3 0 0 0 0
11 64 "right" 2 2 1 903 "sandaal" "appel" "pic" "semantic" "unrelated" "appel" "red" "sandaal_green.bmp" "green" 883.3 0 0 0 0
11 65 "left" 1 1 1 649 "kogel" "koning" "pic" "phonological" "related" "koning" "red" "kogel_green.bmp" "green" 1324.3 0 0 0 0
11 66 "right" 2 2 1 694 "cirkel" "totem" "word" "phonological" "unrelated" "cirkel" "green" "totem_red.bmp" "red" 869.3 0 0 0 0
11 67 "left" 1 1 1 651 "banaan" "appel" "pic" "semantic" "related" "appel" "red" "banaan_green.bmp" "green" 974.3 0 0 0 0
11 68 "right" 2 2 1 864 "auto" "konijn" "word" "semantic" "unrelated" "auto" "green" "konijn_red.bmp" "red" 755.3 0 0 0 0
11 69 "right" 2 2 1 735 "zetel" "bureau" "word" "semantic" "related" "zetel" "green" "bureau_red.bmp" "red" 909.3 0 0 0 0
11 70 "right" 2 2 1 378 "potlood" "cello" "pic" "semantic" "unrelated" "cello" "red" "potlood_green.bmp" "green" 970.3 0 0 0 0
11 71 "left" 1 1 1 616 "tafel" "taco" "word" "phonological" "related" "tafel" "green" "taco_red.bmp" "red" 702.3 0 0 0 0
11 72 "left" 1 1 1 485 "kabel" "lelie" "pic" "phonological" "unrelated" "lelie" "red" "kabel_green.bmp" "green" 995.3 0 0 0 0
11 73 "left" 1 1 1 424 "taco" "zegel" "word" "phonological" "unrelated" "taco" "green" "zegel_red.bmp" "red" 708.3 0 0 0 0
11 74 "right" 2 2 1 607 "molen" "pistool" "word" "semantic" "unrelated" "molen" "green" "pistool_red.bmp" "red" 699.3 0 0 0 0
11 75 "right" 2 2 1 639 "taco" "zegel" "pic" "phonological" "unrelated" "zegel" "red" "taco_green.bmp" "green" 1015.3 0 0 0 0
11 76 "left" 1 1 1 923 "kogel" "rugzak" "pic" "phonological" "unrelated" "rugzak" "red" "kogel_green.bmp" "green" 875.3 0 0 0 0
11 77 "right" 2 2 1 430 "schildpad" "vliegtuig" "pic" "semantic" "unrelated" "vliegtuig" "red" "schildpad_green.bmp" "green" 2988.3 0 0 0 0
11 78 "left" 1 1 1 731 "taco" "tafel" "word" "phonological" "related" "taco" "green" "tafel_red.bmp" "red" 1218.3 0 0 0 0
11 79 "left" 1 1 1 822 "waaier" "beker" "word" "phonological" "unrelated" "waaier" "green" "beker_red.bmp" "red" 643.3 0 0 0 0
11 80 "left" 1 1 1 273 "appel" "sandaal" "pic" "semantic" "unrelated" "sandaal" "red" "appel_green.bmp" "green" 800.3 0 0 0 0
11 81 "left" 1 1 1 503 "lelie" "lepel" "pic" "phonological" "related" "lepel" "red" "lelie_green.bmp" "green" 930.3 0 0 0 0
11 82 "left" 1 1 1 202 "vliegtuig" "auto" "word" "semantic" "related" "vliegtuig" "green" "auto_red.bmp" "red" 1041.3 0 0 0 0
11 83 "left" 1 1 1 697 "tafel" "zebra" "word" "phonological" "unrelated" "tafel" "green" "zebra_red.bmp" "red" 842.3 0 0 0 0
11 84 "right" 2 2 1 702 "lelie" "kabel" "word" "phonological" "unrelated" "lelie" "green" "kabel_red.bmp" "red" 633.3 0 0 0 0
11 85 "right" 2 2 1 887 "bureau" "beitel" "word" "semantic" "unrelated" "bureau" "green" "beitel_red.bmp" "red" 685.3 0 0 0 0
11 86 "right" 2 2 1 400 "trompet" "vulpen" "pic" "semantic" "unrelated" "vulpen" "red" "trompet_green.bmp" "green" 1155.3 0 0 0 0
11 87 "right" 2 2 1 494 "waaier" "wapen" "word" "phonological" "related" "waaier" "green" "wapen_red.bmp" "red" 884.3 0 0 0 0
11 88 "left" 1 1 1 704 "cello" "trompet" "word" "semantic" "related" "cello" "green" "trompet_red.bmp" "red" 614.3 0 0 0 0
11 89 "left" 1 1 1 425 "auto" "konijn" "pic" "semantic" "unrelated" "konijn" "red" "auto_green.bmp" "green" 1201.3 0 0 0 0
11 90 "right" 2 2 1 372 "pistool" "kanon" "word" "semantic" "related" "pistool" "green" "kanon_red.bmp" "red" 890.3 0 0 0 0
11 91 "left" 1 1 1 704 "waaier" "beker" "pic" "phonological" "unrelated" "beker" "red" "waaier_green.bmp" "green" 1162.3 0 0 0 0
11 92 "right" 2 2 1 648 "zetel" "bureau" "pic" "semantic" "related" "bureau" "red" "zetel_green.bmp" "green" 1299.3 0 0 0 0
11 93 "left" 1 1 1 643 "cello" "potlood" "pic" "semantic" "unrelated" "potlood" "red" "cello_green.bmp" "green" 1031.3 0 0 0 0
11 94 "right" 2 2 1 568 "cirkel" "totem" "pic" "phonological" "unrelated" "totem" "red" "cirkel_green.bmp" "green" 844.3 0 0 0 0
11 95 "left" 1 1 1 305 "pistool" "kanon" "pic" "semantic" "related" "kanon" "red" "pistool_green.bmp" "green" 1663.3 0 0 0 0
11 96 "right" 2 2 1 387 "circus" "toren" "pic" "phonological" "unrelated" "toren" "red" "circus_green.bmp" "green" 878.3 0 0 0 0
11 97 "right" 2 2 1 390 "pistool" "molen" "pic" "semantic" "unrelated" "molen" "red" "pistool_green.bmp" "green" 1146.3 0 0 0 0
11 98 "left" 1 1 1 667 "vliegtuig" "schildpad" "word" "semantic" "unrelated" "vliegtuig" "green" "schildpad_red.bmp" "red" 599.3 0 0 0 0
11 99 "right" 2 2 1 341 "zebra" "zegel" "pic" "phonological" "related" "zegel" "red" "zebra_green.bmp" "green" 831.3 0 0 0 0
11 100 "right" 2 2 1 414 "fabriek" "kanon" "pic" "semantic" "unrelated" "kanon" "red" "fabriek_green.bmp" "green" 858.3 0 0 0 0
11 101 "left" 1 1 1 344 "toren" "circus" "pic" "phonological" "unrelated" "circus" "red" "toren_green.bmp" "green" 1003.3 0 0 0 0
11 102 "left" 1 1 1 470 "potlood" "cello" "word" "semantic" "unrelated" "potlood" "green" "cello_red.bmp" "red" 684.3 0 0 0 0
11 103 "right" 2 2 1 674 "hamer" "beitel" "word" "semantic" "related" "hamer" "green" "beitel_red.bmp" "red" 731.3 0 0 0 0
11 104 "left" 1 1 1 310 "vliegtuig" "auto" "pic" "semantic" "related" "auto" "red" "vliegtuig_green.bmp" "green" 1955.3 0 0 0 0
11 105 "left" 1 1 1 409 "tafel" "taco" "pic" "phonological" "related" "taco" "red" "tafel_green.bmp" "green" 1058.3 0 0 0 0
11 106 "left" 1 1 1 618 "bureau" "beitel" "pic" "semantic" "unrelated" "beitel" "red" "bureau_green.bmp" "green" 1225.3 0 0 0 0
11 107 "right" 2 2 1 623 "appel" "sandaal" "word" "semantic" "unrelated" "appel" "green" "sandaal_red.bmp" "red" 800.3 0 0 0 0
11 108 "right" 2 2 1 537 "circus" "cirkel" "pic" "phonological" "related" "cirkel" "red" "circus_green.bmp" "green" 826.3 0 0 0 0
11 109 "right" 2 2 1 465 "beker" "bezem" "pic" "phonological" "related" "bezem" "red" "beker_green.bmp" "green" 829.3 0 0 0 0
11 110 "left" 1 1 1 925 "vulpen" "potlood" "word" "semantic" "related" "vulpen" "green" "potlood_red.bmp" "red" 611.3 0 0 0 0
11 111 "left" 1 1 1 474 "banaan" "zwemvlies" "word" "semantic" "unrelated" "banaan" "green" "zwemvlies_red.bmp" "red" 646.3 0 0 0 0
11 112 "right" 2 2 1 292 "kabel" "kano" "word" "phonological" "related" "kabel" "green" "kano_red.bmp" "red" 574.3 0 0 0 0
11 113 "right" 2 2 1 355 "lepel" "lelie" "word" "phonological" "related" "lepel" "green" "lelie_red.bmp" "red" 646.3 0 0 0 0
11 114 "left" 1 1 1 256 "kogel" "rugzak" "word" "phonological" "unrelated" "kogel" "green" "rugzak_red.bmp" "red" 631.3 0 0 0 0
11 115 "left" 1 1 1 457 "toren" "totem" "pic" "phonological" "related" "totem" "red" "toren_green.bmp" "green" 858.3 0 0 0 0
11 116 "right" 2 2 1 641 "kabel" "kano" "pic" "phonological" "related" "kano" "red" "kabel_green.bmp" "green" 1015.3 0 0 0 0
11 117 "left" 1 1 1 632 "beitel" "hamer" "word" "semantic" "related" "beitel" "green" "hamer_red.bmp" "red" 773.3 0 0 0 0
11 118 "left" 1 1 1 113 "rugzak" "rugby" "pic" "phonological" "related" "rugby" "red" "rugzak_green.bmp" "green" 1098.3 0 0 0 0
11 119 "left" 1 1 1 453 "beker" "waaier" "pic" "phonological" "unrelated" "waaier" "red" "beker_green.bmp" "green" 915.3 0 0 0 0
11 120 "left" 1 1 1 420 "molen" "pistool" "pic" "semantic" "unrelated" "pistool" "red" "molen_green.bmp" "green" 1232.3 0 0 0 0
11 121 "right" 2 2 1 518 "kano" "lepel" "pic" "phonological" "unrelated" "lepel" "red" "kano_green.bmp" "green" 948.3 0 0 0 0
11 122 "right" 2 2 1 537 "zebra" "tafel" "word" "phonological" "unrelated" "zebra" "green" "tafel_red.bmp" "red" 842.3 0 0 0 0
11 123 "right" 2 2 1 568 "cirkel" "circus" "word" "phonological" "related" "cirkel" "green" "circus_red.bmp" "red" 963.3 0 0 0 0
11 124 "right" 2 2 1 377 "zegel" "taco" "word" "phonological" "unrelated" "zegel" "green" "taco_red.bmp" "red" 622.3 0 0 0 0
11 125 "left" 1 1 1 454 "sandaal" "appel" "word" "semantic" "unrelated" "sandaal" "green" "appel_red.bmp" "red" 718.3 0 0 0 0
11 126 "left" 1 1 1 350 "auto" "vliegtuig" "pic" "semantic" "related" "vliegtuig" "red" "auto_green.bmp" "green" 870.3 0 0 0 0
11 127 "right" 2 2 1 649 "rugby" "koning" "word" "phonological" "unrelated" "rugby" "green" "koning_red.bmp" "red" 744.3 0 0 0 0
11 128 "left" 1 1 1 489 "zetel" "hamer" "word" "semantic" "unrelated" "zetel" "green" "hamer_red.bmp" "red" 810.3 0 0 0 0
11 129 "right" 2 2 1 316 "appel" "banaan" "word" "semantic" "related" "appel" "green" "banaan_red.bmp" "red" 736.3 0 0 0 0
11 130 "right" 2 2 1 523 "konijn" "schildpad" "pic" "semantic" "related" "schildpad" "red" "konijn_green.bmp" "green" 983.3 0 0 0 0
11 131 "left" 1 1 1 420 "potlood" "vulpen" "pic" "semantic" "related" "vulpen" "red" "potlood_green.bmp" "green" 1022.3 0 0 0 0
11 132 "left" 1 1 1 171 "zebra" "tafel" "pic" "phonological" "unrelated" "tafel" "red" "zebra_green.bmp" "green" 773.3 0 0 0 0
11 133 "left" 1 1 1 383 "lelie" "lepel" "word" "phonological" "related" "lelie" "green" "lepel_red.bmp" "red" 801.3 0 0 0 0
11 134 "left" 1 1 1 412 "wapen" "waaier" "pic" "phonological" "related" "waaier" "red" "wapen_green.bmp" "green" 1024.3 0 0 0 0
11 135 "left" 1 1 1 547 "lepel" "kano" "word" "phonological" "unrelated" "lepel" "green" "kano_red.bmp" "red" 740.3 0 0 0 0
11 136 "right" 2 2 1 685 "cello" "trompet" "pic" "semantic" "related" "trompet" "red" "cello_green.bmp" "green" 976.3 0 0 0 0
11 137 "right" 2 2 1 317 "kano" "lepel" "word" "phonological" "unrelated" "kano" "green" "lepel_red.bmp" "red" 590.3 0 0 0 0
11 138 "right" 2 2 1 417 "zwemvlies" "sandaal" "pic" "semantic" "related" "sandaal" "red" "zwemvlies_green.bmp" "green" 1392.3 0 0 0 0
11 139 "left" 1 1 1 679 "beitel" "hamer" "pic" "semantic" "related" "hamer" "red" "beitel_green.bmp" "green" 1100.3 0 0 0 0
11 140 "left" 1 1 1 401 "schildpad" "konijn" "pic" "semantic" "related" "konijn" "red" "schildpad_green.bmp" "green" 1454.3 0 0 0 0
11 141 "left" 1 1 1 981 "toren" "totem" "word" "phonological" "related" "toren" "green" "totem_red.bmp" "red" 649.3 0 0 0 0
11 142 "left" 1 1 1 636 "bezem" "beker" "word" "phonological" "related" "bezem" "green" "beker_red.bmp" "red" 728.3 0 0 0 0
11 143 "left" 1 1 1 391 "zegel" "taco" "pic" "phonological" "unrelated" "taco" "red" "zegel_green.bmp" "green" 1482.3 0 0 0 0
11 144 "left" 1 1 1 182 "appel" "banaan" "pic" "semantic" "related" "banaan" "red" "appel_green.bmp" "green" 661.3 0 0 0 0
11 145 "left" 1 1 1 148 "taco" "tafel" "pic" "phonological" "related" "tafel" "red" "taco_green.bmp" "green" 807.3 0 0 0 0
11 146 "left" 1 1 1 273 "cirkel" "circus" "pic" "phonological" "related" "circus" "red" "cirkel_green.bmp" "green" 870.3 0 0 0 0
11 147 "left" 1 1 1 236 "hamer" "zetel" "pic" "semantic" "unrelated" "zetel" "red" "hamer_green.bmp" "green" 964.3 0 0 0 0
11 148 "left" 1 1 1 287 "rugby" "rugzak" "pic" "phonological" "related" "rugzak" "red" "rugby_green.bmp" "green" 1020.3 0 0 0 0
11 149 "left" 1 1 1 347 "bezem" "beker" "pic" "phonological" "related" "beker" "red" "bezem_green.bmp" "green" 792.3 0 0 0 0
11 150 "left" 1 1 1 317 "totem" "cirkel" "pic" "phonological" "unrelated" "cirkel" "red" "totem_green.bmp" "green" 883.3 0 0 0 0
11 151 "left" 1 1 1 391 "cello" "potlood" "word" "semantic" "unrelated" "cello" "green" "potlood_red.bmp" "red" 852.3 0 0 0 0
11 152 "right" 2 2 1 286 "pistool" "molen" "word" "semantic" "unrelated" "pistool" "green" "molen_red.bmp" "red" 760.3 0 0 0 0
11 153 "left" 1 1 1 488 "sandaal" "zwemvlies" "pic" "semantic" "related" "zwemvlies" "red" "sandaal_green.bmp" "green" 1001.3 0 0 0 0
11 154 "left" 1 1 1 528 "vulpen" "trompet" "pic" "semantic" "unrelated" "trompet" "red" "vulpen_green.bmp" "green" 1023.3 0 0 0 0
11 155 "right" 2 2 1 390 "beitel" "bureau" "word" "semantic" "unrelated" "beitel" "green" "bureau_red.bmp" "red" 763.3 0 0 0 0
11 156 "right" 2 2 1 234 "zegel" "zebra" "pic" "phonological" "related" "zebra" "red" "zegel_green.bmp" "green" 919.3 0 0 0 0
11 157 "left" 1 1 1 476 "kabel" "lelie" "word" "phonological" "unrelated" "kabel" "green" "lelie_red.bmp" "red" 763.3 0 0 0 0
11 158 "right" 2 2 1 345 "beker" "bezem" "word" "phonological" "related" "beker" "green" "bezem_red.bmp" "red" 700.3 0 0 0 0
11 159 "right" 2 2 1 430 "waaier" "wapen" "pic" "phonological" "related" "wapen" "red" "waaier_green.bmp" "green" 840.3 0 0 0 0
11 160 "right" 2 2 1 357 "trompet" "cello" "word" "semantic" "related" "trompet" "green" "cello_red.bmp" "red" 1007.3 0 0 0 0
12 1 "left" 1 1 1 508 "vliegtuig" "schildpad" "pic" "semantic" "unrelated" "schildpad" "red" "vliegtuig_green.bmp" "green" 2364.3 0 0 0 0
12 2 "left" 1 1 1 333 "beker" "bezem" "pic" "phonological" "related" "bezem" "red" "beker_green.bmp" "green" 1098.3 0 0 0 0
12 3 "right" 2 2 1 309 "trompet" "vulpen" "pic" "semantic" "unrelated" "vulpen" "red" "trompet_green.bmp" "green" 1501.3 0 0 0 0
12 4 "left" 1 1 1 601 "toren" "circus" "pic" "phonological" "unrelated" "circus" "red" "toren_green.bmp" "green" 1170.3 0 0 0 0
12 5 "left" 1 1 1 664 "bezem" "wapen" "word" "phonological" "unrelated" "bezem" "green" "wapen_red.bmp" "red" 1656.3 0 0 0 0
12 6 "left" 1 1 1 646 "bureau" "beitel" "word" "semantic" "unrelated" "bureau" "green" "beitel_red.bmp" "red" 1169.3 0 0 0 0
12 7 "right" 2 2 1 507 "bezem" "beker" "word" "phonological" "related" "bezem" "green" "beker_red.bmp" "red" 1327.3 0 0 0 0
12 8 "left" 1 1 1 687 "tafel" "taco" "pic" "phonological" "related" "taco" "red" "tafel_green.bmp" "green" 1426.3 0 0 0 0
12 9 "left" 1 1 1 608 "pistool" "kanon" "word" "semantic" "related" "pistool" "green" "kanon_red.bmp" "red" 1206.3 0 0 0 0
12 10 "left" 1 1 1 660 "zegel" "taco" "word" "phonological" "unrelated" "zegel" "green" "taco_red.bmp" "red" 918.3 0 0 0 0
12 11 "right" 2 2 1 396 "pistool" "molen" "pic" "semantic" "unrelated" "molen" "red" "pistool_green.bmp" "green" 1389.3 0 0 0 0
12 12 "left" 1 1 1 377 "vliegtuig" "auto" "pic" "semantic" "related" "auto" "red" "vliegtuig_green.bmp" "green" 1367.3 0 0 0 0
12 13 "right" 2 2 1 1069 "rugzak" "rugby" "word" "phonological" "related" "rugzak" "green" "rugby_red.bmp" "red" 1094.3 0 1 0 1
12 14 "right" 2 2 1 810 "banaan" "zwemvlies" "word" "semantic" "unrelated" "banaan" "green" "zwemvlies_red.bmp" "red" 965.3 0 0 0 0
12 15 "right" 2 2 1 1462 "hamer" "zetel" "pic" "semantic" "unrelated" "zetel" "red" "hamer_green.bmp" "green" 1253.3 0 0 0 0
12 16 "left" 1 1 1 717 "beitel" "bureau" "pic" "semantic" "unrelated" "bureau" "red" "beitel_green.bmp" "green" 1887.3 0 0 0 0
12 17 "left" 1 1 1 453 "konijn" "auto" "word" "semantic" "unrelated" "konijn" "green" "auto_red.bmp" "red" 1120.3 0 0 0 0
12 18 "right" 2 2 1 289 "vliegtuig" "schildpad" "word" "semantic" "unrelated" "vliegtuig" "green" "schildpad_red.bmp" "red" 1092.3 0 0 0 0
12 19 "right" 2 2 1 535 "appel" "banaan" "pic" "semantic" "related" "banaan" "red" "appel_green.bmp" "green" 934.3 0 0 0 0
12 20 "left" 1 1 1 1091 "fabriek" "molen" "word" "semantic" "related" "fabriek" "green" "molen_red.bmp" "red" 9138.3 0 0 1 1
12 21 "left" 1 2 0 858 "zwemvlies" "sandaal" "word" "semantic" "related" "zwemvlies" "green" "sandaal_red.bmp" "red" 933.3 0 0 0 0
12 22 "left" 1 1 1 369 "bezem" "wapen" "pic" "phonological" "unrelated" "wapen" "red" "bezem_green.bmp" "green" 1079.3 0 0 0 0
12 23 "right" 2 2 1 440 "waaier" "beker" "word" "phonological" "unrelated" "waaier" "green" "beker_red.bmp" "red" 772.3 0 0 0 0
12 24 "right" 2 2 1 309 "zebra" "zegel" "pic" "phonological" "related" "zegel" "red" "zebra_green.bmp" "green" 909.3 0 0 0 0
12 25 "right" 2 2 1 348 "toren" "totem" "word" "phonological" "related" "toren" "green" "totem_red.bmp" "red" 728.3 0 0 0 0
12 26 "right" 2 2 1 334 "beker" "waaier" "word" "phonological" "unrelated" "beker" "green" "waaier_red.bmp" "red" 756.3 0 0 0 0
12 27 "left" 1 1 1 435 "bureau" "beitel" "pic" "semantic" "unrelated" "beitel" "red" "bureau_green.bmp" "green" 1038.3 0 0 0 0
12 28 "left" 1 1 1 479 "lepel" "kano" "pic" "phonological" "unrelated" "kano" "red" "lepel_green.bmp" "green" 870.3 0 0 0 0
12 29 "left" 1 1 1 28 "appel" "banaan" "word" "semantic" "related" "appel" "green" "banaan_red.bmp" "red" 891.3 0 0 0 0
12 30 "left" 1 1 1 252 "zegel" "zebra" "word" "phonological" "related" "zegel" "green" "zebra_red.bmp" "red" 736.3 0 0 0 0
12 31 "right" 2 2 1 249 "zetel" "hamer" "pic" "semantic" "unrelated" "hamer" "red" "zetel_green.bmp" "green" 1328.3 0 0 0 0
12 32 "right" 2 2 1 374 "lepel" "lelie" "pic" "phonological" "related" "lelie" "red" "lepel_green.bmp" "green" 758.3 0 0 0 0
12 33 "right" 2 2 1 216 "circus" "toren" "pic" "phonological" "unrelated" "toren" "red" "circus_green.bmp" "green" 873.3 0 0 0 0
12 34 "left" 1 1 1 217 "molen" "fabriek" "pic" "semantic" "related" "fabriek" "red" "molen_green.bmp" "green" 1012.3 0 0 0 0
12 35 "right" 2 2 1 222 "trompet" "cello" "word" "semantic" "related" "trompet" "green" "cello_red.bmp" "red" 780.3 0 0 0 0
12 36 "left" 1 1 1 387 "auto" "konijn" "word" "semantic" "unrelated" "auto" "green" "konijn_red.bmp" "red" 589.3 0 0 0 0
12 37 "right" 2 2 1 323 "taco" "tafel" "word" "phonological" "related" "taco" "green" "tafel_red.bmp" "red" 681.3 0 0 0 0
12 38 "left" 1 1 1 660 "vulpen" "potlood" "word" "semantic" "related" "vulpen" "green" "potlood_red.bmp" "red" 749.3 0 0 0 0
12 39 "right" 2 2 1 520 "kogel" "koning" "word" "phonological" "related" "kogel" "green" "koning_red.bmp" "red" 778.3 0 0 0 0
12 40 "left" 1 1 1 604 "cirkel" "circus" "pic" "phonological" "related" "circus" "red" "cirkel_green.bmp" "green" 1014.3 0 0 0 0
12 41 "left" 1 1 1 318 "kogel" "rugzak" "word" "phonological" "unrelated" "kogel" "green" "rugzak_red.bmp" "red" 642.3 0 0 0 0
12 42 "right" 2 2 1 269 "bureau" "zetel" "word" "semantic" "related" "bureau" "green" "zetel_red.bmp" "red" 686.3 0 0 0 0
12 43 "left" 1 1 1 753 "molen" "pistool" "word" "semantic" "unrelated" "molen" "green" "pistool_red.bmp" "red" 791.3 0 0 0 0
12 44 "right" 2 2 1 344 "totem" "cirkel" "word" "phonological" "unrelated" "totem" "green" "cirkel_red.bmp" "red" 756.3 0 0 0 0
12 45 "right" 2 2 1 297 "potlood" "vulpen" "word" "semantic" "related" "potlood" "green" "vulpen_red.bmp" "red" 748.3 0 0 0 0
12 46 "right" 2 2 1 528 "rugby" "rugzak" "pic" "phonological" "related" "rugzak" "red" "rugby_green.bmp" "green" 4229.3 0 0 1 1
12 47 "left" 1 1 1 281 "schildpad" "vliegtuig" "word" "semantic" "unrelated" "schildpad" "green" "vliegtuig_red.bmp" "red" 888.3 0 0 0 0
12 48 "right" 2 2 1 621 "fabriek" "kanon" "pic" "semantic" "unrelated" "kanon" "red" "fabriek_green.bmp" "green" 4848.3 0 0 1 1
12 49 "left" 1 1 1 619 "trompet" "cello" "pic" "semantic" "related" "cello" "red" "trompet_green.bmp" "green" 1261.3 0 0 0 0
12 50 "right" 2 2 1 177 "rugzak" "kogel" "word" "phonological" "unrelated" "rugzak" "green" "kogel_red.bmp" "red" 1036.3 0 0 0 0
12 51 "right" 2 2 1 436 "zegel" "zebra" "pic" "phonological" "related" "zebra" "red" "zegel_green.bmp" "green" 987.3 0 0 0 0
12 52 "left" 1 1 1 424 "kanon" "pistool" "pic" "semantic" "related" "pistool" "red" "kanon_green.bmp" "green" 1265.3 0 0 0 0
12 53 "right" 2 2 1 361 "sandaal" "appel" "word" "semantic" "unrelated" "sandaal" "green" "appel_red.bmp" "red" 854.3 0 0 0 0
12 54 "left" 1 1 1 559 "kano" "kabel" "pic" "phonological" "related" "kabel" "red" "kano_green.bmp" "green" 1844.3 0 1 0 1
12 55 "left" 1 1 1 393 "zegel" "taco" "pic" "phonological" "unrelated" "taco" "red" "zegel_green.bmp" "green" 1017.3 0 0 0 0
12 56 "left" 1 1 1 458 "cello" "potlood" "word" "semantic" "unrelated" "cello" "green" "potlood_red.bmp" "red" 650.3 0 0 0 0
12 57 "left" 1 1 1 279 "molen" "pistool" "pic" "semantic" "unrelated" "pistool" "red" "molen_green.bmp" "green" 1322.3 0 0 0 0
12 58 "left" 1 1 1 584 "auto" "vliegtuig" "word" "semantic" "related" "auto" "green" "vliegtuig_red.bmp" "red" 656.3 0 0 0 0
12 59 "right" 2 2 1 414 "kogel" "rugzak" "pic" "phonological" "unrelated" "rugzak" "red" "kogel_green.bmp" "green" 1355.3 0 0 0 0
12 60 "left" 1 1 1 18 "cirkel" "totem" "word" "phonological" "unrelated" "cirkel" "green" "totem_red.bmp" "red" 980.3 0 0 0 0
12 61 "right" 2 1 0 153 "koning" "kogel" "word" "phonological" "related" "koning" "green" "kogel_red.bmp" "red" 595.3 0 0 0 0
12 62 "left" 1 1 1 401 "zebra" "zegel" "word" "phonological" "related" "zebra" "green" "zegel_red.bmp" "red" 744.3 0 0 0 0
12 63 "left" 1 1 1 437 "wapen" "waaier" "pic" "phonological" "related" "waaier" "red" "wapen_green.bmp" "green" 1079.3 0 0 0 0
12 64 "right" 2 2 1 388 "konijn" "auto" "pic" "semantic" "unrelated" "auto" "red" "konijn_green.bmp" "green" 1198.3 0 0 0 0
12 65 "right" 2 2 1 459 "waaier" "wapen" "word" "phonological" "related" "waaier" "green" "wapen_red.bmp" "red" 1301.3 0 0 0 0
12 66 "left" 1 1 1 508 "bezem" "beker" "pic" "phonological" "related" "beker" "red" "bezem_green.bmp" "green" 782.3 0 0 0 0
12 67 "left" 1 1 1 405 "vulpen" "trompet" "pic" "semantic" "unrelated" "trompet" "red" "vulpen_green.bmp" "green" 1098.3 0 0 0 0
12 68 "left" 1 1 1 549 "zwemvlies" "sandaal" "pic" "semantic" "related" "sandaal" "red" "zwemvlies_green.bmp" "green" 1262.3 0 0 0 0
12 69 "right" 2 2 1 402 "cello" "trompet" "word" "semantic" "related" "cello" "green" "trompet_red.bmp" "red" 738.3 0 0 0 0
12 70 "left" 1 1 1 704 "konijn" "schildpad" "pic" "semantic" "related" "schildpad" "red" "konijn_green.bmp" "green" 1076.3 0 0 0 0
12 71 "right" 2 2 1 163 "cirkel" "circus" "word" "phonological" "related" "cirkel" "green" "circus_red.bmp" "red" 1288.3 0 0 0 0
12 72 "left" 1 1 1 548 "lelie" "kabel" "word" "phonological" "unrelated" "lelie" "green" "kabel_red.bmp" "red" 821.3 0 0 0 0
12 73 "right" 2 2 1 446 "taco" "zegel" "word" "phonological" "unrelated" "taco" "green" "zegel_red.bmp" "red" 771.3 0 0 0 0
12 74 "left" 1 1 1 226 "banaan" "zwemvlies" "pic" "semantic" "unrelated" "zwemvlies" "red" "banaan_green.bmp" "green" 987.3 0 0 0 0
12 75 "right" 2 2 1 256 "totem" "cirkel" "pic" "phonological" "unrelated" "cirkel" "red" "totem_green.bmp" "green" 1023.3 0 0 0 0
12 76 "right" 2 2 1 389 "kanon" "fabriek" "pic" "semantic" "unrelated" "fabriek" "red" "kanon_green.bmp" "green" 1046.3 0 0 0 0
12 77 "right" 2 2 1 299 "circus" "cirkel" "pic" "phonological" "related" "cirkel" "red" "circus_green.bmp" "green" 1059.3 0 0 0 0
12 78 "left" 1 1 1 468 "appel" "sandaal" "pic" "semantic" "unrelated" "sandaal" "red" "appel_green.bmp" "green" 1015.3 0 0 0 0
12 79 "right" 2 2 1 280 "pistool" "molen" "word" "semantic" "unrelated" "pistool" "green" "molen_red.bmp" "red" 1111.3 0 0 0 0
12 80 "right" 2 2 1 171 "appel" "sandaal" "word" "semantic" "unrelated" "appel" "green" "sandaal_red.bmp" "red" 1590.3 0 0 0 0
12 81 "right" 2 2 1 439 "koning" "rugby" "pic" "phonological" "unrelated" "rugby" "red" "koning_green.bmp" "green" 1048.3 0 0 0 0
12 82 "right" 2 2 1 492 "schildpad" "konijn" "word" "semantic" "related" "schildpad" "green" "konijn_red.bmp" "red" 882.3 0 0 0 0
12 83 "right" 2 2 1 565 "sandaal" "zwemvlies" "word" "semantic" "related" "sandaal" "green" "zwemvlies_red.bmp" "red" 805.3 0 0 0 0
12 84 "left" 1 1 1 591 "taco" "tafel" "pic" "phonological" "related" "tafel" "red" "taco_green.bmp" "green" 903.3 0 0 0 0
12 85 "right" 2 2 1 666 "banaan" "appel" "word" "semantic" "related" "banaan" "green" "appel_red.bmp" "red" 813.3 0 0 0 0
12 86 "right" 2 2 1 321 "beker" "waaier" "pic" "phonological" "unrelated" "waaier" "red" "beker_green.bmp" "green" 873.3 0 0 0 0
12 87 "left" 1 1 1 358 "trompet" "vulpen" "word" "semantic" "unrelated" "trompet" "green" "vulpen_red.bmp" "red" 607.3 0 0 0 0
12 88 "left" 1 1 1 260 "vliegtuig" "auto" "word" "semantic" "related" "vliegtuig" "green" "auto_red.bmp" "red" 1045.3 0 0 0 0
12 89 "left" 1 1 1 316 "wapen" "bezem" "pic" "phonological" "unrelated" "bezem" "red" "wapen_green.bmp" "green" 991.3 0 0 0 0
12 90 "right" 2 2 1 440 "zebra" "tafel" "pic" "phonological" "unrelated" "tafel" "red" "zebra_green.bmp" "green" 982.3 0 0 0 0
12 91 "left" 1 1 1 468 "rugby" "koning" "word" "phonological" "unrelated" "rugby" "green" "koning_red.bmp" "red" 637.3 0 0 0 0
12 92 "left" 1 1 1 393 "kano" "kabel" "word" "phonological" "related" "kano" "green" "kabel_red.bmp" "red" 853.3 0 0 0 0
12 93 "right" 2 2 1 434 "auto" "konijn" "pic" "semantic" "unrelated" "konijn" "red" "auto_green.bmp" "green" 915.3 0 0 0 0
12 94 "right" 2 2 1 545 "rugzak" "rugby" "pic" "phonological" "related" "rugby" "red" "rugzak_green.bmp" "green" 881.3 0 0 0 0
12 95 "left" 1 1 1 433 "molen" "fabriek" "word" "semantic" "related" "molen" "green" "fabriek_red.bmp" "red" 585.3 0 0 0 0
12 96 "left" 1 1 1 385 "waaier" "wapen" "pic" "phonological" "related" "wapen" "red" "waaier_green.bmp" "green" 1009.3 0 0 0 0
12 97 "left" 1 1 1 302 "lelie" "lepel" "word" "phonological" "related" "lelie" "green" "lepel_red.bmp" "red" 587.3 0 0 0 0
12 98 "right" 2 2 1 768 "zetel" "bureau" "word" "semantic" "related" "zetel" "green" "bureau_red.bmp" "red" 667.3 0 0 0 0
12 99 "right" 2 2 1 385 "kanon" "pistool" "word" "semantic" "related" "kanon" "green" "pistool_red.bmp" "red" 884.3 0 0 0 0
12 100 "right" 2 2 1 564 "lelie" "lepel" "pic" "phonological" "related" "lepel" "red" "lelie_green.bmp" "green" 1068.3 0 0 0 0
12 101 "left" 1 1 1 201 "toren" "totem" "pic" "phonological" "related" "totem" "red" "toren_green.bmp" "green" 1215.3 0 0 0 0
12 102 "left" 1 1 1 402 "koning" "kogel" "pic" "phonological" "related" "kogel" "red" "koning_green.bmp" "green" 975.3 0 0 0 0
12 103 "right" 2 2 1 2805 "potlood" "cello" "word" "semantic" "unrelated" "potlood" "green" "cello_red.bmp" "red" 896.3 0 0 1 1
12 104 "left" 1 1 1 515 "beitel" "bureau" "word" "semantic" "unrelated" "beitel" "green" "bureau_red.bmp" "red" 833.3 0 0 0 0
12 105 "left" 1 1 1 326 "fabriek" "kanon" "word" "semantic" "unrelated" "fabriek" "green" "kanon_red.bmp" "red" 902.3 0 0 0 0
12 106 "right" 2 2 1 550 "sandaal" "zwemvlies" "pic" "semantic" "related" "zwemvlies" "red" "sandaal_green.bmp" "green" 1136.3 0 0 0 0
12 107 "left" 1 1 1 316 "cello" "potlood" "pic" "semantic" "unrelated" "potlood" "red" "cello_green.bmp" "green" 1246.3 0 0 0 0
12 108 "right" 2 2 1 338 "koning" "rugby" "word" "phonological" "unrelated" "koning" "green" "rugby_red.bmp" "red" 1120.3 0 0 0 0
12 109 "left" 1 1 1 331 "fabriek" "molen" "pic" "semantic" "related" "molen" "red" "fabriek_green.bmp" "green" 881.3 0 0 0 0
12 110 "left" 1 1 1 486 "lelie" "kabel" "pic" "phonological" "unrelated" "kabel" "red" "lelie_green.bmp" "green" 952.3 0 0 0 0
12 111 "left" 1 1 1 168 "tafel" "zebra" "pic" "phonological" "unrelated" "zebra" "red" "tafel_green.bmp" "green" 1005.3 0 0 0 0
12 112 "right" 2 2 1 800 "hamer" "beitel" "pic" "semantic" "related" "beitel" "red" "hamer_green.bmp" "green" 914.3 1 0 0 1
12 113 "left" 1 1 1 834 "rugby" "rugzak" "word" "phonological" "related" "rugby" "green" "rugzak_red.bmp" "red" 812.3 0 0 0 0
12 114 "right" 2 2 1 306 "circus" "cirkel" "word" "phonological" "related" "circus" "green" "cirkel_red.bmp" "red" 1350.3 1 0 0 1
12 115 "left" 1 1 1 391 "taco" "zegel" "pic" "phonological" "unrelated" "zegel" "red" "taco_green.bmp" "green" 797.3 0 0 0 0
12 116 "left" 1 1 1 525 "pistool" "kanon" "pic" "semantic" "related" "kanon" "red" "pistool_green.bmp" "green" 2033.3 1 0 0 1
12 117 "right" 2 2 1 546 "zetel" "hamer" "word" "semantic" "unrelated" "zetel" "green" "hamer_red.bmp" "red" 1873.3 0 0 0 0
12 118 "left" 1 1 1 457 "kano" "lepel" "word" "phonological" "unrelated" "kano" "green" "lepel_red.bmp" "red" 1555.3 0 0 0 0
12 119 "right" 2 2 1 407 "waaier" "beker" "pic" "phonological" "unrelated" "beker" "red" "waaier_green.bmp" "green" 991.3 0 0 0 0
12 120 "right" 2 2 1 475 "tafel" "zebra" "word" "phonological" "unrelated" "tafel" "green" "zebra_red.bmp" "red" 1006.3 0 0 0 0
12 121 "left" 1 1 1 537 "hamer" "beitel" "word" "semantic" "related" "hamer" "green" "beitel_red.bmp" "red" 782.3 0 0 0 0
12 122 "right" 2 2 1 437 "kano" "lepel" "pic" "phonological" "unrelated" "lepel" "red" "kano_green.bmp" "green" 1086.3 0 0 0 0
12 123 "right" 2 2 1 431 "banaan" "appel" "pic" "semantic" "related" "appel" "red" "banaan_green.bmp" "green" 1381.3 0 0 0 0
12 124 "left" 1 1 1 657 "beitel" "hamer" "pic" "semantic" "related" "hamer" "red" "beitel_green.bmp" "green" 1115.3 0 0 0 0
12 125 "right" 2 2 1 434 "bureau" "zetel" "pic" "semantic" "related" "zetel" "red" "bureau_green.bmp" "green" 871.3 0 0 0 0
12 126 "left" 1 1 1 377 "lepel" "lelie" "word" "phonological" "related" "lepel" "green" "lelie_red.bmp" "red" 1370.3 0 0 0 0
12 127 "left" 1 1 1 217 "toren" "circus" "word" "phonological" "unrelated" "toren" "green" "circus_red.bmp" "red" 611.3 0 0 0 0
12 128 "left" 1 1 1 401 "rugzak" "kogel" "pic" "phonological" "unrelated" "kogel" "red" "rugzak_green.bmp" "green" 765.3 0 0 0 0
12 129 "right" 2 2 1 497 "kabel" "kano" "pic" "phonological" "related" "kano" "red" "kabel_green.bmp" "green" 920.3 0 0 0 0
12 130 "right" 2 2 1 327 "rugby" "koning" "pic" "phonological" "unrelated" "koning" "red" "rugby_green.bmp" "green" 752.3 0 0 0 0
12 131 "right" 2 2 1 502 "wapen" "bezem" "word" "phonological" "unrelated" "wapen" "green" "bezem_red.bmp" "red" 685.3 0 0 0 0
12 132 "left" 1 1 1 443 "kabel" "lelie" "word" "phonological" "unrelated" "kabel" "green" "lelie_red.bmp" "red" 755.3 0 0 0 0
12 133 "right" 2 2 1 399 "cirkel" "totem" "pic" "phonological" "unrelated" "totem" "red" "cirkel_green.bmp" "green" 1144.3 0 0 0 0
12 134 "right" 2 2 1 465 "zwemvlies" "banaan" "pic" "semantic" "unrelated" "banaan" "red" "zwemvlies_green.bmp" "green" 1277.3 0 0 0 0
12 135 "right" 2 2 1 425 "potlood" "vulpen" "pic" "semantic" "related" "vulpen" "red" "potlood_green.bmp" "green" 1411.3 0 0 0 0
12 136 "left" 1 1 1 720 "zebra" "tafel" "word" "phonological" "unrelated" "zebra" "green" "tafel_red.bmp" "red" 746.3 0 0 0 0
12 137 "right" 2 2 1 371 "konijn" "schildpad" "word" "semantic" "related" "konijn" "green" "schildpad_red.bmp" "red" 629.3 0 0 0 0
12 138 "left" 1 1 1 420 "vulpen" "potlood" "pic" "semantic" "related" "potlood" "red" "vulpen_green.bmp" "green" 984.3 0 0 0 0
12 139 "right" 2 2 1 296 "hamer" "zetel" "word" "semantic" "unrelated" "hamer" "green" "zetel_red.bmp" "red" 677.3 0 0 0 0
12 140 "left" 1 1 1 737 "zwemvlies" "banaan" "word" "semantic" "unrelated" "zwemvlies" "green" "banaan_red.bmp" "red" 636.3 0 0 0 0
12 141 "left" 1 1 1 294 "totem" "toren" "pic" "phonological" "related" "toren" "red" "totem_green.bmp" "green" 889.3 0 0 0 0
12 142 "right" 2 2 1 751 "kanon" "fabriek" "word" "semantic" "unrelated" "kanon" "green" "fabriek_red.bmp" "red" 771.3 0 0 0 0
12 143 "left" 1 1 1 415 "kabel" "lelie" "pic" "phonological" "unrelated" "lelie" "red" "kabel_green.bmp" "green" 899.3 0 0 0 0
12 144 "left" 1 1 1 675 "totem" "toren" "word" "phonological" "related" "totem" "green" "toren_red.bmp" "red" 687.3 0 0 0 0
12 145 "left" 1 1 1 400 "vulpen" "trompet" "word" "semantic" "unrelated" "vulpen" "green" "trompet_red.bmp" "red" 781.3 0 0 0 0
12 146 "left" 1 1 1 395 "sandaal" "appel" "pic" "semantic" "unrelated" "appel" "red" "sandaal_green.bmp" "green" 1065.3 0 0 0 0
12 147 "right" 2 2 1 117 "potlood" "cello" "pic" "semantic" "unrelated" "cello" "red" "potlood_green.bmp" "green" 1252.3 0 0 0 0
12 148 "left" 1 1 1 140 "kabel" "kano" "word" "phonological" "related" "kabel" "green" "kano_red.bmp" "red" 704.3 0 0 0 0
12 149 "right" 2 2 1 358 "kogel" "koning" "pic" "phonological" "related" "koning" "red" "kogel_green.bmp" "green" 1179.3 0 0 0 0
12 150 "right" 2 2 1 1870 "zetel" "bureau" "pic" "semantic" "related" "bureau" "red" "zetel_green.bmp" "green" 1096.3 0 0 0 0
12 151 "left" 1 1 1 287 "beitel" "hamer" "word" "semantic" "related" "beitel" "green" "hamer_red.bmp" "red" 790.3 0 0 0 0
12 152 "right" 2 2 1 322 "schildpad" "vliegtuig" "pic" "semantic" "unrelated" "vliegtuig" "red" "schildpad_green.bmp" "green" 1038.3 0 0 0 0
12 153 "right" 2 2 1 418 "wapen" "waaier" "word" "phonological" "related" "wapen" "green" "waaier_red.bmp" "red" 656.3 0 0 0 0
12 154 "right" 2 2 1 313 "auto" "vliegtuig" "pic" "semantic" "related" "vliegtuig" "red" "auto_green.bmp" "green" 816.3 0 0 0 0
12 155 "left" 1 1 1 438 "lepel" "kano" "word" "phonological" "unrelated" "lepel" "green" "kano_red.bmp" "red" 600.3 0 0 0 0
12 156 "left" 1 1 1 335 "schildpad" "konijn" "pic" "semantic" "related" "konijn" "red" "schildpad_green.bmp" "green" 937.3 0 0 0 0
12 157 "left" 1 1 1 310 "beker" "bezem" "word" "phonological" "related" "beker" "green" "bezem_red.bmp" "red" 715.3 0 0 0 0
12 158 "right" 2 2 1 10 "circus" "toren" "word" "phonological" "unrelated" "circus" "green" "toren_red.bmp" "red" 895.3 0 0 0 0
12 159 "right" 2 2 1 411 "tafel" "taco" "word" "phonological" "related" "tafel" "green" "taco_red.bmp" "red" 519.3 0 0 0 0
12 160 "left" 1 1 1 333 "cello" "trompet" "pic" "semantic" "related" "trompet" "red" "cello_green.bmp" "green" 1003.3 0 0 0 0
13 1 "right" 2 2 1 485 "waaier" "wapen" "pic" "phonological" "related" "wapen" "red" "waaier_green.bmp" "green" 1416.3 0 0 0 0
13 2 "right" 2 2 1 729 "kanon" "fabriek" "word" "semantic" "unrelated" "kanon" "green" "fabriek_red.bmp" "red" 1002.3 0 0 0 0
13 3 "left" 1 1 1 640 "vulpen" "trompet" "pic" "semantic" "unrelated" "trompet" "red" "vulpen_green.bmp" "green" 1453.3 0 0 0 0
13 4 "right" 2 2 1 664 "vliegtuig" "auto" "word" "semantic" "related" "vliegtuig" "green" "auto_red.bmp" "red" 963.3 0 0 0 0
13 5 "left" 1 1 1 732 "bureau" "zetel" "word" "semantic" "related" "bureau" "green" "zetel_red.bmp" "red" 869.3 0 0 0 0
13 6 "left" 1 1 1 526 "totem" "toren" "word" "phonological" "related" "totem" "green" "toren_red.bmp" "red" 761.3 0 0 0 0
13 7 "left" 1 1 1 434 "trompet" "cello" "word" "semantic" "related" "trompet" "green" "cello_red.bmp" "red" 965.3 0 0 0 0
13 8 "right" 2 2 1 329 "schildpad" "konijn" "pic" "semantic" "related" "konijn" "red" "schildpad_green.bmp" "green" 1351.3 0 0 0 0
13 9 "right" 2 2 1 710 "zwemvlies" "sandaal" "word" "semantic" "related" "zwemvlies" "green" "sandaal_red.bmp" "red" 672.3 0 0 0 0
13 10 "left" 1 1 1 470 "zetel" "hamer" "word" "semantic" "unrelated" "zetel" "green" "hamer_red.bmp" "red" 862.3 0 0 0 0
13 11 "right" 2 2 1 528 "kanon" "pistool" "pic" "semantic" "related" "pistool" "red" "kanon_green.bmp" "green" 1175.3 0 0 0 0
13 12 "left" 1 1 1 523 "koning" "kogel" "pic" "phonological" "related" "kogel" "red" "koning_green.bmp" "green" 955.3 0 0 0 0
13 13 "left" 1 1 1 551 "cirkel" "circus" "word" "phonological" "related" "cirkel" "green" "circus_red.bmp" "red" 868.3 0 0 0 0
13 14 "left" 1 1 1 412 "beker" "bezem" "pic" "phonological" "related" "bezem" "red" "beker_green.bmp" "green" 883.3 0 0 0 0
13 15 "right" 2 2 1 511 "waaier" "wapen" "word" "phonological" "related" "waaier" "green" "wapen_red.bmp" "red" 1205.3 0 0 0 0
13 16 "right" 2 2 1 468 "fabriek" "kanon" "word" "semantic" "unrelated" "fabriek" "green" "kanon_red.bmp" "red" 1001.3 0 0 0 0
13 17 "right" 2 2 1 317 "potlood" "vulpen" "pic" "semantic" "related" "vulpen" "red" "potlood_green.bmp" "green" 1101.3 0 0 0 0
13 18 "right" 2 2 1 782 "bezem" "beker" "word" "phonological" "related" "bezem" "green" "beker_red.bmp" "red" 689.3 0 0 0 0
13 19 "right" 2 2 1 434 "hamer" "beitel" "word" "semantic" "related" "hamer" "green" "beitel_red.bmp" "red" 566.3 0 0 0 0
13 20 "left" 1 1 1 440 "zetel" "bureau" "word" "semantic" "related" "zetel" "green" "bureau_red.bmp" "red" 630.3 0 0 0 0
13 21 "right" 2 2 1 582 "waaier" "beker" "pic" "phonological" "unrelated" "beker" "red" "waaier_green.bmp" "green" 851.3 0 0 0 0
13 22 "right" 2 2 1 598 "rugby" "koning" "pic" "phonological" "unrelated" "koning" "red" "rugby_green.bmp" "green" 901.3 0 0 0 0
13 23 "left" 1 1 1 803 "schildpad" "vliegtuig" "pic" "semantic" "unrelated" "vliegtuig" "red" "schildpad_green.bmp" "green" 914.3 0 0 0 0
13 24 "right" 2 2 1 331 "zebra" "tafel" "word" "phonological" "unrelated" "zebra" "green" "tafel_red.bmp" "red" 1034.3 0 0 0 0
13 25 "right" 2 2 1 399 "koning" "rugby" "word" "phonological" "unrelated" "koning" "green" "rugby_red.bmp" "red" 779.3 0 0 0 0
13 26 "left" 1 1 1 449 "zwemvlies" "sandaal" "pic" "semantic" "related" "sandaal" "red" "zwemvlies_green.bmp" "green" 1453.3 0 0 0 0
13 27 "right" 2 2 1 488 "auto" "konijn" "word" "semantic" "unrelated" "auto" "green" "konijn_red.bmp" "red" 845.3 0 0 0 0
13 28 "left" 1 1 1 588 "wapen" "bezem" "word" "phonological" "unrelated" "wapen" "green" "bezem_red.bmp" "red" 668.3 0 0 0 0
13 29 "left" 1 1 1 312 "hamer" "zetel" "word" "semantic" "unrelated" "hamer" "green" "zetel_red.bmp" "red" 690.3 0 0 0 0
13 30 "left" 1 1 1 413 "zegel" "taco" "pic" "phonological" "unrelated" "taco" "red" "zegel_green.bmp" "green" 1121.3 0 0 0 0
13 31 "right" 2 2 1 318 "molen" "fabriek" "word" "semantic" "related" "molen" "green" "fabriek_red.bmp" "red" 759.3 0 0 0 0
13 32 "right" 2 2 1 368 "konijn" "schildpad" "word" "semantic" "related" "konijn" "green" "schildpad_red.bmp" "red" 711.3 0 0 0 0
13 33 "left" 1 1 1 329 "cello" "potlood" "word" "semantic" "unrelated" "cello" "green" "potlood_red.bmp" "red" 746.3 0 0 0 0
13 34 "left" 1 1 1 259 "zwemvlies" "banaan" "word" "semantic" "unrelated" "zwemvlies" "green" "banaan_red.bmp" "red" 764.3 0 0 0 0
13 35 "left" 1 1 1 376 "konijn" "auto" "word" "semantic" "unrelated" "konijn" "green" "auto_red.bmp" "red" 733.3 0 0 0 0
13 36 "left" 1 2 0 24 "potlood" "vulpen" "word" "semantic" "related" "potlood" "green" "vulpen_red.bmp" "red" 880.3 0 0 0 0
13 37 "right" 2 2 1 401 "rugby" "rugzak" "pic" "phonological" "related" "rugzak" "red" "rugby_green.bmp" "green" 753.3 0 0 0 0
13 38 "left" 1 1 1 88 "auto" "vliegtuig" "pic" "semantic" "related" "vliegtuig" "red" "auto_green.bmp" "green" 920.3 0 0 0 0
13 39 "right" 2 2 1 582 "schildpad" "konijn" "word" "semantic" "related" "schildpad" "green" "konijn_red.bmp" "red" 924.3 0 0 0 0
13 40 "left" 1 1 1 106 "pistool" "kanon" "word" "semantic" "related" "pistool" "green" "kanon_red.bmp" "red" 1233.3 0 0 0 0
13 41 "right" 2 2 1 139 "banaan" "zwemvlies" "word" "semantic" "unrelated" "banaan" "green" "zwemvlies_red.bmp" "red" 1194.3 0 0 0 0
13 42 "left" 1 1 1 354 "kanon" "fabriek" "pic" "semantic" "unrelated" "fabriek" "red" "kanon_green.bmp" "green" 1290.3 0 0 0 0
13 43 "right" 2 2 1 340 "tafel" "taco" "pic" "phonological" "related" "taco" "red" "tafel_green.bmp" "green" 1573.3 0 0 0 0
13 44 "right" 2 2 1 250 "beker" "waaier" "pic" "phonological" "unrelated" "waaier" "red" "beker_green.bmp" "green" 1192.3 0 0 0 0
13 45 "left" 1 1 1 285 "taco" "zegel" "word" "phonological" "unrelated" "taco" "green" "zegel_red.bmp" "red" 1091.3 0 0 0 0
13 46 "left" 1 1 1 377 "tafel" "zebra" "word" "phonological" "unrelated" "tafel" "green" "zebra_red.bmp" "red" 715.3 0 0 0 0
13 47 "left" 1 1 1 251 "banaan" "zwemvlies" "pic" "semantic" "unrelated" "zwemvlies" "red" "banaan_green.bmp" "green" 826.3 0 0 0 0
13 48 "right" 2 2 1 248 "beitel" "bureau" "pic" "semantic" "unrelated" "bureau" "red" "beitel_green.bmp" "green" 1079.3 0 0 0 0
13 49 "left" 1 1 1 338 "circus" "toren" "pic" "phonological" "unrelated" "toren" "red" "circus_green.bmp" "green" 1281.3 0 0 0 0
13 50 "right" 2 2 1 176 "vulpen" "potlood" "word" "semantic" "related" "vulpen" "green" "potlood_red.bmp" "red" 897.3 0 0 0 0
13 51 "right" 2 2 1 206 "waaier" "beker" "word" "phonological" "unrelated" "waaier" "green" "beker_red.bmp" "red" 919.3 0 0 0 0
13 52 "left" 1 1 1 307 "tafel" "taco" "word" "phonological" "related" "tafel" "green" "taco_red.bmp" "red" 812.3 0 0 0 0
13 53 "right" 2 2 1 849 "kogel" "rugzak" "pic" "phonological" "unrelated" "rugzak" "red" "kogel_green.bmp" "green" 1575.3 0 1 0 1
13 54 "right" 2 2 1 432 "taco" "zegel" "pic" "phonological" "unrelated" "zegel" "red" "taco_green.bmp" "green" 1047.3 0 0 0 0
13 55 "right" 2 2 1 222 "beitel" "bureau" "word" "semantic" "unrelated" "beitel" "green" "bureau_red.bmp" "red" 975.3 0 0 0 0
13 56 "left" 1 1 1 320 "cirkel" "circus" "pic" "phonological" "related" "circus" "red" "cirkel_green.bmp" "green" 1384.3 0 0 0 0
13 57 "right" 2 2 1 544 "bezem" "beker" "pic" "phonological" "related" "beker" "red" "bezem_green.bmp" "green" 1061.3 0 0 0 0
13 58 "left" 1 1 1 269 "auto" "konijn" "pic" "semantic" "unrelated" "konijn" "red" "auto_green.bmp" "green" 1152.3 0 0 0 0
13 59 "left" 1 1 1 505 "fabriek" "molen" "pic" "semantic" "related" "molen" "red" "fabriek_green.bmp" "green" 1101.3 0 0 0 0
13 60 "right" 2 2 1 241 "zegel" "taco" "word" "phonological" "unrelated" "zegel" "green" "taco_red.bmp" "red" 1214.3 0 0 0 0
13 61 "right" 2 2 1 321 "bureau" "beitel" "word" "semantic" "unrelated" "bureau" "green" "beitel_red.bmp" "red" 888.3 0 0 0 0
13 62 "right" 2 2 1 308 "taco" "tafel" "pic" "phonological" "related" "tafel" "red" "taco_green.bmp" "green" 1340.3 0 0 0 0
13 63 "right" 2 2 1 287 "fabriek" "molen" "word" "semantic" "related" "fabriek" "green" "molen_red.bmp" "red" 996.3 0 0 0 0
13 64 "right" 2 2 1 434 "lelie" "lepel" "word" "phonological" "related" "lelie" "green" "lepel_red.bmp" "red" 795.3 0 0 0 0
13 65 "left" 1 1 1 168 "zebra" "tafel" "pic" "phonological" "unrelated" "tafel" "red" "zebra_green.bmp" "green" 1193.3 0 0 0 0
13 66 "right" 2 2 1 272 "hamer" "beitel" "pic" "semantic" "related" "beitel" "red" "hamer_green.bmp" "green" 1173.3 0 0 0 0
13 67 "left" 1 1 1 286 "lepel" "kano" "pic" "phonological" "unrelated" "kano" "red" "lepel_green.bmp" "green" 974.3 0 0 0 0
13 68 "right" 2 2 1 309 "rugby" "koning" "word" "phonological" "unrelated" "rugby" "green" "koning_red.bmp" "red" 744.3 0 0 0 0
13 69 "right" 2 2 1 126 "sandaal" "appel" "word" "semantic" "unrelated" "sandaal" "green" "appel_red.bmp" "red" 759.3 0 0 0 0
13 70 "right" 2 2 1 182 "molen" "fabriek" "pic" "semantic" "related" "fabriek" "red" "molen_green.bmp" "green" 1298.3 0 0 0 0
13 71 "right" 2 2 1 431 "konijn" "auto" "pic" "semantic" "unrelated" "auto" "red" "konijn_green.bmp" "green" 1358.3 0 0 0 0
13 72 "left" 1 1 1 329 "trompet" "vulpen" "pic" "semantic" "unrelated" "vulpen" "red" "trompet_green.bmp" "green" 1224.3 0 0 0 0
13 73 "right" 2 2 1 115 "cello" "potlood" "pic" "semantic" "unrelated" "potlood" "red" "cello_green.bmp" "green" 1122.3 0 0 0 0
13 74 "right" 2 2 1 119 "circus" "cirkel" "pic" "phonological" "related" "cirkel" "red" "circus_green.bmp" "green" 1050.3 0 0 0 0
13 75 "left" 1 1 1 205 "wapen" "waaier" "pic" "phonological" "related" "waaier" "red" "wapen_green.bmp" "green" 905.3 0 0 0 0
13 76 "left" 1 1 1 88 "cello" "trompet" "pic" "semantic" "related" "trompet" "red" "cello_green.bmp" "green" 836.3 0 0 0 0
13 77 "left" 1 1 1 283 "zegel" "zebra" "pic" "phonological" "related" "zebra" "red" "zegel_green.bmp" "green" 962.3 0 0 0 0
13 78 "left" 1 1 1 244 "koning" "rugby" "pic" "phonological" "unrelated" "rugby" "red" "koning_green.bmp" "green" 892.3 0 0 0 0
13 79 "left" 1 1 1 256 "lepel" "kano" "word" "phonological" "unrelated" "lepel" "green" "kano_red.bmp" "red" 965.3 0 0 0 0
13 80 "right" 2 2 1 639 "auto" "vliegtuig" "word" "semantic" "related" "auto" "green" "vliegtuig_red.bmp" "red" 943.3 0 0 0 0
13 81 "left" 1 1 1 539 "lepel" "lelie" "word" "phonological" "related" "lepel" "green" "lelie_red.bmp" "red" 914.3 0 0 0 0
13 82 "right" 2 2 1 382 "sandaal" "zwemvlies" "word" "semantic" "related" "sandaal" "green" "zwemvlies_red.bmp" "red" 749.3 0 0 0 0
13 83 "right" 2 2 1 296 "kano" "kabel" "word" "phonological" "related" "kano" "green" "kabel_red.bmp" "red" 735.3 0 0 0 0
13 84 "right" 2 2 1 454 "rugzak" "kogel" "pic" "phonological" "unrelated" "kogel" "red" "rugzak_green.bmp" "green" 1046.3 0 0 0 0
13 85 "left" 1 1 1 168 "bezem" "wapen" "pic" "phonological" "unrelated" "wapen" "red" "bezem_green.bmp" "green" 1069.3 0 0 0 0
13 86 "right" 2 2 1 606 "cirkel" "totem" "word" "phonological" "unrelated" "cirkel" "green" "totem_red.bmp" "red" 865.3 0 0 0 0
13 87 "right" 2 2 1 394 "rugzak" "rugby" "word" "phonological" "related" "rugzak" "green" "rugby_red.bmp" "red" 585.3 0 0 0 0
13 88 "left" 1 1 1 379 "zetel" "bureau" "pic" "semantic" "related" "bureau" "red" "zetel_green.bmp" "green" 1281.3 0 0 0 0
13 89 "right" 2 2 1 253 "rugby" "rugzak" "word" "phonological" "related" "rugby" "green" "rugzak_red.bmp" "red" 755.3 0 0 0 0
13 90 "left" 1 1 1 445 "appel" "sandaal" "pic" "semantic" "unrelated" "sandaal" "red" "appel_green.bmp" "green" 1695.3 0 1 0 1
13 91 "right" 2 2 1 564 "kogel" "koning" "pic" "phonological" "related" "koning" "red" "kogel_green.bmp" "green" 1234.3 0 0 0 0
13 92 "right" 2 2 1 1253 "kabel" "lelie" "word" "phonological" "unrelated" "kabel" "green" "lelie_red.bmp" "red" 1052.3 0 0 0 0
13 93 "left" 1 1 1 121 "trompet" "vulpen" "word" "semantic" "unrelated" "trompet" "green" "vulpen_red.bmp" "red" 720.3 0 0 0 0
13 94 "left" 1 1 1 443 "pistool" "kanon" "pic" "semantic" "related" "kanon" "red" "pistool_green.bmp" "green" 1713.3 0 0 0 0
13 95 "right" 2 2 1 395 "toren" "totem" "word" "phonological" "related" "toren" "green" "totem_red.bmp" "red" 747.3 0 0 0 0
13 96 "left" 1 1 1 482 "banaan" "appel" "word" "semantic" "related" "banaan" "green" "appel_red.bmp" "red" 1060.3 0 0 0 0
13 97 "right" 2 2 1 159 "kano" "lepel" "word" "phonological" "unrelated" "kano" "green" "lepel_red.bmp" "red" 700.3 0 0 0 0
13 98 "left" 1 1 1 168 "potlood" "cello" "word" "semantic" "unrelated" "potlood" "green" "cello_red.bmp" "red" 797.3 0 0 0 0
13 99 "right" 2 2 1 326 "zebra" "zegel" "pic" "phonological" "related" "zegel" "red" "zebra_green.bmp" "green" 879.3 0 0 0 0
13 100 "right" 2 2 1 357 "rugzak" "kogel" "word" "phonological" "unrelated" "rugzak" "green" "kogel_red.bmp" "red" 569.3 0 0 0 0
13 101 "right" 2 2 1 286 "pistool" "molen" "word" "semantic" "unrelated" "pistool" "green" "molen_red.bmp" "red" 960.3 0 0 0 0
13 102 "right" 2 2 1 218 "potlood" "cello" "pic" "semantic" "unrelated" "cello" "red" "potlood_green.bmp" "green" 1121.3 0 0 0 0
13 103 "right" 2 2 1 258 "totem" "cirkel" "pic" "phonological" "unrelated" "cirkel" "red" "totem_green.bmp" "green" 857.3 0 0 0 0
13 104 "left" 1 1 1 345 "lelie" "lepel" "pic" "phonological" "related" "lepel" "red" "lelie_green.bmp" "green" 1305.3 0 0 0 0
13 105 "right" 2 2 1 216 "kano" "kabel" "pic" "phonological" "related" "kabel" "red" "kano_green.bmp" "green" 973.3 0 0 0 0
13 106 "right" 2 2 1 192 "zebra" "zegel" "word" "phonological" "related" "zebra" "green" "zegel_red.bmp" "red" 888.3 0 0 0 0
13 107 "left" 1 1 1 338 "kano" "lepel" "pic" "phonological" "unrelated" "lepel" "red" "kano_green.bmp" "green" 803.3 0 0 0 0
13 108 "right" 2 2 1 420 "toren" "circus" "pic" "phonological" "unrelated" "circus" "red" "toren_green.bmp" "green" 1185.3 0 0 0 0
13 109 "left" 1 1 1 180 "appel" "sandaal" "word" "semantic" "unrelated" "appel" "green" "sandaal_red.bmp" "red" 773.3 0 0 0 0
13 110 "right" 2 2 1 448 "zegel" "zebra" "word" "phonological" "related" "zegel" "green" "zebra_red.bmp" "red" 909.3 0 0 0 0
13 111 "right" 2 2 1 289 "vliegtuig" "schildpad" "word" "semantic" "unrelated" "vliegtuig" "green" "schildpad_red.bmp" "red" 750.3 0 0 0 0
13 112 "left" 1 1 1 277 "beker" "bezem" "word" "phonological" "related" "beker" "green" "bezem_red.bmp" "red" 684.3 0 0 0 0
13 113 "right" 2 2 1 630 "beitel" "hamer" "pic" "semantic" "related" "hamer" "red" "beitel_green.bmp" "green" 865.3 0 0 0 0
13 114 "left" 1 1 1 477 "konijn" "schildpad" "pic" "semantic" "related" "schildpad" "red" "konijn_green.bmp" "green" 941.3 0 0 0 0
13 115 "left" 1 1 1 233 "molen" "pistool" "word" "semantic" "unrelated" "molen" "green" "pistool_red.bmp" "red" 621.3 0 0 0 0
13 116 "right" 2 2 1 439 "kabel" "kano" "pic" "phonological" "related" "kano" "red" "kabel_green.bmp" "green" 838.3 0 0 0 0
13 117 "right" 2 2 1 298 "bureau" "zetel" "pic" "semantic" "related" "zetel" "red" "bureau_green.bmp" "green" 873.3 0 0 0 0
13 118 "left" 1 1 1 188 "cirkel" "totem" "pic" "phonological" "unrelated" "totem" "red" "cirkel_green.bmp" "green" 945.3 0 0 0 0
13 119 "left" 1 1 1 203 "wapen" "bezem" "pic" "phonological" "unrelated" "bezem" "red" "wapen_green.bmp" "green" 848.3 0 0 0 0
13 120 "left" 1 1 1 512 "pistool" "molen" "pic" "semantic" "unrelated" "molen" "red" "pistool_green.bmp" "green" 1370.3 0 0 0 0
13 121 "right" 2 2 1 721 "beker" "waaier" "word" "phonological" "unrelated" "beker" "green" "waaier_red.bmp" "red" 618.3 0 0 0 0
13 122 "right" 2 2 1 585 "tafel" "zebra" "pic" "phonological" "unrelated" "zebra" "red" "tafel_green.bmp" "green" 1169.3 0 0 0 0
13 123 "right" 2 2 1 407 "sandaal" "appel" "pic" "semantic" "unrelated" "appel" "red" "sandaal_green.bmp" "green" 1176.3 0 0 0 0
13 124 "right" 2 2 1 477 "beitel" "hamer" "word" "semantic" "related" "beitel" "green" "hamer_red.bmp" "red" 899.3 0 0 0 0
13 125 "left" 1 1 1 486 "kabel" "lelie" "pic" "phonological" "unrelated" "lelie" "red" "kabel_green.bmp" "green" 845.3 0 0 0 0
13 126 "right" 2 2 1 218 "cello" "trompet" "word" "semantic" "related" "cello" "green" "trompet_red.bmp" "red" 751.3 0 0 0 0
13 127 "left" 1 1 1 357 "appel" "banaan" "pic" "semantic" "related" "banaan" "red" "appel_green.bmp" "green" 908.3 0 0 0 0
13 128 "right" 2 2 1 531 "zetel" "hamer" "pic" "semantic" "unrelated" "hamer" "red" "zetel_green.bmp" "green" 1068.3 0 0 0 0
13 129 "left" 1 1 1 195 "banaan" "appel" "pic" "semantic" "related" "appel" "red" "banaan_green.bmp" "green" 955.3 0 0 0 0
13 130 "left" 1 1 1 393 "toren" "circus" "word" "phonological" "unrelated" "toren" "green" "circus_red.bmp" "red" 741.3 0 0 0 0
13 131 "right" 2 2 1 203 "lelie" "kabel" "pic" "phonological" "unrelated" "kabel" "red" "lelie_green.bmp" "green" 1091.3 0 0 0 0
13 132 "left" 1 1 1 306 "rugzak" "rugby" "pic" "phonological" "related" "rugby" "red" "rugzak_green.bmp" "green" 1152.3 0 0 0 0
13 133 "right" 2 2 1 237 "sandaal" "zwemvlies" "pic" "semantic" "related" "zwemvlies" "red" "sandaal_green.bmp" "green" 1544.3 0 0 0 0
13 134 "right" 2 2 1 458 "toren" "totem" "pic" "phonological" "related" "totem" "red" "toren_green.bmp" "green" 798.3 0 0 0 0
13 135 "left" 1 1 1 245 "trompet" "cello" "pic" "semantic" "related" "cello" "red" "trompet_green.bmp" "green" 1275.3 0 0 0 0
13 136 "left" 1 1 1 149 "vliegtuig" "auto" "pic" "semantic" "related" "auto" "red" "vliegtuig_green.bmp" "green" 1204.3 0 0 0 0
13 137 "right" 2 2 1 242 "kogel" "koning" "word" "phonological" "related" "kogel" "green" "koning_red.bmp" "red" 520.3 0 0 0 0
13 138 "left" 1 1 1 261 "kabel" "kano" "word" "phonological" "related" "kabel" "green" "kano_red.bmp" "red" 615.3 0 0 0 0
13 139 "left" 1 1 1 294 "bureau" "beitel" "pic" "semantic" "unrelated" "beitel" "red" "bureau_green.bmp" "green" 1360.3 0 0 0 0
13 140 "right" 2 2 1 289 "vliegtuig" "schildpad" "pic" "semantic" "unrelated" "schildpad" "red" "vliegtuig_green.bmp" "green" 1040.3 0 0 0 0
13 141 "right" 2 2 1 478 "taco" "tafel" "word" "phonological" "related" "taco" "green" "tafel_red.bmp" "red" 765.3 0 0 0 0
13 142 "right" 2 2 1 225 "zwemvlies" "banaan" "pic" "semantic" "unrelated" "banaan" "red" "zwemvlies_green.bmp" "green" 1024.3 0 0 0 0
13 143 "right" 2 2 1 517 "wapen" "waaier" "word" "phonological" "related" "wapen" "green" "waaier_red.bmp" "red" 771.3 0 0 0 0
13 144 "right" 2 2 1 172 "vulpen" "trompet" "word" "semantic" "unrelated" "vulpen" "green" "trompet_red.bmp" "red" 692.3 0 0 0 0
13 145 "left" 1 1 1 355 "schildpad" "vliegtuig" "word" "semantic" "unrelated" "schildpad" "green" "vliegtuig_red.bmp" "red" 762.3 0 0 0 0
13 146 "left" 1 1 1 542 "bezem" "wapen" "word" "phonological" "unrelated" "bezem" "green" "wapen_red.bmp" "red" 599.3 0 0 0 0
13 147 "left" 1 1 1 283 "kanon" "pistool" "word" "semantic" "related" "kanon" "green" "pistool_red.bmp" "red" 665.3 0 0 0 0
13 148 "right" 2 2 1 364 "koning" "kogel" "word" "phonological" "related" "koning" "green" "kogel_red.bmp" "red" 641.3 0 0 0 0
13 149 "left" 1 1 1 349 "vulpen" "potlood" "pic" "semantic" "related" "potlood" "red" "vulpen_green.bmp" "green" 1273.3 0 0 0 0
13 150 "left" 1 1 1 449 "totem" "cirkel" "word" "phonological" "unrelated" "totem" "green" "cirkel_red.bmp" "red" 675.3 0 0 0 0
13 151 "left" 1 1 1 559 "molen" "pistool" "pic" "semantic" "unrelated" "pistool" "red" "molen_green.bmp" "green" 1033.3 0 0 0 0
13 152 "left" 1 1 1 585 "totem" "toren" "pic" "phonological" "related" "toren" "red" "totem_green.bmp" "green" 1092.3 0 0 0 0
13 153 "left" 1 1 1 460 "lelie" "kabel" "word" "phonological" "unrelated" "lelie" "green" "kabel_red.bmp" "red" 650.3 0 0 0 0
13 154 "left" 1 1 1 427 "circus" "toren" "word" "phonological" "unrelated" "circus" "green" "toren_red.bmp" "red" 697.3 0 0 0 0
13 155 "left" 1 1 1 413 "hamer" "zetel" "pic" "semantic" "unrelated" "zetel" "red" "hamer_green.bmp" "green" 946.3 0 0 0 0
13 156 "right" 2 1 0 361 "circus" "cirkel" "word" "phonological" "related" "circus" "green" "cirkel_red.bmp" "red" 759.3 0 0 0 0
13 157 "left" 1 1 1 228 "appel" "banaan" "word" "semantic" "related" "appel" "green" "banaan_red.bmp" "red" 709.3 0 0 0 0
13 158 "right" 2 2 1 414 "lepel" "lelie" "pic" "phonological" "related" "lelie" "red" "lepel_green.bmp" "green" 814.3 0 0 0 0
13 159 "left" 1 1 1 246 "kogel" "rugzak" "word" "phonological" "unrelated" "kogel" "green" "rugzak_red.bmp" "red" 684.3 0 0 0 0
13 160 "right" 2 2 1 306 "fabriek" "kanon" "pic" "semantic" "unrelated" "kanon" "red" "fabriek_green.bmp" "green" 832.3 0 0 0 0
14 1 "left" 1 1 1 1175 "beker" "bezem" "word" "phonological" "related" "beker" "green" "bezem_red.bmp" "red" 1802.3 0 0 0 0
14 2 "right" 2 2 1 353 "toren" "totem" "word" "phonological" "related" "toren" "green" "totem_red.bmp" "red" 1075.3 0 0 0 0
14 3 "right" 2 2 1 986 "sandaal" "appel" "pic" "semantic" "unrelated" "appel" "red" "sandaal_green.bmp" "green" 1608.3 0 0 0 0
14 4 "right" 2 2 1 452 "kanon" "fabriek" "word" "semantic" "unrelated" "kanon" "green" "fabriek_red.bmp" "red" 969.3 0 0 0 0
14 5 "right" 2 2 1 495 "hamer" "zetel" "pic" "semantic" "unrelated" "zetel" "red" "hamer_green.bmp" "green" 1559.3 0 0 1 1
14 6 "left" 1 1 1 332 "vulpen" "potlood" "pic" "semantic" "related" "potlood" "red" "vulpen_green.bmp" "green" 3449.3 1 0 0 1
14 7 "right" 2 2 1 251 "lepel" "lelie" "pic" "phonological" "related" "lelie" "red" "lepel_green.bmp" "green" 1266.3 0 0 0 0
14 8 "right" 2 2 1 128 "banaan" "appel" "pic" "semantic" "related" "appel" "red" "banaan_green.bmp" "green" 898.3 0 0 0 0
14 9 "right" 2 2 1 187 "cello" "trompet" "pic" "semantic" "related" "trompet" "red" "cello_green.bmp" "green" 1115.3 0 0 0 0
14 10 "right" 2 2 1 163 "bureau" "zetel" "word" "semantic" "related" "bureau" "green" "zetel_red.bmp" "red" 1201.3 1 0 0 1
14 11 "right" 2 2 1 592 "beker" "waaier" "pic" "phonological" "unrelated" "waaier" "red" "beker_green.bmp" "green" 1819.3 0 0 0 0
14 12 "left" 1 1 1 517 "rugby" "koning" "pic" "phonological" "unrelated" "koning" "red" "rugby_green.bmp" "green" 1420.3 0 0 0 0
14 13 "left" 1 1 1 73 "kabel" "lelie" "pic" "phonological" "unrelated" "lelie" "red" "kabel_green.bmp" "green" 1182.3 0 0 0 0
14 14 "right" 2 2 1 332 "zetel" "hamer" "word" "semantic" "unrelated" "zetel" "green" "hamer_red.bmp" "red" 1429.3 0 0 0 0
14 15 "left" 1 1 1 353 "totem" "toren" "word" "phonological" "related" "totem" "green" "toren_red.bmp" "red" 949.3 0 0 0 0
14 16 "right" 2 2 1 507 "rugby" "koning" "word" "phonological" "unrelated" "rugby" "green" "koning_red.bmp" "red" 912.3 0 0 0 0
14 17 "right" 2 2 1 136 "schildpad" "vliegtuig" "pic" "semantic" "unrelated" "vliegtuig" "red" "schildpad_green.bmp" "green" 1006.3 0 0 0 0
14 18 "left" 1 1 1 650 "taco" "zegel" "pic" "phonological" "unrelated" "zegel" "red" "taco_green.bmp" "green" 1217.3 0 0 0 0
14 19 "right" 2 2 1 181 "schildpad" "konijn" "word" "semantic" "related" "schildpad" "green" "konijn_red.bmp" "red" 844.3 0 0 0 0
14 20 "left" 1 1 1 465 "circus" "cirkel" "pic" "phonological" "related" "cirkel" "red" "circus_green.bmp" "green" 1043.3 0 0 0 0
14 21 "right" 2 2 1 187 "konijn" "schildpad" "word" "semantic" "related" "konijn" "green" "schildpad_red.bmp" "red" 999.3 0 0 0 0
14 22 "right" 2 2 1 78 "zebra" "tafel" "pic" "phonological" "unrelated" "tafel" "red" "zebra_green.bmp" "green" 978.3 0 0 0 0
14 23 "left" 1 1 1 157 "schildpad" "konijn" "pic" "semantic" "related" "konijn" "red" "schildpad_green.bmp" "green" 1000.3 0 0 0 0
14 24 "right" 2 2 1 280 "molen" "fabriek" "pic" "semantic" "related" "fabriek" "red" "molen_green.bmp" "green" 1229.3 0 0 0 0
14 25 "left" 1 1 1 261 "auto" "vliegtuig" "pic" "semantic" "related" "vliegtuig" "red" "auto_green.bmp" "green" 1044.3 0 0 0 0
14 26 "right" 2 2 1 106 "cello" "trompet" "word" "semantic" "related" "cello" "green" "trompet_red.bmp" "red" 804.3 0 0 0 0
14 27 "right" 2 2 1 843 "kabel" "lelie" "word" "phonological" "unrelated" "kabel" "green" "lelie_red.bmp" "red" 774.3 0 0 0 0
14 28 "right" 2 2 1 590 "wapen" "waaier" "word" "phonological" "related" "wapen" "green" "waaier_red.bmp" "red" 805.3 0 0 0 0
14 29 "left" 1 1 1 439 "tafel" "taco" "word" "phonological" "related" "tafel" "green" "taco_red.bmp" "red" 809.3 0 0 0 0
14 30 "right" 2 2 1 20 "trompet" "vulpen" "pic" "semantic" "unrelated" "vulpen" "red" "trompet_green.bmp" "green" 1365.3 0 0 0 0
14 31 "right" 2 2 1 554 "vliegtuig" "schildpad" "pic" "semantic" "unrelated" "schildpad" "red" "vliegtuig_green.bmp" "green" 1112.3 0 0 0 0
14 32 "left" 1 1 1 240 "beitel" "hamer" "word" "semantic" "related" "beitel" "green" "hamer_red.bmp" "red" 991.3 0 0 0 0
14 33 "left" 1 1 1 224 "zebra" "zegel" "word" "phonological" "related" "zebra" "green" "zegel_red.bmp" "red" 888.3 0 0 0 0
14 34 "left" 1 1 1 299 "kano" "lepel" "pic" "phonological" "unrelated" "lepel" "red" "kano_green.bmp" "green" 1699.3 0 0 0 0
14 35 "right" 2 2 1 252 "kogel" "koning" "word" "phonological" "related" "kogel" "green" "koning_red.bmp" "red" 799.3 0 0 0 0
14 36 "right" 2 2 1 401 "lelie" "kabel" "word" "phonological" "unrelated" "lelie" "green" "kabel_red.bmp" "red" 911.3 0 0 0 0
14 37 "right" 2 2 1 353 "toren" "circus" "pic" "phonological" "unrelated" "circus" "red" "toren_green.bmp" "green" 1024.3 0 0 0 0
14 38 "right" 2 2 1 425 "vliegtuig" "auto" "pic" "semantic" "related" "auto" "red" "vliegtuig_green.bmp" "green" 905.3 0 0 0 0
14 39 "right" 2 2 1 444 "wapen" "waaier" "pic" "phonological" "related" "waaier" "red" "wapen_green.bmp" "green" 1459.3 0 0 0 0
14 40 "right" 2 2 1 311 "sandaal" "appel" "word" "semantic" "unrelated" "sandaal" "green" "appel_red.bmp" "red" 1561.3 0 0 0 0
14 41 "left" 1 1 1 163 "cirkel" "circus" "pic" "phonological" "related" "circus" "red" "cirkel_green.bmp" "green" 1191.3 0 0 0 0
14 42 "left" 1 1 1 296 "kogel" "rugzak" "pic" "phonological" "unrelated" "rugzak" "red" "kogel_green.bmp" "green" 2003.3 0 0 0 0
14 43 "right" 2 2 1 213 "vulpen" "trompet" "word" "semantic" "unrelated" "vulpen" "green" "trompet_red.bmp" "red" 868.3 0 0 0 0
14 44 "right" 2 2 1 170 "beitel" "bureau" "word" "semantic" "unrelated" "beitel" "green" "bureau_red.bmp" "red" 815.3 0 0 0 0
14 45 "left" 1 1 1 697 "taco" "zegel" "word" "phonological" "unrelated" "taco" "green" "zegel_red.bmp" "red" 955.3 0 0 0 0
14 46 "left" 1 1 1 89 "tafel" "zebra" "pic" "phonological" "unrelated" "zebra" "red" "tafel_green.bmp" "green" 1047.3 0 0 0 0
14 47 "right" 2 1 0 1190 "appel" "banaan" "pic" "semantic" "related" "banaan" "red" "appel_green.bmp" "green" 1227.3 0 0 0 0
14 48 "left" 1 1 1 348 "auto" "vliegtuig" "word" "semantic" "related" "auto" "green" "vliegtuig_red.bmp" "red" 772.3 0 0 0 0
14 49 "right" 2 2 1 50 "kanon" "pistool" "pic" "semantic" "related" "pistool" "red" "kanon_green.bmp" "green" 1527.3 0 0 0 0
14 50 "left" 1 1 1 352 "trompet" "vulpen" "word" "semantic" "unrelated" "trompet" "green" "vulpen_red.bmp" "red" 1237.3 0 0 0 0
14 51 "right" 2 2 1 97 "taco" "tafel" "pic" "phonological" "related" "tafel" "red" "taco_green.bmp" "green" 818.3 0 0 0 0
14 52 "left" 1 1 1 134 "wapen" "bezem" "pic" "phonological" "unrelated" "bezem" "red" "wapen_green.bmp" "green" 962.3 0 0 0 0
14 53 "left" 1 1 1 102 "zwemvlies" "banaan" "word" "semantic" "unrelated" "zwemvlies" "green" "banaan_red.bmp" "red" 958.3 0 0 0 0
14 54 "right" 2 2 1 102 "totem" "cirkel" "pic" "phonological" "unrelated" "cirkel" "red" "totem_green.bmp" "green" 1033.3 0 0 0 0
14 55 "right" 2 2 1 304 "kano" "lepel" "word" "phonological" "unrelated" "kano" "green" "lepel_red.bmp" "red" 772.3 0 0 0 0
14 56 "left" 1 1 1 435 "potlood" "cello" "pic" "semantic" "unrelated" "cello" "red" "potlood_green.bmp" "green" 1095.3 0 0 0 0
14 57 "right" 2 2 1 194 "zetel" "hamer" "pic" "semantic" "unrelated" "hamer" "red" "zetel_green.bmp" "green" 2286.3 0 0 0 0
14 58 "right" 2 2 1 307 "zebra" "tafel" "word" "phonological" "unrelated" "zebra" "green" "tafel_red.bmp" "red" 752.3 0 0 0 0
14 59 "left" 1 1 1 127 "bureau" "beitel" "pic" "semantic" "unrelated" "beitel" "red" "bureau_green.bmp" "green" 1204.3 0 0 0 0
14 60 "left" 1 1 1 459 "lelie" "lepel" "pic" "phonological" "related" "lepel" "red" "lelie_green.bmp" "green" 1047.3 0 0 0 0
14 61 "left" 1 1 1 74 "cirkel" "totem" "word" "phonological" "unrelated" "cirkel" "green" "totem_red.bmp" "red" 1040.3 0 0 0 0
14 62 "right" 2 2 1 64 "rugzak" "kogel" "pic" "phonological" "unrelated" "kogel" "red" "rugzak_green.bmp" "green" 1191.3 0 0 0 0
14 63 "right" 2 2 1 140 "sandaal" "zwemvlies" "pic" "semantic" "related" "zwemvlies" "red" "sandaal_green.bmp" "green" 980.3 0 0 0 0
14 64 "right" 2 2 1 188 "fabriek" "molen" "word" "semantic" "related" "fabriek" "green" "molen_red.bmp" "red" 1303.3 0 0 0 0
14 65 "left" 1 1 1 161 "bezem" "wapen" "word" "phonological" "unrelated" "bezem" "green" "wapen_red.bmp" "red" 885.3 0 0 0 0
14 66 "right" 2 2 1 25 "hamer" "zetel" "word" "semantic" "unrelated" "hamer" "green" "zetel_red.bmp" "red" 748.3 0 0 0 0
14 67 "left" 1 1 1 715 "banaan" "appel" "word" "semantic" "related" "banaan" "green" "appel_red.bmp" "red" 7690.3 0 0 1 1
14 68 "left" 1 1 1 687 "kogel" "koning" "pic" "phonological" "related" "koning" "red" "kogel_green.bmp" "green" 1428.3 0 0 0 0
14 69 "right" 2 2 1 102 "banaan" "zwemvlies" "word" "semantic" "unrelated" "banaan" "green" "zwemvlies_red.bmp" "red" 1288.3 0 0 0 0
14 70 "left" 1 1 1 226 "bezem" "wapen" "pic" "phonological" "unrelated" "wapen" "red" "bezem_green.bmp" "green" 1152.3 0 0 0 0
14 71 "right" 2 1 0 400 "vliegtuig" "auto" "word" "semantic" "related" "vliegtuig" "green" "auto_red.bmp" "red" 1183.3 0 0 0 0
14 72 "right" 2 2 1 274 "lepel" "kano" "pic" "phonological" "unrelated" "kano" "red" "lepel_green.bmp" "green" 1096.3 0 0 0 0
14 73 "right" 2 2 1 139 "rugzak" "rugby" "word" "phonological" "related" "rugzak" "green" "rugby_red.bmp" "red" 847.3 0 0 0 0
14 74 "left" 1 1 1 8 "totem" "cirkel" "word" "phonological" "unrelated" "totem" "green" "cirkel_red.bmp" "red" 994.3 0 0 0 0
14 75 "right" 2 2 1 178 "circus" "toren" "pic" "phonological" "unrelated" "toren" "red" "circus_green.bmp" "green" 1324.3 0 0 0 0
14 76 "right" 2 2 1 144 "molen" "fabriek" "word" "semantic" "related" "molen" "green" "fabriek_red.bmp" "red" 1016.3 0 0 0 0
14 77 "right" 2 1 0 747 "cello" "potlood" "word" "semantic" "unrelated" "cello" "green" "potlood_red.bmp" "red" 860.3 0 0 0 0
14 78 "left" 1 1 1 220 "kabel" "kano" "pic" "phonological" "related" "kano" "red" "kabel_green.bmp" "green" 1026.3 0 0 0 0
14 79 "left" 1 1 1 304 "kanon" "fabriek" "pic" "semantic" "unrelated" "fabriek" "red" "kanon_green.bmp" "green" 1919.3 0 0 0 0
14 80 "right" 2 2 1 84 "potlood" "vulpen" "word" "semantic" "related" "potlood" "green" "vulpen_red.bmp" "red" 989.3 0 0 0 0
14 81 "right" 2 2 1 518 "beitel" "bureau" "pic" "semantic" "unrelated" "bureau" "red" "beitel_green.bmp" "green" 1175.3 0 0 0 0
14 82 "left" 1 1 1 263 "bezem" "beker" "pic" "phonological" "related" "beker" "red" "bezem_green.bmp" "green" 938.3 0 0 0 0
14 83 "right" 2 2 1 182 "taco" "tafel" "word" "phonological" "related" "taco" "green" "tafel_red.bmp" "red" 1351.3 0 0 0 0
14 84 "left" 1 1 1 608 "hamer" "beitel" "word" "semantic" "related" "hamer" "green" "beitel_red.bmp" "red" 868.3 0 0 0 0
14 85 "left" 1 1 1 124 "kanon" "pistool" "word" "semantic" "related" "kanon" "green" "pistool_red.bmp" "red" 710.3 0 0 0 0
14 86 "right" 2 1 0 454 "auto" "konijn" "pic" "semantic" "unrelated" "konijn" "red" "auto_green.bmp" "green" 966.3 0 0 0 0
14 87 "right" 2 1 0 401 "appel" "sandaal" "pic" "semantic" "unrelated" "sandaal" "red" "appel_green.bmp" "green" 1497.3 0 0 0 0
14 88 "left" 1 1 1 107 "zetel" "bureau" "word" "semantic" "related" "zetel" "green" "bureau_red.bmp" "red" 1214.3 0 0 0 0
14 89 "left" 1 1 1 305 "toren" "circus" "word" "phonological" "unrelated" "toren" "green" "circus_red.bmp" "red" 1024.3 0 0 0 0
14 90 "left" 1 1 1 242 "fabriek" "molen" "pic" "semantic" "related" "molen" "red" "fabriek_green.bmp" "green" 3748.3 0 0 1 1
14 91 "left" 1 1 1 420 "hamer" "beitel" "pic" "semantic" "related" "beitel" "red" "hamer_green.bmp" "green" 1701.3 0 0 0 0
14 92 "left" 1 1 1 155 "koning" "kogel" "pic" "phonological" "related" "kogel" "red" "koning_green.bmp" "green" 1168.3 0 0 0 0
14 93 "left" 1 1 1 271 "banaan" "zwemvlies" "pic" "semantic" "unrelated" "zwemvlies" "red" "banaan_green.bmp" "green" 900.3 0 0 0 0
14 94 "left" 1 1 1 99 "circus" "cirkel" "word" "phonological" "related" "circus" "green" "cirkel_red.bmp" "red" 1589.3 0 0 0 0
14 95 "right" 2 1 0 1240 "schildpad" "vliegtuig" "word" "semantic" "unrelated" "schildpad" "green" "vliegtuig_red.bmp" "red" 1027.3 0 0 0 0
14 96 "right" 2 2 1 46 "bezem" "beker" "word" "phonological" "related" "bezem" "green" "beker_red.bmp" "red" 879.3 0 0 0 0
14 97 "left" 1 1 1 208 "waaier" "wapen" "word" "phonological" "related" "waaier" "green" "wapen_red.bmp" "red" 971.3 0 0 0 0
14 98 "left" 1 1 1 43 "circus" "toren" "word" "phonological" "unrelated" "circus" "green" "toren_red.bmp" "red" 820.3 0 0 0 0
14 99 "right" 2 1 0 453 "fabriek" "kanon" "pic" "semantic" "unrelated" "kanon" "red" "fabriek_green.bmp" "green" 1192.3 0 0 0 0
14 100 "left" 1 1 1 1380 "konijn" "auto" "word" "semantic" "unrelated" "konijn" "green" "auto_red.bmp" "red" 935.3 0 0 0 0
14 101 "left" 1 1 1 338 "zegel" "zebra" "word" "phonological" "related" "zegel" "green" "zebra_red.bmp" "red" 917.3 0 0 0 0
14 102 "right" 2 2 1 467 "cirkel" "circus" "word" "phonological" "related" "cirkel" "green" "circus_red.bmp" "red" 846.3 0 0 0 0
14 103 "right" 2 2 1 875 "beker" "waaier" "word" "phonological" "unrelated" "beker" "green" "waaier_red.bmp" "red" 796.3 0 0 0 0
14 104 "left" 1 1 1 473 "vulpen" "trompet" "pic" "semantic" "unrelated" "trompet" "red" "vulpen_green.bmp" "green" 2046.3 0 0 0 0
14 105 "right" 2 2 1 26 "tafel" "zebra" "word" "phonological" "unrelated" "tafel" "green" "zebra_red.bmp" "red" 1000.3 0 0 0 0
14 106 "left" 1 1 1 643 "zegel" "taco" "pic" "phonological" "unrelated" "taco" "red" "zegel_green.bmp" "green" 2002.3 0 0 0 0
14 107 "right" 2 2 1 186 "kogel" "rugzak" "word" "phonological" "unrelated" "kogel" "green" "rugzak_red.bmp" "red" 893.3 0 0 0 0
14 108 "right" 2 2 1 175 "bureau" "zetel" "pic" "semantic" "related" "zetel" "red" "bureau_green.bmp" "green" 1272.3 0 0 0 0
14 109 "right" 2 1 0 471 "kabel" "kano" "word" "phonological" "related" "kabel" "green" "kano_red.bmp" "red" 1074.3 0 0 0 0
14 110 "left" 1 1 1 270 "rugzak" "kogel" "word" "phonological" "unrelated" "rugzak" "green" "kogel_red.bmp" "red" 1020.3 0 0 0 0
14 111 "left" 1 1 1 209 "lelie" "kabel" "pic" "phonological" "unrelated" "kabel" "red" "lelie_green.bmp" "green" 1158.3 0 0 0 0
14 112 "left" 1 1 1 220 "waaier" "beker" "word" "phonological" "unrelated" "waaier" "green" "beker_red.bmp" "red" 1121.3 0 0 0 0
14 113 "left" 1 1 1 367 "pistool" "kanon" "word" "semantic" "related" "pistool" "green" "kanon_red.bmp" "red" 1121.3 0 0 0 0
14 114 "left" 1 1 1 234 "zegel" "taco" "word" "phonological" "unrelated" "zegel" "green" "taco_red.bmp" "red" 949.3 0 0 0 0
14 115 "right" 2 2 1 277 "fabriek" "kanon" "word" "semantic" "unrelated" "fabriek" "green" "kanon_red.bmp" "red" 1045.3 0 0 0 0
14 116 "right" 2 2 1 528 "auto" "konijn" "word" "semantic" "unrelated" "auto" "green" "konijn_red.bmp" "red" 882.3 0 0 0 0
14 117 "left" 1 1 1 151 "cirkel" "totem" "pic" "phonological" "unrelated" "totem" "red" "cirkel_green.bmp" "green" 932.3 0 0 0 0
14 118 "right" 2 2 1 222 "cello" "potlood" "pic" "semantic" "unrelated" "potlood" "red" "cello_green.bmp" "green" 1084.3 0 0 0 0
14 119 "right" 2 2 1 851 "lepel" "kano" "word" "phonological" "unrelated" "lepel" "green" "kano_red.bmp" "red" 903.3 0 0 0 0
14 120 "right" 2 1 0 656 "pistool" "kanon" "pic" "semantic" "related" "kanon" "red" "pistool_green.bmp" "green" 1369.3 0 0 0 0
14 121 "right" 2 2 1 820 "potlood" "vulpen" "pic" "semantic" "related" "vulpen" "red" "potlood_green.bmp" "green" 1608.3 0 0 0 0
14 122 "left" 1 1 1 272 "wapen" "bezem" "word" "phonological" "unrelated" "wapen" "green" "bezem_red.bmp" "red" 830.3 0 0 0 0
14 123 "left" 1 1 1 368 "zetel" "bureau" "pic" "semantic" "related" "bureau" "red" "zetel_green.bmp" "green" 1561.3 0 0 0 0
14 124 "right" 2 2 1 56 "rugby" "rugzak" "word" "phonological" "related" "rugby" "green" "rugzak_red.bmp" "red" 1058.3 0 0 0 0
14 125 "right" 2 2 1 105 "trompet" "cello" "pic" "semantic" "related" "cello" "red" "trompet_green.bmp" "green" 1334.3 0 0 0 0
14 126 "left" 1 1 1 383 "zebra" "zegel" "pic" "phonological" "related" "zegel" "red" "zebra_green.bmp" "green" 983.3 0 0 0 0
14 127 "right" 2 2 1 514 "zwemvlies" "banaan" "pic" "semantic" "unrelated" "banaan" "red" "zwemvlies_green.bmp" "green" 1577.3 0 0 0 0
14 128 "left" 1 1 1 485 "beker" "bezem" "pic" "phonological" "related" "bezem" "red" "beker_green.bmp" "green" 1034.3 0 0 0 0
14 129 "left" 1 1 1 601 "rugby" "rugzak" "pic" "phonological" "related" "rugzak" "red" "rugby_green.bmp" "green" 1394.3 0 0 0 0
14 130 "left" 1 1 1 393 "trompet" "cello" "word" "semantic" "related" "trompet" "green" "cello_red.bmp" "red" 1041.3 0 0 0 0
14 131 "right" 2 2 1 244 "totem" "toren" "pic" "phonological" "related" "toren" "red" "totem_green.bmp" "green" 1012.3 0 0 0 0
14 132 "left" 1 1 1 427 "molen" "pistool" "pic" "semantic" "unrelated" "pistool" "red" "molen_green.bmp" "green" 1823.3 0 0 0 0
14 133 "left" 1 1 1 148 "vulpen" "potlood" "word" "semantic" "related" "vulpen" "green" "potlood_red.bmp" "red" 728.3 0 0 0 0
14 134 "right" 2 2 1 396 "zwemvlies" "sandaal" "pic" "semantic" "related" "sandaal" "red" "zwemvlies_green.bmp" "green" 975.3 0 0 0 0
14 135 "right" 2 2 1 81 "rugzak" "rugby" "pic" "phonological" "related" "rugby" "red" "rugzak_green.bmp" "green" 1310.3 0 0 0 0
14 136 "right" 2 2 1 217 "zegel" "zebra" "pic" "phonological" "related" "zebra" "red" "zegel_green.bmp" "green" 1147.3 1 0 0 1
14 137 "left" 1 1 1 107 "kano" "kabel" "word" "phonological" "related" "kano" "green" "kabel_red.bmp" "red" 908.3 0 0 0 0
14 138 "right" 2 2 1 148 "pistool" "molen" "word" "semantic" "unrelated" "pistool" "green" "molen_red.bmp" "red" 1009.3 0 0 0 0
14 139 "right" 2 2 1 1114 "potlood" "cello" "word" "semantic" "unrelated" "potlood" "green" "cello_red.bmp" "red" 981.3 0 0 0 0
14 140 "right" 2 2 1 146 "waaier" "beker" "pic" "phonological" "unrelated" "beker" "red" "waaier_green.bmp" "green" 2442.3 0 0 0 0
14 141 "right" 2 2 1 132 "toren" "totem" "pic" "phonological" "related" "totem" "red" "toren_green.bmp" "green" 1213.3 0 0 0 0
14 142 "left" 1 1 1 229 "bureau" "beitel" "word" "semantic" "unrelated" "bureau" "green" "beitel_red.bmp" "red" 880.3 0 0 0 0
14 143 "left" 1 1 1 38 "vliegtuig" "schildpad" "word" "semantic" "unrelated" "vliegtuig" "green" "schildpad_red.bmp" "red" 1179.3 0 0 0 0
14 144 "left" 1 1 1 158 "konijn" "auto" "pic" "semantic" "unrelated" "auto" "red" "konijn_green.bmp" "green" 851.3 0 0 0 0
14 145 "right" 2 2 1 916 "koning" "rugby" "pic" "phonological" "unrelated" "rugby" "red" "koning_green.bmp" "green" 907.3 0 0 0 0
14 146 "right" 2 2 1 1355 "zwemvlies" "sandaal" "word" "semantic" "related" "zwemvlies" "green" "sandaal_red.bmp" "red" 1194.3 0 0 0 0
14 147 "right" 2 2 1 273 "beitel" "hamer" "pic" "semantic" "related" "hamer" "red" "beitel_green.bmp" "green" 995.3 0 0 0 0
