experiment,subject,uniqueID,block,trial,trial_cumulative,age,gender,color_cond_blocking,color_history,shape_type,set_size,distractor,rt,acc,target_orient,response_key,response_made,iti,target_color,target_item,distractor_item,target_X,target_Y,distractor_X,distractor_Y,item1_X,item1_Y,item2_X,item2_Y,item3_X,item3_Y,item4_X,item4_Y,item5_X,item5_Y,item6_X,item6_Y,item1_shape,item2_shape,item3_shape,item4_shape,item5_shape,item6_shape,item1_line,item2_line,item3_line,item4_line,item5_line,item6_line
1a,10,100144,1,1,1,22,F,NA,variable,heterogeneous,6,absent,NaN,0,horizontal,none,0,0.764700765609741,red,1,NaN,927.5,820.836477965032,NaN,NaN,927.5,820.836477965032,1055,600,927.5,379.163522034968,672.5,379.163522034968,545,600,672.5,820.836477965032,4,3,6,3,0,5,horizontal,vertical,horizontal,vertical,vertical,vertical
1a,10,100144,1,2,2,22,F,NA,variable,heterogeneous,3,absent,1.10205483436584,0,vertical,horizontal,1,0.835286808013916,green,3,NaN,692.232343256122,368.891514305654,NaN,NaN,653.738008730483,808.883771293693,1054.0296480134,622.224714400653,692.232343256122,368.891514305654,0,0,0,0,0,0,0,5,4,NaN,NaN,NaN,vertical,vertical,vertical,none,none,none
1a,10,100144,1,3,3,22,F,NA,variable,heterogeneous,3,present,NaN,0,vertical,none,0,0.835286808013916,red,3,2,593.700666434388,450.114760665419,1032.95409169886,496.282156015671,773.345241866748,853.60308331891,1032.95409169886,496.282156015671,593.700666434388,450.114760665419,0,0,0,0,0,0,3,0,4,NaN,NaN,NaN,horizontal,horizontal,vertical,none,none,none
1a,10,100144,1,4,4,22,F,NA,variable,heterogeneous,5,absent,1.80224394798279,1,horizontal,horizontal,1,1.05880927562714,red,1,NaN,782.212099195248,854.378832816255,NaN,NaN,782.212099195248,854.378832816255,1036.43188291453,695.524681321058,963.910840470068,404.658667004661,664.870587620533,383.747735480111,552.574589799621,661.690083377915,0,0,4,5,5,3,3,NaN,horizontal,vertical,horizontal,horizontal,horizontal,none
1a,10,100144,1,5,5,22,F,NA,variable,heterogeneous,6,absent,NaN,0,horizontal,none,0,0.988223233222961,red,2,NaN,989.501930496736,770.628304621509,NaN,NaN,746.982518841471,849.42763818712,989.501930496736,770.628304621509,1042.51941165526,521.200666434388,853.017481158529,350.57236181288,610.498069503264,429.371695378491,557.480588344736,678.799333565612,5,4,6,0,5,3,horizontal,horizontal,horizontal,horizontal,horizontal,horizontal
1a,10,100144,1,6,6,22,F,NA,variable,heterogeneous,4,absent,1.40411710739136,1,horizontal,horizontal,1,0.882344169616699,red,2,NaN,1008.88377129369,746.261991269517,NaN,NaN,653.738008730483,808.883771293693,1008.88377129369,746.261991269517,946.261991269517,391.116228706307,591.116228706307,453.738008730483,0,0,0,0,0,4,3,6,NaN,NaN,horizontal,horizontal,horizontal,horizontal,none,none
1a,10,100144,1,7,7,22,F,NA,variable,heterogeneous,5,absent,1.73248815536499,1,horizontal,horizontal,1,0.788229446411133,green,1,NaN,684.232422566416,827.206663668034,NaN,NaN,684.232422566416,827.206663668034,980.31222920257,780.31222920257,1027.20666366803,484.232422566416,760.109211414741,348.13947314824,548.13947314824,560.109211414741,0,0,4,0,3,5,6,NaN,horizontal,vertical,horizontal,vertical,horizontal,none
1a,10,100144,1,8,8,22,F,NA,variable,heterogeneous,5,present,0.951831102371216,1,vertical,vertical,1,1.02351625442505,green,5,4,548.874022981887,555.719714694933,764.510859255183,347.4816424709,680.284751489598,825.151636179026,977.137884467044,783.431649086356,1029.19248180629,488.215357568785,764.510859255183,347.4816424709,548.874022981887,555.719714694933,0,0,0,0,3,3,4,NaN,horizontal,vertical,vertical,horizontal,vertical,none
1a,10,100144,1,9,9,22,F,NA,variable,heterogeneous,3,present,1.29782485961914,1,horizontal,horizontal,1,0.929401531219482,red,1,2,980.31222920257,780.31222920257,865.998856501143,353.688914296288,980.31222920257,780.31222920257,865.998856501143,353.688914296288,553.688914296288,665.998856501143,0,0,0,0,0,0,4,6,0,NaN,NaN,NaN,horizontal,vertical,horizontal,none,none,none
1a,10,100144,1,10,10,22,F,NA,variable,heterogeneous,4,present,1.25231409072876,1,horizontal,horizontal,1,0.835286808013916,green,1,3,773.345241866748,853.60308331891,826.654758133252,346.39691668109,773.345241866748,853.60308331891,1053.60308331891,626.654758133252,826.654758133252,346.39691668109,546.39691668109,573.345241866748,0,0,0,0,4,5,0,6,NaN,NaN,horizontal,horizontal,vertical,horizontal,none,none
1a,10,100144,1,11,11,22,F,NA,variable,heterogeneous,5,absent,1.14482998847961,1,vertical,vertical,1,0.752936425209045,green,3,NaN,927.5,379.163522034968,NaN,NaN,826.654758133252,853.60308331891,1049.42763818712,653.017481158529,927.5,379.163522034968,629.371695378491,410.498069503264,567.045908301137,703.717843984329,0,0,5,3,4,3,5,NaN,horizontal,horizontal,vertical,vertical,horizontal,none
1a,10,100144,1,12,12,22,F,NA,variable,heterogeneous,4,absent,1.17326903343201,0,vertical,horizontal,1,1.05880927562714,red,3,NaN,878.799333565612,357.480588344736,NaN,NaN,721.200666434388,842.519411655264,1042.51941165526,678.799333565612,878.799333565612,357.480588344736,557.480588344736,521.200666434388,0,0,0,0,3,3,4,6,NaN,NaN,horizontal,horizontal,vertical,horizontal,none,none
1a,10,100144,1,13,13,22,F,NA,variable,heterogeneous,4,present,0.79827094078064,1,horizontal,horizontal,1,0.670586042404175,red,1,3,938.882953928832,813.860994826083,661.117046071168,386.139005173917,938.882953928832,813.860994826083,1013.86099482608,461.117046071168,661.117046071168,386.139005173917,586.139005173917,738.882953928832,0,0,0,0,4,6,0,3,NaN,NaN,horizontal,horizontal,vertical,horizontal,none,none
1a,10,100144,1,14,14,22,F,NA,variable,heterogeneous,3,present,1.05114221572876,1,horizontal,horizontal,1,1.05880927562714,red,3,2,557.480588344736,678.799333565612,853.017481158529,350.57236181288,989.501930496736,770.628304621509,853.017481158529,350.57236181288,557.480588344736,678.799333565612,0,0,0,0,0,0,6,3,4,NaN,NaN,NaN,vertical,horizontal,horizontal,none,none,none
1a,10,100144,1,15,15,22,F,NA,variable,heterogeneous,4,absent,1.90948295593262,1,vertical,vertical,1,0.658821702003479,red,3,NaN,919.715248510402,374.848363820974,NaN,NaN,680.284751489598,825.151636179026,1025.15163617903,719.715248510402,919.715248510402,374.848363820974,574.848363820974,480.284751489598,0,0,0,0,3,6,4,5,NaN,NaN,vertical,horizontal,vertical,vertical,none,none
1a,10,100144,1,16,16,22,F,NA,variable,heterogeneous,6,absent,1.1232647895813,1,vertical,vertical,1,0.96469455242157,red,5,NaN,661.117046071168,386.139005173917,NaN,NaN,684.232422566416,827.206663668034,938.882953928832,813.860994826083,1054.65053136242,586.654331158049,915.767577433584,372.793336331966,661.117046071168,386.139005173917,545.349468637584,613.345668841951,0,0,6,6,4,3,horizontal,vertical,horizontal,vertical,vertical,vertical
1a,10,100144,1,17,17,22,F,NA,variable,heterogeneous,4,present,1.56511902809143,1,horizontal,horizontal,1,0.764700765609741,red,1,4,700.363562235235,834.728737630372,565.271262369628,500.363562235235,700.363562235235,834.728737630372,1034.72873763037,699.636437764765,899.636437764765,365.271262369628,565.271262369628,500.363562235235,0,0,0,0,4,3,6,0,NaN,NaN,horizontal,horizontal,horizontal,horizontal,none,none
1a,10,100144,1,18,18,22,F,NA,variable,heterogeneous,3,absent,1.27056694030762,0,horizontal,vertical,1,0.670586042404175,green,1,NaN,817.787900804752,854.378832816255,NaN,NaN,817.787900804752,854.378832816255,1011.40458100154,457.40580961496,570.807518193712,488.215357568785,0,0,0,0,0,0,4,6,0,NaN,NaN,NaN,horizontal,vertical,vertical,none,none,none
1a,10,100144,1,19,19,22,F,NA,variable,heterogeneous,5,absent,NaN,0,vertical,none,0,0.717643404006958,red,2,NaN,1051.86052685176,639.890788585259,NaN,NaN,839.890788585259,851.86052685176,1051.86052685176,639.890788585259,915.767577433584,372.793336331966,619.68777079743,419.68777079743,572.793336331966,715.767577433584,0,0,5,4,6,6,0,NaN,horizontal,vertical,vertical,vertical,horizontal,none
1a,10,100144,1,20,20,22,F,NA,variable,heterogeneous,5,present,1.952232837677,1,vertical,vertical,1,1.08233795642853,red,5,3,591.116228706307,746.261991269517,883.019879386575,358.892763222174,874.554784704298,843.857712770574,1054.96116226488,604.450363641507,883.019879386575,358.892763222174,596.34794493794,446.537169096228,591.116228706307,746.261991269517,0,0,5,6,6,5,4,NaN,horizontal,vertical,vertical,vertical,vertical,none
1a,10,100144,1,21,21,22,F,NA,variable,heterogeneous,5,present,1.23654389381409,1,vertical,vertical,1,0.847051148414612,red,4,2,572.793336331966,484.232422566416,1051.86052685176,560.109211414741,915.767577433584,827.206663668034,1051.86052685176,560.109211414741,839.890788585259,348.13947314824,572.793336331966,484.232422566416,619.68777079743,780.31222920257,0,0,3,5,3,4,5,NaN,vertical,horizontal,vertical,vertical,vertical,none
1a,10,100144,1,22,22,22,F,NA,variable,heterogeneous,4,absent,0.887371063232422,1,vertical,vertical,1,0.894108510017395,green,2,NaN,1029.19248180629,488.215357568785,NaN,NaN,911.784642431215,829.192481806288,1029.19248180629,488.215357568785,688.215357568785,370.807518193712,570.807518193712,711.784642431215,0,0,0,0,3,4,5,3,NaN,NaN,vertical,vertical,horizontal,horizontal,none,none
1a,10,100144,1,23,23,22,F,NA,variable,heterogeneous,5,present,NaN,0,horizontal,none,0,0.788229446411133,green,2,3,998.172220171528,760.476699717708,1013.86099482608,461.117046071168,708.616172865948,838.063008756786,998.172220171528,760.476699717708,1013.86099482608,461.117046071168,734.001143498857,353.688914296288,545.349468637584,586.654331158049,0,0,5,4,3,5,6,NaN,vertical,horizontal,horizontal,vertical,horizontal,none
1a,10,100144,1,24,24,22,F,NA,variable,heterogeneous,5,present,1.75337791442871,0,horizontal,vertical,1,0.799993786811829,red,2,5,1039.62161830041,687.215136548046,554.878267535729,670.287525733335,791.100628340862,854.844660889869,1039.62161830041,687.215136548046,956.993676208043,399.057257830286,657.405809614959,388.595418998464,554.878267535729,670.287525733335,0,0,5,4,0,3,5,NaN,vertical,horizontal,vertical,horizontal,vertical,none
1a,10,100144,1,25,25,22,F,NA,variable,heterogeneous,4,absent,1.74497103691101,1,horizontal,horizontal,1,1.01175191402435,green,2,NaN,1036.43188291453,695.524681321058,NaN,NaN,704.475318678942,836.431882914531,1036.43188291453,695.524681321058,895.524681321058,363.568117085469,563.568117085469,504.475318678942,0,0,0,0,5,4,3,0,NaN,NaN,horizontal,horizontal,horizontal,vertical,none,none
1a,10,100144,1,26,26,22,F,NA,variable,heterogeneous,3,absent,1.81046795845032,1,vertical,vertical,1,0.917637190818787,green,1,NaN,653.738008730483,808.883771293693,NaN,NaN,653.738008730483,808.883771293693,1054.0296480134,622.224714400653,692.232343256122,368.891514305654,0,0,0,0,0,0,4,6,6,NaN,NaN,NaN,vertical,vertical,horizontal,none,none,none
1a,10,100144,1,27,27,22,F,NA,variable,heterogeneous,6,absent,1.70628714561462,1,horizontal,horizontal,1,0.952930212020874,green,5,NaN,604.658667004661,436.089159529932,NaN,NaN,755.719714694933,851.125977018113,995.341332995339,763.910840470068,1039.62161830041,512.784863451954,844.280285305067,348.874022981887,604.658667004661,436.089159529932,560.378381699593,687.215136548046,5,0,6,0,4,6,vertical,vertical,vertical,horizontal,horizontal,vertical
1a,10,100144,1,28,28,22,F,NA,variable,heterogeneous,6,present,1.67745494842529,1,horizontal,horizontal,1,1.04704493522644,green,4,5,725.445215295702,356.142287229426,551.535633479765,542.637481142314,874.554784704298,843.857712770574,1048.46436652023,657.362518857686,973.909581815937,413.504806087112,725.445215295702,356.142287229426,551.535633479765,542.637481142314,626.090418184063,786.495193912888,3,0,5,4,0,6,horizontal,horizontal,vertical,horizontal,horizontal,horizontal
1a,10,100144,1,29,29,22,F,NA,variable,heterogeneous,3,absent,1.31669688224792,1,vertical,vertical,1,0.870579829216003,red,2,NaN,1051.86052685176,560.109211414741,NaN,NaN,708.616172865948,838.063008756786,1051.86052685176,560.109211414741,639.523300282292,401.827779828472,0,0,0,0,0,0,0,4,3,NaN,NaN,NaN,vertical,vertical,horizontal,none,none,none
1a,10,100144,1,30,30,22,F,NA,variable,heterogeneous,5,absent,NaN,0,vertical,none,0,0.670586042404175,green,5,NaN,574.848363820974,719.715248510402,NaN,NaN,844.280285305067,851.125977018113,1052.5183575291,635.489140744817,911.784642431215,370.807518193712,616.568350913644,422.862115532956,574.848363820974,719.715248510402,0,0,5,5,0,3,4,NaN,horizontal,vertical,vertical,vertical,vertical,none
1a,10,100144,1,31,31,22,F,NA,variable,heterogeneous,5,present,1.53457307815552,1,vertical,vertical,1,1.08233795642853,green,4,2,646.537169096228,396.34794493794,1043.85771277057,674.554784704298,804.450363641507,854.96116226488,1043.85771277057,674.554784704298,946.261991269517,391.116228706307,646.537169096228,396.34794493794,558.892763222174,683.019879386575,0,0,5,0,0,4,5,NaN,vertical,vertical,vertical,vertical,vertical,none
1a,10,100144,1,32,32,22,F,NA,variable,heterogeneous,6,present,1.44551992416382,1,vertical,vertical,1,0.611764340400696,green,1,2,919.715248510402,825.151636179026,1054.84466088987,608.899371659138,919.715248510402,825.151636179026,1054.84466088987,608.899371659138,935.129412379467,383.747735480111,680.284751489598,374.848363820974,545.155339110131,591.100628340862,664.870587620533,816.252264519889,4,3,3,5,6,0,vertical,horizontal,vertical,vertical,horizontal,vertical
1a,10,100144,1,33,33,22,F,NA,variable,heterogeneous,6,present,1.66924715042114,1,vertical,vertical,1,0.717643404006958,red,1,4,883.019879386575,841.107236777826,716.980120613425,358.892763222174,883.019879386575,841.107236777826,1050.31493177915,648.656293821019,967.295052392579,407.549057043193,716.980120613425,358.892763222174,549.685068220846,551.343706178981,632.704947607421,792.450942956807,4,3,5,0,6,6,vertical,horizontal,vertical,vertical,horizontal,horizontal
1a,10,100144,1,34,34,22,F,NA,variable,heterogeneous,6,present,1.05857586860657,1,vertical,vertical,1,0.976458892822266,red,1,5,791.100628340862,854.844660889869,583.747735480111,464.870587620533,791.100628340862,854.844660889869,1016.25226451989,735.129412379467,1025.15163617903,480.284751489598,808.899371659138,345.155339110131,583.747735480111,464.870587620533,574.848363820974,719.715248510402,4,6,6,5,3,0,vertical,vertical,vertical,horizontal,horizontal,vertical
1a,10,100144,1,35,35,22,F,NA,variable,heterogeneous,6,absent,0.716898918151855,1,vertical,vertical,1,0.647057361602783,green,1,NaN,804.450363641507,854.96116226488,NaN,NaN,804.450363641507,854.96116226488,1023.02802532055,723.626453162816,1018.57766167904,468.665290897936,795.549636358493,345.03883773512,576.971974679454,476.373546837184,581.422338320961,731.334709102064,4,3,6,5,0,5,vertical,vertical,horizontal,vertical,vertical,horizontal
1a,10,100144,1,36,36,22,F,NA,variable,heterogeneous,4,absent,NaN,0,vertical,none,0,0.611764340400696,green,2,NaN,1038.06300875679,508.616172865948,NaN,NaN,891.383827134052,838.063008756786,1038.06300875679,508.616172865948,708.616172865948,361.936991243214,561.936991243214,691.383827134052,0,0,0,0,3,4,5,3,NaN,NaN,horizontal,vertical,horizontal,horizontal,none,none
1a,10,100144,1,37,37,22,F,NA,variable,heterogeneous,3,present,0.828894138336182,1,vertical,vertical,1,1.04704493522644,green,3,2,579.163522034968,727.5,800,345,1020.83647796503,727.5,800,345,579.163522034968,727.5,0,0,0,0,0,0,6,3,4,NaN,NaN,NaN,vertical,vertical,vertical,none,none,none
1a,10,100144,1,38,38,22,F,NA,variable,heterogeneous,4,present,1.96722888946533,1,vertical,vertical,1,0.858815488815308,red,3,1,980.31222920257,419.68777079743,619.68777079743,780.31222920257,619.68777079743,780.31222920257,980.31222920257,780.31222920257,980.31222920257,419.68777079743,619.68777079743,419.68777079743,0,0,0,0,6,3,4,5,NaN,NaN,horizontal,vertical,vertical,horizontal,none,none
1a,10,100144,1,39,39,22,F,NA,variable,heterogeneous,3,absent,1.13641405105591,1,horizontal,horizontal,1,0.694114723205566,red,2,NaN,1031.10848569435,707.767656743878,NaN,NaN,591.116228706307,746.261991269517,1031.10848569435,707.767656743878,777.775285599347,345.970351986605,0,0,0,0,0,0,6,4,5,NaN,NaN,NaN,horizontal,horizontal,horizontal,none,none,none
1a,10,100144,1,40,40,22,F,NA,variable,heterogeneous,5,present,NaN,0,horizontal,none,0,0.82352246761322,red,2,5,980.31222920257,780.31222920257,548.13947314824,560.109211414741,684.232422566416,827.206663668034,980.31222920257,780.31222920257,1027.20666366803,484.232422566416,760.109211414741,348.13947314824,548.13947314824,560.109211414741,0,0,0,4,5,0,3,NaN,horizontal,horizontal,vertical,vertical,vertical,none
1a,10,100144,1,41,41,22,F,NA,variable,heterogeneous,3,present,0.998147964477539,1,vertical,vertical,1,0.705879063606262,green,3,1,551.535633479765,542.637481142314,874.554784704298,843.857712770574,874.554784704298,843.857712770574,973.909581815937,413.504806087112,551.535633479765,542.637481142314,0,0,0,0,0,0,6,5,4,NaN,NaN,NaN,vertical,vertical,vertical,none,none,none
1a,10,100144,1,42,42,22,F,NA,variable,heterogeneous,4,present,NaN,0,horizontal,none,0,0.647057361602783,green,4,2,579.163522034968,472.5,1020.83647796503,727.5,672.5,820.836477965032,1020.83647796503,727.5,927.5,379.163522034968,579.163522034968,472.5,0,0,0,0,3,5,6,4,NaN,NaN,vertical,horizontal,vertical,horizontal,none,none
1a,10,100144,1,43,43,22,F,NA,variable,heterogeneous,4,absent,1.54338097572327,1,horizontal,horizontal,1,1.01175191402435,red,1,NaN,676.373546837184,823.028025320546,NaN,NaN,676.373546837184,823.028025320546,1023.02802532055,723.626453162816,923.626453162816,376.971974679454,576.971974679454,476.373546837184,0,0,0,0,4,3,5,6,NaN,NaN,horizontal,vertical,vertical,vertical,none,none
1a,10,100144,1,44,44,22,F,NA,variable,heterogeneous,3,absent,0.871399879455566,1,vertical,vertical,1,0.623528680801392,red,1,NaN,804.450363641507,854.96116226488,NaN,NaN,804.450363641507,854.96116226488,1018.57766167904,468.665290897936,576.971974679454,476.373546837184,0,0,0,0,0,0,4,5,6,NaN,NaN,NaN,vertical,vertical,vertical,none,none,none
1a,10,100144,1,45,45,22,F,NA,variable,heterogeneous,4,present,1.35180902481079,1,vertical,vertical,1,0.941165871620178,green,4,3,574.848363820974,719.715248510402,680.284751489598,374.848363820974,919.715248510402,825.151636179026,1025.15163617903,480.284751489598,680.284751489598,374.848363820974,574.848363820974,719.715248510402,0,0,0,0,0,0,6,4,NaN,NaN,horizontal,vertical,horizontal,vertical,none,none
1a,10,100144,1,46,46,22,F,NA,variable,heterogeneous,6,present,1.48644709587097,1,horizontal,horizontal,1,0.96469455242157,red,1,3,915.767577433584,827.206663668034,938.882953928832,386.139005173917,915.767577433584,827.206663668034,1054.65053136242,613.345668841951,938.882953928832,386.139005173917,684.232422566416,372.793336331966,545.349468637584,586.654331158049,661.117046071168,813.860994826083,4,0,0,5,6,6,horizontal,horizontal,horizontal,vertical,horizontal,vertical
1a,10,100144,1,47,47,22,F,NA,variable,heterogeneous,5,absent,1.52861595153809,1,horizontal,horizontal,1,0.623528680801392,red,2,NaN,1043.85771277057,525.445215295702,NaN,NaN,946.261991269517,808.883771293693,1043.85771277057,525.445215295702,804.450363641507,345.03883773512,558.892763222174,516.980120613425,646.537169096228,803.65205506206,0,0,0,4,3,6,6,NaN,horizontal,horizontal,vertical,horizontal,horizontal,none
1a,10,100144,1,48,48,22,F,NA,variable,heterogeneous,5,absent,1.70541501045227,1,horizontal,horizontal,1,1.08233795642853,green,1,NaN,664.870587620533,816.252264519889,NaN,NaN,664.870587620533,816.252264519889,963.910840470068,795.341332995339,1036.43188291453,504.475318678942,782.212099195248,345.621167183745,552.574589799621,538.309916622085,0,0,4,6,5,5,0,NaN,horizontal,horizontal,vertical,vertical,horizontal,none
1a,10,100144,1,49,49,22,F,NA,variable,heterogeneous,6,absent,1.75725889205933,1,vertical,vertical,1,0.870579829216003,red,6,NaN,607.549057043193,767.295052392579,NaN,NaN,848.656293821019,850.314931779154,1041.10723677783,683.019879386575,992.450942956807,432.704947607421,751.343706178981,349.685068220846,558.892763222174,516.980120613425,607.549057043193,767.295052392579,6,6,0,5,3,4,horizontal,horizontal,horizontal,horizontal,vertical,vertical
1a,10,100144,1,50,50,22,F,NA,variable,heterogeneous,3,present,1.76809406280518,1,horizontal,horizontal,1,0.976458892822266,green,3,2,604.658667004661,436.089159529932,1039.62161830041,512.784863451954,755.719714694933,851.125977018113,1039.62161830041,512.784863451954,604.658667004661,436.089159529932,0,0,0,0,0,0,5,5,4,NaN,NaN,NaN,vertical,horizontal,horizontal,none,none,none
1a,10,100144,1,51,51,22,F,NA,variable,heterogeneous,6,absent,1.9695200920105,0,horizontal,vertical,1,0.694114723205566,green,3,NaN,1052.5183575291,564.510859255183,NaN,NaN,704.475318678942,836.431882914531,956.993676208043,800.942742169714,1052.5183575291,564.510859255183,895.524681321058,363.568117085469,643.006323791957,399.057257830286,547.481642470899,635.489140744817,0,0,4,3,3,5,horizontal,horizontal,horizontal,vertical,vertical,vertical
1a,10,100144,1,52,52,22,F,NA,variable,heterogeneous,3,absent,1.75648784637451,1,horizontal,horizontal,1,0.764700765609741,red,3,NaN,716.980120613425,358.892763222174,NaN,NaN,632.704947607421,792.450942956807,1050.31493177915,648.656293821019,716.980120613425,358.892763222174,0,0,0,0,0,0,3,6,4,NaN,NaN,NaN,vertical,vertical,horizontal,none,none,none
1a,10,100144,1,53,53,22,F,NA,variable,heterogeneous,3,absent,0.801158905029297,1,horizontal,horizontal,1,0.870579829216003,green,2,NaN,1053.60308331891,573.345241866748,NaN,NaN,696.282156015671,832.954091698863,1053.60308331891,573.345241866748,650.114760665419,393.700666434388,0,0,0,0,0,0,0,4,6,NaN,NaN,NaN,vertical,horizontal,horizontal,none,none,none
1a,10,100144,1,54,54,22,F,NA,variable,heterogeneous,6,present,1.66201305389404,1,vertical,vertical,1,0.82352246761322,green,6,5,616.568350913644,777.137884467044,554.878267535729,529.712474266665,861.690083377915,847.425410200379,1045.12173246427,670.287525733335,983.431649086356,422.862115532956,738.309916622085,352.574589799621,554.878267535729,529.712474266665,616.568350913644,777.137884467044,6,0,3,5,6,4,horizontal,vertical,horizontal,horizontal,vertical,vertical
1a,10,100144,1,55,55,22,F,NA,variable,heterogeneous,3,present,1.41924786567688,1,horizontal,horizontal,1,0.988223233222961,green,2,3,822.224714400653,345.970351986605,568.891514305654,707.767656743878,1008.88377129369,746.261991269517,822.224714400653,345.970351986605,568.891514305654,707.767656743878,0,0,0,0,0,0,3,4,3,NaN,NaN,NaN,vertical,horizontal,vertical,none,none,none
1a,10,100144,1,56,56,22,F,NA,variable,heterogeneous,4,present,NaN,0,vertical,none,0,0.988223233222961,green,2,1,989.501930496736,429.371695378491,970.628304621509,789.501930496736,970.628304621509,789.501930496736,989.501930496736,429.371695378491,629.371695378491,410.498069503264,610.498069503264,770.628304621509,0,0,0,0,5,4,3,0,NaN,NaN,vertical,vertical,horizontal,horizontal,none,none
1a,10,100144,1,57,57,22,F,NA,variable,heterogeneous,6,present,1.81552290916443,1,horizontal,horizontal,1,0.988223233222961,green,2,6,1047.42541020038,661.690083377915,622.862115532956,783.431649086356,870.287525733335,845.121732464271,1047.42541020038,661.690083377915,977.137884467044,416.568350913644,729.712474266665,354.878267535729,552.574589799621,538.309916622085,622.862115532956,783.431649086356,0,4,3,6,0,3,vertical,horizontal,horizontal,horizontal,horizontal,vertical
1a,10,100144,1,58,58,22,F,NA,variable,heterogeneous,5,present,NaN,0,horizontal,none,0,0.694114723205566,green,1,5,672.5,820.836477965032,550.57236181288,546.982518841471,672.5,820.836477965032,970.628304621509,789.501930496736,1032.95409169886,496.282156015671,773.345241866748,346.39691668109,550.57236181288,546.982518841471,0,0,4,6,6,3,0,NaN,horizontal,vertical,horizontal,vertical,vertical,none
1a,10,100144,1,59,59,22,F,NA,variable,heterogeneous,5,absent,NaN,0,vertical,none,0,0.952930212020874,red,3,NaN,831.076682568313,346.900731331463,NaN,NaN,923.626453162816,823.028025320546,1050.31493177915,551.343706178981,831.076682568313,346.900731331463,568.891514305654,492.232343256122,626.090418184063,786.495193912888,0,0,6,3,4,0,5,NaN,vertical,vertical,vertical,vertical,horizontal,none
1a,10,100144,1,60,60,22,F,NA,variable,heterogeneous,4,present,1.42699909210205,0,vertical,horizontal,1,1.07057361602783,red,4,2,613.504806087112,773.909581815937,986.495193912888,426.090418184063,973.909581815937,786.495193912888,986.495193912888,426.090418184063,626.090418184063,413.504806087112,613.504806087112,773.909581815937,0,0,0,0,0,6,6,4,NaN,NaN,vertical,vertical,horizontal,vertical,none,none
1a,10,100144,1,61,61,22,F,NA,variable,heterogeneous,6,present,1.27616405487061,1,horizontal,horizontal,1,0.811758127212524,red,1,4,751.343706178981,850.314931779154,848.656293821019,349.685068220846,751.343706178981,850.314931779154,992.450942956807,767.295052392579,1041.10723677783,516.980120613425,848.656293821019,349.685068220846,607.549057043193,432.704947607421,558.892763222174,683.019879386575,4,6,0,5,0,6,horizontal,horizontal,horizontal,vertical,vertical,vertical
1a,10,100144,1,62,62,22,F,NA,variable,heterogeneous,4,absent,1.38724207878113,1,horizontal,horizontal,1,1.07057361602783,green,3,NaN,923.626453162816,376.971974679454,NaN,NaN,676.373546837184,823.028025320546,1023.02802532055,723.626453162816,923.626453162816,376.971974679454,576.971974679454,476.373546837184,0,0,0,0,6,3,4,5,NaN,NaN,vertical,horizontal,horizontal,horizontal,none,none
1a,10,100144,1,63,63,22,F,NA,variable,heterogeneous,6,absent,NaN,0,vertical,none,0,0.905872850418091,green,2,NaN,1006.29933356561,749.885239334581,NaN,NaN,773.345241866748,853.60308331891,1006.29933356561,749.885239334581,1032.95409169886,496.282156015671,826.654758133252,346.39691668109,593.700666434388,450.114760665419,567.045908301137,703.717843984329,0,4,3,6,5,6,vertical,vertical,vertical,horizontal,horizontal,horizontal
1a,10,100144,1,64,64,22,F,NA,variable,heterogeneous,3,present,1.43842506408691,1,vertical,vertical,1,1.02351625442505,red,2,1,1054.96116226488,595.549636358493,676.373546837184,823.028025320546,676.373546837184,823.028025320546,1054.96116226488,595.549636358493,668.665290897936,381.422338320961,0,0,0,0,0,0,6,4,3,NaN,NaN,NaN,vertical,vertical,vertical,none,none,none
1a,10,100144,2,1,65,22,F,NA,variable,heterogeneous,3,present,1.4781219959259,1,horizontal,horizontal,1,0.635293021202087,green,3,1,545.03883773512,595.549636358493,923.626453162816,823.028025320546,923.626453162816,823.028025320546,931.334709102064,381.422338320961,545.03883773512,595.549636358493,0,0,0,0,0,0,6,3,4,NaN,NaN,NaN,vertical,vertical,horizontal,none,none,none
1a,10,100144,2,2,66,22,F,NA,variable,heterogeneous,5,present,1.65973019599915,1,vertical,vertical,1,0.799993786811829,red,3,4,998.172220171528,439.523300282291,708.616172865948,361.936991243214,734.001143498857,846.311085703712,1013.86099482608,738.882953928832,998.172220171528,439.523300282291,708.616172865948,361.936991243214,545.349468637584,613.345668841951,0,0,5,6,4,0,0,NaN,vertical,vertical,vertical,vertical,vertical,none
1a,10,100144,2,3,67,22,F,NA,variable,heterogeneous,6,absent,0.877294063568115,1,vertical,vertical,1,0.999987573623657,green,5,NaN,664.870587620533,383.747735480111,NaN,NaN,680.284751489598,825.151636179026,935.129412379467,816.252264519889,1054.84466088987,591.100628340862,919.715248510402,374.848363820974,664.870587620533,383.747735480111,545.155339110131,608.899371659138,0,5,6,6,4,0,vertical,horizontal,vertical,vertical,vertical,vertical
1a,10,100144,2,4,68,22,F,NA,variable,heterogeneous,4,present,1.13613295555115,1,vertical,vertical,1,0.858815488815308,green,1,2,738.309916622085,847.425410200379,1047.42541020038,661.690083377915,738.309916622085,847.425410200379,1047.42541020038,661.690083377915,861.690083377915,352.574589799621,552.574589799621,538.309916622085,0,0,0,0,4,3,6,0,NaN,NaN,vertical,horizontal,vertical,vertical,none,none
1a,10,100144,2,5,69,22,F,NA,variable,heterogeneous,3,present,1.18883085250854,1,vertical,vertical,1,0.694114723205566,green,3,2,561.936991243214,691.383827134052,839.890788585259,348.13947314824,998.172220171528,760.476699717708,839.890788585259,348.13947314824,561.936991243214,691.383827134052,0,0,0,0,0,0,3,6,4,NaN,NaN,NaN,horizontal,horizontal,vertical,none,none,none
1a,10,100144,2,6,70,22,F,NA,variable,heterogeneous,4,absent,1.42794394493103,1,horizontal,horizontal,1,0.752936425209045,green,2,NaN,1047.42541020038,661.690083377915,NaN,NaN,738.309916622085,847.425410200379,1047.42541020038,661.690083377915,861.690083377915,352.574589799621,552.574589799621,538.309916622085,0,0,0,0,6,4,0,5,NaN,NaN,horizontal,horizontal,vertical,horizontal,none,none
1a,10,100144,2,7,71,22,F,NA,variable,heterogeneous,4,present,0.662662029266357,1,horizontal,horizontal,1,0.882344169616699,green,3,4,977.137884467044,416.568350913644,616.568350913644,422.862115532956,622.862115532956,783.431649086356,983.431649086356,777.137884467044,977.137884467044,416.568350913644,616.568350913644,422.862115532956,0,0,0,0,0,3,4,6,NaN,NaN,vertical,horizontal,horizontal,vertical,none,none
1a,10,100144,2,8,72,22,F,NA,variable,heterogeneous,4,present,1.88060092926025,1,vertical,vertical,1,1.02351625442505,red,4,2,546.39691668109,573.345241866748,1053.60308331891,626.654758133252,773.345241866748,853.60308331891,1053.60308331891,626.654758133252,826.654758133252,346.39691668109,546.39691668109,573.345241866748,0,0,0,0,3,0,5,4,NaN,NaN,horizontal,vertical,horizontal,vertical,none,none
1a,10,100144,2,9,73,22,F,NA,variable,heterogeneous,6,present,NaN,0,horizontal,none,0,0.835286808013916,red,6,3,601.827779828472,760.476699717708,998.172220171528,439.523300282291,839.890788585259,851.86052685176,1038.06300875679,691.383827134052,998.172220171528,439.523300282291,760.109211414741,348.13947314824,561.936991243214,508.616172865948,601.827779828472,760.476699717708,0,6,3,5,3,4,vertical,horizontal,horizontal,horizontal,vertical,horizontal
1a,10,100144,2,10,74,22,F,NA,variable,heterogeneous,4,absent,0.91007399559021,1,vertical,vertical,1,0.752936425209045,green,4,NaN,554.878267535729,529.712474266665,NaN,NaN,729.712474266665,845.121732464271,1045.12173246427,670.287525733335,870.287525733335,354.878267535729,554.878267535729,529.712474266665,0,0,0,0,5,0,6,4,NaN,NaN,vertical,vertical,vertical,vertical,none,none
1a,10,100144,2,11,75,22,F,NA,variable,heterogeneous,6,present,1.20141291618347,1,horizontal,horizontal,1,0.647057361602783,red,2,5,986.495193912888,773.909581815937,613.504806087112,426.090418184063,742.637481142314,848.464366520235,986.495193912888,773.909581815937,1043.85771277057,525.445215295702,857.362518857686,351.535633479765,613.504806087112,426.090418184063,556.142287229426,674.554784704298,3,4,0,5,0,5,horizontal,horizontal,horizontal,horizontal,horizontal,horizontal
1a,10,100144,2,12,76,22,F,NA,variable,heterogeneous,5,absent,NaN,0,horizontal,none,0,0.858815488815308,red,1,NaN,768.923317431687,853.099268668537,NaN,NaN,768.923317431687,853.099268668537,1031.10848569435,707.767656743878,973.909581815937,413.504806087112,676.373546837184,376.971974679454,549.685068220846,648.656293821019,0,0,4,0,3,0,5,NaN,horizontal,vertical,horizontal,vertical,vertical,none
1a,10,100144,2,13,77,22,F,NA,variable,heterogeneous,3,absent,0.914080858230591,0,vertical,horizontal,1,0.941165871620178,green,1,NaN,591.116228706307,746.261991269517,NaN,NaN,591.116228706307,746.261991269517,1031.10848569435,707.767656743878,777.775285599347,345.970351986605,0,0,0,0,0,0,4,6,0,NaN,NaN,NaN,vertical,horizontal,vertical,none,none,none
1a,10,100144,2,14,78,22,F,NA,variable,heterogeneous,5,absent,1.31545996665955,1,vertical,vertical,1,0.952930212020874,green,5,NaN,545.155339110131,591.100628340862,NaN,NaN,712.784863451954,839.621618300407,1000.94274216971,756.993676208043,1011.40458100154,457.40580961496,729.712474266665,354.878267535729,545.155339110131,591.100628340862,0,0,0,6,5,3,4,NaN,horizontal,vertical,horizontal,vertical,vertical,none
1a,10,100144,2,15,79,22,F,NA,variable,heterogeneous,5,absent,1.49933290481567,1,horizontal,horizontal,1,0.658821702003479,green,2,NaN,1052.5183575291,564.510859255183,NaN,NaN,911.784642431215,829.192481806288,1052.5183575291,564.510859255183,844.280285305067,348.874022981887,574.848363820974,480.284751489598,616.568350913644,777.137884467044,0,0,6,4,5,3,5,NaN,horizontal,horizontal,horizontal,vertical,horizontal,none
1a,10,100144,2,16,80,22,F,NA,variable,heterogeneous,3,absent,0.963564157485962,1,vertical,vertical,1,0.917637190818787,green,2,NaN,1054.65053136242,613.345668841951,NaN,NaN,661.117046071168,813.860994826083,1054.65053136242,613.345668841951,684.232422566416,372.793336331966,0,0,0,0,0,0,5,4,6,NaN,NaN,NaN,vertical,vertical,vertical,none,none,none
1a,10,100144,2,17,81,22,F,NA,variable,heterogeneous,4,present,1.78249406814575,0,vertical,horizontal,1,0.764700765609741,green,3,1,970.628304621509,410.498069503264,629.371695378491,789.501930496736,629.371695378491,789.501930496736,989.501930496736,770.628304621509,970.628304621509,410.498069503264,610.498069503264,429.371695378491,0,0,0,0,5,6,4,6,NaN,NaN,horizontal,horizontal,vertical,vertical,none,none
1a,10,100144,2,18,82,22,F,NA,variable,heterogeneous,5,present,1.9935610294342,1,vertical,vertical,1,0.752936425209045,red,2,4,956.993676208043,800.942742169714,791.100628340862,345.155339110131,657.405809614959,811.404581001536,956.993676208043,800.942742169714,1039.62161830041,512.784863451954,791.100628340862,345.155339110131,554.878267535729,529.712474266665,0,0,0,4,5,3,0,NaN,horizontal,vertical,horizontal,horizontal,horizontal,none
1a,10,100144,2,19,83,22,F,NA,variable,heterogeneous,6,present,1.66909599304199,1,vertical,vertical,1,0.788229446411133,red,4,2,708.616172865948,361.936991243214,1051.86052685176,639.890788585259,891.383827134052,838.063008756786,1051.86052685176,639.890788585259,960.476699717708,401.827779828472,708.616172865948,361.936991243214,548.13947314824,560.109211414741,639.523300282292,798.172220171528,0,0,5,4,6,5,horizontal,horizontal,vertical,vertical,vertical,horizontal
1a,10,100144,2,20,84,22,F,NA,variable,heterogeneous,5,present,1.17799401283264,0,vertical,horizontal,1,0.952930212020874,green,1,2,692.232343256122,831.108485694346,986.495193912888,773.909581815937,692.232343256122,831.108485694346,986.495193912888,773.909581815937,1023.02802532055,476.373546837184,751.343706178981,349.685068220846,546.900731331463,568.923317431687,0,0,4,3,6,0,6,NaN,vertical,horizontal,vertical,horizontal,horizontal,none
1a,10,100144,2,21,85,22,F,NA,variable,heterogeneous,5,present,1.7865161895752,1,horizontal,horizontal,1,0.635293021202087,red,1,5,927.5,820.836477965032,629.371695378491,789.501930496736,927.5,820.836477965032,1049.42763818712,546.982518841471,826.654758133252,346.39691668109,567.045908301137,496.282156015671,629.371695378491,789.501930496736,0,0,4,0,6,5,3,NaN,horizontal,horizontal,vertical,horizontal,vertical,none
1a,10,100144,2,22,86,22,F,NA,variable,heterogeneous,5,present,0.993658065795898,1,horizontal,horizontal,1,0.764700765609741,green,5,4,545,600,721.200666434388,357.480588344736,721.200666434388,842.519411655264,1006.29933356561,749.885239334581,1006.29933356561,450.114760665419,721.200666434388,357.480588344736,545,600,0,0,3,5,0,5,4,NaN,horizontal,horizontal,vertical,vertical,horizontal,none
1a,10,100144,2,23,87,22,F,NA,variable,heterogeneous,6,present,1.81625390052795,1,vertical,vertical,1,0.929401531219482,green,1,4,742.637481142314,848.464366520235,857.362518857686,351.535633479765,742.637481142314,848.464366520235,986.495193912888,773.909581815937,1043.85771277057,525.445215295702,857.362518857686,351.535633479765,613.504806087112,426.090418184063,556.142287229426,674.554784704298,4,6,6,5,5,3,vertical,vertical,horizontal,vertical,vertical,vertical
1a,10,100144,2,24,88,22,F,NA,variable,heterogeneous,5,absent,1.27641320228577,1,vertical,vertical,1,0.988223233222961,red,5,NaN,546.39691668109,573.345241866748,NaN,NaN,696.282156015671,832.954091698863,989.501930496736,770.628304621509,1020.83647796503,472.5,746.982518841471,350.57236181288,546.39691668109,573.345241866748,0,0,3,6,0,3,4,NaN,horizontal,vertical,horizontal,vertical,vertical,none
1a,10,100144,2,25,89,22,F,NA,variable,heterogeneous,3,absent,1.34772896766663,1,horizontal,horizontal,1,0.870579829216003,red,1,NaN,956.993676208043,800.942742169714,NaN,NaN,956.993676208043,800.942742169714,895.524681321058,363.568117085469,547.481642470899,635.489140744817,0,0,0,0,0,0,4,3,6,NaN,NaN,NaN,horizontal,vertical,horizontal,none,none,none
1a,10,100144,2,26,90,22,F,NA,variable,heterogeneous,6,absent,NaN,0,horizontal,none,0,0.705879063606262,green,5,NaN,581.422338320961,468.665290897936,NaN,NaN,795.549636358493,854.96116226488,1018.57766167904,731.334709102064,1023.02802532055,476.373546837184,804.450363641507,345.03883773512,581.422338320961,468.665290897936,576.971974679454,723.626453162816,6,5,6,0,4,3,vertical,horizontal,horizontal,horizontal,horizontal,vertical
1a,10,100144,2,27,91,22,F,NA,variable,heterogeneous,4,present,1.28698301315308,0,horizontal,vertical,1,1.09410229682922,red,2,1,1054.37883281626,617.787900804752,782.212099195248,854.378832816255,782.212099195248,854.378832816255,1054.37883281626,617.787900804752,817.787900804752,345.621167183745,545.621167183745,582.212099195248,0,0,0,0,3,4,3,6,NaN,NaN,horizontal,horizontal,vertical,vertical,none,none
1a,10,100144,2,28,92,22,F,NA,variable,heterogeneous,4,absent,1.6329619884491,1,vertical,vertical,1,0.6,red,4,NaN,568.891514305654,492.232343256122,NaN,NaN,692.232343256122,831.108485694346,1031.10848569435,707.767656743878,907.767656743878,368.891514305654,568.891514305654,492.232343256122,0,0,0,0,5,0,3,4,NaN,NaN,horizontal,vertical,vertical,vertical,none,none
1a,10,100144,2,29,93,22,F,NA,variable,heterogeneous,6,absent,1.00296711921692,1,vertical,vertical,1,0.658821702003479,red,6,NaN,619.68777079743,780.31222920257,NaN,NaN,865.998856501143,846.311085703712,1046.31108570371,665.998856501143,980.31222920257,419.68777079743,734.001143498857,353.688914296288,553.688914296288,534.001143498857,619.68777079743,780.31222920257,6,0,6,3,3,4,horizontal,vertical,vertical,vertical,vertical,vertical
1a,10,100144,2,30,94,22,F,NA,variable,heterogeneous,3,absent,1.45232009887695,1,vertical,vertical,1,0.858815488815308,red,1,NaN,596.34794493794,753.462830903772,NaN,NaN,596.34794493794,753.462830903772,1034.72873763037,699.636437764765,768.923317431687,346.900731331463,0,0,0,0,0,0,4,0,6,NaN,NaN,NaN,vertical,vertical,horizontal,none,none,none
1a,10,100144,2,31,95,22,F,NA,variable,heterogeneous,5,absent,1.59415793418884,1,horizontal,horizontal,1,0.623528680801392,red,2,NaN,1054.65053136242,586.654331158049,NaN,NaN,891.383827134052,838.063008756786,1054.65053136242,586.654331158049,865.998856501143,353.688914296288,586.139005173917,461.117046071168,601.827779828472,760.476699717708,0,0,5,4,3,6,3,NaN,vertical,horizontal,horizontal,horizontal,vertical,none
1a,10,100144,2,32,96,22,F,NA,variable,heterogeneous,6,present,NaN,0,vertical,none,0,1.07057361602783,red,3,4,1011.40458100154,457.40580961496,782.212099195248,345.621167183745,817.787900804752,854.378832816255,1029.19248180629,711.784642431215,1011.40458100154,457.40580961496,782.212099195248,345.621167183745,570.807518193712,488.215357568785,588.595418998464,742.594190385041,5,3,4,3,0,6,horizontal,horizontal,vertical,vertical,vertical,horizontal
1a,10,100144,2,33,97,22,F,NA,variable,heterogeneous,6,present,1.05952095985413,1,horizontal,horizontal,1,0.988223233222961,green,4,6,804.450363641507,345.03883773512,576.971974679454,723.626453162816,795.549636358493,854.96116226488,1018.57766167904,731.334709102064,1023.02802532055,476.373546837184,804.450363641507,345.03883773512,581.422338320961,468.665290897936,576.971974679454,723.626453162816,3,6,5,4,3,0,vertical,vertical,horizontal,horizontal,vertical,horizontal
1a,10,100144,2,34,98,22,F,NA,variable,heterogeneous,6,absent,NaN,0,horizontal,none,0,1.08233795642853,red,3,NaN,983.431649086356,422.862115532956,NaN,NaN,861.690083377915,847.425410200379,1045.12173246427,670.287525733335,983.431649086356,422.862115532956,738.309916622085,352.574589799621,554.878267535729,529.712474266665,616.568350913644,777.137884467044,3,0,4,0,5,5,vertical,horizontal,horizontal,horizontal,horizontal,horizontal
1a,10,100144,2,35,99,22,F,NA,variable,heterogeneous,4,absent,1.2590799331665,1,vertical,vertical,1,1.01175191402435,green,4,NaN,561.936991243214,691.383827134052,NaN,NaN,891.383827134052,838.063008756786,1038.06300875679,508.616172865948,708.616172865948,361.936991243214,561.936991243214,691.383827134052,0,0,0,0,5,0,0,4,NaN,NaN,horizontal,horizontal,vertical,vertical,none,none
1a,10,100144,2,36,100,22,F,NA,variable,heterogeneous,3,present,1.09503793716431,0,horizontal,vertical,1,0.717643404006958,green,1,2,622.862115532956,783.431649086356,1047.42541020038,661.690083377915,622.862115532956,783.431649086356,1047.42541020038,661.690083377915,729.712474266665,354.878267535729,0,0,0,0,0,0,4,0,3,NaN,NaN,NaN,horizontal,horizontal,vertical,none,none,none
1a,10,100144,2,37,101,22,F,NA,variable,heterogeneous,3,present,1.99969887733459,0,vertical,horizontal,1,0.917637190818787,green,2,3,822.224714400653,345.970351986605,568.891514305654,707.767656743878,1008.88377129369,746.261991269517,822.224714400653,345.970351986605,568.891514305654,707.767656743878,0,0,0,0,0,0,5,4,0,NaN,NaN,NaN,vertical,vertical,horizontal,none,none,none
1a,10,100144,2,38,102,22,F,NA,variable,heterogeneous,5,present,NaN,0,vertical,none,0,0.752936425209045,green,1,4,668.665290897936,818.577661679039,777.775285599347,345.970351986605,668.665290897936,818.577661679039,967.295052392579,792.450942956807,1034.72873763037,500.363562235235,777.775285599347,345.970351986605,551.535633479765,542.637481142314,0,0,4,5,5,0,3,NaN,vertical,horizontal,horizontal,horizontal,vertical,none
1a,10,100144,2,39,103,22,F,NA,variable,heterogeneous,4,absent,1.64588284492493,1,horizontal,horizontal,1,0.729407744407654,green,3,NaN,865.998856501143,353.688914296288,NaN,NaN,734.001143498857,846.311085703712,1046.31108570371,665.998856501143,865.998856501143,353.688914296288,553.688914296288,534.001143498857,0,0,0,0,0,3,4,0,NaN,NaN,horizontal,horizontal,horizontal,horizontal,none,none
1a,10,100144,2,40,104,22,F,NA,variable,heterogeneous,4,present,1.2824079990387,1,horizontal,horizontal,1,0.752936425209045,green,1,2,883.019879386575,841.107236777826,1041.10723677783,516.980120613425,883.019879386575,841.107236777826,1041.10723677783,516.980120613425,716.980120613425,358.892763222174,558.892763222174,683.019879386575,0,0,0,0,4,6,5,0,NaN,NaN,horizontal,horizontal,horizontal,vertical,none,none
1a,10,100144,2,41,105,22,F,NA,variable,heterogeneous,6,absent,1.19229912757874,1,horizontal,horizontal,1,0.811758127212524,red,3,NaN,1003.65205506206,446.537169096228,NaN,NaN,831.076682568313,853.099268668537,1034.72873763037,699.636437764765,1003.65205506206,446.537169096228,768.923317431687,346.900731331463,565.271262369628,500.363562235235,596.34794493794,753.462830903772,0,5,4,6,3,5,horizontal,horizontal,horizontal,horizontal,horizontal,horizontal
1a,10,100144,2,42,106,22,F,NA,variable,heterogeneous,5,absent,NaN,0,horizontal,none,0,0.952930212020874,green,4,NaN,791.100628340862,345.155339110131,NaN,NaN,657.405809614959,811.404581001536,956.993676208043,800.942742169714,1039.62161830041,512.784863451954,791.100628340862,345.155339110131,554.878267535729,529.712474266665,0,0,5,5,6,4,3,NaN,vertical,vertical,vertical,horizontal,horizontal,none
1a,10,100144,2,43,107,22,F,NA,variable,heterogeneous,4,present,1.18069505691528,1,horizontal,horizontal,1,1.04704493522644,red,2,4,986.495193912888,773.909581815937,613.504806087112,426.090418184063,626.090418184063,786.495193912888,986.495193912888,773.909581815937,973.909581815937,413.504806087112,613.504806087112,426.090418184063,0,0,0,0,6,4,0,3,NaN,NaN,horizontal,horizontal,vertical,horizontal,none,none
1a,10,100144,2,44,108,22,F,NA,variable,heterogeneous,6,absent,1.82563591003418,1,vertical,vertical,1,0.647057361602783,red,4,NaN,899.636437764765,365.271262369628,NaN,NaN,700.363562235235,834.728737630372,953.462830903772,803.65205506206,1053.09926866854,568.923317431687,899.636437764765,365.271262369628,646.537169096228,396.34794493794,546.900731331463,631.076682568313,3,5,6,4,6,3,horizontal,vertical,horizontal,vertical,vertical,vertical
1a,10,100144,2,45,109,22,F,NA,variable,heterogeneous,4,present,0.66267204284668,1,vertical,vertical,1,1.02351625442505,red,3,4,826.654758133252,346.39691668109,546.39691668109,573.345241866748,773.345241866748,853.60308331891,1053.60308331891,626.654758133252,826.654758133252,346.39691668109,546.39691668109,573.345241866748,0,0,0,0,5,5,4,3,NaN,NaN,horizontal,vertical,vertical,horizontal,none,none
1a,10,100144,2,46,110,22,F,NA,variable,heterogeneous,4,absent,1.58683896064758,1,horizontal,horizontal,1,0.74117208480835,red,3,NaN,839.890788585259,348.13947314824,NaN,NaN,760.109211414741,851.86052685176,1051.86052685176,639.890788585259,839.890788585259,348.13947314824,548.13947314824,560.109211414741,0,0,0,0,6,3,4,0,NaN,NaN,vertical,vertical,horizontal,vertical,none,none
1a,10,100144,2,47,111,22,F,NA,variable,heterogeneous,4,absent,0.765417098999023,1,horizontal,horizontal,1,0.917637190818787,red,3,NaN,931.334709102064,381.422338320961,NaN,NaN,668.665290897936,818.577661679039,1018.57766167904,731.334709102064,931.334709102064,381.422338320961,581.422338320961,468.665290897936,0,0,0,0,6,6,4,5,NaN,NaN,horizontal,vertical,horizontal,horizontal,none,none
1a,10,100144,2,48,112,22,F,NA,variable,heterogeneous,3,absent,1.44214391708374,1,vertical,vertical,1,0.658821702003479,red,3,NaN,636.089159529932,404.658667004661,NaN,NaN,712.784863451954,839.621618300407,1051.12597701811,555.719714694933,636.089159529932,404.658667004661,0,0,0,0,0,0,3,5,4,NaN,NaN,NaN,vertical,vertical,vertical,none,none,none
1a,10,100144,2,49,113,22,F,NA,variable,heterogeneous,5,present,1.99329590797424,1,horizontal,horizontal,1,0.705879063606262,red,3,2,1036.43188291453,504.475318678942,963.910840470068,795.341332995339,664.870587620533,816.252264519889,963.910840470068,795.341332995339,1036.43188291453,504.475318678942,782.212099195248,345.621167183745,552.574589799621,538.309916622085,0,0,3,0,4,6,3,NaN,horizontal,horizontal,horizontal,vertical,vertical,none
1a,10,100144,2,50,114,22,F,NA,variable,heterogeneous,6,absent,1.61031007766724,1,horizontal,horizontal,1,0.847051148414612,green,1,NaN,768.923317431687,853.099268668537,NaN,NaN,768.923317431687,853.099268668537,1003.65205506206,753.462830903772,1034.72873763037,500.363562235235,831.076682568313,346.900731331463,596.34794493794,446.537169096228,565.271262369628,699.636437764765,4,5,0,3,6,3,horizontal,horizontal,horizontal,horizontal,vertical,vertical
1a,10,100144,2,51,115,22,F,NA,variable,heterogeneous,6,present,1.08095288276672,1,horizontal,horizontal,1,0.905872850418091,green,6,4,583.747735480111,735.129412379467,791.100628340862,345.155339110131,808.899371659138,854.844660889869,1025.15163617903,719.715248510402,1016.25226451989,464.870587620533,791.100628340862,345.155339110131,574.848363820974,480.284751489598,583.747735480111,735.129412379467,3,3,0,6,0,4,horizontal,horizontal,vertical,vertical,vertical,horizontal
1a,10,100144,2,52,116,22,F,NA,variable,heterogeneous,5,absent,1.66583204269409,1,vertical,vertical,1,0.752936425209045,green,1,NaN,688.215357568785,829.192481806288,NaN,NaN,688.215357568785,829.192481806288,983.431649086356,777.137884467044,1025.15163617903,480.284751489598,755.719714694933,348.874022981887,547.481642470899,564.510859255183,0,0,4,0,6,5,5,NaN,vertical,vertical,vertical,vertical,horizontal,none
1a,10,100144,2,53,117,22,F,NA,variable,heterogeneous,5,absent,1.16576194763184,0,vertical,horizontal,1,0.717643404006958,red,1,NaN,680.284751489598,825.151636179026,NaN,NaN,680.284751489598,825.151636179026,977.137884467044,783.431649086356,1029.19248180629,488.215357568785,764.510859255183,347.4816424709,548.874022981887,555.719714694933,0,0,4,0,5,0,5,NaN,vertical,horizontal,horizontal,horizontal,vertical,none
1a,10,100144,2,54,118,22,F,NA,variable,heterogeneous,3,absent,1.84346699714661,1,horizontal,horizontal,1,0.705879063606262,red,3,NaN,604.658667004661,436.089159529932,NaN,NaN,755.719714694933,851.125977018113,1039.62161830041,512.784863451954,604.658667004661,436.089159529932,0,0,0,0,0,0,3,3,4,NaN,NaN,NaN,vertical,horizontal,horizontal,none,none,none
1a,10,100144,2,55,119,22,F,NA,variable,heterogeneous,4,absent,1.63037300109863,1,vertical,vertical,1,0.894108510017395,red,2,NaN,1032.95409169886,703.717843984329,NaN,NaN,696.282156015671,832.954091698863,1032.95409169886,703.717843984329,903.717843984329,367.045908301137,567.045908301137,496.282156015671,0,0,0,0,6,4,3,0,NaN,NaN,horizontal,vertical,horizontal,horizontal,none,none
1a,10,100144,2,56,120,22,F,NA,variable,heterogeneous,5,present,1.64592385292053,1,horizontal,horizontal,1,0.941165871620178,green,1,4,764.510859255183,852.518357529101,680.284751489598,374.848363820974,764.510859255183,852.518357529101,1029.19248180629,711.784642431215,977.137884467044,416.568350913644,680.284751489598,374.848363820974,548.874022981887,644.280285305067,0,0,4,0,5,3,3,NaN,horizontal,vertical,vertical,horizontal,vertical,none
1a,10,100144,2,57,121,22,F,NA,variable,heterogeneous,3,present,NaN,0,vertical,none,0,1.09410229682922,red,3,1,596.34794493794,446.537169096228,768.923317431687,853.099268668537,768.923317431687,853.099268668537,1034.72873763037,500.363562235235,596.34794493794,446.537169096228,0,0,0,0,0,0,5,3,4,NaN,NaN,NaN,vertical,vertical,vertical,none,none,none
1a,10,100144,2,58,122,22,F,NA,variable,heterogeneous,6,absent,NaN,0,vertical,none,0,1.03528059482574,green,4,NaN,688.215357568785,370.807518193712,NaN,NaN,911.784642431215,829.192481806288,1054.37883281626,617.787900804752,942.594190385041,388.595418998464,688.215357568785,370.807518193712,545.621167183745,582.212099195248,657.405809614959,811.404581001536,0,5,6,4,3,3,horizontal,horizontal,vertical,vertical,vertical,vertical
1a,10,100144,2,59,123,22,F,NA,variable,heterogeneous,3,absent,1.20425295829773,1,horizontal,horizontal,1,1.09410229682922,green,2,NaN,1039.62161830041,687.215136548046,NaN,NaN,604.658667004661,763.910840470068,1039.62161830041,687.215136548046,755.719714694933,348.874022981887,0,0,0,0,0,0,6,4,3,NaN,NaN,NaN,horizontal,horizontal,vertical,none,none,none
1a,10,100144,2,60,124,22,F,NA,variable,heterogeneous,3,present,1.61191415786743,1,horizontal,horizontal,1,0.764700765609741,red,1,2,688.215357568785,829.192481806288,1054.37883281626,582.212099195248,688.215357568785,829.192481806288,1054.37883281626,582.212099195248,657.405809614959,388.595418998464,0,0,0,0,0,0,4,5,6,NaN,NaN,NaN,horizontal,horizontal,vertical,none,none,none
1a,10,100144,2,61,125,22,F,NA,variable,heterogeneous,3,absent,1.66876912117004,1,horizontal,horizontal,1,0.623528680801392,green,2,NaN,1025.15163617903,480.284751489598,NaN,NaN,791.100628340862,854.844660889869,1025.15163617903,480.284751489598,583.747735480111,464.870587620533,0,0,0,0,0,0,0,4,5,NaN,NaN,NaN,horizontal,horizontal,vertical,none,none,none
1a,10,100144,2,62,126,22,F,NA,variable,heterogeneous,3,present,1.77995586395264,1,vertical,vertical,1,0.682350382804871,red,2,1,923.626453162816,376.971974679454,931.334709102064,818.577661679039,931.334709102064,818.577661679039,923.626453162816,376.971974679454,545.03883773512,604.450363641507,0,0,0,0,0,0,3,4,5,NaN,NaN,NaN,vertical,vertical,horizontal,none,none,none
1a,10,100144,2,63,127,22,F,NA,variable,heterogeneous,6,present,NaN,0,vertical,none,0,0.670586042404175,green,4,1,911.784642431215,370.807518193712,688.215357568785,829.192481806288,688.215357568785,829.192481806288,942.594190385041,811.404581001536,1054.37883281626,582.212099195248,911.784642431215,370.807518193712,657.405809614959,388.595418998464,545.621167183745,617.787900804752,6,0,5,4,6,0,horizontal,horizontal,vertical,vertical,vertical,vertical
1a,10,100144,2,64,128,22,F,NA,variable,heterogeneous,3,present,1.32500720024109,1,horizontal,horizontal,1,0.976458892822266,red,2,1,1038.06300875679,691.383827134052,601.827779828472,760.476699717708,601.827779828472,760.476699717708,1038.06300875679,691.383827134052,760.109211414741,348.13947314824,0,0,0,0,0,0,0,4,3,NaN,NaN,NaN,horizontal,horizontal,horizontal,none,none,none
1a,10,100144,3,1,129,22,F,NA,variable,heterogeneous,3,present,1.15316700935364,1,horizontal,horizontal,1,0.729407744407654,green,2,3,839.890788585259,348.13947314824,561.936991243214,691.383827134052,998.172220171528,760.476699717708,839.890788585259,348.13947314824,561.936991243214,691.383827134052,0,0,0,0,0,0,3,4,6,NaN,NaN,NaN,horizontal,horizontal,vertical,none,none,none
1a,10,100144,3,2,130,22,F,NA,variable,heterogeneous,5,absent,1.34336996078491,1,vertical,vertical,1,0.74117208480835,red,1,NaN,721.200666434388,842.519411655264,NaN,NaN,721.200666434388,842.519411655264,1006.29933356561,749.885239334581,1006.29933356561,450.114760665419,721.200666434388,357.480588344736,545,600,0,0,4,3,0,6,0,NaN,vertical,vertical,horizontal,vertical,horizontal,none
1a,10,100144,3,3,131,22,F,NA,variable,heterogeneous,6,present,1.61162710189819,1,vertical,vertical,1,0.858815488815308,green,1,5,804.450363641507,854.96116226488,576.971974679454,476.373546837184,804.450363641507,854.96116226488,1023.02802532055,723.626453162816,1018.57766167904,468.665290897936,795.549636358493,345.03883773512,576.971974679454,476.373546837184,581.422338320961,731.334709102064,4,3,6,6,5,0,vertical,vertical,horizontal,vertical,horizontal,horizontal
1a,10,100144,3,4,132,22,F,NA,variable,heterogeneous,4,absent,1.14153099060059,1,horizontal,horizontal,1,0.670586042404175,red,2,NaN,1027.20666366803,715.767577433584,NaN,NaN,684.232422566416,827.206663668034,1027.20666366803,715.767577433584,915.767577433584,372.793336331966,572.793336331966,484.232422566416,0,0,0,0,6,4,5,0,NaN,NaN,vertical,horizontal,vertical,horizontal,none,none
1a,10,100144,3,5,133,22,F,NA,variable,heterogeneous,6,absent,1.56910300254822,0,horizontal,vertical,1,0.835286808013916,red,5,NaN,545.155339110131,591.100628340862,NaN,NaN,919.715248510402,825.151636179026,1054.84466088987,608.899371659138,935.129412379467,383.747735480111,680.284751489598,374.848363820974,545.155339110131,591.100628340862,664.870587620533,816.252264519889,5,3,0,0,4,5,horizontal,horizontal,vertical,horizontal,horizontal,vertical
1a,10,100144,3,6,134,22,F,NA,variable,heterogeneous,6,absent,1.71624088287354,1,vertical,vertical,1,0.96469455242157,red,3,NaN,1054.84466088987,591.100628340862,NaN,NaN,680.284751489598,825.151636179026,935.129412379467,816.252264519889,1054.84466088987,591.100628340862,919.715248510402,374.848363820974,664.870587620533,383.747735480111,545.155339110131,608.899371659138,5,3,4,5,6,3,vertical,vertical,vertical,horizontal,vertical,vertical
1a,10,100144,3,7,135,22,F,NA,variable,heterogeneous,3,absent,1.59586119651794,1,horizontal,horizontal,1,1.04704493522644,green,2,NaN,998.172220171528,439.523300282291,NaN,NaN,839.890788585259,851.86052685176,998.172220171528,439.523300282291,561.936991243214,508.616172865948,0,0,0,0,0,0,3,4,6,NaN,NaN,NaN,vertical,horizontal,horizontal,none,none,none
1a,10,100144,3,8,136,22,F,NA,variable,heterogeneous,6,absent,1.84907293319702,1,vertical,vertical,1,1.05880927562714,red,6,NaN,591.116228706307,746.261991269517,NaN,NaN,822.224714400653,854.029648013395,1031.10848569435,707.767656743878,1008.88377129369,453.738008730483,777.775285599347,345.970351986605,568.891514305654,492.232343256122,591.116228706307,746.261991269517,0,3,5,6,3,4,vertical,vertical,horizontal,vertical,vertical,vertical
1a,10,100144,3,9,137,22,F,NA,variable,heterogeneous,4,present,1.91835403442383,1,horizontal,horizontal,1,0.999987573623657,red,4,1,553.688914296288,665.998856501143,865.998856501143,846.311085703712,865.998856501143,846.311085703712,1046.31108570371,534.001143498857,734.001143498857,353.688914296288,553.688914296288,665.998856501143,0,0,0,0,5,5,6,4,NaN,NaN,horizontal,horizontal,horizontal,horizontal,none,none
1a,10,100144,3,10,138,22,F,NA,variable,heterogeneous,3,absent,1.13583111763,1,horizontal,horizontal,1,0.74117208480835,red,2,NaN,919.715248510402,374.848363820974,NaN,NaN,935.129412379467,816.252264519889,919.715248510402,374.848363820974,545.155339110131,608.899371659138,0,0,0,0,0,0,0,4,5,NaN,NaN,NaN,vertical,horizontal,horizontal,none,none,none
1a,10,100144,3,11,139,22,F,NA,variable,heterogeneous,3,absent,0.675253868103027,1,horizontal,horizontal,1,0.82352246761322,green,2,NaN,967.295052392579,407.549057043193,NaN,NaN,883.019879386575,841.107236777826,967.295052392579,407.549057043193,549.685068220846,551.343706178981,0,0,0,0,0,0,5,4,0,NaN,NaN,NaN,vertical,horizontal,vertical,none,none,none
1a,10,100144,3,12,140,22,F,NA,variable,heterogeneous,3,absent,0.865813970565796,1,vertical,vertical,1,0.647057361602783,red,1,NaN,960.476699717708,798.172220171528,NaN,NaN,960.476699717708,798.172220171528,891.383827134052,361.936991243214,548.13947314824,639.890788585259,0,0,0,0,0,0,4,6,0,NaN,NaN,NaN,vertical,horizontal,horizontal,none,none,none
1a,10,100144,3,13,141,22,F,NA,variable,heterogeneous,5,absent,1.9009051322937,0,horizontal,vertical,1,0.670586042404175,green,2,NaN,1052.5183575291,635.489140744817,NaN,NaN,844.280285305067,851.125977018113,1052.5183575291,635.489140744817,911.784642431215,370.807518193712,616.568350913644,422.862115532956,574.848363820974,719.715248510402,0,0,3,4,6,6,5,NaN,horizontal,horizontal,vertical,horizontal,horizontal,none
1a,10,100144,3,14,142,22,F,NA,variable,heterogeneous,4,absent,1.30683088302612,0,horizontal,vertical,1,0.799993786811829,red,4,NaN,558.892763222174,683.019879386575,NaN,NaN,883.019879386575,841.107236777826,1041.10723677783,516.980120613425,716.980120613425,358.892763222174,558.892763222174,683.019879386575,0,0,0,0,5,3,5,4,NaN,NaN,vertical,vertical,vertical,horizontal,none,none
1a,10,100144,3,15,143,22,F,NA,variable,heterogeneous,6,absent,1.32521605491638,1,horizontal,horizontal,1,0.999987573623657,red,5,NaN,554.878267535729,529.712474266665,NaN,NaN,861.690083377915,847.425410200379,1045.12173246427,670.287525733335,983.431649086356,422.862115532956,738.309916622085,352.574589799621,554.878267535729,529.712474266665,616.568350913644,777.137884467044,0,6,5,6,4,3,horizontal,vertical,horizontal,horizontal,horizontal,vertical
1a,10,100144,3,16,144,22,F,NA,variable,heterogeneous,3,absent,1.24711799621582,1,vertical,vertical,1,0.764700765609741,green,3,NaN,545.155339110131,608.899371659138,NaN,NaN,935.129412379467,816.252264519889,919.715248510402,374.848363820974,545.155339110131,608.899371659138,0,0,0,0,0,0,0,5,4,NaN,NaN,NaN,horizontal,horizontal,vertical,none,none,none
1a,10,100144,3,17,145,22,F,NA,variable,heterogeneous,4,present,1.02220892906189,1,horizontal,horizontal,1,1.09410229682922,green,1,2,853.017481158529,849.42763818712,1049.42763818712,546.982518841471,853.017481158529,849.42763818712,1049.42763818712,546.982518841471,746.982518841471,350.57236181288,550.57236181288,653.017481158529,0,0,0,0,4,0,5,6,NaN,NaN,horizontal,vertical,horizontal,vertical,none,none
1a,10,100144,3,18,146,22,F,NA,variable,heterogeneous,6,present,NaN,0,vertical,none,0,0.952930212020874,red,4,1,878.799333565612,357.480588344736,721.200666434388,842.519411655264,721.200666434388,842.519411655264,970.628304621509,789.501930496736,1049.42763818712,546.982518841471,878.799333565612,357.480588344736,629.371695378491,410.498069503264,550.57236181288,653.017481158529,5,5,6,4,0,3,horizontal,vertical,vertical,vertical,vertical,vertical
1a,10,100144,3,19,147,22,F,NA,variable,heterogeneous,3,present,1.07210397720337,1,vertical,vertical,1,1.07057361602783,red,1,3,977.137884467044,783.431649086356,552.574589799621,661.690083377915,977.137884467044,783.431649086356,870.287525733335,354.878267535729,552.574589799621,661.690083377915,0,0,0,0,0,0,4,5,6,NaN,NaN,NaN,vertical,vertical,horizontal,none,none,none
1a,10,100144,3,20,148,22,F,NA,variable,heterogeneous,5,present,1.59470200538635,1,vertical,vertical,1,0.858815488815308,green,2,3,1051.86052685176,639.890788585259,915.767577433584,372.793336331966,839.890788585259,851.86052685176,1051.86052685176,639.890788585259,915.767577433584,372.793336331966,619.68777079743,419.68777079743,572.793336331966,715.767577433584,0,0,0,4,5,5,6,NaN,vertical,vertical,vertical,vertical,vertical,none
1a,10,100144,3,21,149,22,F,NA,variable,heterogeneous,6,present,NaN,0,vertical,none,0,0.682350382804871,red,5,1,545.970351986605,577.775285599347,907.767656743878,831.108485694346,907.767656743878,831.108485694346,1054.0296480134,622.224714400653,946.261991269517,391.116228706307,692.232343256122,368.891514305654,545.970351986605,577.775285599347,653.738008730483,808.883771293693,0,0,6,3,4,5,horizontal,vertical,vertical,vertical,vertical,horizontal
1a,10,100144,3,22,150,22,F,NA,variable,heterogeneous,3,present,1.41649913787842,1,horizontal,horizontal,1,0.988223233222961,green,3,2,657.405809614959,388.595418998464,1054.37883281626,582.212099195248,688.215357568785,829.192481806288,1054.37883281626,582.212099195248,657.405809614959,388.595418998464,0,0,0,0,0,0,5,3,4,NaN,NaN,NaN,vertical,vertical,horizontal,none,none,none
1a,10,100144,3,23,151,22,F,NA,variable,heterogeneous,5,present,1.27068305015564,1,vertical,vertical,1,0.882344169616699,green,4,3,729.712474266665,354.878267535729,1011.40458100154,457.40580961496,712.784863451954,839.621618300407,1000.94274216971,756.993676208043,1011.40458100154,457.40580961496,729.712474266665,354.878267535729,545.155339110131,591.100628340862,0,0,6,3,3,4,0,NaN,horizontal,horizontal,vertical,vertical,vertical,none
1a,10,100144,3,24,152,22,F,NA,variable,heterogeneous,3,absent,0.911417961120605,0,horizontal,vertical,1,0.74117208480835,red,2,NaN,1016.25226451989,464.870587620533,NaN,NaN,808.899371659138,854.844660889869,1016.25226451989,464.870587620533,574.848363820974,480.284751489598,0,0,0,0,0,0,3,4,3,NaN,NaN,NaN,horizontal,horizontal,horizontal,none,none,none
1a,10,100144,3,25,153,22,F,NA,variable,heterogeneous,3,absent,0.993452072143555,1,vertical,vertical,1,0.999987573623657,red,1,NaN,653.738008730483,808.883771293693,NaN,NaN,653.738008730483,808.883771293693,1054.0296480134,622.224714400653,692.232343256122,368.891514305654,0,0,0,0,0,0,4,0,6,NaN,NaN,NaN,vertical,vertical,vertical,none,none,none
1a,10,100144,3,26,154,22,F,NA,variable,heterogeneous,4,absent,1.37118911743164,1,vertical,vertical,1,1.07057361602783,green,2,NaN,989.501930496736,429.371695378491,NaN,NaN,970.628304621509,789.501930496736,989.501930496736,429.371695378491,629.371695378491,410.498069503264,610.498069503264,770.628304621509,0,0,0,0,3,4,5,6,NaN,NaN,vertical,vertical,vertical,vertical,none,none
1a,10,100144,3,27,155,22,F,NA,variable,heterogeneous,6,present,1.09244585037231,1,horizontal,horizontal,1,0.694114723205566,red,6,1,568.891514305654,707.767656743878,777.775285599347,854.029648013395,777.775285599347,854.029648013395,1008.88377129369,746.261991269517,1031.10848569435,492.232343256122,822.224714400653,345.970351986605,591.116228706307,453.738008730483,568.891514305654,707.767656743878,0,3,3,6,5,4,horizontal,horizontal,horizontal,horizontal,vertical,horizontal
1a,10,100144,3,28,156,22,F,NA,variable,heterogeneous,5,absent,1.47464799880981,1,horizontal,horizontal,1,0.811758127212524,red,2,NaN,1054.96116226488,604.450363641507,NaN,NaN,874.554784704298,843.857712770574,1054.96116226488,604.450363641507,883.019879386575,358.892763222174,596.34794493794,446.537169096228,591.116228706307,746.261991269517,0,0,3,4,6,5,5,NaN,horizontal,horizontal,vertical,vertical,horizontal,none
1a,10,100144,3,29,157,22,F,NA,variable,heterogeneous,6,absent,0.900339126586914,1,horizontal,horizontal,1,1.01175191402435,green,5,NaN,545.621167183745,582.212099195248,NaN,NaN,911.784642431215,829.192481806288,1054.37883281626,617.787900804752,942.594190385041,388.595418998464,688.215357568785,370.807518193712,545.621167183745,582.212099195248,657.405809614959,811.404581001536,5,3,6,3,4,5,vertical,horizontal,vertical,horizontal,horizontal,horizontal
1a,10,100144,3,30,158,22,F,NA,variable,heterogeneous,3,absent,1.2465398311615,1,vertical,vertical,1,0.988223233222961,green,2,NaN,861.690083377915,352.574589799621,NaN,NaN,983.431649086356,777.137884467044,861.690083377915,352.574589799621,554.878267535729,670.287525733335,0,0,0,0,0,0,6,4,0,NaN,NaN,NaN,vertical,vertical,horizontal,none,none,none
1a,10,100144,3,31,159,22,F,NA,variable,heterogeneous,4,absent,1.9013659954071,1,vertical,vertical,1,0.870579829216003,green,2,NaN,1053.09926866854,568.923317431687,NaN,NaN,831.076682568313,853.099268668537,1053.09926866854,568.923317431687,768.923317431687,346.900731331463,546.900731331463,631.076682568313,0,0,0,0,3,4,0,6,NaN,NaN,horizontal,vertical,vertical,vertical,none,none
1a,10,100144,3,32,160,22,F,NA,variable,heterogeneous,3,present,0.78734302520752,1,vertical,vertical,1,0.999987573623657,green,2,1,1023.02802532055,723.626453162816,581.422338320961,731.334709102064,581.422338320961,731.334709102064,1023.02802532055,723.626453162816,795.549636358493,345.03883773512,0,0,0,0,0,0,6,4,5,NaN,NaN,NaN,vertical,vertical,vertical,none,none,none
1a,10,100144,3,33,161,22,F,NA,variable,heterogeneous,5,present,1.11615300178528,1,vertical,vertical,1,0.647057361602783,red,3,1,874.554784704298,356.142287229426,883.019879386575,841.107236777826,883.019879386575,841.107236777826,1054.96116226488,595.549636358493,874.554784704298,356.142287229426,591.116228706307,453.738008730483,596.34794493794,753.462830903772,0,0,6,0,4,5,5,NaN,vertical,horizontal,vertical,vertical,horizontal,none
1a,10,100144,3,34,162,22,F,NA,variable,heterogeneous,4,absent,0.638730049133301,1,vertical,vertical,1,0.788229446411133,red,3,NaN,813.345668841951,345.349468637584,NaN,NaN,786.654331158049,854.650531362416,1054.65053136242,613.345668841951,813.345668841951,345.349468637584,545.349468637584,586.654331158049,0,0,0,0,0,5,4,6,NaN,NaN,horizontal,horizontal,vertical,vertical,none,none
1a,10,100144,3,35,163,22,F,NA,variable,heterogeneous,4,absent,0.67977499961853,1,vertical,vertical,1,0.799993786811829,red,4,NaN,583.747735480111,464.870587620533,NaN,NaN,664.870587620533,816.252264519889,1016.25226451989,735.129412379467,935.129412379467,383.747735480111,583.747735480111,464.870587620533,0,0,0,0,0,6,3,4,NaN,NaN,horizontal,horizontal,horizontal,vertical,none,none
1a,10,100144,3,36,164,22,F,NA,variable,heterogeneous,3,present,0.802964925765991,0,horizontal,vertical,1,0.682350382804871,red,1,3,742.637481142314,848.464366520235,613.504806087112,426.090418184063,742.637481142314,848.464366520235,1043.85771277057,525.445215295702,613.504806087112,426.090418184063,0,0,0,0,0,0,4,5,6,NaN,NaN,NaN,horizontal,vertical,horizontal,none,none,none
1a,10,100144,3,37,165,22,F,NA,variable,heterogeneous,5,absent,1.06522393226624,1,vertical,vertical,1,0.894108510017395,green,5,NaN,545.621167183745,582.212099195248,NaN,NaN,704.475318678942,836.431882914531,995.341332995339,763.910840470068,1016.25226451989,464.870587620533,738.309916622085,352.574589799621,545.621167183745,582.212099195248,0,0,5,6,0,6,4,NaN,vertical,vertical,vertical,vertical,vertical,none
1a,10,100144,3,38,166,22,F,NA,variable,heterogeneous,5,present,1.78479695320129,1,vertical,vertical,1,0.705879063606262,red,1,2,795.549636358493,854.96116226488,1041.10723677783,683.019879386575,795.549636358493,854.96116226488,1041.10723677783,683.019879386575,953.462830903772,396.34794493794,653.738008730483,391.116228706307,556.142287229426,674.554784704298,0,0,4,0,0,6,5,NaN,vertical,horizontal,vertical,horizontal,horizontal,none
1a,10,100144,3,39,167,22,F,NA,variable,heterogeneous,4,absent,1.17232298851013,1,horizontal,horizontal,1,0.776465106010437,green,3,NaN,653.738008730483,391.116228706307,NaN,NaN,946.261991269517,808.883771293693,1008.88377129369,453.738008730483,653.738008730483,391.116228706307,591.116228706307,746.261991269517,0,0,0,0,5,0,4,3,NaN,NaN,horizontal,vertical,horizontal,vertical,none,none
1a,10,100144,3,40,168,22,F,NA,variable,heterogeneous,6,present,0.8643479347229,1,horizontal,horizontal,1,0.635293021202087,red,6,1,560.378381699593,687.215136548046,755.719714694933,851.125977018113,755.719714694933,851.125977018113,995.341332995339,763.910840470068,1039.62161830041,512.784863451954,844.280285305067,348.874022981887,604.658667004661,436.089159529932,560.378381699593,687.215136548046,5,6,6,3,0,4,horizontal,horizontal,horizontal,vertical,horizontal,horizontal
1a,10,100144,3,41,169,22,F,NA,variable,heterogeneous,4,present,1.25169515609741,1,horizontal,horizontal,1,0.694114723205566,green,1,2,742.637481142314,848.464366520235,1048.46436652023,657.362518857686,742.637481142314,848.464366520235,1048.46436652023,657.362518857686,857.362518857686,351.535633479765,551.535633479765,542.637481142314,0,0,0,0,4,3,3,6,NaN,NaN,horizontal,vertical,vertical,horizontal,none,none
1a,10,100144,3,42,170,22,F,NA,variable,heterogeneous,4,absent,0.808406114578247,1,horizontal,horizontal,1,0.976458892822266,green,3,NaN,768.923317431687,346.900731331463,NaN,NaN,831.076682568313,853.099268668537,1053.09926866854,568.923317431687,768.923317431687,346.900731331463,546.900731331463,631.076682568313,0,0,0,0,5,6,4,5,NaN,NaN,vertical,horizontal,horizontal,horizontal,none,none
1a,10,100144,3,43,171,22,F,NA,variable,heterogeneous,5,present,1.12633585929871,1,horizontal,horizontal,1,0.870579829216003,green,5,1,552.574589799621,538.309916622085,664.870587620533,816.252264519889,664.870587620533,816.252264519889,963.910840470068,795.341332995339,1036.43188291453,504.475318678942,782.212099195248,345.621167183745,552.574589799621,538.309916622085,0,0,0,5,3,3,4,NaN,horizontal,horizontal,vertical,horizontal,horizontal,none
1a,10,100144,3,44,172,22,F,NA,variable,heterogeneous,6,present,1.43499207496643,1,vertical,vertical,1,0.705879063606262,green,2,1,1016.25226451989,735.129412379467,791.100628340862,854.844660889869,791.100628340862,854.844660889869,1016.25226451989,735.129412379467,1025.15163617903,480.284751489598,808.899371659138,345.155339110131,583.747735480111,464.870587620533,574.848363820974,719.715248510402,6,4,6,5,0,0,vertical,vertical,vertical,horizontal,vertical,vertical
1a,10,100144,3,45,173,22,F,NA,variable,heterogeneous,6,present,1.5042450428009,1,horizontal,horizontal,1,0.835286808013916,green,1,5,782.212099195248,854.378832816255,588.595418998464,457.40580961496,782.212099195248,854.378832816255,1011.40458100154,742.594190385041,1029.19248180629,488.215357568785,817.787900804752,345.621167183745,588.595418998464,457.40580961496,570.807518193712,711.784642431215,4,6,3,3,0,6,horizontal,vertical,horizontal,vertical,vertical,horizontal
1a,10,100144,3,46,174,22,F,NA,variable,heterogeneous,3,present,1.14381098747253,1,vertical,vertical,1,1.03528059482574,red,2,3,1039.62161830041,512.784863451954,604.658667004661,436.089159529932,755.719714694933,851.125977018113,1039.62161830041,512.784863451954,604.658667004661,436.089159529932,0,0,0,0,0,0,5,4,3,NaN,NaN,NaN,horizontal,vertical,vertical,none,none,none
1a,10,100144,3,47,175,22,F,NA,variable,heterogeneous,6,absent,1.11564207077026,1,vertical,vertical,1,0.635293021202087,green,6,NaN,548.13947314824,639.890788585259,NaN,NaN,708.616172865948,838.063008756786,960.476699717708,798.172220171528,1051.86052685176,560.109211414741,891.383827134052,361.936991243214,639.523300282292,401.827779828472,548.13947314824,639.890788585259,3,0,0,6,6,4,horizontal,horizontal,horizontal,vertical,vertical,vertical
1a,10,100144,3,48,176,22,F,NA,variable,heterogeneous,5,absent,NaN,0,vertical,none,0,0.623528680801392,green,3,NaN,1020.83647796503,472.5,NaN,NaN,696.282156015671,832.954091698863,989.501930496736,770.628304621509,1020.83647796503,472.5,746.982518841471,350.57236181288,546.39691668109,573.345241866748,0,0,6,5,4,3,6,NaN,horizontal,horizontal,vertical,horizontal,horizontal,none
1a,10,100144,3,49,177,22,F,NA,variable,heterogeneous,4,present,0.920700073242188,1,vertical,vertical,1,0.682350382804871,red,4,2,556.142287229426,525.445215295702,1043.85771277057,674.554784704298,725.445215295702,843.857712770574,1043.85771277057,674.554784704298,874.554784704298,356.142287229426,556.142287229426,525.445215295702,0,0,0,0,5,3,3,4,NaN,NaN,horizontal,vertical,horizontal,vertical,none,none
1a,10,100144,3,50,178,22,F,NA,variable,heterogeneous,6,absent,1.30580711364746,1,vertical,vertical,1,0.941165871620178,green,2,NaN,1034.72873763037,699.636437764765,NaN,NaN,831.076682568313,853.099268668537,1034.72873763037,699.636437764765,1003.65205506206,446.537169096228,768.923317431687,346.900731331463,565.271262369628,500.363562235235,596.34794493794,753.462830903772,6,4,5,3,0,0,vertical,vertical,vertical,horizontal,horizontal,vertical
1a,10,100144,3,51,179,22,F,NA,variable,heterogeneous,5,present,1.05716300010681,1,horizontal,horizontal,1,0.835286808013916,green,1,5,883.019879386575,841.107236777826,596.34794493794,753.462830903772,883.019879386575,841.107236777826,1054.96116226488,595.549636358493,874.554784704298,356.142287229426,591.116228706307,453.738008730483,596.34794493794,753.462830903772,0,0,4,0,6,0,5,NaN,horizontal,vertical,vertical,vertical,vertical,none
1a,10,100144,3,52,180,22,F,NA,variable,heterogeneous,4,present,1.81470084190369,1,vertical,vertical,1,0.82352246761322,red,3,4,953.462830903772,396.34794493794,596.34794493794,446.537169096228,646.537169096228,803.65205506206,1003.65205506206,753.462830903772,953.462830903772,396.34794493794,596.34794493794,446.537169096228,0,0,0,0,3,3,4,5,NaN,NaN,vertical,horizontal,vertical,vertical,none,none
1a,10,100144,3,53,181,22,F,NA,variable,heterogeneous,4,present,NaN,0,vertical,none,0,0.858815488815308,green,4,2,554.878267535729,670.287525733335,1045.12173246427,529.712474266665,870.287525733335,845.121732464271,1045.12173246427,529.712474266665,729.712474266665,354.878267535729,554.878267535729,670.287525733335,0,0,0,0,6,3,0,4,NaN,NaN,horizontal,vertical,horizontal,vertical,none,none
1a,10,100144,3,54,182,22,F,NA,variable,heterogeneous,5,absent,1.25090885162354,0,horizontal,vertical,1,0.894108510017395,red,3,NaN,1038.06300875679,508.616172865948,NaN,NaN,661.117046071168,813.860994826083,960.476699717708,798.172220171528,1038.06300875679,508.616172865948,786.654331158049,345.349468637584,553.688914296288,534.001143498857,0,0,5,5,4,3,0,NaN,vertical,vertical,horizontal,vertical,vertical,none
1a,10,100144,3,55,183,22,F,NA,variable,heterogeneous,3,present,1.26774382591248,1,horizontal,horizontal,1,1.01175191402435,red,3,1,567.045908301137,496.282156015671,826.654758133252,853.60308331891,826.654758133252,853.60308331891,1006.29933356561,450.114760665419,567.045908301137,496.282156015671,0,0,0,0,0,0,6,6,4,NaN,NaN,NaN,vertical,horizontal,horizontal,none,none,none
1a,10,100144,3,56,184,22,F,NA,variable,heterogeneous,4,present,1.24833798408508,1,horizontal,horizontal,1,0.941165871620178,red,1,3,742.637481142314,848.464366520235,857.362518857686,351.535633479765,742.637481142314,848.464366520235,1048.46436652023,657.362518857686,857.362518857686,351.535633479765,551.535633479765,542.637481142314,0,0,0,0,4,5,0,3,NaN,NaN,horizontal,horizontal,horizontal,vertical,none,none
1a,10,100144,3,57,185,22,F,NA,variable,heterogeneous,4,present,1.34987998008728,1,vertical,vertical,1,1.02351625442505,green,3,2,861.690083377915,352.574589799621,1047.42541020038,661.690083377915,738.309916622085,847.425410200379,1047.42541020038,661.690083377915,861.690083377915,352.574589799621,552.574589799621,538.309916622085,0,0,0,0,3,0,4,6,NaN,NaN,vertical,vertical,vertical,horizontal,none,none
1a,10,100144,3,58,186,22,F,NA,variable,heterogeneous,6,absent,NaN,0,horizontal,none,0,0.96469455242157,green,3,NaN,949.885239334581,393.700666434388,NaN,NaN,903.717843984329,832.954091698863,1053.60308331891,626.654758133252,949.885239334581,393.700666434388,696.282156015671,367.045908301137,546.39691668109,573.345241866748,650.114760665419,806.299333565612,3,0,4,6,6,0,horizontal,vertical,horizontal,horizontal,horizontal,vertical
1a,10,100144,3,59,187,22,F,NA,variable,heterogeneous,5,absent,1.74309897422791,1,horizontal,horizontal,1,0.717643404006958,green,3,NaN,899.636437764765,365.271262369628,NaN,NaN,857.362518857686,848.464366520235,1054.0296480134,622.224714400653,899.636437764765,365.271262369628,607.549057043193,432.704947607421,581.422338320961,731.334709102064,0,0,5,0,4,5,0,NaN,vertical,horizontal,horizontal,vertical,vertical,none
1a,10,100144,3,60,188,22,F,NA,variable,heterogeneous,5,absent,1.01413297653198,1,vertical,vertical,1,0.799993786811829,red,4,NaN,565.271262369628,500.363562235235,NaN,NaN,931.334709102064,818.577661679039,1048.46436652023,542.637481142314,822.224714400653,345.970351986605,565.271262369628,500.363562235235,632.704947607421,792.450942956807,0,0,3,5,0,4,0,NaN,vertical,vertical,horizontal,vertical,vertical,none
1a,10,100144,3,61,189,22,F,NA,variable,heterogeneous,3,present,0.835232019424438,1,vertical,vertical,1,0.611764340400696,green,1,3,588.595418998464,742.594190385041,782.212099195248,345.621167183745,588.595418998464,742.594190385041,1029.19248180629,711.784642431215,782.212099195248,345.621167183745,0,0,0,0,0,0,4,5,5,NaN,NaN,NaN,vertical,vertical,vertical,none,none,none
1a,10,100144,3,62,190,22,F,NA,variable,heterogeneous,5,present,1.10114407539368,1,horizontal,horizontal,1,0.870579829216003,red,1,5,657.405809614959,811.404581001536,554.878267535729,529.712474266665,657.405809614959,811.404581001536,956.993676208043,800.942742169714,1039.62161830041,512.784863451954,791.100628340862,345.155339110131,554.878267535729,529.712474266665,0,0,4,5,5,6,0,NaN,horizontal,vertical,vertical,horizontal,horizontal,none
1a,10,100144,3,63,191,22,F,NA,variable,heterogeneous,6,present,1.10086107254028,1,horizontal,horizontal,1,0.670586042404175,green,3,4,935.129412379467,383.747735480111,680.284751489598,374.848363820974,919.715248510402,825.151636179026,1054.84466088987,608.899371659138,935.129412379467,383.747735480111,680.284751489598,374.848363820974,545.155339110131,591.100628340862,664.870587620533,816.252264519889,0,0,4,5,3,6,horizontal,vertical,horizontal,vertical,vertical,horizontal
1a,10,100144,3,64,192,22,F,NA,variable,heterogeneous,5,present,0.763550043106079,1,horizontal,horizontal,1,1.02351625442505,red,3,5,1020.83647796503,472.5,546.39691668109,573.345241866748,696.282156015671,832.954091698863,989.501930496736,770.628304621509,1020.83647796503,472.5,746.982518841471,350.57236181288,546.39691668109,573.345241866748,0,0,5,3,4,3,0,NaN,vertical,vertical,horizontal,vertical,horizontal,none
1a,10,100144,4,1,193,22,F,NA,variable,heterogeneous,3,present,1.19468903541565,1,horizontal,horizontal,1,0.988223233222961,green,3,1,639.523300282292,401.827779828472,708.616172865948,838.063008756786,708.616172865948,838.063008756786,1051.86052685176,560.109211414741,639.523300282292,401.827779828472,0,0,0,0,0,0,5,6,4,NaN,NaN,NaN,horizontal,vertical,horizontal,none,none,none
1a,10,100144,4,2,194,22,F,NA,variable,heterogeneous,6,present,1.35988306999207,1,horizontal,horizontal,1,0.858815488815308,green,6,4,626.090418184063,786.495193912888,725.445215295702,356.142287229426,874.554784704298,843.857712770574,1048.46436652023,657.362518857686,973.909581815937,413.504806087112,725.445215295702,356.142287229426,551.535633479765,542.637481142314,626.090418184063,786.495193912888,3,5,6,3,0,4,vertical,vertical,vertical,vertical,vertical,horizontal
1a,10,100144,4,3,195,22,F,NA,variable,heterogeneous,3,present,1.19605183601379,1,vertical,vertical,1,0.847051148414612,green,2,1,942.594190385041,388.595418998464,911.784642431215,829.192481806288,911.784642431215,829.192481806288,942.594190385041,388.595418998464,545.621167183745,582.212099195248,0,0,0,0,0,0,3,4,0,NaN,NaN,NaN,horizontal,vertical,horizontal,none,none,none
1a,10,100144,4,4,196,22,F,NA,variable,heterogeneous,3,absent,1.73451495170593,1,vertical,vertical,1,0.917637190818787,green,2,NaN,1023.02802532055,723.626453162816,NaN,NaN,581.422338320961,731.334709102064,1023.02802532055,723.626453162816,795.549636358493,345.03883773512,0,0,0,0,0,0,0,4,3,NaN,NaN,NaN,vertical,vertical,vertical,none,none,none
1a,10,100144,4,5,197,22,F,NA,variable,heterogeneous,6,absent,NaN,0,vertical,none,0,1.08233795642853,red,2,NaN,980.31222920257,780.31222920257,NaN,NaN,734.001143498857,846.311085703712,980.31222920257,780.31222920257,1046.31108570371,534.001143498857,865.998856501143,353.688914296288,619.68777079743,419.68777079743,553.688914296288,665.998856501143,6,4,5,0,0,6,vertical,vertical,horizontal,vertical,vertical,vertical
1a,10,100144,4,6,198,22,F,NA,variable,heterogeneous,5,present,1.68808603286743,1,vertical,vertical,1,1.03528059482574,green,3,1,826.654758133252,346.39691668109,927.5,820.836477965032,927.5,820.836477965032,1049.42763818712,546.982518841471,826.654758133252,346.39691668109,567.045908301137,496.282156015671,629.371695378491,789.501930496736,0,0,5,5,4,0,6,NaN,horizontal,horizontal,vertical,horizontal,vertical,none
1a,10,100144,4,7,199,22,F,NA,variable,heterogeneous,4,absent,0.993029832839966,1,horizontal,horizontal,1,0.952930212020874,green,3,NaN,688.215357568785,370.807518193712,NaN,NaN,911.784642431215,829.192481806288,1029.19248180629,488.215357568785,688.215357568785,370.807518193712,570.807518193712,711.784642431215,0,0,0,0,6,0,4,3,NaN,NaN,horizontal,horizontal,horizontal,vertical,none,none
1a,10,100144,4,8,200,22,F,NA,variable,heterogeneous,6,present,0.881443023681641,1,horizontal,horizontal,1,0.82352246761322,green,5,3,591.116228706307,453.738008730483,1031.10848569435,492.232343256122,777.775285599347,854.029648013395,1008.88377129369,746.261991269517,1031.10848569435,492.232343256122,822.224714400653,345.970351986605,591.116228706307,453.738008730483,568.891514305654,707.767656743878,5,6,5,3,4,6,horizontal,vertical,horizontal,vertical,horizontal,horizontal
1a,10,100144,4,9,201,22,F,NA,variable,heterogeneous,3,present,1.51547503471375,1,vertical,vertical,1,0.6,red,3,2,556.142287229426,674.554784704298,857.362518857686,351.535633479765,986.495193912888,773.909581815937,857.362518857686,351.535633479765,556.142287229426,674.554784704298,0,0,0,0,0,0,3,6,4,NaN,NaN,NaN,horizontal,horizontal,vertical,none,none,none
1a,10,100144,4,10,202,22,F,NA,variable,heterogeneous,3,present,1.09726977348328,1,vertical,vertical,1,0.96469455242157,red,2,1,1054.37883281626,617.787900804752,657.405809614959,811.404581001536,657.405809614959,811.404581001536,1054.37883281626,617.787900804752,688.215357568785,370.807518193712,0,0,0,0,0,0,6,4,5,NaN,NaN,NaN,vertical,vertical,vertical,none,none,none
1a,10,100144,4,11,203,22,F,NA,variable,heterogeneous,6,present,1.06862306594849,1,vertical,vertical,1,0.858815488815308,green,5,2,613.504806087112,426.090418184063,986.495193912888,773.909581815937,742.637481142314,848.464366520235,986.495193912888,773.909581815937,1043.85771277057,525.445215295702,857.362518857686,351.535633479765,613.504806087112,426.090418184063,556.142287229426,674.554784704298,3,3,6,0,4,0,vertical,vertical,horizontal,vertical,vertical,vertical
1a,10,100144,4,12,204,22,F,NA,variable,heterogeneous,4,present,1.70293998718262,1,horizontal,horizontal,1,0.647057361602783,red,1,4,874.554784704298,843.857712770574,556.142287229426,674.554784704298,874.554784704298,843.857712770574,1043.85771277057,525.445215295702,725.445215295702,356.142287229426,556.142287229426,674.554784704298,0,0,0,0,4,3,5,0,NaN,NaN,horizontal,horizontal,horizontal,vertical,none,none
1a,10,100144,4,13,205,22,F,NA,variable,heterogeneous,3,present,0.746822118759155,1,horizontal,horizontal,1,0.882344169616699,green,2,1,1049.42763818712,653.017481158529,629.371695378491,789.501930496736,629.371695378491,789.501930496736,1049.42763818712,653.017481158529,721.200666434388,357.480588344736,0,0,0,0,0,0,6,4,5,NaN,NaN,NaN,vertical,horizontal,vertical,none,none,none
1a,10,100144,4,14,206,22,F,NA,variable,heterogeneous,4,absent,1.55248403549194,1,horizontal,horizontal,1,0.729407744407654,red,3,NaN,773.345241866748,346.39691668109,NaN,NaN,826.654758133252,853.60308331891,1053.60308331891,573.345241866748,773.345241866748,346.39691668109,546.39691668109,626.654758133252,0,0,0,0,5,3,4,5,NaN,NaN,horizontal,vertical,horizontal,vertical,none,none
1a,10,100144,4,15,207,22,F,NA,variable,heterogeneous,5,present,0.839137077331543,1,vertical,vertical,1,0.764700765609741,red,3,2,1008.88377129369,453.738008730483,1003.65205506206,753.462830903772,716.980120613425,841.107236777826,1003.65205506206,753.462830903772,1008.88377129369,453.738008730483,725.445215295702,356.142287229426,545.03883773512,595.549636358493,0,0,3,0,4,3,0,NaN,horizontal,horizontal,vertical,vertical,vertical,none
1a,10,100144,4,16,208,22,F,NA,variable,heterogeneous,5,absent,0.825553894042969,1,vertical,vertical,1,1.07057361602783,green,4,NaN,692.232343256122,368.891514305654,NaN,NaN,751.343706178981,850.314931779154,1023.02802532055,723.626453162816,986.495193912888,426.090418184063,692.232343256122,368.891514305654,546.900731331463,631.076682568313,0,0,6,5,3,4,0,NaN,horizontal,vertical,vertical,vertical,vertical,none
1a,10,100144,4,17,209,22,F,NA,variable,heterogeneous,4,absent,1.57463407516479,1,vertical,vertical,1,1.02351625442505,green,4,NaN,568.891514305654,707.767656743878,NaN,NaN,907.767656743878,831.108485694346,1031.10848569435,492.232343256122,692.232343256122,368.891514305654,568.891514305654,707.767656743878,0,0,0,0,6,5,0,4,NaN,NaN,vertical,horizontal,vertical,vertical,none,none
1a,10,100144,4,18,210,22,F,NA,variable,heterogeneous,5,absent,1.47360396385193,1,vertical,vertical,1,0.764700765609741,red,3,NaN,963.910840470068,404.658667004661,NaN,NaN,782.212099195248,854.378832816255,1036.43188291453,695.524681321058,963.910840470068,404.658667004661,664.870587620533,383.747735480111,552.574589799621,661.690083377915,0,0,5,3,4,6,0,NaN,vertical,vertical,vertical,horizontal,vertical,none
1a,10,100144,4,19,211,22,F,NA,variable,heterogeneous,5,present,1.48968410491943,1,horizontal,horizontal,1,0.917637190818787,red,3,1,927.5,379.163522034968,826.654758133252,853.60308331891,826.654758133252,853.60308331891,1049.42763818712,653.017481158529,927.5,379.163522034968,629.371695378491,410.498069503264,567.045908301137,703.717843984329,0,0,5,0,4,3,0,NaN,horizontal,horizontal,horizontal,horizontal,vertical,none
1a,10,100144,4,20,212,22,F,NA,variable,heterogeneous,4,present,0.949527025222778,1,horizontal,horizontal,1,0.694114723205566,red,3,1,738.309916622085,352.574589799621,861.690083377915,847.425410200379,861.690083377915,847.425410200379,1047.42541020038,538.309916622085,738.309916622085,352.574589799621,552.574589799621,661.690083377915,0,0,0,0,0,6,4,6,NaN,NaN,horizontal,vertical,horizontal,horizontal,none,none
1a,10,100144,4,21,213,22,F,NA,variable,heterogeneous,6,absent,1.22485399246216,1,vertical,vertical,1,0.611764340400696,red,2,NaN,986.495193912888,773.909581815937,NaN,NaN,742.637481142314,848.464366520235,986.495193912888,773.909581815937,1043.85771277057,525.445215295702,857.362518857686,351.535633479765,613.504806087112,426.090418184063,556.142287229426,674.554784704298,3,4,0,6,0,3,horizontal,vertical,horizontal,horizontal,horizontal,vertical
1a,10,100144,4,22,214,22,F,NA,variable,heterogeneous,6,absent,NaN,0,horizontal,none,0,0.917637190818787,red,3,NaN,1046.31108570371,534.001143498857,NaN,NaN,734.001143498857,846.311085703712,980.31222920257,780.31222920257,1046.31108570371,534.001143498857,865.998856501143,353.688914296288,619.68777079743,419.68777079743,553.688914296288,665.998856501143,3,0,4,3,0,5,horizontal,vertical,horizontal,vertical,horizontal,vertical
1a,10,100144,4,23,215,22,F,NA,variable,heterogeneous,4,present,0.892682075500488,1,vertical,vertical,1,0.82352246761322,red,3,1,738.309916622085,352.574589799621,861.690083377915,847.425410200379,861.690083377915,847.425410200379,1047.42541020038,538.309916622085,738.309916622085,352.574589799621,552.574589799621,661.690083377915,0,0,0,0,0,5,4,6,NaN,NaN,vertical,vertical,vertical,vertical,none,none
1a,10,100144,4,24,216,22,F,NA,variable,heterogeneous,3,absent,0.68713116645813,1,vertical,vertical,1,0.611764340400696,red,3,NaN,626.090418184063,413.504806087112,NaN,NaN,725.445215295702,843.857712770574,1048.46436652023,542.637481142314,626.090418184063,413.504806087112,0,0,0,0,0,0,6,5,4,NaN,NaN,NaN,vertical,vertical,vertical,none,none,none
1a,10,100144,4,25,217,22,F,NA,variable,heterogeneous,5,present,1.07915186882019,1,vertical,vertical,1,0.705879063606262,green,3,1,963.910840470068,404.658667004661,782.212099195248,854.378832816255,782.212099195248,854.378832816255,1036.43188291453,695.524681321058,963.910840470068,404.658667004661,664.870587620533,383.747735480111,552.574589799621,661.690083377915,0,0,6,3,4,5,0,NaN,horizontal,horizontal,vertical,horizontal,horizontal,none
1a,10,100144,4,26,218,22,F,NA,variable,heterogeneous,4,present,0.900882959365845,1,vertical,vertical,1,0.999987573623657,green,2,3,1046.31108570371,665.998856501143,865.998856501143,353.688914296288,734.001143498857,846.311085703712,1046.31108570371,665.998856501143,865.998856501143,353.688914296288,553.688914296288,534.001143498857,0,0,0,0,6,4,6,3,NaN,NaN,vertical,vertical,vertical,horizontal,none,none
1a,10,100144,4,27,219,22,F,NA,variable,heterogeneous,6,absent,1.06295108795166,0,vertical,horizontal,1,0.788229446411133,green,6,NaN,576.971974679454,723.626453162816,NaN,NaN,795.549636358493,854.96116226488,1018.57766167904,731.334709102064,1023.02802532055,476.373546837184,804.450363641507,345.03883773512,581.422338320961,468.665290897936,576.971974679454,723.626453162816,5,3,6,6,0,4,vertical,vertical,vertical,horizontal,vertical,vertical
1a,10,100144,4,28,220,22,F,NA,variable,heterogeneous,4,absent,1.29223299026489,1,vertical,vertical,1,0.811758127212524,green,1,NaN,668.665290897936,818.577661679039,NaN,NaN,668.665290897936,818.577661679039,1018.57766167904,731.334709102064,931.334709102064,381.422338320961,581.422338320961,468.665290897936,0,0,0,0,4,3,0,5,NaN,NaN,vertical,horizontal,vertical,horizontal,none,none
1a,10,100144,4,29,221,22,F,NA,variable,heterogeneous,5,absent,0.887525081634521,1,horizontal,horizontal,1,1.04704493522644,green,1,NaN,768.923317431687,853.099268668537,NaN,NaN,768.923317431687,853.099268668537,1031.10848569435,707.767656743878,973.909581815937,413.504806087112,676.373546837184,376.971974679454,549.685068220846,648.656293821019,0,0,4,0,3,5,0,NaN,horizontal,horizontal,vertical,horizontal,vertical,none
1a,10,100144,4,30,222,22,F,NA,variable,heterogeneous,3,absent,0.964061975479126,1,vertical,vertical,1,0.74117208480835,red,2,NaN,919.715248510402,374.848363820974,NaN,NaN,935.129412379467,816.252264519889,919.715248510402,374.848363820974,545.155339110131,608.899371659138,0,0,0,0,0,0,0,4,5,NaN,NaN,NaN,horizontal,vertical,vertical,none,none,none
1a,10,100144,4,31,223,22,F,NA,variable,heterogeneous,5,present,0.974999904632568,1,horizontal,horizontal,1,0.96469455242157,green,2,1,992.450942956807,767.295052392579,700.363562235235,834.728737630372,700.363562235235,834.728737630372,992.450942956807,767.295052392579,1018.57766167904,468.665290897936,742.637481142314,351.535633479765,545.970351986605,577.775285599347,0,0,3,4,0,0,6,NaN,vertical,horizontal,horizontal,horizontal,horizontal,none
1a,10,100144,4,32,224,22,F,NA,variable,heterogeneous,3,absent,1.42623400688171,0,horizontal,vertical,1,0.988223233222961,red,3,NaN,556.142287229426,674.554784704298,NaN,NaN,986.495193912888,773.909581815937,857.362518857686,351.535633479765,556.142287229426,674.554784704298,0,0,0,0,0,0,5,3,4,NaN,NaN,NaN,vertical,horizontal,horizontal,none,none,none
1a,10,100144,4,33,225,22,F,NA,variable,heterogeneous,6,absent,NaN,0,horizontal,none,0,0.941165871620178,green,4,NaN,795.549636358493,345.03883773512,NaN,NaN,804.450363641507,854.96116226488,1023.02802532055,723.626453162816,1018.57766167904,468.665290897936,795.549636358493,345.03883773512,576.971974679454,476.373546837184,581.422338320961,731.334709102064,5,6,3,4,5,3,vertical,horizontal,vertical,horizontal,vertical,vertical
1a,10,100144,4,34,226,22,F,NA,variable,heterogeneous,5,absent,1.55163311958313,1,vertical,vertical,1,1.07057361602783,green,3,NaN,927.5,379.163522034968,NaN,NaN,826.654758133252,853.60308331891,1049.42763818712,653.017481158529,927.5,379.163522034968,629.371695378491,410.498069503264,567.045908301137,703.717843984329,0,0,3,5,4,0,5,NaN,horizontal,vertical,vertical,horizontal,horizontal,none
1a,10,100144,4,35,227,22,F,NA,variable,heterogeneous,3,absent,1.14836597442627,1,horizontal,horizontal,1,0.870579829216003,green,2,NaN,835.489140744817,347.4816424709,NaN,NaN,1000.94274216971,756.993676208043,835.489140744817,347.4816424709,563.568117085469,695.524681321058,0,0,0,0,0,0,3,4,3,NaN,NaN,NaN,vertical,horizontal,horizontal,none,none,none
1a,10,100144,4,36,228,22,F,NA,variable,heterogeneous,5,present,1.99506306648254,1,horizontal,horizontal,1,0.976458892822266,red,4,2,581.422338320961,468.665290897936,1054.0296480134,577.775285599347,899.636437764765,834.728737630372,1054.0296480134,577.775285599347,857.362518857686,351.535633479765,581.422338320961,468.665290897936,607.549057043193,767.295052392579,0,0,5,0,0,4,3,NaN,vertical,horizontal,horizontal,horizontal,horizontal,none
1a,10,100144,4,37,229,22,F,NA,variable,heterogeneous,3,present,1.33066892623901,1,horizontal,horizontal,1,0.776465106010437,red,1,3,935.129412379467,816.252264519889,545.155339110131,608.899371659138,935.129412379467,816.252264519889,919.715248510402,374.848363820974,545.155339110131,608.899371659138,0,0,0,0,0,0,4,6,0,NaN,NaN,NaN,horizontal,vertical,horizontal,none,none,none
1a,10,100144,4,38,230,22,F,NA,variable,heterogeneous,5,absent,1.07614398002625,1,horizontal,horizontal,1,0.929401531219482,red,5,NaN,550.57236181288,653.017481158529,NaN,NaN,773.345241866748,853.60308331891,1032.95409169886,703.717843984329,970.628304621509,410.498069503264,672.5,379.163522034968,550.57236181288,653.017481158529,0,0,6,0,5,5,4,NaN,horizontal,vertical,horizontal,vertical,horizontal,none
1a,10,100144,4,39,231,22,F,NA,variable,heterogeneous,5,absent,1.7011890411377,1,horizontal,horizontal,1,0.96469455242157,red,4,NaN,704.475318678942,363.568117085469,NaN,NaN,738.309916622085,847.425410200379,1016.25226451989,735.129412379467,995.341332995339,436.089159529932,704.475318678942,363.568117085469,545.621167183745,617.787900804752,0,0,6,5,5,4,3,NaN,vertical,vertical,horizontal,horizontal,horizontal,none
1a,10,100144,4,40,232,22,F,NA,variable,heterogeneous,5,present,1.04750204086304,1,vertical,vertical,1,0.611764340400696,red,5,3,586.139005173917,738.882953928832,891.383827134052,361.936991243214,865.998856501143,846.311085703712,1054.65053136242,613.345668841951,891.383827134052,361.936991243214,601.827779828472,439.523300282291,586.139005173917,738.882953928832,0,0,3,6,5,0,4,NaN,vertical,vertical,horizontal,vertical,vertical,none
1a,10,100144,4,41,233,22,F,NA,variable,heterogeneous,4,present,1.2485179901123,1,vertical,vertical,1,0.788229446411133,green,3,2,919.715248510402,374.848363820974,1025.15163617903,719.715248510402,680.284751489598,825.151636179026,1025.15163617903,719.715248510402,919.715248510402,374.848363820974,574.848363820974,480.284751489598,0,0,0,0,0,3,4,6,NaN,NaN,vertical,vertical,vertical,vertical,none,none
1a,10,100144,4,42,234,22,F,NA,variable,heterogeneous,3,absent,1.1036319732666,1,vertical,vertical,1,1.09410229682922,green,3,NaN,607.549057043193,432.704947607421,NaN,NaN,751.343706178981,850.314931779154,1041.10723677783,516.980120613425,607.549057043193,432.704947607421,0,0,0,0,0,0,5,3,4,NaN,NaN,NaN,vertical,horizontal,vertical,none,none,none
1a,10,100144,4,43,235,22,F,NA,variable,heterogeneous,5,present,NaN,0,horizontal,none,0,1.09410229682922,green,1,2,760.109211414741,851.86052685176,1027.20666366803,715.767577433584,760.109211414741,851.86052685176,1027.20666366803,715.767577433584,980.31222920257,419.68777079743,684.232422566416,372.793336331966,548.13947314824,639.890788585259,0,0,4,5,6,3,6,NaN,horizontal,vertical,horizontal,horizontal,vertical,none
1a,10,100144,4,44,236,22,F,NA,variable,heterogeneous,4,present,0.765271902084351,1,horizontal,horizontal,1,0.670586042404175,green,3,2,808.899371659138,345.155339110131,1054.84466088987,608.899371659138,791.100628340862,854.844660889869,1054.84466088987,608.899371659138,808.899371659138,345.155339110131,545.155339110131,591.100628340862,0,0,0,0,5,5,4,0,NaN,NaN,horizontal,vertical,horizontal,vertical,none,none
1a,10,100144,4,45,237,22,F,NA,variable,heterogeneous,6,absent,1.5006639957428,1,horizontal,horizontal,1,0.776465106010437,red,2,NaN,1020.83647796503,727.5,NaN,NaN,800,855,1020.83647796503,727.5,1020.83647796503,472.5,800,345,579.163522034968,472.5,579.163522034968,727.5,3,4,0,5,5,6,vertical,horizontal,vertical,vertical,vertical,vertical
1a,10,100144,4,46,238,22,F,NA,variable,heterogeneous,4,absent,1.26949596405029,1,vertical,vertical,1,0.74117208480835,red,3,NaN,878.799333565612,357.480588344736,NaN,NaN,721.200666434388,842.519411655264,1042.51941165526,678.799333565612,878.799333565612,357.480588344736,557.480588344736,521.200666434388,0,0,0,0,0,3,4,3,NaN,NaN,vertical,horizontal,vertical,horizontal,none,none
1a,10,100144,4,47,239,22,F,NA,variable,heterogeneous,3,present,0.836925029754639,1,horizontal,horizontal,1,0.894108510017395,red,3,2,570.807518193712,711.784642431215,817.787900804752,345.621167183745,1011.40458100154,742.594190385041,817.787900804752,345.621167183745,570.807518193712,711.784642431215,0,0,0,0,0,0,5,0,4,NaN,NaN,NaN,vertical,horizontal,horizontal,none,none,none
1a,10,100144,4,48,240,22,F,NA,variable,heterogeneous,3,absent,NaN,0,horizontal,none,0,0.670586042404175,green,2,NaN,1029.19248180629,488.215357568785,NaN,NaN,782.212099195248,854.378832816255,1029.19248180629,488.215357568785,588.595418998464,457.40580961496,0,0,0,0,0,0,0,4,5,NaN,NaN,NaN,vertical,horizontal,horizontal,none,none,none
1a,10,100144,4,49,241,22,F,NA,variable,heterogeneous,6,present,NaN,0,horizontal,none,0,0.682350382804871,red,4,1,773.345241866748,346.39691668109,826.654758133252,853.60308331891,826.654758133252,853.60308331891,1032.95409169886,703.717843984329,1006.29933356561,450.114760665419,773.345241866748,346.39691668109,567.045908301137,496.282156015671,593.700666434388,749.885239334581,6,5,5,4,6,0,horizontal,vertical,horizontal,horizontal,vertical,horizontal
1a,10,100144,4,50,242,22,F,NA,variable,heterogeneous,5,absent,1.37553691864014,1,vertical,vertical,1,0.694114723205566,red,2,NaN,1011.40458100154,742.594190385041,NaN,NaN,729.712474266665,845.121732464271,1011.40458100154,742.594190385041,1000.94274216971,443.006323791957,712.784863451954,360.378381699593,545.155339110131,608.899371659138,0,0,5,4,3,0,5,NaN,vertical,vertical,vertical,horizontal,horizontal,none
1a,10,100144,4,51,243,22,F,NA,variable,heterogeneous,6,present,0.926707983016968,1,vertical,vertical,1,0.96469455242157,green,2,3,1018.57766167904,731.334709102064,1023.02802532055,476.373546837184,795.549636358493,854.96116226488,1018.57766167904,731.334709102064,1023.02802532055,476.373546837184,804.450363641507,345.03883773512,581.422338320961,468.665290897936,576.971974679454,723.626453162816,6,4,5,0,3,3,vertical,vertical,horizontal,horizontal,horizontal,vertical
1a,10,100144,4,52,244,22,F,NA,variable,heterogeneous,6,absent,1.02050614356995,1,horizontal,horizontal,1,0.752936425209045,green,1,NaN,826.654758133252,853.60308331891,NaN,NaN,826.654758133252,853.60308331891,1032.95409169886,703.717843984329,1006.29933356561,450.114760665419,773.345241866748,346.39691668109,567.045908301137,496.282156015671,593.700666434388,749.885239334581,4,3,6,3,0,6,horizontal,vertical,horizontal,vertical,vertical,horizontal
1a,10,100144,4,53,245,22,F,NA,variable,heterogeneous,4,absent,1.37513399124146,0,horizontal,vertical,1,0.717643404006958,green,3,NaN,973.909581815937,413.504806087112,NaN,NaN,626.090418184063,786.495193912888,986.495193912888,773.909581815937,973.909581815937,413.504806087112,613.504806087112,426.090418184063,0,0,0,0,6,6,4,3,NaN,NaN,horizontal,vertical,horizontal,vertical,none,none
