experiment,subject,uniqueID,block,trial,trial_cumulative,age,gender,color_cond_blocking,color_history,shape_type,set_size,distractor,rt,acc,target_orient,response_key,response_made,iti,target_color,target_item,distractor_item,target_X,target_Y,distractor_X,distractor_Y,item1_X,item1_Y,item2_X,item2_Y,item3_X,item3_Y,item4_X,item4_Y,item5_X,item5_Y,item6_X,item6_Y,item1_shape,item2_shape,item3_shape,item4_shape,item5_shape,item6_shape,item1_line,item2_line,item3_line,item4_line,item5_line,item6_line
1a,11,100156,1,1,1,21,F,NA,variable,heterogeneous,4,absent,1.62546110153198,1,horizontal,horizontal,1,0.694115167293908,green,3,NaN,760.109211414741,348.13947314824,NaN,NaN,839.890788585259,851.86052685176,1051.86052685176,560.109211414741,760.109211414741,348.13947314824,548.13947314824,639.890788585259,0,0,0,0,6,6,4,3,NaN,NaN,vertical,horizontal,horizontal,horizontal,none,none
1a,11,100156,1,2,2,21,F,NA,variable,heterogeneous,5,absent,NaN,0,horizontal,none,0,0.882345501881725,green,4,NaN,604.658667004661,436.089159529932,NaN,NaN,861.690083377915,847.425410200379,1054.37883281626,617.787900804752,895.524681321058,363.568117085469,604.658667004661,436.089159529932,583.747735480111,735.129412379467,0,0,5,0,6,4,5,NaN,horizontal,vertical,vertical,horizontal,vertical,none
1a,11,100156,1,3,3,21,F,NA,variable,heterogeneous,5,present,0.652796030044556,0,horizontal,vertical,1,0.858816710058248,green,4,2,786.654331158049,345.349468637584,960.476699717708,798.172220171528,661.117046071168,813.860994826083,960.476699717708,798.172220171528,1038.06300875679,508.616172865948,786.654331158049,345.349468637584,553.688914296288,534.001143498857,0,0,0,6,3,4,5,NaN,horizontal,vertical,horizontal,horizontal,vertical,none
1a,11,100156,1,4,4,21,F,NA,variable,heterogeneous,3,present,0.886112928390503,0,vertical,horizontal,1,1.01175385691085,red,1,3,895.524681321058,836.431882914531,547.481642470899,564.510859255183,895.524681321058,836.431882914531,956.993676208043,399.057257830286,547.481642470899,564.510859255183,0,0,0,0,0,0,4,0,6,NaN,NaN,NaN,vertical,vertical,vertical,none,none,none
1a,11,100156,1,5,5,21,F,NA,variable,heterogeneous,6,present,0.91543984413147,0,horizontal,vertical,1,0.964696273263895,green,3,5,1053.09926866854,568.923317431687,646.537169096228,396.34794493794,700.363562235235,834.728737630372,953.462830903772,803.65205506206,1053.09926866854,568.923317431687,899.636437764765,365.271262369628,646.537169096228,396.34794493794,546.900731331463,631.076682568313,0,3,4,0,5,5,horizontal,vertical,horizontal,vertical,horizontal,vertical
1a,11,100156,1,6,6,21,F,NA,variable,heterogeneous,4,absent,1.31982207298279,1,horizontal,horizontal,1,1.09410462829302,red,2,NaN,983.431649086356,422.862115532956,NaN,NaN,977.137884467044,783.431649086356,983.431649086356,422.862115532956,622.862115532956,416.568350913644,616.568350913644,777.137884467044,0,0,0,0,3,4,5,6,NaN,NaN,vertical,horizontal,vertical,vertical,none,none
1a,11,100156,1,7,7,21,F,NA,variable,heterogeneous,3,present,0.920039892196655,1,horizontal,horizontal,1,0.894109897793464,green,1,2,804.450363641507,854.96116226488,1018.57766167904,468.665290897936,804.450363641507,854.96116226488,1018.57766167904,468.665290897936,576.971974679454,476.373546837184,0,0,0,0,0,0,4,6,0,NaN,NaN,NaN,horizontal,horizontal,vertical,none,none,none
1a,11,100156,1,8,8,21,F,NA,variable,heterogeneous,6,present,0.892172813415527,1,vertical,vertical,1,0.858816710058248,red,3,4,967.295052392579,407.549057043193,716.980120613425,358.892763222174,883.019879386575,841.107236777826,1050.31493177915,648.656293821019,967.295052392579,407.549057043193,716.980120613425,358.892763222174,549.685068220846,551.343706178981,632.704947607421,792.450942956807,6,3,4,5,5,3,horizontal,horizontal,vertical,vertical,horizontal,horizontal
1a,11,100156,1,9,9,21,F,NA,variable,heterogeneous,6,absent,0.876476049423218,1,horizontal,horizontal,1,0.917638689616941,red,5,NaN,548.874022981887,555.719714694933,NaN,NaN,887.215136548046,839.621618300407,1051.12597701811,644.280285305067,963.910840470068,404.658667004661,712.784863451954,360.378381699593,548.874022981887,555.719714694933,636.089159529932,795.341332995339,6,0,3,5,4,0,vertical,horizontal,vertical,vertical,horizontal,horizontal
1a,11,100156,1,10,10,21,F,NA,variable,heterogeneous,6,absent,1.05370306968689,1,horizontal,horizontal,1,0.76470154276434,red,5,NaN,599.057257830286,443.006323791957,NaN,NaN,764.510859255183,852.518357529101,1000.94274216971,756.993676208043,1036.43188291453,504.475318678942,835.489140744817,347.4816424709,599.057257830286,443.006323791957,563.568117085469,695.524681321058,0,6,6,5,4,5,horizontal,horizontal,horizontal,horizontal,horizontal,vertical
1a,11,100156,1,11,11,21,F,NA,variable,heterogeneous,3,present,0.856843948364258,0,horizontal,vertical,1,0.705879563205647,green,3,2,574.848363820974,480.284751489598,1016.25226451989,464.870587620533,808.899371659138,854.844660889869,1016.25226451989,464.870587620533,574.848363820974,480.284751489598,0,0,0,0,0,0,5,5,4,NaN,NaN,NaN,horizontal,vertical,horizontal,none,none,none
1a,11,100156,1,12,12,21,F,NA,variable,heterogeneous,4,present,0.883733034133911,1,horizontal,horizontal,1,1.08234023238128,green,2,1,1051.86052685176,560.109211414741,839.890788585259,851.86052685176,839.890788585259,851.86052685176,1051.86052685176,560.109211414741,760.109211414741,348.13947314824,548.13947314824,639.890788585259,0,0,0,0,3,4,0,0,NaN,NaN,vertical,horizontal,vertical,horizontal,none,none
1a,11,100156,1,13,13,21,F,NA,variable,heterogeneous,5,present,1.81178092956543,1,horizontal,horizontal,1,0.705879563205647,green,5,4,554.878267535729,670.287525733335,657.405809614959,388.595418998464,791.100628340862,854.844660889869,1039.62161830041,687.215136548046,956.993676208043,399.057257830286,657.405809614959,388.595418998464,554.878267535729,670.287525733335,0,0,5,0,5,0,4,NaN,horizontal,horizontal,vertical,horizontal,horizontal,none
1a,11,100156,1,14,14,21,F,NA,variable,heterogeneous,5,absent,0.604694128036499,1,vertical,vertical,1,0.823523522323033,green,5,NaN,546.39691668109,573.345241866748,NaN,NaN,696.282156015671,832.954091698863,989.501930496736,770.628304621509,1020.83647796503,472.5,746.982518841471,350.57236181288,546.39691668109,573.345241866748,0,0,6,0,0,3,4,NaN,vertical,vertical,vertical,horizontal,vertical,none
1a,11,100156,1,15,15,21,F,NA,variable,heterogeneous,3,absent,0.908692836761475,1,horizontal,horizontal,1,0.988225065087372,red,3,NaN,557.480588344736,521.200666434388,NaN,NaN,853.017481158529,849.42763818712,989.501930496736,429.371695378491,557.480588344736,521.200666434388,0,0,0,0,0,0,3,6,4,NaN,NaN,NaN,horizontal,vertical,horizontal,none,none,none
1a,11,100156,1,16,16,21,F,NA,variable,heterogeneous,6,absent,0.670880079269409,1,vertical,vertical,1,0.776465938676078,red,5,NaN,561.936991243214,508.616172865948,NaN,NaN,839.890788585259,851.86052685176,1038.06300875679,691.383827134052,998.172220171528,439.523300282291,760.109211414741,348.13947314824,561.936991243214,508.616172865948,601.827779828472,760.476699717708,5,6,0,0,4,6,vertical,vertical,vertical,horizontal,vertical,vertical
1a,11,100156,1,17,17,21,F,NA,variable,heterogeneous,3,absent,1.32295083999634,0,vertical,horizontal,1,0.729408355029124,green,1,NaN,826.654758133252,853.60308331891,NaN,NaN,826.654758133252,853.60308331891,1006.29933356561,450.114760665419,567.045908301137,496.282156015671,0,0,0,0,0,0,4,6,3,NaN,NaN,NaN,vertical,horizontal,horizontal,none,none,none
1a,11,100156,1,18,18,21,F,NA,variable,heterogeneous,5,present,1.54187393188477,1,vertical,vertical,1,0.611764395911739,red,1,3,844.280285305067,851.125977018113,911.784642431215,370.807518193712,844.280285305067,851.125977018113,1052.5183575291,635.489140744817,911.784642431215,370.807518193712,616.568350913644,422.862115532956,574.848363820974,719.715248510402,0,0,4,6,0,0,5,NaN,vertical,vertical,horizontal,horizontal,vertical,none
1a,11,100156,1,19,19,21,F,NA,variable,heterogeneous,3,present,0.739656925201416,1,horizontal,horizontal,1,0.92940308552868,red,3,1,551.535633479765,657.362518857686,973.909581815937,786.495193912888,973.909581815937,786.495193912888,874.554784704298,356.142287229426,551.535633479765,657.362518857686,0,0,0,0,0,0,5,6,4,NaN,NaN,NaN,vertical,horizontal,horizontal,none,none,none
1a,11,100156,1,20,20,21,F,NA,variable,heterogeneous,4,present,0.883177995681763,0,horizontal,vertical,1,1.03528264873433,red,1,4,931.334709102064,818.577661679039,581.422338320961,731.334709102064,931.334709102064,818.577661679039,1018.57766167904,468.665290897936,668.665290897936,381.422338320961,581.422338320961,731.334709102064,0,0,0,0,4,0,3,3,NaN,NaN,horizontal,vertical,horizontal,vertical,none,none
1a,11,100156,1,21,21,21,F,NA,variable,heterogeneous,4,present,0.726402044296265,1,vertical,vertical,1,1.07057583646954,green,4,3,546.39691668109,626.654758133252,773.345241866748,346.39691668109,826.654758133252,853.60308331891,1053.60308331891,573.345241866748,773.345241866748,346.39691668109,546.39691668109,626.654758133252,0,0,0,0,0,0,6,4,NaN,NaN,vertical,vertical,horizontal,vertical,none,none
1a,11,100156,1,22,22,21,F,NA,variable,heterogeneous,5,absent,1.18972587585449,1,vertical,vertical,1,1.04704704464607,red,2,NaN,1043.85771277057,674.554784704298,NaN,NaN,804.450363641507,854.96116226488,1043.85771277057,674.554784704298,946.261991269517,391.116228706307,646.537169096228,396.34794493794,558.892763222174,683.019879386575,0,0,5,4,0,3,6,NaN,horizontal,vertical,vertical,vertical,horizontal,none
1a,11,100156,1,23,23,21,F,NA,variable,heterogeneous,4,absent,0.73649001121521,1,horizontal,horizontal,1,0.741172750940863,red,2,NaN,1016.25226451989,735.129412379467,NaN,NaN,664.870587620533,816.252264519889,1016.25226451989,735.129412379467,935.129412379467,383.747735480111,583.747735480111,464.870587620533,0,0,0,0,6,4,6,3,NaN,NaN,vertical,horizontal,horizontal,vertical,none,none
1a,11,100156,1,24,24,21,F,NA,variable,heterogeneous,5,present,1.75152087211609,1,horizontal,horizontal,1,1.01175385691085,red,4,3,791.100628340862,345.155339110131,1039.62161830041,512.784863451954,657.405809614959,811.404581001536,956.993676208043,800.942742169714,1039.62161830041,512.784863451954,791.100628340862,345.155339110131,554.878267535729,529.712474266665,0,0,6,3,5,4,0,NaN,vertical,vertical,vertical,horizontal,horizontal,none
1a,11,100156,1,25,25,21,F,NA,variable,heterogeneous,3,present,0.94494104385376,1,vertical,vertical,1,0.882345501881725,red,2,3,1054.0296480134,622.224714400653,692.232343256122,368.891514305654,653.738008730483,808.883771293693,1054.0296480134,622.224714400653,692.232343256122,368.891514305654,0,0,0,0,0,0,6,4,0,NaN,NaN,NaN,horizontal,vertical,vertical,none,none,none
1a,11,100156,1,26,26,21,F,NA,variable,heterogeneous,5,absent,1.49682188034058,1,vertical,vertical,1,0.84705231414651,red,4,NaN,639.523300282292,401.827779828472,NaN,NaN,813.345668841951,854.650531362416,1046.31108570371,665.998856501143,938.882953928832,386.139005173917,639.523300282292,401.827779828472,561.936991243214,691.383827134052,0,0,3,0,6,4,5,NaN,vertical,vertical,horizontal,vertical,horizontal,none
1a,11,100156,1,27,27,21,F,NA,variable,heterogeneous,4,present,1.11694502830505,1,vertical,vertical,1,0.905874293705202,green,4,2,545.349468637584,586.654331158049,1054.65053136242,613.345668841951,786.654331158049,854.650531362416,1054.65053136242,613.345668841951,813.345668841951,345.349468637584,545.349468637584,586.654331158049,0,0,0,0,5,3,5,4,NaN,NaN,vertical,horizontal,horizontal,vertical,none,none
1a,11,100156,1,28,28,21,F,NA,variable,heterogeneous,6,present,NaN,0,vertical,none,0,0.952931877352157,red,5,6,591.116228706307,453.738008730483,568.891514305654,707.767656743878,777.775285599347,854.029648013395,1008.88377129369,746.261991269517,1031.10848569435,492.232343256122,822.224714400653,345.970351986605,591.116228706307,453.738008730483,568.891514305654,707.767656743878,3,5,3,5,4,6,horizontal,horizontal,vertical,horizontal,vertical,vertical
1a,11,100156,1,29,29,21,F,NA,variable,heterogeneous,4,absent,0.809381008148193,1,vertical,vertical,1,0.917638689616941,red,3,NaN,791.100628340862,345.155339110131,NaN,NaN,808.899371659138,854.844660889869,1054.84466088987,591.100628340862,791.100628340862,345.155339110131,545.155339110131,608.899371659138,0,0,0,0,3,6,4,0,NaN,NaN,horizontal,vertical,vertical,horizontal,none,none
1a,11,100156,1,30,30,21,F,NA,variable,heterogeneous,4,absent,0.588256120681763,1,vertical,vertical,1,0.92940308552868,green,3,NaN,734.001143498857,353.688914296288,NaN,NaN,865.998856501143,846.311085703712,1046.31108570371,534.001143498857,734.001143498857,353.688914296288,553.688914296288,665.998856501143,0,0,0,0,5,3,4,0,NaN,NaN,vertical,vertical,vertical,horizontal,none,none
1a,11,100156,1,31,31,21,F,NA,variable,heterogeneous,3,absent,1.01586699485779,1,vertical,vertical,1,0.76470154276434,red,1,NaN,734.001143498857,846.311085703712,NaN,NaN,734.001143498857,846.311085703712,1046.31108570371,534.001143498857,619.68777079743,419.68777079743,0,0,0,0,0,0,4,6,0,NaN,NaN,NaN,vertical,vertical,vertical,none,none,none
1a,11,100156,1,32,32,21,F,NA,variable,heterogeneous,3,absent,0.567995071411133,1,vertical,vertical,1,0.799994730499555,green,3,NaN,549.685068220846,648.656293821019,NaN,NaN,967.295052392579,792.450942956807,883.019879386575,358.892763222174,549.685068220846,648.656293821019,0,0,0,0,0,0,6,3,4,NaN,NaN,NaN,vertical,horizontal,vertical,none,none,none
1a,11,100156,1,33,33,21,F,NA,variable,heterogeneous,3,absent,0.690038919448853,1,horizontal,horizontal,1,0.917638689616941,green,2,NaN,963.910840470068,404.658667004661,NaN,NaN,887.215136548046,839.621618300407,963.910840470068,404.658667004661,548.874022981887,555.719714694933,0,0,0,0,0,0,0,4,6,NaN,NaN,NaN,horizontal,horizontal,horizontal,none,none,none
1a,11,100156,1,34,34,21,F,NA,variable,heterogeneous,6,absent,1.56877017021179,0,vertical,horizontal,1,1.03528264873433,red,1,NaN,746.982518841471,849.42763818712,NaN,NaN,746.982518841471,849.42763818712,989.501930496736,770.628304621509,1042.51941165526,521.200666434388,853.017481158529,350.57236181288,610.498069503264,429.371695378491,557.480588344736,678.799333565612,4,3,6,3,5,6,vertical,horizontal,horizontal,vertical,vertical,horizontal
1a,11,100156,1,35,35,21,F,NA,variable,heterogeneous,3,present,0.792286157608032,1,horizontal,horizontal,1,0.799994730499555,red,3,1,700.363562235235,365.271262369628,646.537169096228,803.65205506206,646.537169096228,803.65205506206,1053.09926866854,631.076682568313,700.363562235235,365.271262369628,0,0,0,0,0,0,3,0,4,NaN,NaN,NaN,vertical,vertical,horizontal,none,none,none
1a,11,100156,1,36,36,21,F,NA,variable,heterogeneous,3,present,0.657995939254761,1,vertical,vertical,1,0.694115167293908,green,2,3,942.594190385041,388.595418998464,545.621167183745,582.212099195248,911.784642431215,829.192481806288,942.594190385041,388.595418998464,545.621167183745,582.212099195248,0,0,0,0,0,0,5,4,6,NaN,NaN,NaN,horizontal,vertical,vertical,none,none,none
1a,11,100156,1,37,37,21,F,NA,variable,heterogeneous,4,present,0.833132982254028,0,horizontal,vertical,1,0.882345501881725,red,1,3,915.767577433584,827.206663668034,684.232422566416,372.793336331966,915.767577433584,827.206663668034,1027.20666366803,484.232422566416,684.232422566416,372.793336331966,572.793336331966,715.767577433584,0,0,0,0,4,5,6,0,NaN,NaN,horizontal,vertical,vertical,vertical,none,none
1a,11,100156,1,38,38,21,F,NA,variable,heterogeneous,6,absent,0.814038991928101,1,horizontal,horizontal,1,0.799994730499555,green,5,NaN,572.793336331966,484.232422566416,NaN,NaN,813.345668841951,854.650531362416,1027.20666366803,715.767577433584,1013.86099482608,461.117046071168,786.654331158049,345.349468637584,572.793336331966,484.232422566416,586.139005173917,738.882953928832,0,6,6,5,4,3,vertical,horizontal,vertical,horizontal,horizontal,horizontal
1a,11,100156,1,39,39,21,F,NA,variable,heterogeneous,4,absent,1.7763819694519,1,vertical,vertical,1,0.694115167293908,red,1,NaN,755.719714694933,851.125977018113,NaN,NaN,755.719714694933,851.125977018113,1051.12597701811,644.280285305067,844.280285305067,348.874022981887,548.874022981887,555.719714694933,0,0,0,0,4,5,6,0,NaN,NaN,vertical,horizontal,vertical,horizontal,none,none
1a,11,100156,1,40,40,21,F,NA,variable,heterogeneous,3,present,1.0041880607605,0,vertical,horizontal,1,0.6,green,2,1,1054.37883281626,617.787900804752,657.405809614959,811.404581001536,657.405809614959,811.404581001536,1054.37883281626,617.787900804752,688.215357568785,370.807518193712,0,0,0,0,0,0,6,4,3,NaN,NaN,NaN,horizontal,vertical,vertical,none,none,none
1a,11,100156,1,41,41,21,F,NA,variable,heterogeneous,3,absent,1.0584020614624,1,horizontal,horizontal,1,0.694115167293908,red,3,NaN,548.874022981887,644.280285305067,NaN,NaN,963.910840470068,795.341332995339,887.215136548046,360.378381699593,548.874022981887,644.280285305067,0,0,0,0,0,0,0,3,4,NaN,NaN,NaN,vertical,horizontal,horizontal,none,none,none
1a,11,100156,1,42,42,21,F,NA,variable,heterogeneous,6,absent,0.790404796600342,0,horizontal,vertical,1,0.941167481440418,green,6,NaN,545.970351986605,622.224714400653,NaN,NaN,692.232343256122,831.108485694346,946.261991269517,808.883771293693,1054.0296480134,577.775285599347,907.767656743878,368.891514305654,653.738008730483,391.116228706307,545.970351986605,622.224714400653,3,5,0,0,3,4,horizontal,horizontal,horizontal,horizontal,horizontal,horizontal
1a,11,100156,1,43,43,21,F,NA,variable,heterogeneous,4,absent,1.09856009483337,0,horizontal,vertical,1,0.988225065087372,green,4,NaN,588.595418998464,742.594190385041,NaN,NaN,942.594190385041,811.404581001536,1011.40458100154,457.40580961496,657.405809614959,388.595418998464,588.595418998464,742.594190385041,0,0,0,0,6,5,3,4,NaN,NaN,horizontal,vertical,vertical,horizontal,none,none
1a,11,100156,1,44,44,21,F,NA,variable,heterogeneous,5,absent,0.649579048156738,1,horizontal,horizontal,1,0.84705231414651,red,5,NaN,565.271262369628,699.636437764765,NaN,NaN,822.224714400653,854.029648013395,1048.46436652023,657.362518857686,931.334709102064,381.422338320961,632.704947607421,407.549057043193,565.271262369628,699.636437764765,0,0,3,5,0,6,4,NaN,vertical,horizontal,vertical,horizontal,horizontal,none
1a,11,100156,1,45,45,21,F,NA,variable,heterogeneous,6,present,1.79259490966797,1,horizontal,horizontal,1,0.694115167293908,red,4,6,791.100628340862,345.155339110131,583.747735480111,735.129412379467,808.899371659138,854.844660889869,1025.15163617903,719.715248510402,1016.25226451989,464.870587620533,791.100628340862,345.155339110131,574.848363820974,480.284751489598,583.747735480111,735.129412379467,5,3,0,4,0,5,vertical,horizontal,horizontal,horizontal,horizontal,horizontal
1a,11,100156,1,46,46,21,F,NA,variable,heterogeneous,3,absent,0.741401195526123,1,horizontal,horizontal,1,0.835287918234771,green,3,NaN,546.900731331463,631.076682568313,NaN,NaN,953.462830903772,803.65205506206,899.636437764765,365.271262369628,546.900731331463,631.076682568313,0,0,0,0,0,0,5,0,4,NaN,NaN,NaN,horizontal,horizontal,horizontal,none,none,none
1a,11,100156,1,47,47,21,F,NA,variable,heterogeneous,6,present,0.815176963806152,1,horizontal,horizontal,1,0.741172750940863,red,5,2,558.892763222174,516.980120613425,1041.10723677783,683.019879386575,848.656293821019,850.314931779154,1041.10723677783,683.019879386575,992.450942956807,432.704947607421,751.343706178981,349.685068220846,558.892763222174,516.980120613425,607.549057043193,767.295052392579,6,0,0,6,4,3,horizontal,horizontal,vertical,horizontal,horizontal,vertical
1a,11,100156,1,48,48,21,F,NA,variable,heterogeneous,4,present,0.463217973709106,1,horizontal,horizontal,1,0.776465938676078,green,4,2,545.03883773512,595.549636358493,1054.96116226488,604.450363641507,795.549636358493,854.96116226488,1054.96116226488,604.450363641507,804.450363641507,345.03883773512,545.03883773512,595.549636358493,0,0,0,0,3,0,5,4,NaN,NaN,horizontal,horizontal,vertical,horizontal,none,none
1a,11,100156,1,49,49,21,F,NA,variable,heterogeneous,5,present,0.562546968460083,0,vertical,horizontal,1,1.09410462829302,red,4,2,688.215357568785,370.807518193712,1025.15163617903,719.715248510402,755.719714694933,851.125977018113,1025.15163617903,719.715248510402,983.431649086356,422.862115532956,688.215357568785,370.807518193712,547.481642470899,635.489140744817,0,0,0,3,6,4,5,NaN,vertical,horizontal,vertical,vertical,horizontal,none
1a,11,100156,1,50,50,21,F,NA,variable,heterogeneous,5,absent,0.84081506729126,0,vertical,horizontal,1,0.741172750940863,green,4,NaN,676.373546837184,376.971974679454,NaN,NaN,768.923317431687,853.099268668537,1031.10848569435,707.767656743878,973.909581815937,413.504806087112,676.373546837184,376.971974679454,549.685068220846,648.656293821019,0,0,0,0,6,4,6,NaN,horizontal,vertical,horizontal,vertical,vertical,none
1a,11,100156,1,51,51,21,F,NA,variable,heterogeneous,6,present,1.9563729763031,1,vertical,vertical,1,0.741172750940863,green,3,5,1047.42541020038,538.309916622085,622.862115532956,416.568350913644,729.712474266665,845.121732464271,977.137884467044,783.431649086356,1047.42541020038,538.309916622085,870.287525733335,354.878267535729,622.862115532956,416.568350913644,552.574589799621,661.690083377915,3,5,4,3,6,5,horizontal,horizontal,vertical,vertical,horizontal,vertical
1a,11,100156,1,52,52,21,F,NA,variable,heterogeneous,4,absent,1.30433201789856,1,vertical,vertical,1,0.623528791823477,green,3,NaN,700.363562235235,365.271262369628,NaN,NaN,899.636437764765,834.728737630372,1034.72873763037,500.363562235235,700.363562235235,365.271262369628,565.271262369628,699.636437764765,0,0,0,0,3,0,4,3,NaN,NaN,vertical,horizontal,vertical,horizontal,none,none
1a,11,100156,1,53,53,21,F,NA,variable,heterogeneous,5,absent,1.85008811950684,1,horizontal,horizontal,1,0.788230334587817,green,5,NaN,626.090418184063,786.495193912888,NaN,NaN,923.626453162816,823.028025320546,1050.31493177915,551.343706178981,831.076682568313,346.900731331463,568.891514305654,492.232343256122,626.090418184063,786.495193912888,0,0,5,3,6,5,4,NaN,vertical,horizontal,vertical,vertical,horizontal,none
1a,11,100156,1,54,54,21,F,NA,variable,heterogeneous,4,present,1.61302614212036,1,vertical,vertical,1,0.68235077138217,red,1,4,746.982518841471,849.42763818712,550.57236181288,546.982518841471,746.982518841471,849.42763818712,1049.42763818712,653.017481158529,853.017481158529,350.57236181288,550.57236181288,546.982518841471,0,0,0,0,4,3,6,5,NaN,NaN,vertical,horizontal,vertical,vertical,none,none
1a,11,100156,1,55,55,21,F,NA,variable,heterogeneous,5,present,1.29261708259583,1,vertical,vertical,1,0.952931877352157,green,5,1,593.700666434388,749.885239334581,878.799333565612,842.519411655264,878.799333565612,842.519411655264,1055,600,878.799333565612,357.480588344736,593.700666434388,450.114760665419,593.700666434388,749.885239334581,0,0,3,5,5,0,4,NaN,horizontal,horizontal,horizontal,vertical,vertical,none
1a,11,100156,1,56,56,21,F,NA,variable,heterogeneous,6,present,0.861201047897339,1,vertical,vertical,1,0.917638689616941,green,6,5,639.523300282292,798.172220171528,548.13947314824,560.109211414741,891.383827134052,838.063008756786,1051.86052685176,639.890788585259,960.476699717708,401.827779828472,708.616172865948,361.936991243214,548.13947314824,560.109211414741,639.523300282292,798.172220171528,3,5,5,6,3,4,horizontal,horizontal,horizontal,vertical,vertical,vertical
1a,11,100156,1,57,57,21,F,NA,variable,heterogeneous,5,present,0.518939971923828,1,vertical,vertical,1,1.02351825282259,green,4,1,557.480588344736,521.200666434388,949.885239334581,806.299333565612,949.885239334581,806.299333565612,1042.51941165526,521.200666434388,800,345,557.480588344736,521.200666434388,650.114760665419,806.299333565612,0,0,3,0,5,4,5,NaN,horizontal,horizontal,horizontal,vertical,vertical,none
1a,11,100156,1,58,58,21,F,NA,variable,heterogeneous,6,absent,0.884236097335815,1,vertical,vertical,1,0.92940308552868,green,5,NaN,599.057257830286,443.006323791957,NaN,NaN,764.510859255183,852.518357529101,1000.94274216971,756.993676208043,1036.43188291453,504.475318678942,835.489140744817,347.4816424709,599.057257830286,443.006323791957,563.568117085469,695.524681321058,6,6,0,5,4,0,horizontal,vertical,vertical,horizontal,vertical,horizontal
1a,11,100156,1,59,59,21,F,NA,variable,heterogeneous,3,absent,1.19077396392822,1,vertical,vertical,1,0.623528791823477,red,1,NaN,622.862115532956,783.431649086356,NaN,NaN,622.862115532956,783.431649086356,1047.42541020038,661.690083377915,729.712474266665,354.878267535729,0,0,0,0,0,0,4,6,5,NaN,NaN,NaN,vertical,horizontal,vertical,none,none,none
1a,11,100156,1,60,60,21,F,NA,variable,heterogeneous,5,present,1.13178396224976,1,horizontal,horizontal,1,0.858816710058248,red,4,1,704.475318678942,363.568117085469,738.309916622085,847.425410200379,738.309916622085,847.425410200379,1016.25226451989,735.129412379467,995.341332995339,436.089159529932,704.475318678942,363.568117085469,545.621167183745,617.787900804752,0,0,3,0,5,4,6,NaN,horizontal,horizontal,horizontal,horizontal,horizontal,none
1a,11,100156,1,61,61,21,F,NA,variable,heterogeneous,4,present,0.812868118286133,1,vertical,vertical,1,0.905874293705202,red,4,1,591.116228706307,453.738008730483,653.738008730483,808.883771293693,653.738008730483,808.883771293693,1008.88377129369,746.261991269517,946.261991269517,391.116228706307,591.116228706307,453.738008730483,0,0,0,0,3,5,6,4,NaN,NaN,vertical,vertical,vertical,vertical,none,none
1a,11,100156,1,62,62,21,F,NA,variable,heterogeneous,6,present,1.82786917686462,1,horizontal,horizontal,1,0.92940308552868,green,4,2,848.656293821019,349.685068220846,992.450942956807,767.295052392579,751.343706178981,850.314931779154,992.450942956807,767.295052392579,1041.10723677783,516.980120613425,848.656293821019,349.685068220846,607.549057043193,432.704947607421,558.892763222174,683.019879386575,6,3,0,4,5,6,horizontal,horizontal,horizontal,horizontal,vertical,horizontal
1a,11,100156,1,63,63,21,F,NA,variable,heterogeneous,5,absent,1.24915504455566,1,horizontal,horizontal,1,0.823523522323033,red,1,NaN,708.616172865948,838.063008756786,NaN,NaN,708.616172865948,838.063008756786,998.172220171528,760.476699717708,1013.86099482608,461.117046071168,734.001143498857,353.688914296288,545.349468637584,586.654331158049,0,0,4,0,0,3,5,NaN,horizontal,horizontal,vertical,horizontal,horizontal,none
1a,11,100156,1,64,64,21,F,NA,variable,heterogeneous,6,absent,1.90147686004639,1,vertical,vertical,1,0.952931877352157,green,2,NaN,1027.20666366803,715.767577433584,NaN,NaN,813.345668841951,854.650531362416,1027.20666366803,715.767577433584,1013.86099482608,461.117046071168,786.654331158049,345.349468637584,572.793336331966,484.232422566416,586.139005173917,738.882953928832,5,4,0,6,0,6,vertical,vertical,vertical,horizontal,horizontal,vertical
1a,11,100156,2,1,65,21,F,NA,variable,heterogeneous,5,absent,1.49633502960205,1,horizontal,horizontal,1,1.07057583646954,red,2,NaN,998.172220171528,760.476699717708,NaN,NaN,708.616172865948,838.063008756786,998.172220171528,760.476699717708,1013.86099482608,461.117046071168,734.001143498857,353.688914296288,545.349468637584,586.654331158049,0,0,0,4,3,3,5,NaN,horizontal,horizontal,horizontal,vertical,horizontal,none
1a,11,100156,2,2,66,21,F,NA,variable,heterogeneous,4,absent,1.26213598251343,1,vertical,vertical,1,0.776465938676078,red,1,NaN,692.232343256122,831.108485694346,NaN,NaN,692.232343256122,831.108485694346,1031.10848569435,707.767656743878,907.767656743878,368.891514305654,568.891514305654,492.232343256122,0,0,0,0,4,3,0,0,NaN,NaN,vertical,vertical,horizontal,horizontal,none,none
1a,11,100156,2,3,67,21,F,NA,variable,heterogeneous,3,absent,0.891398906707764,1,horizontal,horizontal,1,0.988225065087372,red,2,NaN,963.910840470068,404.658667004661,NaN,NaN,887.215136548046,839.621618300407,963.910840470068,404.658667004661,548.874022981887,555.719714694933,0,0,0,0,0,0,3,4,0,NaN,NaN,NaN,horizontal,horizontal,horizontal,none,none,none
1a,11,100156,2,4,68,21,F,NA,variable,heterogeneous,6,absent,1.17278695106506,1,horizontal,horizontal,1,0.776465938676078,green,6,NaN,554.878267535729,670.287525733335,NaN,NaN,738.309916622085,847.425410200379,983.431649086356,777.137884467044,1045.12173246427,529.712474266665,861.690083377915,352.574589799621,616.568350913644,422.862115532956,554.878267535729,670.287525733335,3,0,3,6,6,4,horizontal,vertical,vertical,vertical,vertical,horizontal
1a,11,100156,2,5,69,21,F,NA,variable,heterogeneous,3,present,0.677345037460327,0,horizontal,vertical,1,1.04704704464607,red,2,3,907.767656743878,368.891514305654,545.970351986605,622.224714400653,946.261991269517,808.883771293693,907.767656743878,368.891514305654,545.970351986605,622.224714400653,0,0,0,0,0,0,5,4,5,NaN,NaN,NaN,vertical,horizontal,vertical,none,none,none
1a,11,100156,2,6,70,21,F,NA,variable,heterogeneous,6,present,1.37669491767883,1,vertical,vertical,1,1.08234023238128,red,5,1,591.116228706307,453.738008730483,777.775285599347,854.029648013395,777.775285599347,854.029648013395,1008.88377129369,746.261991269517,1031.10848569435,492.232343256122,822.224714400653,345.970351986605,591.116228706307,453.738008730483,568.891514305654,707.767656743878,3,0,6,5,4,0,vertical,vertical,vertical,vertical,vertical,vertical
1a,11,100156,2,7,71,21,F,NA,variable,heterogeneous,5,present,0.617332935333252,0,vertical,horizontal,1,0.858816710058248,red,4,2,657.405809614959,388.595418998464,1039.62161830041,687.215136548046,791.100628340862,854.844660889869,1039.62161830041,687.215136548046,956.993676208043,399.057257830286,657.405809614959,388.595418998464,554.878267535729,670.287525733335,0,0,6,6,3,4,5,NaN,horizontal,vertical,horizontal,vertical,horizontal,none
1a,11,100156,2,8,72,21,F,NA,variable,heterogeneous,4,present,0.840341091156006,1,horizontal,horizontal,1,0.705879563205647,red,2,4,1052.5183575291,635.489140744817,547.481642470899,564.510859255183,764.510859255183,852.518357529101,1052.5183575291,635.489140744817,835.489140744817,347.4816424709,547.481642470899,564.510859255183,0,0,0,0,3,4,6,5,NaN,NaN,horizontal,horizontal,vertical,horizontal,none,none
1a,11,100156,2,9,73,21,F,NA,variable,heterogeneous,5,absent,1.8513879776001,1,vertical,vertical,1,0.717643959117386,green,2,NaN,1049.42763818712,653.017481158529,NaN,NaN,826.654758133252,853.60308331891,1049.42763818712,653.017481158529,927.5,379.163522034968,629.371695378491,410.498069503264,567.045908301137,703.717843984329,0,0,6,4,0,6,5,NaN,vertical,vertical,horizontal,vertical,vertical,none
1a,11,100156,2,10,74,21,F,NA,variable,heterogeneous,6,present,1.51881098747253,1,vertical,vertical,1,0.905874293705202,red,2,5,1045.12173246427,670.287525733335,554.878267535729,529.712474266665,861.690083377915,847.425410200379,1045.12173246427,670.287525733335,983.431649086356,422.862115532956,738.309916622085,352.574589799621,554.878267535729,529.712474266665,616.568350913644,777.137884467044,6,4,5,0,5,3,vertical,vertical,vertical,vertical,vertical,horizontal
1a,11,100156,2,11,75,21,F,NA,variable,heterogeneous,3,present,0.827100038528442,1,vertical,vertical,1,0.68235077138217,red,3,1,554.878267535729,670.287525733335,983.431649086356,777.137884467044,983.431649086356,777.137884467044,861.690083377915,352.574589799621,554.878267535729,670.287525733335,0,0,0,0,0,0,0,3,4,NaN,NaN,NaN,horizontal,vertical,vertical,none,none,none
1a,11,100156,2,12,76,21,F,NA,variable,heterogeneous,3,present,0.611763954162598,1,vertical,vertical,1,1.01175385691085,red,3,1,692.232343256122,368.891514305654,653.738008730483,808.883771293693,653.738008730483,808.883771293693,1054.0296480134,622.224714400653,692.232343256122,368.891514305654,0,0,0,0,0,0,0,6,4,NaN,NaN,NaN,horizontal,vertical,vertical,none,none,none
1a,11,100156,2,13,77,21,F,NA,variable,heterogeneous,6,absent,0.79653787612915,1,vertical,vertical,1,0.999989460999111,red,1,NaN,915.767577433584,827.206663668034,NaN,NaN,915.767577433584,827.206663668034,1054.65053136242,613.345668841951,938.882953928832,386.139005173917,684.232422566416,372.793336331966,545.349468637584,586.654331158049,661.117046071168,813.860994826083,4,6,0,3,5,3,vertical,horizontal,horizontal,vertical,vertical,vertical
1a,11,100156,2,14,78,21,F,NA,variable,heterogeneous,5,present,NaN,0,horizontal,none,0,0.835287918234771,red,1,3,848.656293821019,850.314931779154,907.767656743878,368.891514305654,848.656293821019,850.314931779154,1053.09926866854,631.076682568313,907.767656743878,368.891514305654,613.504806087112,426.090418184063,576.971974679454,723.626453162816,0,0,4,5,3,0,5,NaN,horizontal,horizontal,horizontal,vertical,vertical,none
1a,11,100156,2,15,79,21,F,NA,variable,heterogeneous,5,present,0.959005117416382,1,vertical,vertical,1,0.670586375470431,red,5,4,545,600,721.200666434388,357.480588344736,721.200666434388,842.519411655264,1006.29933356561,749.885239334581,1006.29933356561,450.114760665419,721.200666434388,357.480588344736,545,600,0,0,6,5,0,5,4,NaN,vertical,horizontal,horizontal,horizontal,vertical,none
1a,11,100156,2,16,80,21,F,NA,variable,heterogeneous,5,present,0.677617073059082,0,horizontal,vertical,1,0.964696273263895,green,5,2,588.595418998464,742.594190385041,1054.84466088987,608.899371659138,870.287525733335,845.121732464271,1054.84466088987,608.899371659138,887.215136548046,360.378381699593,599.057257830286,443.006323791957,588.595418998464,742.594190385041,0,0,3,0,5,6,4,NaN,vertical,vertical,vertical,horizontal,horizontal,none
1a,11,100156,2,17,81,21,F,NA,variable,heterogeneous,5,absent,1.37691688537598,0,vertical,horizontal,1,1.08234023238128,red,3,NaN,1020.83647796503,472.5,NaN,NaN,696.282156015671,832.954091698863,989.501930496736,770.628304621509,1020.83647796503,472.5,746.982518841471,350.57236181288,546.39691668109,573.345241866748,0,0,5,6,4,3,0,NaN,horizontal,vertical,vertical,horizontal,vertical,none
1a,11,100156,2,18,82,21,F,NA,variable,heterogeneous,3,present,0.7674880027771,1,vertical,vertical,1,0.741172750940863,green,3,2,545.970351986605,577.775285599347,946.261991269517,391.116228706307,907.767656743878,831.108485694346,946.261991269517,391.116228706307,545.970351986605,577.775285599347,0,0,0,0,0,0,6,6,4,NaN,NaN,NaN,horizontal,vertical,vertical,none,none,none
1a,11,100156,2,19,83,21,F,NA,variable,heterogeneous,5,absent,1.35706400871277,1,vertical,vertical,1,0.905874293705202,red,4,NaN,746.982518841471,350.57236181288,NaN,NaN,696.282156015671,832.954091698863,989.501930496736,770.628304621509,1020.83647796503,472.5,746.982518841471,350.57236181288,546.39691668109,573.345241866748,0,0,5,3,6,4,3,NaN,vertical,horizontal,horizontal,vertical,horizontal,none
1a,11,100156,2,20,84,21,F,NA,variable,heterogeneous,3,absent,0.446027994155884,1,vertical,vertical,1,1.08234023238128,red,3,NaN,777.775285599347,345.970351986605,NaN,NaN,591.116228706307,746.261991269517,1031.10848569435,707.767656743878,777.775285599347,345.970351986605,0,0,0,0,0,0,3,6,4,NaN,NaN,NaN,horizontal,horizontal,vertical,none,none,none
1a,11,100156,2,21,85,21,F,NA,variable,heterogeneous,6,absent,0.855211019515991,1,vertical,vertical,1,0.988225065087372,red,4,NaN,708.616172865948,361.936991243214,NaN,NaN,891.383827134052,838.063008756786,1051.86052685176,639.890788585259,960.476699717708,401.827779828472,708.616172865948,361.936991243214,548.13947314824,560.109211414741,639.523300282292,798.172220171528,6,0,3,4,5,3,vertical,horizontal,horizontal,vertical,vertical,vertical
1a,11,100156,2,22,86,21,F,NA,variable,heterogeneous,3,absent,0.907452821731567,1,horizontal,horizontal,1,0.752937146852601,green,1,NaN,583.747735480111,735.129412379467,NaN,NaN,583.747735480111,735.129412379467,1025.15163617903,719.715248510402,791.100628340862,345.155339110131,0,0,0,0,0,0,4,6,0,NaN,NaN,NaN,horizontal,vertical,vertical,none,none,none
1a,11,100156,2,23,87,21,F,NA,variable,heterogeneous,4,present,1.07500696182251,1,vertical,vertical,1,0.658821979558693,red,2,4,1003.65205506206,446.537169096228,596.34794493794,753.462830903772,953.462830903772,803.65205506206,1003.65205506206,446.537169096228,646.537169096228,396.34794493794,596.34794493794,753.462830903772,0,0,0,0,5,4,0,0,NaN,NaN,vertical,vertical,vertical,horizontal,none,none
1a,11,100156,2,24,88,21,F,NA,variable,heterogeneous,4,absent,1.73039293289185,0,horizontal,vertical,1,0.694115167293908,red,1,NaN,887.215136548046,839.621618300407,NaN,NaN,887.215136548046,839.621618300407,1039.62161830041,512.784863451954,712.784863451954,360.378381699593,560.378381699593,687.215136548046,0,0,0,0,4,5,5,6,NaN,NaN,horizontal,horizontal,horizontal,vertical,none,none
1a,11,100156,2,25,89,21,F,NA,variable,heterogeneous,6,present,0.767352104187012,1,horizontal,horizontal,1,0.694115167293908,red,4,1,844.280285305067,348.874022981887,755.719714694933,851.125977018113,755.719714694933,851.125977018113,995.341332995339,763.910840470068,1039.62161830041,512.784863451954,844.280285305067,348.874022981887,604.658667004661,436.089159529932,560.378381699593,687.215136548046,0,3,6,4,5,0,horizontal,horizontal,vertical,horizontal,horizontal,horizontal
1a,11,100156,2,26,90,21,F,NA,variable,heterogeneous,4,present,1.14700603485107,1,vertical,vertical,1,0.811759126411294,red,2,3,1041.10723677783,516.980120613425,716.980120613425,358.892763222174,883.019879386575,841.107236777826,1041.10723677783,516.980120613425,716.980120613425,358.892763222174,558.892763222174,683.019879386575,0,0,0,0,6,4,0,3,NaN,NaN,vertical,vertical,horizontal,horizontal,none,none
1a,11,100156,2,27,91,21,F,NA,variable,heterogeneous,6,present,0.948078155517578,1,horizontal,horizontal,1,1.09410462829302,green,6,5,664.870587620533,816.252264519889,545.155339110131,591.100628340862,919.715248510402,825.151636179026,1054.84466088987,608.899371659138,935.129412379467,383.747735480111,680.284751489598,374.848363820974,545.155339110131,591.100628340862,664.870587620533,816.252264519889,3,3,0,6,5,4,horizontal,horizontal,horizontal,horizontal,horizontal,horizontal
1a,11,100156,2,28,92,21,F,NA,variable,heterogeneous,3,absent,1.00407600402832,1,vertical,vertical,1,0.84705231414651,green,2,NaN,919.715248510402,374.848363820974,NaN,NaN,935.129412379467,816.252264519889,919.715248510402,374.848363820974,545.155339110131,608.899371659138,0,0,0,0,0,0,0,4,6,NaN,NaN,NaN,vertical,vertical,horizontal,none,none,none
1a,11,100156,2,29,93,21,F,NA,variable,heterogeneous,3,present,1.16091990470886,1,horizontal,horizontal,1,1.02351825282259,red,2,3,1048.46436652023,542.637481142314,626.090418184063,413.504806087112,725.445215295702,843.857712770574,1048.46436652023,542.637481142314,626.090418184063,413.504806087112,0,0,0,0,0,0,3,4,0,NaN,NaN,NaN,vertical,horizontal,vertical,none,none,none
1a,11,100156,2,30,94,21,F,NA,variable,heterogeneous,6,absent,1.01269197463989,1,horizontal,horizontal,1,0.823523522323033,red,4,NaN,738.309916622085,352.574589799621,NaN,NaN,861.690083377915,847.425410200379,1045.12173246427,670.287525733335,983.431649086356,422.862115532956,738.309916622085,352.574589799621,554.878267535729,529.712474266665,616.568350913644,777.137884467044,6,5,6,4,3,3,horizontal,vertical,vertical,horizontal,horizontal,vertical
1a,11,100156,2,31,95,21,F,NA,variable,heterogeneous,4,absent,0.689321041107178,1,horizontal,horizontal,1,0.611764395911739,green,3,NaN,708.616172865948,361.936991243214,NaN,NaN,891.383827134052,838.063008756786,1038.06300875679,508.616172865948,708.616172865948,361.936991243214,561.936991243214,691.383827134052,0,0,0,0,0,5,4,5,NaN,NaN,vertical,horizontal,horizontal,vertical,none,none
1a,11,100156,2,32,96,21,F,NA,variable,heterogeneous,3,present,1.06775307655334,0,horizontal,vertical,1,0.623528791823477,green,1,3,768.923317431687,853.099268668537,596.34794493794,446.537169096228,768.923317431687,853.099268668537,1034.72873763037,500.363562235235,596.34794493794,446.537169096228,0,0,0,0,0,0,4,6,3,NaN,NaN,NaN,horizontal,horizontal,vertical,none,none,none
1a,11,100156,2,33,97,21,F,NA,variable,heterogeneous,4,present,0.802350044250488,1,horizontal,horizontal,1,0.858816710058248,green,4,3,547.481642470899,635.489140744817,764.510859255183,347.4816424709,835.489140744817,852.518357529101,1052.5183575291,564.510859255183,764.510859255183,347.4816424709,547.481642470899,635.489140744817,0,0,0,0,5,0,6,4,NaN,NaN,vertical,horizontal,vertical,horizontal,none,none
1a,11,100156,2,34,98,21,F,NA,variable,heterogeneous,4,present,0.745753049850464,1,vertical,vertical,1,0.76470154276434,green,2,3,1032.95409169886,496.282156015671,696.282156015671,367.045908301137,903.717843984329,832.954091698863,1032.95409169886,496.282156015671,696.282156015671,367.045908301137,567.045908301137,703.717843984329,0,0,0,0,5,4,6,0,NaN,NaN,horizontal,vertical,vertical,vertical,none,none
1a,11,100156,2,35,99,21,F,NA,variable,heterogeneous,6,absent,1.58388900756836,1,vertical,vertical,1,0.952931877352157,green,1,NaN,878.799333565612,842.519411655264,NaN,NaN,878.799333565612,842.519411655264,1049.42763818712,653.017481158529,970.628304621509,410.498069503264,721.200666434388,357.480588344736,550.57236181288,546.982518841471,629.371695378491,789.501930496736,4,6,0,3,0,6,vertical,horizontal,horizontal,vertical,horizontal,vertical
1a,11,100156,2,36,100,21,F,NA,variable,heterogeneous,3,absent,0.714773893356323,1,vertical,vertical,1,0.752937146852601,green,2,NaN,1042.51941165526,521.200666434388,NaN,NaN,746.982518841471,849.42763818712,1042.51941165526,521.200666434388,610.498069503264,429.371695378491,0,0,0,0,0,0,6,4,3,NaN,NaN,NaN,horizontal,vertical,vertical,none,none,none
1a,11,100156,2,37,101,21,F,NA,variable,heterogeneous,6,absent,1.91171598434448,1,horizontal,horizontal,1,0.917638689616941,green,2,NaN,992.450942956807,767.295052392579,NaN,NaN,751.343706178981,850.314931779154,992.450942956807,767.295052392579,1041.10723677783,516.980120613425,848.656293821019,349.685068220846,607.549057043193,432.704947607421,558.892763222174,683.019879386575,0,4,5,3,0,6,horizontal,horizontal,vertical,horizontal,vertical,vertical
1a,11,100156,2,38,102,21,F,NA,variable,heterogeneous,3,present,0.757800817489624,1,vertical,vertical,1,0.788230334587817,green,3,1,548.874022981887,644.280285305067,963.910840470068,795.341332995339,963.910840470068,795.341332995339,887.215136548046,360.378381699593,548.874022981887,644.280285305067,0,0,0,0,0,0,0,3,4,NaN,NaN,NaN,vertical,vertical,vertical,none,none,none
1a,11,100156,2,39,103,21,F,NA,variable,heterogeneous,6,present,0.818150997161865,1,horizontal,horizontal,1,0.647057583646954,red,6,1,570.807518193712,711.784642431215,782.212099195248,854.378832816255,782.212099195248,854.378832816255,1011.40458100154,742.594190385041,1029.19248180629,488.215357568785,817.787900804752,345.621167183745,588.595418998464,457.40580961496,570.807518193712,711.784642431215,5,0,3,3,6,4,horizontal,vertical,horizontal,vertical,horizontal,horizontal
1a,11,100156,2,40,104,21,F,NA,variable,heterogeneous,5,present,0.784862995147705,1,vertical,vertical,1,0.905874293705202,green,3,2,853.017481158529,350.57236181288,1053.60308331891,573.345241866748,903.717843984329,832.954091698863,1053.60308331891,573.345241866748,853.017481158529,350.57236181288,579.163522034968,472.5,610.498069503264,770.628304621509,0,0,5,6,4,6,5,NaN,vertical,vertical,vertical,vertical,vertical,none
1a,11,100156,2,41,105,21,F,NA,variable,heterogeneous,6,present,0.803791046142578,1,vertical,vertical,1,0.952931877352157,green,1,4,791.100628340862,854.844660889869,808.899371659138,345.155339110131,791.100628340862,854.844660889869,1016.25226451989,735.129412379467,1025.15163617903,480.284751489598,808.899371659138,345.155339110131,583.747735480111,464.870587620533,574.848363820974,719.715248510402,4,3,0,6,6,5,vertical,vertical,vertical,horizontal,vertical,vertical
1a,11,100156,2,42,106,21,F,NA,variable,heterogeneous,5,present,1.54947900772095,0,vertical,horizontal,1,1.08234023238128,green,5,2,552.574589799621,538.309916622085,963.910840470068,795.341332995339,664.870587620533,816.252264519889,963.910840470068,795.341332995339,1036.43188291453,504.475318678942,782.212099195248,345.621167183745,552.574589799621,538.309916622085,0,0,0,5,3,6,4,NaN,horizontal,vertical,vertical,vertical,vertical,none
1a,11,100156,2,43,107,21,F,NA,variable,heterogeneous,6,present,1.79751706123352,1,vertical,vertical,1,0.647057583646954,green,4,6,688.215357568785,370.807518193712,657.405809614959,811.404581001536,911.784642431215,829.192481806288,1054.37883281626,617.787900804752,942.594190385041,388.595418998464,688.215357568785,370.807518193712,545.621167183745,582.212099195248,657.405809614959,811.404581001536,5,0,5,4,3,6,vertical,vertical,horizontal,vertical,vertical,vertical
1a,11,100156,2,44,108,21,F,NA,variable,heterogeneous,6,absent,1.1895489692688,1,horizontal,horizontal,1,0.6,red,6,NaN,557.480588344736,678.799333565612,NaN,NaN,746.982518841471,849.42763818712,989.501930496736,770.628304621509,1042.51941165526,521.200666434388,853.017481158529,350.57236181288,610.498069503264,429.371695378491,557.480588344736,678.799333565612,3,5,0,6,3,4,horizontal,horizontal,vertical,vertical,horizontal,horizontal
1a,11,100156,2,45,109,21,F,NA,variable,heterogeneous,6,present,1.07132697105408,1,horizontal,horizontal,1,0.694115167293908,green,4,6,822.224714400653,345.970351986605,568.891514305654,707.767656743878,777.775285599347,854.029648013395,1008.88377129369,746.261991269517,1031.10848569435,492.232343256122,822.224714400653,345.970351986605,591.116228706307,453.738008730483,568.891514305654,707.767656743878,6,0,3,4,3,0,horizontal,vertical,vertical,horizontal,vertical,vertical
1a,11,100156,2,46,110,21,F,NA,variable,heterogeneous,4,present,0.921332120895386,0,vertical,horizontal,1,0.811759126411294,green,1,3,857.362518857686,848.464366520235,742.637481142314,351.535633479765,857.362518857686,848.464366520235,1048.46436652023,542.637481142314,742.637481142314,351.535633479765,551.535633479765,657.362518857686,0,0,0,0,4,6,0,3,NaN,NaN,vertical,horizontal,horizontal,vertical,none,none
1a,11,100156,2,47,111,21,F,NA,variable,heterogeneous,4,absent,0.667251825332642,1,horizontal,horizontal,1,0.76470154276434,green,3,NaN,804.450363641507,345.03883773512,NaN,NaN,795.549636358493,854.96116226488,1054.96116226488,604.450363641507,804.450363641507,345.03883773512,545.03883773512,595.549636358493,0,0,0,0,0,3,4,5,NaN,NaN,vertical,horizontal,horizontal,vertical,none,none
1a,11,100156,2,48,112,21,F,NA,variable,heterogeneous,5,present,1.29224491119385,1,horizontal,horizontal,1,0.976460669175634,red,2,1,1034.72873763037,699.636437764765,777.775285599347,854.029648013395,777.775285599347,854.029648013395,1034.72873763037,699.636437764765,967.295052392579,407.549057043193,668.665290897936,381.422338320961,551.535633479765,657.362518857686,0,0,0,4,3,3,6,NaN,horizontal,horizontal,vertical,horizontal,horizontal,none
1a,11,100156,2,49,113,21,F,NA,variable,heterogeneous,4,absent,0.983730792999268,1,horizontal,horizontal,1,0.870581105969987,red,3,NaN,773.345241866748,346.39691668109,NaN,NaN,826.654758133252,853.60308331891,1053.60308331891,573.345241866748,773.345241866748,346.39691668109,546.39691668109,626.654758133252,0,0,0,0,6,3,4,0,NaN,NaN,vertical,horizontal,horizontal,horizontal,none,none
1a,11,100156,2,50,114,21,F,NA,variable,heterogeneous,4,absent,0.899463891983032,1,vertical,vertical,1,0.6,green,4,NaN,581.422338320961,731.334709102064,NaN,NaN,931.334709102064,818.577661679039,1018.57766167904,468.665290897936,668.665290897936,381.422338320961,581.422338320961,731.334709102064,0,0,0,0,5,0,3,4,NaN,NaN,vertical,vertical,vertical,vertical,none,none
1a,11,100156,2,51,115,21,F,NA,variable,heterogeneous,6,absent,1.16059899330139,1,vertical,vertical,1,0.752937146852601,green,2,NaN,1025.15163617903,719.715248510402,NaN,NaN,808.899371659138,854.844660889869,1025.15163617903,719.715248510402,1016.25226451989,464.870587620533,791.100628340862,345.155339110131,574.848363820974,480.284751489598,583.747735480111,735.129412379467,0,4,5,3,6,6,horizontal,vertical,horizontal,vertical,horizontal,vertical
1a,11,100156,2,52,116,21,F,NA,variable,heterogeneous,4,absent,0.988687038421631,0,vertical,horizontal,1,0.84705231414651,red,2,NaN,1039.62161830041,687.215136548046,NaN,NaN,712.784863451954,839.621618300407,1039.62161830041,687.215136548046,887.215136548046,360.378381699593,560.378381699593,512.784863451954,0,0,0,0,6,4,3,3,NaN,NaN,vertical,vertical,horizontal,horizontal,none,none
1a,11,100156,2,53,117,21,F,NA,variable,heterogeneous,3,absent,0.887633085250854,1,horizontal,horizontal,1,0.941167481440418,green,1,NaN,865.998856501143,846.311085703712,NaN,NaN,865.998856501143,846.311085703712,980.31222920257,419.68777079743,553.688914296288,534.001143498857,0,0,0,0,0,0,4,5,0,NaN,NaN,NaN,horizontal,vertical,vertical,none,none,none
1a,11,100156,2,54,118,21,F,NA,variable,heterogeneous,4,absent,0.738194942474365,1,vertical,vertical,1,0.823523522323033,green,2,NaN,1027.20666366803,715.767577433584,NaN,NaN,684.232422566416,827.206663668034,1027.20666366803,715.767577433584,915.767577433584,372.793336331966,572.793336331966,484.232422566416,0,0,0,0,6,4,5,0,NaN,NaN,vertical,vertical,vertical,horizontal,none,none
1a,11,100156,2,55,119,21,F,NA,variable,heterogeneous,5,present,0.913578987121582,0,horizontal,vertical,1,1.03528264873433,green,4,5,688.215357568785,370.807518193712,547.481642470899,635.489140744817,755.719714694933,851.125977018113,1025.15163617903,719.715248510402,983.431649086356,422.862115532956,688.215357568785,370.807518193712,547.481642470899,635.489140744817,0,0,3,5,0,4,0,NaN,horizontal,vertical,vertical,horizontal,vertical,none
1a,11,100156,2,56,120,21,F,NA,variable,heterogeneous,3,absent,1.07849717140198,0,horizontal,vertical,1,0.917638689616941,red,1,NaN,963.910840470068,795.341332995339,NaN,NaN,963.910840470068,795.341332995339,887.215136548046,360.378381699593,548.874022981887,644.280285305067,0,0,0,0,0,0,4,3,3,NaN,NaN,NaN,horizontal,vertical,vertical,none,none,none
1a,11,100156,2,57,121,21,F,NA,variable,heterogeneous,5,absent,1.89576506614685,1,horizontal,horizontal,1,0.788230334587817,green,3,NaN,956.993676208043,399.057257830286,NaN,NaN,791.100628340862,854.844660889869,1039.62161830041,687.215136548046,956.993676208043,399.057257830286,657.405809614959,388.595418998464,554.878267535729,670.287525733335,0,0,5,0,4,5,0,NaN,vertical,horizontal,horizontal,horizontal,horizontal,none
1a,11,100156,2,58,122,21,F,NA,variable,heterogeneous,3,absent,0.799991846084595,1,vertical,vertical,1,0.694115167293908,red,2,NaN,995.341332995339,436.089159529932,NaN,NaN,844.280285305067,851.125977018113,995.341332995339,436.089159529932,560.378381699593,512.784863451954,0,0,0,0,0,0,3,4,0,NaN,NaN,NaN,horizontal,vertical,vertical,none,none,none
1a,11,100156,2,59,123,21,F,NA,variable,heterogeneous,5,absent,1.74884986877441,1,horizontal,horizontal,1,1.02351825282259,green,2,NaN,1036.43188291453,695.524681321058,NaN,NaN,782.212099195248,854.378832816255,1036.43188291453,695.524681321058,963.910840470068,404.658667004661,664.870587620533,383.747735480111,552.574589799621,661.690083377915,0,0,5,4,6,3,5,NaN,vertical,horizontal,vertical,horizontal,horizontal,none
1a,11,100156,2,60,124,21,F,NA,variable,heterogeneous,5,absent,0.606590986251831,1,horizontal,horizontal,1,0.941167481440418,red,3,NaN,1038.06300875679,508.616172865948,NaN,NaN,661.117046071168,813.860994826083,960.476699717708,798.172220171528,1038.06300875679,508.616172865948,786.654331158049,345.349468637584,553.688914296288,534.001143498857,0,0,6,6,4,5,0,NaN,vertical,horizontal,horizontal,vertical,vertical,none
1a,11,100156,2,61,125,21,F,NA,variable,heterogeneous,4,present,0.691075086593628,1,horizontal,horizontal,1,0.999989460999111,green,1,2,688.215357568785,829.192481806288,1029.19248180629,711.784642431215,688.215357568785,829.192481806288,1029.19248180629,711.784642431215,911.784642431215,370.807518193712,570.807518193712,488.215357568785,0,0,0,0,4,5,6,0,NaN,NaN,horizontal,horizontal,horizontal,vertical,none,none
1a,11,100156,2,62,126,21,F,NA,variable,heterogeneous,4,present,0.976925849914551,1,horizontal,horizontal,1,0.811759126411294,red,1,4,760.109211414741,851.86052685176,548.13947314824,560.109211414741,760.109211414741,851.86052685176,1051.86052685176,639.890788585259,839.890788585259,348.13947314824,548.13947314824,560.109211414741,0,0,0,0,4,6,0,3,NaN,NaN,horizontal,vertical,vertical,vertical,none,none
1a,11,100156,2,63,127,21,F,NA,variable,heterogeneous,5,absent,0.980751037597656,1,vertical,vertical,1,0.799994730499555,green,4,NaN,742.637481142314,351.535633479765,NaN,NaN,700.363562235235,834.728737630372,992.450942956807,767.295052392579,1018.57766167904,468.665290897936,742.637481142314,351.535633479765,545.970351986605,577.775285599347,0,0,5,5,3,4,0,NaN,vertical,horizontal,horizontal,vertical,vertical,none
1a,11,100156,2,64,128,21,F,NA,variable,heterogeneous,3,present,0.75629997253418,1,horizontal,horizontal,1,0.788230334587817,green,3,2,547.481642470899,564.510859255183,956.993676208043,399.057257830286,895.524681321058,836.431882914531,956.993676208043,399.057257830286,547.481642470899,564.510859255183,0,0,0,0,0,0,0,5,4,NaN,NaN,NaN,horizontal,horizontal,horizontal,none,none,none
1a,11,100156,3,1,129,21,F,NA,variable,heterogeneous,4,absent,1.36061000823975,1,vertical,vertical,1,0.741172750940863,red,1,NaN,786.654331158049,854.650531362416,NaN,NaN,786.654331158049,854.650531362416,1054.65053136242,613.345668841951,813.345668841951,345.349468637584,545.349468637584,586.654331158049,0,0,0,0,4,0,0,3,NaN,NaN,vertical,horizontal,horizontal,horizontal,none,none
1a,11,100156,3,2,130,21,F,NA,variable,heterogeneous,4,present,1.05124092102051,1,horizontal,horizontal,1,0.976460669175634,red,1,3,887.215136548046,839.621618300407,712.784863451954,360.378381699593,887.215136548046,839.621618300407,1039.62161830041,512.784863451954,712.784863451954,360.378381699593,560.378381699593,687.215136548046,0,0,0,0,4,0,5,3,NaN,NaN,horizontal,vertical,vertical,vertical,none,none
1a,11,100156,3,3,131,21,F,NA,variable,heterogeneous,6,present,1.6293261051178,1,horizontal,horizontal,1,0.635293187735216,green,2,6,1041.10723677783,683.019879386575,607.549057043193,767.295052392579,848.656293821019,850.314931779154,1041.10723677783,683.019879386575,992.450942956807,432.704947607421,751.343706178981,349.685068220846,558.892763222174,516.980120613425,607.549057043193,767.295052392579,3,4,5,0,6,6,horizontal,horizontal,vertical,horizontal,vertical,vertical
1a,11,100156,3,4,132,21,F,NA,variable,heterogeneous,6,present,1.22675204277039,0,horizontal,vertical,1,0.84705231414651,green,4,2,764.510859255183,347.4816424709,1036.43188291453,695.524681321058,835.489140744817,852.518357529101,1036.43188291453,695.524681321058,1000.94274216971,443.006323791957,764.510859255183,347.4816424709,563.568117085469,504.475318678942,599.057257830286,756.993676208043,5,5,3,4,3,6,horizontal,vertical,vertical,horizontal,horizontal,vertical
1a,11,100156,3,5,133,21,F,NA,variable,heterogeneous,6,absent,0.764688968658447,0,vertical,horizontal,1,1.03528264873433,red,2,NaN,970.628304621509,789.501930496736,NaN,NaN,721.200666434388,842.519411655264,970.628304621509,789.501930496736,1049.42763818712,546.982518841471,878.799333565612,357.480588344736,629.371695378491,410.498069503264,550.57236181288,653.017481158529,0,4,6,6,5,3,vertical,vertical,horizontal,horizontal,horizontal,horizontal
1a,11,100156,3,6,134,21,F,NA,variable,heterogeneous,3,absent,0.697829008102417,0,vertical,horizontal,1,1.08234023238128,green,2,NaN,1041.10723677783,683.019879386575,NaN,NaN,607.549057043193,767.295052392579,1041.10723677783,683.019879386575,751.343706178981,349.685068220846,0,0,0,0,0,0,6,4,5,NaN,NaN,NaN,horizontal,vertical,horizontal,none,none,none
1a,11,100156,3,7,135,21,F,NA,variable,heterogeneous,4,present,1.160640001297,1,vertical,vertical,1,0.84705231414651,red,2,4,1027.20666366803,484.232422566416,572.793336331966,715.767577433584,915.767577433584,827.206663668034,1027.20666366803,484.232422566416,684.232422566416,372.793336331966,572.793336331966,715.767577433584,0,0,0,0,6,4,3,3,NaN,NaN,horizontal,vertical,vertical,horizontal,none,none
1a,11,100156,3,8,136,21,F,NA,variable,heterogeneous,5,present,1.84083795547485,1,horizontal,horizontal,1,1.03528264873433,green,5,3,576.971974679454,723.626453162816,907.767656743878,368.891514305654,848.656293821019,850.314931779154,1053.09926866854,631.076682568313,907.767656743878,368.891514305654,613.504806087112,426.090418184063,576.971974679454,723.626453162816,0,0,6,5,5,6,4,NaN,horizontal,horizontal,horizontal,vertical,horizontal,none
1a,11,100156,3,9,137,21,F,NA,variable,heterogeneous,5,absent,1.22282385826111,1,vertical,vertical,1,1.0588114405578,red,4,NaN,604.658667004661,436.089159529932,NaN,NaN,861.690083377915,847.425410200379,1054.37883281626,617.787900804752,895.524681321058,363.568117085469,604.658667004661,436.089159529932,583.747735480111,735.129412379467,0,0,0,6,6,4,5,NaN,horizontal,vertical,vertical,vertical,vertical,none
1a,11,100156,3,10,138,21,F,NA,variable,heterogeneous,4,absent,0.637696027755737,0,horizontal,vertical,1,1.09410462829302,green,3,NaN,632.704947607421,407.549057043193,NaN,NaN,967.295052392579,792.450942956807,992.450942956807,432.704947607421,632.704947607421,407.549057043193,607.549057043193,767.295052392579,0,0,0,0,0,5,4,3,NaN,NaN,horizontal,vertical,horizontal,vertical,none,none
1a,11,100156,3,11,139,21,F,NA,variable,heterogeneous,6,present,1.43457198143005,1,horizontal,horizontal,1,0.988225065087372,red,1,2,696.282156015671,832.954091698863,949.885239334581,806.299333565612,696.282156015671,832.954091698863,949.885239334581,806.299333565612,1053.60308331891,573.345241866748,903.717843984329,367.045908301137,650.114760665419,393.700666434388,546.39691668109,626.654758133252,4,5,0,6,5,3,horizontal,vertical,vertical,vertical,vertical,horizontal
1a,11,100156,3,12,140,21,F,NA,variable,heterogeneous,4,present,1.24838399887085,1,horizontal,horizontal,1,1.0588114405578,green,4,2,613.504806087112,773.909581815937,986.495193912888,426.090418184063,973.909581815937,786.495193912888,986.495193912888,426.090418184063,626.090418184063,413.504806087112,613.504806087112,773.909581815937,0,0,0,0,0,5,3,4,NaN,NaN,vertical,horizontal,horizontal,horizontal,none,none
1a,11,100156,3,13,141,21,F,NA,variable,heterogeneous,3,absent,0.983098983764648,0,horizontal,vertical,1,1.07057583646954,green,2,NaN,1054.37883281626,617.787900804752,NaN,NaN,657.405809614959,811.404581001536,1054.37883281626,617.787900804752,688.215357568785,370.807518193712,0,0,0,0,0,0,3,4,5,NaN,NaN,NaN,vertical,horizontal,horizontal,none,none,none
1a,11,100156,3,14,142,21,F,NA,variable,heterogeneous,5,present,1.81248188018799,1,vertical,vertical,1,0.870581105969987,green,4,3,712.784863451954,360.378381699593,1000.94274216971,443.006323791957,729.712474266665,845.121732464271,1011.40458100154,742.594190385041,1000.94274216971,443.006323791957,712.784863451954,360.378381699593,545.155339110131,608.899371659138,0,0,6,6,0,4,5,NaN,horizontal,horizontal,horizontal,vertical,vertical,none
1a,11,100156,3,15,143,21,F,NA,variable,heterogeneous,3,present,1.04764199256897,1,vertical,vertical,1,0.941167481440418,red,1,3,949.885239334581,806.299333565612,546.39691668109,626.654758133252,949.885239334581,806.299333565612,903.717843984329,367.045908301137,546.39691668109,626.654758133252,0,0,0,0,0,0,4,6,6,NaN,NaN,NaN,vertical,vertical,horizontal,none,none,none
1a,11,100156,3,16,144,21,F,NA,variable,heterogeneous,6,absent,0.658566951751709,0,horizontal,vertical,1,0.882345501881725,red,1,NaN,813.345668841951,854.650531362416,NaN,NaN,813.345668841951,854.650531362416,1027.20666366803,715.767577433584,1013.86099482608,461.117046071168,786.654331158049,345.349468637584,572.793336331966,484.232422566416,586.139005173917,738.882953928832,4,0,3,6,3,6,horizontal,horizontal,vertical,horizontal,horizontal,vertical
1a,11,100156,3,17,145,21,F,NA,variable,heterogeneous,6,absent,1.67051482200623,1,vertical,vertical,1,0.717643959117386,red,5,NaN,572.793336331966,484.232422566416,NaN,NaN,813.345668841951,854.650531362416,1027.20666366803,715.767577433584,1013.86099482608,461.117046071168,786.654331158049,345.349468637584,572.793336331966,484.232422566416,586.139005173917,738.882953928832,3,5,0,6,4,3,vertical,horizontal,horizontal,horizontal,vertical,vertical
1a,11,100156,3,18,146,21,F,NA,variable,heterogeneous,6,present,0.937065124511719,1,vertical,vertical,1,0.858816710058248,green,6,5,553.688914296288,665.998856501143,619.68777079743,419.68777079743,734.001143498857,846.311085703712,980.31222920257,780.31222920257,1046.31108570371,534.001143498857,865.998856501143,353.688914296288,619.68777079743,419.68777079743,553.688914296288,665.998856501143,6,5,6,0,3,4,horizontal,vertical,vertical,vertical,horizontal,vertical
1a,11,100156,3,19,147,21,F,NA,variable,heterogeneous,3,present,0.698174953460693,1,horizontal,horizontal,1,0.705879563205647,red,3,1,636.089159529932,404.658667004661,712.784863451954,839.621618300407,712.784863451954,839.621618300407,1051.12597701811,555.719714694933,636.089159529932,404.658667004661,0,0,0,0,0,0,0,0,4,NaN,NaN,NaN,horizontal,horizontal,horizontal,none,none,none
1a,11,100156,3,20,148,21,F,NA,variable,heterogeneous,4,present,1.16256499290466,1,vertical,vertical,1,0.717643959117386,green,4,2,554.878267535729,670.287525733335,1045.12173246427,529.712474266665,870.287525733335,845.121732464271,1045.12173246427,529.712474266665,729.712474266665,354.878267535729,554.878267535729,670.287525733335,0,0,0,0,0,5,5,4,NaN,NaN,vertical,horizontal,horizontal,vertical,none,none
1a,11,100156,3,21,149,21,F,NA,variable,heterogeneous,5,absent,1.12412118911743,1,horizontal,horizontal,1,0.905874293705202,green,3,NaN,919.715248510402,374.848363820974,NaN,NaN,835.489140744817,852.518357529101,1051.12597701811,644.280285305067,919.715248510402,374.848363820974,622.862115532956,416.568350913644,570.807518193712,711.784642431215,0,0,6,6,4,0,3,NaN,vertical,vertical,horizontal,horizontal,horizontal,none
1a,11,100156,3,22,150,21,F,NA,variable,heterogeneous,3,absent,0.862464904785156,1,horizontal,horizontal,1,0.988225065087372,red,2,NaN,1048.46436652023,542.637481142314,NaN,NaN,725.445215295702,843.857712770574,1048.46436652023,542.637481142314,626.090418184063,413.504806087112,0,0,0,0,0,0,5,4,6,NaN,NaN,NaN,vertical,horizontal,vertical,none,none,none
1a,11,100156,3,23,151,21,F,NA,variable,heterogeneous,5,absent,1.73106598854065,1,vertical,vertical,1,0.964696273263895,green,5,NaN,601.827779828472,760.476699717708,NaN,NaN,891.383827134052,838.063008756786,1054.65053136242,586.654331158049,865.998856501143,353.688914296288,586.139005173917,461.117046071168,601.827779828472,760.476699717708,0,0,3,5,3,6,4,NaN,vertical,vertical,vertical,vertical,vertical,none
1a,11,100156,3,24,152,21,F,NA,variable,heterogeneous,4,absent,0.811530113220215,1,horizontal,horizontal,1,0.68235077138217,red,4,NaN,586.139005173917,738.882953928832,NaN,NaN,938.882953928832,813.860994826083,1013.86099482608,461.117046071168,661.117046071168,386.139005173917,586.139005173917,738.882953928832,0,0,0,0,6,0,0,4,NaN,NaN,vertical,horizontal,horizontal,horizontal,none,none
1a,11,100156,3,25,153,21,F,NA,variable,heterogeneous,5,absent,1.95685815811157,1,horizontal,horizontal,1,0.623528791823477,red,4,NaN,619.68777079743,419.68777079743,NaN,NaN,839.890788585259,851.86052685176,1051.86052685176,639.890788585259,915.767577433584,372.793336331966,619.68777079743,419.68777079743,572.793336331966,715.767577433584,0,0,3,3,5,4,6,NaN,horizontal,horizontal,horizontal,horizontal,vertical,none
1a,11,100156,3,26,154,21,F,NA,variable,heterogeneous,6,present,0.991006851196289,1,vertical,vertical,1,0.952931877352157,red,6,5,622.862115532956,783.431649086356,552.574589799621,538.309916622085,870.287525733335,845.121732464271,1047.42541020038,661.690083377915,977.137884467044,416.568350913644,729.712474266665,354.878267535729,552.574589799621,538.309916622085,622.862115532956,783.431649086356,6,5,0,5,3,4,horizontal,vertical,horizontal,vertical,vertical,vertical
1a,11,100156,3,27,155,21,F,NA,variable,heterogeneous,5,present,0.868297100067139,1,vertical,vertical,1,1.0588114405578,green,1,2,915.767577433584,827.206663668034,1051.86052685176,560.109211414741,915.767577433584,827.206663668034,1051.86052685176,560.109211414741,839.890788585259,348.13947314824,572.793336331966,484.232422566416,619.68777079743,780.31222920257,0,0,4,6,6,3,0,NaN,vertical,vertical,horizontal,horizontal,vertical,none
1a,11,100156,3,28,156,21,F,NA,variable,heterogeneous,3,present,0.637569904327393,1,horizontal,horizontal,1,0.799994730499555,green,3,2,545.970351986605,577.775285599347,946.261991269517,391.116228706307,907.767656743878,831.108485694346,946.261991269517,391.116228706307,545.970351986605,577.775285599347,0,0,0,0,0,0,3,6,4,NaN,NaN,NaN,horizontal,horizontal,horizontal,none,none,none
1a,11,100156,3,29,157,21,F,NA,variable,heterogeneous,5,present,1.06099700927734,1,vertical,vertical,1,0.705879563205647,red,5,2,599.057257830286,756.993676208043,1054.84466088987,591.100628340862,887.215136548046,839.621618300407,1054.84466088987,591.100628340862,870.287525733335,354.878267535729,588.595418998464,457.40580961496,599.057257830286,756.993676208043,0,0,3,6,6,0,4,NaN,horizontal,horizontal,vertical,horizontal,vertical,none
1a,11,100156,3,30,158,21,F,NA,variable,heterogeneous,3,absent,0.578239917755127,0,vertical,horizontal,1,1.01175385691085,green,1,NaN,786.654331158049,854.650531362416,NaN,NaN,786.654331158049,854.650531362416,1027.20666366803,484.232422566416,586.139005173917,461.117046071168,0,0,0,0,0,0,4,3,5,NaN,NaN,NaN,vertical,horizontal,horizontal,none,none,none
1a,11,100156,3,31,159,21,F,NA,variable,heterogeneous,3,absent,0.557997941970825,0,horizontal,vertical,1,0.776465938676078,green,2,NaN,1053.60308331891,573.345241866748,NaN,NaN,696.282156015671,832.954091698863,1053.60308331891,573.345241866748,650.114760665419,393.700666434388,0,0,0,0,0,0,5,4,5,NaN,NaN,NaN,vertical,horizontal,vertical,none,none,none
1a,11,100156,3,32,160,21,F,NA,variable,heterogeneous,3,present,1.48482608795166,1,vertical,vertical,1,0.988225065087372,red,1,2,593.700666434388,749.885239334581,1032.95409169886,703.717843984329,593.700666434388,749.885239334581,1032.95409169886,703.717843984329,773.345241866748,346.39691668109,0,0,0,0,0,0,4,3,6,NaN,NaN,NaN,vertical,horizontal,vertical,none,none,none
1a,11,100156,3,33,161,21,F,NA,variable,heterogeneous,5,present,0.876044034957886,0,vertical,horizontal,1,0.858816710058248,red,3,4,1018.57766167904,468.665290897936,742.637481142314,351.535633479765,700.363562235235,834.728737630372,992.450942956807,767.295052392579,1018.57766167904,468.665290897936,742.637481142314,351.535633479765,545.970351986605,577.775285599347,0,0,0,0,4,6,3,NaN,horizontal,vertical,vertical,vertical,vertical,none
1a,11,100156,3,34,162,21,F,NA,variable,heterogeneous,5,present,0.756438970565796,1,horizontal,horizontal,1,0.741172750940863,red,5,1,626.090418184063,786.495193912888,923.626453162816,823.028025320546,923.626453162816,823.028025320546,1050.31493177915,551.343706178981,831.076682568313,346.900731331463,568.891514305654,492.232343256122,626.090418184063,786.495193912888,0,0,5,0,6,3,4,NaN,horizontal,vertical,horizontal,horizontal,horizontal,none
1a,11,100156,3,35,163,21,F,NA,variable,heterogeneous,4,absent,1.67481780052185,1,vertical,vertical,1,0.941167481440418,green,2,NaN,1051.86052685176,639.890788585259,NaN,NaN,760.109211414741,851.86052685176,1051.86052685176,639.890788585259,839.890788585259,348.13947314824,548.13947314824,560.109211414741,0,0,0,0,3,4,3,0,NaN,NaN,vertical,vertical,horizontal,vertical,none,none
1a,11,100156,3,36,164,21,F,NA,variable,heterogeneous,4,absent,1.57437705993652,1,vertical,vertical,1,0.705879563205647,red,3,NaN,817.787900804752,345.621167183745,NaN,NaN,782.212099195248,854.378832816255,1054.37883281626,617.787900804752,817.787900804752,345.621167183745,545.621167183745,582.212099195248,0,0,0,0,5,3,4,3,NaN,NaN,horizontal,horizontal,vertical,horizontal,none,none
1a,11,100156,3,37,165,21,F,NA,variable,heterogeneous,3,present,1.30080485343933,1,horizontal,horizontal,1,0.729408355029124,green,1,3,887.215136548046,839.621618300407,548.874022981887,555.719714694933,887.215136548046,839.621618300407,963.910840470068,404.658667004661,548.874022981887,555.719714694933,0,0,0,0,0,0,4,6,5,NaN,NaN,NaN,horizontal,horizontal,horizontal,none,none,none
1a,11,100156,3,38,166,21,F,NA,variable,heterogeneous,5,present,1.1150209903717,1,horizontal,horizontal,1,1.02351825282259,red,5,2,557.480588344736,521.200666434388,949.885239334581,806.299333565612,650.114760665419,806.299333565612,949.885239334581,806.299333565612,1042.51941165526,521.200666434388,800,345,557.480588344736,521.200666434388,0,0,5,3,3,5,4,NaN,horizontal,vertical,vertical,horizontal,horizontal,none
1a,11,100156,3,39,167,21,F,NA,variable,heterogeneous,3,present,1.29457688331604,1,horizontal,horizontal,1,0.84705231414651,red,1,2,931.334709102064,818.577661679039,923.626453162816,376.971974679454,931.334709102064,818.577661679039,923.626453162816,376.971974679454,545.03883773512,604.450363641507,0,0,0,0,0,0,4,0,6,NaN,NaN,NaN,horizontal,horizontal,horizontal,none,none,none
1a,11,100156,3,40,168,21,F,NA,variable,heterogeneous,6,present,1.30891489982605,1,vertical,vertical,1,0.823523522323033,red,1,2,704.475318678942,836.431882914531,956.993676208043,800.942742169714,704.475318678942,836.431882914531,956.993676208043,800.942742169714,1052.5183575291,564.510859255183,895.524681321058,363.568117085469,643.006323791957,399.057257830286,547.481642470899,635.489140744817,4,3,0,6,0,5,vertical,horizontal,vertical,vertical,vertical,vertical
1a,11,100156,3,41,169,21,F,NA,variable,heterogeneous,6,absent,1.24840092658997,1,horizontal,horizontal,1,1.04704704464607,green,3,NaN,1020.83647796503,472.5,NaN,NaN,800,855,1020.83647796503,727.5,1020.83647796503,472.5,800,345,579.163522034968,472.5,579.163522034968,727.5,5,0,4,5,3,6,vertical,horizontal,horizontal,horizontal,vertical,horizontal
1a,11,100156,3,42,170,21,F,NA,variable,heterogeneous,3,absent,0.705782890319824,1,vertical,vertical,1,1.01175385691085,red,3,NaN,800,345,NaN,NaN,579.163522034968,727.5,1020.83647796503,727.5,800,345,0,0,0,0,0,0,6,5,4,NaN,NaN,NaN,vertical,vertical,vertical,none,none,none
1a,11,100156,3,43,171,21,F,NA,variable,heterogeneous,6,absent,0.661786794662476,0,vertical,horizontal,1,0.670586375470431,green,3,NaN,1053.60308331891,573.345241866748,NaN,NaN,696.282156015671,832.954091698863,949.885239334581,806.299333565612,1053.60308331891,573.345241866748,903.717843984329,367.045908301137,650.114760665419,393.700666434388,546.39691668109,626.654758133252,5,0,4,3,0,6,horizontal,vertical,vertical,horizontal,vertical,horizontal
1a,11,100156,3,44,172,21,F,NA,variable,heterogeneous,6,present,1.06473398208618,1,vertical,vertical,1,0.670586375470431,green,5,6,593.700666434388,450.114760665419,567.045908301137,703.717843984329,773.345241866748,853.60308331891,1006.29933356561,749.885239334581,1032.95409169886,496.282156015671,826.654758133252,346.39691668109,593.700666434388,450.114760665419,567.045908301137,703.717843984329,6,0,3,6,4,3,horizontal,vertical,vertical,vertical,vertical,vertical
1a,11,100156,3,45,173,21,F,NA,variable,heterogeneous,3,present,0.443538904190063,1,vertical,vertical,1,0.670586375470431,green,3,1,700.363562235235,365.271262369628,646.537169096228,803.65205506206,646.537169096228,803.65205506206,1053.09926866854,631.076682568313,700.363562235235,365.271262369628,0,0,0,0,0,0,5,6,4,NaN,NaN,NaN,vertical,horizontal,vertical,none,none,none
1a,11,100156,3,46,174,21,F,NA,variable,heterogeneous,4,present,0.564946174621582,1,horizontal,horizontal,1,0.823523522323033,red,3,1,804.450363641507,345.03883773512,795.549636358493,854.96116226488,795.549636358493,854.96116226488,1054.96116226488,604.450363641507,804.450363641507,345.03883773512,545.03883773512,595.549636358493,0,0,0,0,6,6,4,3,NaN,NaN,horizontal,horizontal,horizontal,vertical,none,none
1a,11,100156,3,47,175,21,F,NA,variable,heterogeneous,5,absent,1.00133991241455,1,horizontal,horizontal,1,0.635293187735216,green,5,NaN,604.658667004661,763.910840470068,NaN,NaN,895.524681321058,836.431882914531,1054.37883281626,582.212099195248,861.690083377915,352.574589799621,583.747735480111,464.870587620533,604.658667004661,763.910840470068,0,0,3,0,5,6,4,NaN,horizontal,vertical,vertical,vertical,horizontal,none
1a,11,100156,3,48,176,21,F,NA,variable,heterogeneous,3,absent,0.647337198257446,1,horizontal,horizontal,1,0.894109897793464,red,3,NaN,547.481642470899,564.510859255183,NaN,NaN,895.524681321058,836.431882914531,956.993676208043,399.057257830286,547.481642470899,564.510859255183,0,0,0,0,0,0,3,0,4,NaN,NaN,NaN,horizontal,vertical,horizontal,none,none,none
1a,11,100156,3,49,177,21,F,NA,variable,heterogeneous,3,absent,0.804287910461426,1,vertical,vertical,1,0.799994730499555,red,1,NaN,835.489140744817,852.518357529101,NaN,NaN,835.489140744817,852.518357529101,1000.94274216971,443.006323791957,563.568117085469,504.475318678942,0,0,0,0,0,0,4,5,6,NaN,NaN,NaN,vertical,vertical,horizontal,none,none,none
1a,11,100156,3,50,178,21,F,NA,variable,heterogeneous,3,present,0.522176027297974,1,vertical,vertical,1,0.670586375470431,green,2,1,813.345668841951,345.349468637584,1013.86099482608,738.882953928832,1013.86099482608,738.882953928832,813.345668841951,345.349468637584,572.793336331966,715.767577433584,0,0,0,0,0,0,3,4,6,NaN,NaN,NaN,vertical,vertical,horizontal,none,none,none
1a,11,100156,3,51,179,21,F,NA,variable,heterogeneous,4,present,1.20546007156372,0,horizontal,vertical,1,0.835287918234771,green,1,3,672.5,820.836477965032,927.5,379.163522034968,672.5,820.836477965032,1020.83647796503,727.5,927.5,379.163522034968,579.163522034968,472.5,0,0,0,0,4,3,0,3,NaN,NaN,horizontal,horizontal,horizontal,horizontal,none,none
1a,11,100156,3,52,180,21,F,NA,variable,heterogeneous,4,absent,0.644814014434814,1,horizontal,horizontal,1,0.964696273263895,green,4,NaN,551.535633479765,542.637481142314,NaN,NaN,742.637481142314,848.464366520235,1048.46436652023,657.362518857686,857.362518857686,351.535633479765,551.535633479765,542.637481142314,0,0,0,0,5,0,6,4,NaN,NaN,horizontal,vertical,horizontal,horizontal,none,none
1a,11,100156,3,53,181,21,F,NA,variable,heterogeneous,4,present,0.875713109970093,0,vertical,horizontal,1,0.882345501881725,red,2,3,1003.65205506206,753.462830903772,953.462830903772,396.34794493794,646.537169096228,803.65205506206,1003.65205506206,753.462830903772,953.462830903772,396.34794493794,596.34794493794,446.537169096228,0,0,0,0,5,4,6,3,NaN,NaN,horizontal,vertical,horizontal,vertical,none,none
1a,11,100156,3,54,182,21,F,NA,variable,heterogeneous,6,absent,1.65687489509583,1,horizontal,horizontal,1,0.976460669175634,red,3,NaN,983.431649086356,422.862115532956,NaN,NaN,861.690083377915,847.425410200379,1045.12173246427,670.287525733335,983.431649086356,422.862115532956,738.309916622085,352.574589799621,554.878267535729,529.712474266665,616.568350913644,777.137884467044,6,3,4,0,5,0,horizontal,horizontal,horizontal,vertical,vertical,horizontal
1a,11,100156,3,55,183,21,F,NA,variable,heterogeneous,5,absent,0.759507894515991,1,horizontal,horizontal,1,0.870581105969987,red,4,NaN,791.100628340862,345.155339110131,NaN,NaN,657.405809614959,811.404581001536,956.993676208043,800.942742169714,1039.62161830041,512.784863451954,791.100628340862,345.155339110131,554.878267535729,529.712474266665,0,0,0,6,0,4,6,NaN,horizontal,horizontal,horizontal,horizontal,vertical,none
1a,11,100156,3,56,184,21,F,NA,variable,heterogeneous,4,present,0.656540870666504,1,vertical,vertical,1,0.68235077138217,green,4,2,561.936991243214,508.616172865948,1038.06300875679,691.383827134052,708.616172865948,838.063008756786,1038.06300875679,691.383827134052,891.383827134052,361.936991243214,561.936991243214,508.616172865948,0,0,0,0,6,3,0,4,NaN,NaN,vertical,vertical,horizontal,vertical,none,none
1a,11,100156,3,57,185,21,F,NA,variable,heterogeneous,5,absent,0.612669944763184,1,vertical,vertical,1,0.952931877352157,green,4,NaN,572.793336331966,484.232422566416,NaN,NaN,915.767577433584,827.206663668034,1051.86052685176,560.109211414741,839.890788585259,348.13947314824,572.793336331966,484.232422566416,619.68777079743,780.31222920257,0,0,3,3,5,4,6,NaN,horizontal,vertical,horizontal,vertical,horizontal,none
1a,11,100156,3,58,186,21,F,NA,variable,heterogeneous,4,absent,1.5837128162384,1,horizontal,horizontal,1,0.917638689616941,red,1,NaN,861.690083377915,847.425410200379,NaN,NaN,861.690083377915,847.425410200379,1047.42541020038,538.309916622085,738.309916622085,352.574589799621,552.574589799621,661.690083377915,0,0,0,0,4,6,5,0,NaN,NaN,horizontal,horizontal,vertical,horizontal,none,none
1a,11,100156,3,59,187,21,F,NA,variable,heterogeneous,5,present,0.543678045272827,1,horizontal,horizontal,1,0.811759126411294,green,5,3,549.685068220846,648.656293821019,973.909581815937,413.504806087112,768.923317431687,853.099268668537,1031.10848569435,707.767656743878,973.909581815937,413.504806087112,676.373546837184,376.971974679454,549.685068220846,648.656293821019,0,0,3,0,6,5,4,NaN,horizontal,horizontal,vertical,vertical,horizontal,none
1a,11,100156,3,60,188,21,F,NA,variable,heterogeneous,6,absent,NaN,0,vertical,none,0,0.776465938676078,green,2,NaN,1039.62161830041,687.215136548046,NaN,NaN,844.280285305067,851.125977018113,1039.62161830041,687.215136548046,995.341332995339,436.089159529932,755.719714694933,348.874022981887,560.378381699593,512.784863451954,604.658667004661,763.910840470068,6,4,0,5,3,0,horizontal,vertical,horizontal,vertical,horizontal,horizontal
1a,11,100156,3,61,189,21,F,NA,variable,heterogeneous,6,absent,1.53152894973755,1,horizontal,horizontal,1,1.04704704464607,green,6,NaN,668.665290897936,818.577661679039,NaN,NaN,923.626453162816,823.028025320546,1054.96116226488,604.450363641507,931.334709102064,381.422338320961,676.373546837184,376.971974679454,545.03883773512,595.549636358493,668.665290897936,818.577661679039,0,3,5,6,5,4,horizontal,vertical,vertical,horizontal,vertical,horizontal
1a,11,100156,3,62,190,21,F,NA,variable,heterogeneous,6,present,1.15935111045837,1,horizontal,horizontal,1,0.84705231414651,red,2,3,1008.88377129369,746.261991269517,1031.10848569435,492.232343256122,777.775285599347,854.029648013395,1008.88377129369,746.261991269517,1031.10848569435,492.232343256122,822.224714400653,345.970351986605,591.116228706307,453.738008730483,568.891514305654,707.767656743878,6,4,0,0,3,6,horizontal,horizontal,vertical,vertical,vertical,vertical
1a,11,100156,3,63,191,21,F,NA,variable,heterogeneous,5,absent,1.02101302146912,1,vertical,vertical,1,0.717643959117386,red,3,NaN,844.280285305067,348.874022981887,NaN,NaN,911.784642431215,829.192481806288,1052.5183575291,564.510859255183,844.280285305067,348.874022981887,574.848363820974,480.284751489598,616.568350913644,777.137884467044,0,0,0,3,4,5,6,NaN,vertical,vertical,vertical,vertical,horizontal,none
1a,11,100156,3,64,192,21,F,NA,variable,heterogeneous,4,absent,0.478765964508057,1,vertical,vertical,1,0.670586375470431,green,3,NaN,643.006323791957,399.057257830286,NaN,NaN,956.993676208043,800.942742169714,1000.94274216971,443.006323791957,643.006323791957,399.057257830286,599.057257830286,756.993676208043,0,0,0,0,3,0,4,6,NaN,NaN,horizontal,horizontal,vertical,vertical,none,none
1a,11,100156,4,1,193,21,F,NA,variable,heterogeneous,3,absent,1.09917497634888,1,vertical,vertical,1,0.670586375470431,green,3,NaN,576.971974679454,476.373546837184,NaN,NaN,804.450363641507,854.96116226488,1018.57766167904,468.665290897936,576.971974679454,476.373546837184,0,0,0,0,0,0,0,0,4,NaN,NaN,NaN,horizontal,horizontal,vertical,none,none,none
1a,11,100156,4,2,194,21,F,NA,variable,heterogeneous,5,present,0.951972007751465,0,horizontal,vertical,1,0.92940308552868,red,2,1,977.137884467044,783.431649086356,680.284751489598,825.151636179026,680.284751489598,825.151636179026,977.137884467044,783.431649086356,1029.19248180629,488.215357568785,764.510859255183,347.4816424709,548.874022981887,555.719714694933,0,0,6,4,5,6,0,NaN,horizontal,horizontal,horizontal,vertical,vertical,none
1a,11,100156,4,3,195,21,F,NA,variable,heterogeneous,4,absent,1.35710215568542,0,horizontal,vertical,1,0.694115167293908,red,2,NaN,1023.02802532055,723.626453162816,NaN,NaN,676.373546837184,823.028025320546,1023.02802532055,723.626453162816,923.626453162816,376.971974679454,576.971974679454,476.373546837184,0,0,0,0,0,4,0,3,NaN,NaN,vertical,horizontal,vertical,horizontal,none,none
1a,11,100156,4,4,196,21,F,NA,variable,heterogeneous,6,present,0.981678009033203,1,vertical,vertical,1,0.658821979558693,red,1,6,764.510859255183,852.518357529101,563.568117085469,695.524681321058,764.510859255183,852.518357529101,1000.94274216971,756.993676208043,1036.43188291453,504.475318678942,835.489140744817,347.4816424709,599.057257830286,443.006323791957,563.568117085469,695.524681321058,4,6,3,3,5,0,vertical,horizontal,horizontal,vertical,vertical,vertical
1a,11,100156,4,5,197,21,F,NA,variable,heterogeneous,3,present,0.7150559425354,1,horizontal,horizontal,1,1.07057583646954,red,2,3,1054.65053136242,613.345668841951,684.232422566416,372.793336331966,661.117046071168,813.860994826083,1054.65053136242,613.345668841951,684.232422566416,372.793336331966,0,0,0,0,0,0,3,4,3,NaN,NaN,NaN,horizontal,horizontal,horizontal,none,none,none
1a,11,100156,4,6,198,21,F,NA,variable,heterogeneous,3,absent,0.882705926895142,1,horizontal,horizontal,1,1.08234023238128,red,2,NaN,1027.20666366803,715.767577433584,NaN,NaN,586.139005173917,738.882953928832,1027.20666366803,715.767577433584,786.654331158049,345.349468637584,0,0,0,0,0,0,6,4,0,NaN,NaN,NaN,horizontal,horizontal,horizontal,none,none,none
1a,11,100156,4,7,199,21,F,NA,variable,heterogeneous,5,absent,0.786879062652588,1,vertical,vertical,1,0.705879563205647,red,5,NaN,546.39691668109,573.345241866748,NaN,NaN,696.282156015671,832.954091698863,989.501930496736,770.628304621509,1020.83647796503,472.5,746.982518841471,350.57236181288,546.39691668109,573.345241866748,0,0,5,0,6,6,4,NaN,vertical,vertical,vertical,horizontal,vertical,none
1a,11,100156,4,8,200,21,F,NA,variable,heterogeneous,4,present,0.652256965637207,1,horizontal,horizontal,1,0.870581105969987,green,4,3,570.807518193712,711.784642431215,688.215357568785,370.807518193712,911.784642431215,829.192481806288,1029.19248180629,488.215357568785,688.215357568785,370.807518193712,570.807518193712,711.784642431215,0,0,0,0,0,6,5,4,NaN,NaN,horizontal,horizontal,vertical,horizontal,none,none
1a,11,100156,4,9,201,21,F,NA,variable,heterogeneous,4,absent,0.577557802200317,0,horizontal,vertical,1,0.6,green,1,NaN,725.445215295702,843.857712770574,NaN,NaN,725.445215295702,843.857712770574,1043.85771277057,674.554784704298,874.554784704298,356.142287229426,556.142287229426,525.445215295702,0,0,0,0,4,3,3,5,NaN,NaN,horizontal,horizontal,horizontal,vertical,none,none
1a,11,100156,4,10,202,21,F,NA,variable,heterogeneous,6,present,0.816211938858032,0,vertical,horizontal,1,0.741172750940863,red,6,3,545.349468637584,613.345668841951,1054.65053136242,586.654331158049,684.232422566416,827.206663668034,938.882953928832,813.860994826083,1054.65053136242,586.654331158049,915.767577433584,372.793336331966,661.117046071168,386.139005173917,545.349468637584,613.345668841951,3,3,5,6,6,4,horizontal,horizontal,vertical,vertical,horizontal,vertical
1a,11,100156,4,11,203,21,F,NA,variable,heterogeneous,6,absent,1.24174499511719,0,vertical,horizontal,1,1.07057583646954,red,1,NaN,804.450363641507,854.96116226488,NaN,NaN,804.450363641507,854.96116226488,1023.02802532055,723.626453162816,1018.57766167904,468.665290897936,795.549636358493,345.03883773512,576.971974679454,476.373546837184,581.422338320961,731.334709102064,4,6,0,6,3,5,vertical,horizontal,vertical,horizontal,horizontal,vertical
1a,11,100156,4,12,204,21,F,NA,variable,heterogeneous,5,present,0.660980939865112,1,vertical,vertical,1,1.09410462829302,red,1,2,919.715248510402,825.151636179026,1051.12597701811,555.719714694933,919.715248510402,825.151636179026,1051.12597701811,555.719714694933,835.489140744817,347.4816424709,570.807518193712,488.215357568785,622.862115532956,783.431649086356,0,0,4,3,0,6,0,NaN,vertical,horizontal,vertical,horizontal,horizontal,none
1a,11,100156,4,13,205,21,F,NA,variable,heterogeneous,5,absent,0.642390012741089,0,horizontal,vertical,1,1.01175385691085,green,5,NaN,604.658667004661,763.910840470068,NaN,NaN,895.524681321058,836.431882914531,1054.37883281626,582.212099195248,861.690083377915,352.574589799621,583.747735480111,464.870587620533,604.658667004661,763.910840470068,0,0,6,5,0,5,4,NaN,horizontal,vertical,horizontal,vertical,horizontal,none
1a,11,100156,4,14,206,21,F,NA,variable,heterogeneous,5,present,0.610653877258301,1,horizontal,horizontal,1,0.952931877352157,green,3,4,973.909581815937,413.504806087112,676.373546837184,376.971974679454,768.923317431687,853.099268668537,1031.10848569435,707.767656743878,973.909581815937,413.504806087112,676.373546837184,376.971974679454,549.685068220846,648.656293821019,0,0,3,5,4,0,5,NaN,horizontal,horizontal,horizontal,vertical,horizontal,none
1a,11,100156,4,15,207,21,F,NA,variable,heterogeneous,5,present,0.856281042098999,1,vertical,vertical,1,0.858816710058248,green,3,5,1016.25226451989,464.870587620533,545.621167183745,582.212099195248,704.475318678942,836.431882914531,995.341332995339,763.910840470068,1016.25226451989,464.870587620533,738.309916622085,352.574589799621,545.621167183745,582.212099195248,0,0,3,6,4,5,5,NaN,horizontal,vertical,vertical,vertical,horizontal,none
1a,11,100156,4,16,208,21,F,NA,variable,heterogeneous,5,present,0.467625141143799,1,vertical,vertical,1,0.905874293705202,green,3,4,1029.19248180629,488.215357568785,764.510859255183,347.4816424709,680.284751489598,825.151636179026,977.137884467044,783.431649086356,1029.19248180629,488.215357568785,764.510859255183,347.4816424709,548.874022981887,555.719714694933,0,0,3,0,4,6,5,NaN,vertical,vertical,vertical,vertical,horizontal,none
1a,11,100156,4,17,209,21,F,NA,variable,heterogeneous,6,present,1.44175004959106,1,horizontal,horizontal,1,1.03528264873433,red,5,6,588.595418998464,457.40580961496,570.807518193712,711.784642431215,782.212099195248,854.378832816255,1011.40458100154,742.594190385041,1029.19248180629,488.215357568785,817.787900804752,345.621167183745,588.595418998464,457.40580961496,570.807518193712,711.784642431215,5,3,6,3,4,0,horizontal,vertical,horizontal,vertical,horizontal,vertical
1a,11,100156,4,18,210,21,F,NA,variable,heterogeneous,4,absent,0.566575050354004,1,horizontal,horizontal,1,0.788230334587817,green,4,NaN,552.574589799621,538.309916622085,NaN,NaN,738.309916622085,847.425410200379,1047.42541020038,661.690083377915,861.690083377915,352.574589799621,552.574589799621,538.309916622085,0,0,0,0,3,0,5,4,NaN,NaN,horizontal,horizontal,horizontal,horizontal,none,none
1a,11,100156,4,19,211,21,F,NA,variable,heterogeneous,3,present,0.782933950424194,1,vertical,vertical,1,0.647057583646954,red,1,3,700.363562235235,834.728737630372,646.537169096228,396.34794493794,700.363562235235,834.728737630372,1053.09926866854,568.923317431687,646.537169096228,396.34794493794,0,0,0,0,0,0,4,0,3,NaN,NaN,NaN,vertical,vertical,horizontal,none,none,none
1a,11,100156,4,20,212,21,F,NA,variable,heterogeneous,6,absent,0.984464883804321,1,horizontal,horizontal,1,0.882345501881725,green,4,NaN,692.232343256122,368.891514305654,NaN,NaN,907.767656743878,831.108485694346,1054.0296480134,622.224714400653,946.261991269517,391.116228706307,692.232343256122,368.891514305654,545.970351986605,577.775285599347,653.738008730483,808.883771293693,6,0,3,4,0,5,horizontal,horizontal,horizontal,horizontal,horizontal,horizontal
1a,11,100156,4,21,213,21,F,NA,variable,heterogeneous,3,absent,0.704927921295166,1,vertical,vertical,1,0.635293187735216,green,3,NaN,545.155339110131,608.899371659138,NaN,NaN,935.129412379467,816.252264519889,919.715248510402,374.848363820974,545.155339110131,608.899371659138,0,0,0,0,0,0,6,3,4,NaN,NaN,NaN,vertical,vertical,vertical,none,none,none
1a,11,100156,4,22,214,21,F,NA,variable,heterogeneous,3,present,0.906015157699585,0,horizontal,vertical,1,0.729408355029124,red,1,2,742.637481142314,848.464366520235,1043.85771277057,525.445215295702,742.637481142314,848.464366520235,1043.85771277057,525.445215295702,613.504806087112,426.090418184063,0,0,0,0,0,0,4,5,0,NaN,NaN,NaN,horizontal,vertical,vertical,none,none,none
1a,11,100156,4,23,215,21,F,NA,variable,heterogeneous,5,present,0.678714990615845,1,vertical,vertical,1,0.717643959117386,red,5,1,565.271262369628,699.636437764765,822.224714400653,854.029648013395,822.224714400653,854.029648013395,1048.46436652023,657.362518857686,931.334709102064,381.422338320961,632.704947607421,407.549057043193,565.271262369628,699.636437764765,0,0,5,6,3,6,4,NaN,horizontal,vertical,horizontal,vertical,vertical,none
1a,11,100156,4,24,216,21,F,NA,variable,heterogeneous,5,absent,0.712338924407959,1,horizontal,horizontal,1,1.01175385691085,red,1,NaN,800,855,NaN,NaN,800,855,1042.51941165526,678.799333565612,949.885239334581,393.700666434388,650.114760665419,393.700666434388,557.480588344736,678.799333565612,0,0,4,5,6,3,6,NaN,horizontal,horizontal,vertical,horizontal,horizontal,none
1a,11,100156,4,25,217,21,F,NA,variable,heterogeneous,4,absent,0.984912872314453,0,vertical,horizontal,1,0.705879563205647,green,3,NaN,760.109211414741,348.13947314824,NaN,NaN,839.890788585259,851.86052685176,1051.86052685176,560.109211414741,760.109211414741,348.13947314824,548.13947314824,639.890788585259,0,0,0,0,3,0,4,6,NaN,NaN,vertical,vertical,vertical,horizontal,none,none
1a,11,100156,4,26,218,21,F,NA,variable,heterogeneous,3,present,0.584794044494629,1,vertical,vertical,1,1.01175385691085,green,3,1,576.971974679454,476.373546837184,804.450363641507,854.96116226488,804.450363641507,854.96116226488,1018.57766167904,468.665290897936,576.971974679454,476.373546837184,0,0,0,0,0,0,3,6,4,NaN,NaN,NaN,vertical,horizontal,vertical,none,none,none
1a,11,100156,4,27,219,21,F,NA,variable,heterogeneous,3,present,0.859922885894775,1,horizontal,horizontal,1,0.752937146852601,green,2,3,1050.31493177915,551.343706178981,632.704947607421,407.549057043193,716.980120613425,841.107236777826,1050.31493177915,551.343706178981,632.704947607421,407.549057043193,0,0,0,0,0,0,0,4,0,NaN,NaN,NaN,horizontal,horizontal,vertical,none,none,none
1a,11,100156,4,28,220,21,F,NA,variable,heterogeneous,4,absent,0.710285186767578,1,vertical,vertical,1,0.84705231414651,green,2,NaN,1038.06300875679,508.616172865948,NaN,NaN,891.383827134052,838.063008756786,1038.06300875679,508.616172865948,708.616172865948,361.936991243214,561.936991243214,691.383827134052,0,0,0,0,0,4,0,6,NaN,NaN,vertical,vertical,horizontal,horizontal,none,none
1a,11,100156,4,29,221,21,F,NA,variable,heterogeneous,5,absent,0.638331890106201,1,vertical,vertical,1,0.68235077138217,green,2,NaN,1054.84466088987,608.899371659138,NaN,NaN,870.287525733335,845.121732464271,1054.84466088987,608.899371659138,887.215136548046,360.378381699593,599.057257830286,443.006323791957,588.595418998464,742.594190385041,0,0,6,4,0,0,5,NaN,horizontal,vertical,horizontal,horizontal,vertical,none
1a,11,100156,4,30,222,21,F,NA,variable,heterogeneous,4,present,0.620047092437744,0,horizontal,vertical,1,1.03528264873433,green,4,3,610.498069503264,429.371695378491,970.628304621509,410.498069503264,629.371695378491,789.501930496736,989.501930496736,770.628304621509,970.628304621509,410.498069503264,610.498069503264,429.371695378491,0,0,0,0,6,5,0,4,NaN,NaN,horizontal,vertical,horizontal,horizontal,none,none
1a,11,100156,4,31,223,21,F,NA,variable,heterogeneous,3,absent,0.666632890701294,1,horizontal,horizontal,1,0.705879563205647,green,3,NaN,576.971974679454,723.626453162816,NaN,NaN,1018.57766167904,731.334709102064,804.450363641507,345.03883773512,576.971974679454,723.626453162816,0,0,0,0,0,0,6,6,4,NaN,NaN,NaN,horizontal,horizontal,horizontal,none,none,none
1a,11,100156,4,32,224,21,F,NA,variable,heterogeneous,3,absent,0.761624097824097,0,horizontal,vertical,1,0.882345501881725,red,2,NaN,949.885239334581,393.700666434388,NaN,NaN,903.717843984329,832.954091698863,949.885239334581,393.700666434388,546.39691668109,573.345241866748,0,0,0,0,0,0,6,4,3,NaN,NaN,NaN,horizontal,horizontal,horizontal,none,none,none
1a,11,100156,4,33,225,21,F,NA,variable,heterogeneous,5,absent,0.791427135467529,1,vertical,vertical,1,0.917638689616941,green,5,NaN,570.807518193712,711.784642431215,NaN,NaN,835.489140744817,852.518357529101,1051.12597701811,644.280285305067,919.715248510402,374.848363820974,622.862115532956,416.568350913644,570.807518193712,711.784642431215,0,0,5,3,6,0,4,NaN,vertical,horizontal,vertical,horizontal,vertical,none
1a,11,100156,4,34,226,21,F,NA,variable,heterogeneous,6,absent,1.32773995399475,1,horizontal,horizontal,1,0.823523522323033,red,6,NaN,650.114760665419,806.299333565612,NaN,NaN,903.717843984329,832.954091698863,1053.60308331891,626.654758133252,949.885239334581,393.700666434388,696.282156015671,367.045908301137,546.39691668109,573.345241866748,650.114760665419,806.299333565612,6,3,0,5,5,4,horizontal,vertical,vertical,horizontal,horizontal,horizontal
1a,11,100156,4,35,227,21,F,NA,variable,heterogeneous,4,absent,0.84777307510376,0,vertical,horizontal,1,0.670586375470431,red,1,NaN,839.890788585259,851.86052685176,NaN,NaN,839.890788585259,851.86052685176,1051.86052685176,560.109211414741,760.109211414741,348.13947314824,548.13947314824,639.890788585259,0,0,0,0,4,6,5,3,NaN,NaN,vertical,horizontal,vertical,horizontal,none,none
1a,11,100156,4,36,228,21,F,NA,variable,heterogeneous,3,absent,0.664920091629028,1,vertical,vertical,1,0.988225065087372,red,2,NaN,915.767577433584,372.793336331966,NaN,NaN,938.882953928832,813.860994826083,915.767577433584,372.793336331966,545.349468637584,613.345668841951,0,0,0,0,0,0,0,4,0,NaN,NaN,NaN,vertical,vertical,horizontal,none,none,none
1a,11,100156,4,37,229,21,F,NA,variable,heterogeneous,6,present,1.83543801307678,1,vertical,vertical,1,0.84705231414651,green,1,5,738.309916622085,847.425410200379,616.568350913644,422.862115532956,738.309916622085,847.425410200379,983.431649086356,777.137884467044,1045.12173246427,529.712474266665,861.690083377915,352.574589799621,616.568350913644,422.862115532956,554.878267535729,670.287525733335,4,6,3,5,5,3,vertical,vertical,vertical,vertical,horizontal,vertical
1a,11,100156,4,38,230,21,F,NA,variable,heterogeneous,4,present,0.68877100944519,0,vertical,horizontal,1,0.835287918234771,green,1,2,734.001143498857,846.311085703712,1046.31108570371,665.998856501143,734.001143498857,846.311085703712,1046.31108570371,665.998856501143,865.998856501143,353.688914296288,553.688914296288,534.001143498857,0,0,0,0,4,0,0,5,NaN,NaN,vertical,vertical,vertical,horizontal,none,none
1a,11,100156,4,39,231,21,F,NA,variable,heterogeneous,4,present,1.38135814666748,1,vertical,vertical,1,0.741172750940863,red,2,1,1051.86052685176,639.890788585259,760.109211414741,851.86052685176,760.109211414741,851.86052685176,1051.86052685176,639.890788585259,839.890788585259,348.13947314824,548.13947314824,560.109211414741,0,0,0,0,3,4,6,6,NaN,NaN,vertical,vertical,vertical,horizontal,none,none
1a,11,100156,4,40,232,21,F,NA,variable,heterogeneous,6,present,0.826467990875244,0,horizontal,vertical,1,1.07057583646954,red,4,2,708.616172865948,361.936991243214,1051.86052685176,639.890788585259,891.383827134052,838.063008756786,1051.86052685176,639.890788585259,960.476699717708,401.827779828472,708.616172865948,361.936991243214,548.13947314824,560.109211414741,639.523300282292,798.172220171528,5,3,0,4,6,3,horizontal,vertical,horizontal,horizontal,vertical,vertical
1a,11,100156,4,41,233,21,F,NA,variable,heterogeneous,6,absent,1.04012584686279,1,vertical,vertical,1,0.823523522323033,green,3,NaN,949.885239334581,393.700666434388,NaN,NaN,903.717843984329,832.954091698863,1053.60308331891,626.654758133252,949.885239334581,393.700666434388,696.282156015671,367.045908301137,546.39691668109,573.345241866748,650.114760665419,806.299333565612,5,3,4,6,0,5,horizontal,vertical,vertical,vertical,vertical,horizontal
1a,11,100156,4,42,234,21,F,NA,variable,heterogeneous,5,present,1.54671382904053,0,horizontal,vertical,1,0.894109897793464,red,3,5,927.5,379.163522034968,567.045908301137,703.717843984329,826.654758133252,853.60308331891,1049.42763818712,653.017481158529,927.5,379.163522034968,629.371695378491,410.498069503264,567.045908301137,703.717843984329,0,0,0,5,4,3,0,NaN,vertical,horizontal,horizontal,horizontal,vertical,none
1a,11,100156,4,43,235,21,F,NA,variable,heterogeneous,3,absent,1.12663698196411,1,horizontal,horizontal,1,0.835287918234771,green,1,NaN,998.172220171528,760.476699717708,NaN,NaN,998.172220171528,760.476699717708,839.890788585259,348.13947314824,561.936991243214,691.383827134052,0,0,0,0,0,0,4,0,3,NaN,NaN,NaN,horizontal,vertical,vertical,none,none,none
1a,11,100156,4,44,236,21,F,NA,variable,heterogeneous,4,present,0.60650110244751,1,vertical,vertical,1,0.670586375470431,green,2,4,1053.60308331891,573.345241866748,546.39691668109,626.654758133252,826.654758133252,853.60308331891,1053.60308331891,573.345241866748,773.345241866748,346.39691668109,546.39691668109,626.654758133252,0,0,0,0,0,4,0,3,NaN,NaN,vertical,vertical,horizontal,vertical,none,none
1a,11,100156,4,45,237,21,F,NA,variable,heterogeneous,4,present,0.795562982559204,1,horizontal,horizontal,1,1.02351825282259,red,2,4,1053.09926866854,631.076682568313,546.900731331463,568.923317431687,768.923317431687,853.099268668537,1053.09926866854,631.076682568313,831.076682568313,346.900731331463,546.900731331463,568.923317431687,0,0,0,0,6,4,0,3,NaN,NaN,vertical,horizontal,vertical,horizontal,none,none
1a,11,100156,4,46,238,21,F,NA,variable,heterogeneous,6,absent,0.652067899703979,1,horizontal,horizontal,1,0.623528791823477,green,5,NaN,548.13947314824,560.109211414741,NaN,NaN,891.383827134052,838.063008756786,1051.86052685176,639.890788585259,960.476699717708,401.827779828472,708.616172865948,361.936991243214,548.13947314824,560.109211414741,639.523300282292,798.172220171528,0,6,3,0,4,5,vertical,horizontal,vertical,horizontal,horizontal,vertical
1a,11,100156,4,47,239,21,F,NA,variable,heterogeneous,6,absent,0.799390077590942,1,vertical,vertical,1,0.905874293705202,green,4,NaN,857.362518857686,351.535633479765,NaN,NaN,742.637481142314,848.464366520235,986.495193912888,773.909581815937,1043.85771277057,525.445215295702,857.362518857686,351.535633479765,613.504806087112,426.090418184063,556.142287229426,674.554784704298,6,0,6,4,5,3,vertical,horizontal,vertical,vertical,vertical,vertical
1a,11,100156,4,48,240,21,F,NA,variable,heterogeneous,4,absent,0.994063138961792,1,vertical,vertical,1,0.92940308552868,red,2,NaN,1042.51941165526,521.200666434388,NaN,NaN,878.799333565612,842.519411655264,1042.51941165526,521.200666434388,721.200666434388,357.480588344736,557.480588344736,678.799333565612,0,0,0,0,6,4,5,0,NaN,NaN,horizontal,vertical,vertical,vertical,none,none
1a,11,100156,4,49,241,21,F,NA,variable,heterogeneous,4,present,1.28274297714233,1,horizontal,horizontal,1,0.823523522323033,red,2,1,983.431649086356,777.137884467044,622.862115532956,783.431649086356,622.862115532956,783.431649086356,983.431649086356,777.137884467044,977.137884467044,416.568350913644,616.568350913644,422.862115532956,0,0,0,0,5,4,0,6,NaN,NaN,vertical,horizontal,horizontal,horizontal,none,none
1a,11,100156,4,50,242,21,F,NA,variable,heterogeneous,3,present,0.778280973434448,1,horizontal,horizontal,1,1.08234023238128,green,2,3,865.998856501143,353.688914296288,553.688914296288,665.998856501143,980.31222920257,780.31222920257,865.998856501143,353.688914296288,553.688914296288,665.998856501143,0,0,0,0,0,0,6,4,3,NaN,NaN,NaN,horizontal,horizontal,vertical,none,none,none
1a,11,100156,4,51,243,21,F,NA,variable,heterogeneous,5,present,0.972195148468018,0,horizontal,vertical,1,0.905874293705202,green,1,2,800,855,1042.51941165526,678.799333565612,800,855,1042.51941165526,678.799333565612,949.885239334581,393.700666434388,650.114760665419,393.700666434388,557.480588344736,678.799333565612,0,0,4,6,5,6,0,NaN,horizontal,vertical,vertical,vertical,vertical,none
