experiment,subject,uniqueID,block,trial,trial_cumulative,age,gender,color_cond_blocking,color_history,shape_type,set_size,distractor,rt,acc,target_orient,response_key,response_made,iti,target_color,target_item,distractor_item,target_X,target_Y,distractor_X,distractor_Y,item1_X,item1_Y,item2_X,item2_Y,item3_X,item3_Y,item4_X,item4_Y,item5_X,item5_Y,item6_X,item6_Y,item1_shape,item2_shape,item3_shape,item4_shape,item5_shape,item6_shape,item1_line,item2_line,item3_line,item4_line,item5_line,item6_line
1a,12,100155,1,1,1,26,M,NA,variable,heterogeneous,6,absent,1.88892984390259,1,horizontal,horizontal,1,1.07057991027832,green,4,NaN,746.982518841471,350.57236181288,NaN,NaN,853.017481158529,849.42763818712,1042.51941165526,678.799333565612,989.501930496736,429.371695378491,746.982518841471,350.57236181288,557.480588344736,521.200666434388,610.498069503264,770.628304621509,5,5,3,4,6,0,vertical,vertical,vertical,horizontal,vertical,vertical
1a,12,100155,1,2,2,26,M,NA,variable,heterogeneous,5,absent,1.38798022270203,1,horizontal,horizontal,1,1.09410890579224,red,5,NaN,558.892763222174,683.019879386575,NaN,NaN,804.450363641507,854.96116226488,1043.85771277057,674.554784704298,946.261991269517,391.116228706307,646.537169096228,396.34794493794,558.892763222174,683.019879386575,0,0,0,3,6,5,4,NaN,horizontal,horizontal,vertical,horizontal,horizontal,none
1a,12,100155,1,3,3,26,M,NA,variable,heterogeneous,3,present,1.28408885002136,1,vertical,vertical,1,0.752938470840454,green,3,2,777.775285599347,345.970351986605,1031.10848569435,707.767656743878,591.116228706307,746.261991269517,1031.10848569435,707.767656743878,777.775285599347,345.970351986605,0,0,0,0,0,0,5,0,4,NaN,NaN,NaN,vertical,horizontal,vertical,none,none,none
1a,12,100155,1,4,4,26,M,NA,variable,heterogeneous,6,present,1.62876296043396,1,vertical,vertical,1,0.752938470840454,green,2,6,1027.20666366803,715.767577433584,586.139005173917,738.882953928832,813.345668841951,854.650531362416,1027.20666366803,715.767577433584,1013.86099482608,461.117046071168,786.654331158049,345.349468637584,572.793336331966,484.232422566416,586.139005173917,738.882953928832,6,4,3,6,0,0,vertical,vertical,horizontal,horizontal,vertical,horizontal
1a,12,100155,1,5,5,26,M,NA,variable,heterogeneous,5,present,1.51425194740295,1,horizontal,horizontal,1,0.647057991027832,green,3,1,808.899371659138,345.155339110131,942.594190385041,811.404581001536,942.594190385041,811.404581001536,1045.12173246427,529.712474266665,808.899371659138,345.155339110131,560.378381699593,512.784863451954,643.006323791957,800.942742169714,0,0,5,6,4,5,3,NaN,vertical,vertical,horizontal,vertical,vertical,none
1a,12,100155,1,6,6,26,M,NA,variable,heterogeneous,6,absent,1.23177289962769,1,vertical,vertical,1,0.941170434951782,red,5,NaN,632.704947607421,407.549057043193,NaN,NaN,716.980120613425,841.107236777826,967.295052392579,792.450942956807,1050.31493177915,551.343706178981,883.019879386575,358.892763222174,632.704947607421,407.549057043193,549.685068220846,648.656293821019,6,3,3,0,4,6,vertical,vertical,vertical,horizontal,vertical,horizontal
1a,12,100155,1,7,7,26,M,NA,variable,heterogeneous,6,absent,1.26049113273621,1,vertical,vertical,1,0.799996461868286,green,6,NaN,567.045908301137,703.717843984329,NaN,NaN,773.345241866748,853.60308331891,1006.29933356561,749.885239334581,1032.95409169886,496.282156015671,826.654758133252,346.39691668109,593.700666434388,450.114760665419,567.045908301137,703.717843984329,0,5,3,6,5,4,vertical,horizontal,vertical,vertical,horizontal,vertical
1a,12,100155,1,8,8,26,M,NA,variable,heterogeneous,5,absent,0.918665170669556,1,vertical,vertical,1,0.847054452896118,green,2,NaN,1053.09926866854,631.076682568313,NaN,NaN,848.656293821019,850.314931779154,1053.09926866854,631.076682568313,907.767656743878,368.891514305654,613.504806087112,426.090418184063,576.971974679454,723.626453162816,0,0,5,4,0,0,5,NaN,vertical,vertical,vertical,horizontal,vertical,none
1a,12,100155,1,9,9,26,M,NA,variable,heterogeneous,4,present,1.29798889160156,1,horizontal,horizontal,1,0.635293493270874,red,2,1,986.495193912888,773.909581815937,626.090418184063,786.495193912888,626.090418184063,786.495193912888,986.495193912888,773.909581815937,973.909581815937,413.504806087112,613.504806087112,426.090418184063,0,0,0,0,3,4,3,5,NaN,NaN,vertical,horizontal,vertical,horizontal,none,none
1a,12,100155,1,10,10,26,M,NA,variable,heterogeneous,4,absent,0.976327896118164,1,vertical,vertical,1,0.6,green,3,NaN,764.510859255183,347.4816424709,NaN,NaN,835.489140744817,852.518357529101,1052.5183575291,564.510859255183,764.510859255183,347.4816424709,547.481642470899,635.489140744817,0,0,0,0,6,5,4,5,NaN,NaN,vertical,vertical,vertical,vertical,none,none
1a,12,100155,1,11,11,26,M,NA,variable,heterogeneous,3,present,0.999706029891968,1,horizontal,horizontal,1,0.988228425979614,red,3,2,568.891514305654,492.232343256122,1008.88377129369,453.738008730483,822.224714400653,854.029648013395,1008.88377129369,453.738008730483,568.891514305654,492.232343256122,0,0,0,0,0,0,0,6,4,NaN,NaN,NaN,vertical,horizontal,horizontal,none,none,none
1a,12,100155,1,12,12,26,M,NA,variable,heterogeneous,4,present,0.988621950149536,1,horizontal,horizontal,1,0.623528995513916,green,4,3,579.163522034968,727.5,672.5,379.163522034968,927.5,820.836477965032,1020.83647796503,472.5,672.5,379.163522034968,579.163522034968,727.5,0,0,0,0,6,0,3,4,NaN,NaN,vertical,vertical,vertical,horizontal,none,none
1a,12,100155,1,13,13,26,M,NA,variable,heterogeneous,6,present,0.991947889328003,1,horizontal,horizontal,1,0.988228425979614,green,1,2,680.284751489598,825.151636179026,935.129412379467,816.252264519889,680.284751489598,825.151636179026,935.129412379467,816.252264519889,1054.84466088987,591.100628340862,919.715248510402,374.848363820974,664.870587620533,383.747735480111,545.155339110131,608.899371659138,4,0,5,5,3,6,horizontal,vertical,horizontal,vertical,vertical,vertical
1a,12,100155,1,14,14,26,M,NA,variable,heterogeneous,5,present,1.13013195991516,1,vertical,vertical,1,0.89411244392395,red,1,4,704.475318678942,836.431882914531,738.309916622085,352.574589799621,704.475318678942,836.431882914531,995.341332995339,763.910840470068,1016.25226451989,464.870587620533,738.309916622085,352.574589799621,545.621167183745,582.212099195248,0,0,4,5,3,0,5,NaN,vertical,horizontal,horizontal,vertical,vertical,none
1a,12,100155,1,15,15,26,M,NA,variable,heterogeneous,3,present,1.16183590888977,1,horizontal,horizontal,1,0.635293493270874,green,1,2,716.980120613425,841.107236777826,1050.31493177915,551.343706178981,716.980120613425,841.107236777826,1050.31493177915,551.343706178981,632.704947607421,407.549057043193,0,0,0,0,0,0,4,0,0,NaN,NaN,NaN,horizontal,vertical,vertical,none,none,none
1a,12,100155,1,16,16,26,M,NA,variable,heterogeneous,4,present,1.04083800315857,1,horizontal,horizontal,1,0.988228425979614,red,4,2,548.13947314824,560.109211414741,1051.86052685176,639.890788585259,760.109211414741,851.86052685176,1051.86052685176,639.890788585259,839.890788585259,348.13947314824,548.13947314824,560.109211414741,0,0,0,0,3,3,0,4,NaN,NaN,horizontal,vertical,horizontal,horizontal,none,none
1a,12,100155,1,17,17,26,M,NA,variable,heterogeneous,6,present,NaN,0,vertical,none,0,1.03528641700745,green,2,5,1016.25226451989,735.129412379467,583.747735480111,464.870587620533,791.100628340862,854.844660889869,1016.25226451989,735.129412379467,1025.15163617903,480.284751489598,808.899371659138,345.155339110131,583.747735480111,464.870587620533,574.848363820974,719.715248510402,5,4,5,0,3,6,vertical,vertical,horizontal,horizontal,horizontal,horizontal
1a,12,100155,1,18,18,26,M,NA,variable,heterogeneous,3,absent,0.811856985092163,1,horizontal,horizontal,1,1.0470509147644,green,1,NaN,613.504806087112,773.909581815937,NaN,NaN,613.504806087112,773.909581815937,1043.85771277057,674.554784704298,742.637481142314,351.535633479765,0,0,0,0,0,0,4,0,0,NaN,NaN,NaN,horizontal,vertical,horizontal,none,none,none
1a,12,100155,1,19,19,26,M,NA,variable,heterogeneous,4,present,1.07520699501038,1,vertical,vertical,1,0.752938470840454,red,2,1,1039.62161830041,512.784863451954,887.215136548046,839.621618300407,887.215136548046,839.621618300407,1039.62161830041,512.784863451954,712.784863451954,360.378381699593,560.378381699593,687.215136548046,0,0,0,0,3,4,0,6,NaN,NaN,horizontal,vertical,horizontal,horizontal,none,none
1a,12,100155,1,20,20,26,M,NA,variable,heterogeneous,6,present,1.06449413299561,1,horizontal,horizontal,1,0.77646746635437,red,3,6,995.341332995339,436.089159529932,604.658667004661,763.910840470068,844.280285305067,851.125977018113,1039.62161830041,687.215136548046,995.341332995339,436.089159529932,755.719714694933,348.874022981887,560.378381699593,512.784863451954,604.658667004661,763.910840470068,0,5,4,6,3,6,horizontal,horizontal,horizontal,vertical,horizontal,vertical
1a,12,100155,1,21,21,26,M,NA,variable,heterogeneous,3,absent,0.811301946640015,1,vertical,vertical,1,0.670586986541748,red,3,NaN,568.891514305654,707.767656743878,NaN,NaN,1008.88377129369,746.261991269517,822.224714400653,345.970351986605,568.891514305654,707.767656743878,0,0,0,0,0,0,3,5,4,NaN,NaN,NaN,horizontal,vertical,vertical,none,none,none
1a,12,100155,1,22,22,26,M,NA,variable,heterogeneous,5,absent,1.39483904838562,0,horizontal,vertical,1,0.95293493270874,red,1,NaN,835.489140744817,852.518357529101,NaN,NaN,835.489140744817,852.518357529101,1051.12597701811,644.280285305067,919.715248510402,374.848363820974,622.862115532956,416.568350913644,570.807518193712,711.784642431215,0,0,4,6,5,0,5,NaN,horizontal,vertical,horizontal,horizontal,vertical,none
1a,12,100155,1,23,23,26,M,NA,variable,heterogeneous,6,absent,1.29277086257935,1,horizontal,horizontal,1,0.694115982055664,red,3,NaN,973.909581815937,413.504806087112,NaN,NaN,874.554784704298,843.857712770574,1048.46436652023,657.362518857686,973.909581815937,413.504806087112,725.445215295702,356.142287229426,551.535633479765,542.637481142314,626.090418184063,786.495193912888,0,3,4,0,6,3,horizontal,vertical,horizontal,horizontal,horizontal,horizontal
1a,12,100155,1,24,24,26,M,NA,variable,heterogeneous,4,absent,1.10314702987671,1,horizontal,horizontal,1,0.811760959625244,green,2,NaN,1049.42763818712,653.017481158529,NaN,NaN,746.982518841471,849.42763818712,1049.42763818712,653.017481158529,853.017481158529,350.57236181288,550.57236181288,546.982518841471,0,0,0,0,6,4,0,0,NaN,NaN,vertical,horizontal,horizontal,horizontal,none,none
1a,12,100155,1,25,25,26,M,NA,variable,heterogeneous,5,present,0.965383052825928,1,vertical,vertical,1,0.799996461868286,red,1,5,887.215136548046,839.621618300407,599.057257830286,756.993676208043,887.215136548046,839.621618300407,1054.84466088987,591.100628340862,870.287525733335,354.878267535729,588.595418998464,457.40580961496,599.057257830286,756.993676208043,0,0,4,3,6,0,5,NaN,vertical,horizontal,horizontal,vertical,vertical,none
1a,12,100155,1,26,26,26,M,NA,variable,heterogeneous,3,absent,0.949895143508911,1,vertical,vertical,1,1.0470509147644,red,3,NaN,588.595418998464,457.40580961496,NaN,NaN,782.212099195248,854.378832816255,1029.19248180629,488.215357568785,588.595418998464,457.40580961496,0,0,0,0,0,0,6,3,4,NaN,NaN,NaN,vertical,vertical,vertical,none,none,none
1a,12,100155,1,27,27,26,M,NA,variable,heterogeneous,4,absent,1.1066370010376,1,vertical,vertical,1,0.682351484298706,red,2,NaN,1038.06300875679,508.616172865948,NaN,NaN,891.383827134052,838.063008756786,1038.06300875679,508.616172865948,708.616172865948,361.936991243214,561.936991243214,691.383827134052,0,0,0,0,5,4,0,5,NaN,NaN,vertical,vertical,vertical,vertical,none,none
1a,12,100155,1,28,28,26,M,NA,variable,heterogeneous,3,present,0.968886852264404,1,horizontal,horizontal,1,1.01175742149353,green,2,3,1031.10848569435,492.232343256122,591.116228706307,453.738008730483,777.775285599347,854.029648013395,1031.10848569435,492.232343256122,591.116228706307,453.738008730483,0,0,0,0,0,0,0,4,5,NaN,NaN,NaN,horizontal,horizontal,horizontal,none,none,none
1a,12,100155,1,29,29,26,M,NA,variable,heterogeneous,6,absent,1.67186784744263,1,horizontal,horizontal,1,0.95293493270874,red,2,NaN,946.261991269517,808.883771293693,NaN,NaN,692.232343256122,831.108485694346,946.261991269517,808.883771293693,1054.0296480134,577.775285599347,907.767656743878,368.891514305654,653.738008730483,391.116228706307,545.970351986605,622.224714400653,0,4,3,6,0,6,vertical,horizontal,vertical,vertical,vertical,horizontal
1a,12,100155,1,30,30,26,M,NA,variable,heterogeneous,4,absent,0.949583053588867,1,horizontal,horizontal,1,0.799996461868286,red,3,NaN,915.767577433584,372.793336331966,NaN,NaN,684.232422566416,827.206663668034,1027.20666366803,715.767577433584,915.767577433584,372.793336331966,572.793336331966,484.232422566416,0,0,0,0,0,3,4,3,NaN,NaN,vertical,vertical,horizontal,horizontal,none,none
1a,12,100155,1,31,31,26,M,NA,variable,heterogeneous,3,present,1.25314617156982,1,vertical,vertical,1,0.623528995513916,red,1,3,616.568350913644,777.137884467044,738.309916622085,352.574589799621,616.568350913644,777.137884467044,1045.12173246427,670.287525733335,738.309916622085,352.574589799621,0,0,0,0,0,0,4,5,3,NaN,NaN,NaN,vertical,horizontal,vertical,none,none,none
1a,12,100155,1,32,32,26,M,NA,variable,heterogeneous,4,absent,1.63757514953613,1,horizontal,horizontal,1,0.764702968597412,red,2,NaN,1027.20666366803,484.232422566416,NaN,NaN,915.767577433584,827.206663668034,1027.20666366803,484.232422566416,684.232422566416,372.793336331966,572.793336331966,715.767577433584,0,0,0,0,5,4,6,6,NaN,NaN,vertical,horizontal,horizontal,vertical,none,none
1a,12,100155,1,33,33,26,M,NA,variable,heterogeneous,5,present,1.28385400772095,1,vertical,vertical,1,0.65882248878479,green,1,5,935.129412379467,816.252264519889,636.089159529932,795.341332995339,935.129412379467,816.252264519889,1047.42541020038,538.309916622085,817.787900804752,345.621167183745,563.568117085469,504.475318678942,636.089159529932,795.341332995339,0,0,4,6,0,5,6,NaN,vertical,vertical,horizontal,horizontal,vertical,none
1a,12,100155,1,34,34,26,M,NA,variable,heterogeneous,6,present,0.931320190429688,1,vertical,vertical,1,0.882347946166992,red,1,5,853.017481158529,849.42763818712,557.480588344736,521.200666434388,853.017481158529,849.42763818712,1042.51941165526,678.799333565612,989.501930496736,429.371695378491,746.982518841471,350.57236181288,557.480588344736,521.200666434388,610.498069503264,770.628304621509,4,0,0,5,6,3,vertical,horizontal,horizontal,vertical,horizontal,vertical
1a,12,100155,1,35,35,26,M,NA,variable,heterogeneous,5,absent,0.943108081817627,1,vertical,vertical,1,0.847054452896118,red,2,NaN,1053.09926866854,568.923317431687,NaN,NaN,907.767656743878,831.108485694346,1053.09926866854,568.923317431687,848.656293821019,349.685068220846,576.971974679454,476.373546837184,613.504806087112,773.909581815937,0,0,6,4,3,0,6,NaN,vertical,vertical,horizontal,horizontal,horizontal,none
1a,12,100155,1,36,36,26,M,NA,variable,heterogeneous,4,present,1.26017785072327,1,vertical,vertical,1,0.905876941680908,green,4,3,570.807518193712,711.784642431215,688.215357568785,370.807518193712,911.784642431215,829.192481806288,1029.19248180629,488.215357568785,688.215357568785,370.807518193712,570.807518193712,711.784642431215,0,0,0,0,0,3,0,4,NaN,NaN,horizontal,vertical,horizontal,vertical,none,none
1a,12,100155,1,37,37,26,M,NA,variable,heterogeneous,5,absent,1.28865623474121,1,horizontal,horizontal,1,0.741173973083496,green,3,NaN,813.345668841951,345.349468637584,NaN,NaN,938.882953928832,813.860994826083,1046.31108570371,534.001143498857,813.345668841951,345.349468637584,561.936991243214,508.616172865948,639.523300282292,798.172220171528,0,0,0,0,4,3,6,NaN,horizontal,vertical,horizontal,horizontal,horizontal,none
1a,12,100155,1,38,38,26,M,NA,variable,heterogeneous,4,present,0.963904142379761,1,vertical,vertical,1,0.670586986541748,red,4,2,619.68777079743,419.68777079743,980.31222920257,780.31222920257,619.68777079743,780.31222920257,980.31222920257,780.31222920257,980.31222920257,419.68777079743,619.68777079743,419.68777079743,0,0,0,0,0,5,5,4,NaN,NaN,horizontal,horizontal,horizontal,vertical,none,none
1a,12,100155,1,39,39,26,M,NA,variable,heterogeneous,4,present,0.918338060379028,1,vertical,vertical,1,0.741173973083496,green,3,4,956.993676208043,399.057257830286,599.057257830286,443.006323791957,643.006323791957,800.942742169714,1000.94274216971,756.993676208043,956.993676208043,399.057257830286,599.057257830286,443.006323791957,0,0,0,0,3,5,4,0,NaN,NaN,vertical,vertical,vertical,horizontal,none,none
1a,12,100155,1,40,40,26,M,NA,variable,heterogeneous,5,absent,0.837970972061157,1,vertical,vertical,1,1.0470509147644,red,3,NaN,960.476699717708,401.827779828472,NaN,NaN,786.654331158049,854.650531362416,1038.06300875679,691.383827134052,960.476699717708,401.827779828472,661.117046071168,386.139005173917,553.688914296288,665.998856501143,0,0,0,6,4,5,3,NaN,horizontal,horizontal,vertical,vertical,vertical,none
1a,12,100155,1,41,41,26,M,NA,variable,heterogeneous,5,present,0.783461093902588,1,horizontal,horizontal,1,0.823525457382202,red,5,3,548.874022981887,555.719714694933,1029.19248180629,488.215357568785,680.284751489598,825.151636179026,977.137884467044,783.431649086356,1029.19248180629,488.215357568785,764.510859255183,347.4816424709,548.874022981887,555.719714694933,0,0,6,3,3,5,4,NaN,vertical,horizontal,vertical,horizontal,horizontal,none
1a,12,100155,1,42,42,26,M,NA,variable,heterogeneous,5,present,0.727226972579956,1,vertical,vertical,1,1.01175742149353,green,3,5,1036.43188291453,504.475318678942,552.574589799621,538.309916622085,664.870587620533,816.252264519889,963.910840470068,795.341332995339,1036.43188291453,504.475318678942,782.212099195248,345.621167183745,552.574589799621,538.309916622085,0,0,5,5,4,0,3,NaN,vertical,vertical,vertical,vertical,horizontal,none
1a,12,100155,1,43,43,26,M,NA,variable,heterogeneous,3,absent,0.800397872924805,1,horizontal,horizontal,1,0.71764497756958,green,2,NaN,1042.51941165526,521.200666434388,NaN,NaN,746.982518841471,849.42763818712,1042.51941165526,521.200666434388,610.498069503264,429.371695378491,0,0,0,0,0,0,3,4,0,NaN,NaN,NaN,vertical,horizontal,vertical,none,none,none
1a,12,100155,1,44,44,26,M,NA,variable,heterogeneous,5,present,1.23797798156738,0,horizontal,vertical,1,0.870583448410034,red,5,1,550.57236181288,546.982518841471,672.5,820.836477965032,672.5,820.836477965032,970.628304621509,789.501930496736,1032.95409169886,496.282156015671,773.345241866748,346.39691668109,550.57236181288,546.982518841471,0,0,3,5,6,0,4,NaN,horizontal,horizontal,horizontal,vertical,horizontal,none
1a,12,100155,1,45,45,26,M,NA,variable,heterogeneous,5,absent,0.791171073913574,1,vertical,vertical,1,0.799996461868286,green,4,NaN,591.116228706307,453.738008730483,NaN,NaN,883.019879386575,841.107236777826,1054.96116226488,595.549636358493,874.554784704298,356.142287229426,591.116228706307,453.738008730483,596.34794493794,753.462830903772,0,0,0,5,5,4,6,NaN,horizontal,vertical,horizontal,vertical,horizontal,none
1a,12,100155,1,46,46,26,M,NA,variable,heterogeneous,6,absent,1.55996799468994,1,vertical,vertical,1,1.0470509147644,red,2,NaN,995.341332995339,763.910840470068,NaN,NaN,755.719714694933,851.125977018113,995.341332995339,763.910840470068,1039.62161830041,512.784863451954,844.280285305067,348.874022981887,604.658667004661,436.089159529932,560.378381699593,687.215136548046,0,4,6,6,3,5,horizontal,vertical,vertical,horizontal,horizontal,vertical
1a,12,100155,1,47,47,26,M,NA,variable,heterogeneous,6,absent,1.56304097175598,1,horizontal,horizontal,1,0.77646746635437,green,1,NaN,721.200666434388,842.519411655264,NaN,NaN,721.200666434388,842.519411655264,970.628304621509,789.501930496736,1049.42763818712,546.982518841471,878.799333565612,357.480588344736,629.371695378491,410.498069503264,550.57236181288,653.017481158529,4,5,0,3,6,6,horizontal,vertical,horizontal,vertical,vertical,vertical
1a,12,100155,1,48,48,26,M,NA,variable,heterogeneous,6,present,NaN,0,horizontal,none,0,0.882347946166992,green,2,5,1000.94274216971,756.993676208043,599.057257830286,443.006323791957,764.510859255183,852.518357529101,1000.94274216971,756.993676208043,1036.43188291453,504.475318678942,835.489140744817,347.4816424709,599.057257830286,443.006323791957,563.568117085469,695.524681321058,0,4,6,6,5,0,vertical,horizontal,horizontal,vertical,horizontal,horizontal
1a,12,100155,1,49,49,26,M,NA,variable,heterogeneous,4,absent,1.02147006988525,1,vertical,vertical,1,0.65882248878479,green,4,NaN,545.621167183745,617.787900804752,NaN,NaN,817.787900804752,854.378832816255,1054.37883281626,582.212099195248,782.212099195248,345.621167183745,545.621167183745,617.787900804752,0,0,0,0,5,3,0,4,NaN,NaN,horizontal,vertical,horizontal,vertical,none,none
1a,12,100155,1,50,50,26,M,NA,variable,heterogeneous,6,present,1.23511481285095,0,horizontal,vertical,1,0.65882248878479,red,2,6,1032.95409169886,703.717843984329,593.700666434388,749.885239334581,826.654758133252,853.60308331891,1032.95409169886,703.717843984329,1006.29933356561,450.114760665419,773.345241866748,346.39691668109,567.045908301137,496.282156015671,593.700666434388,749.885239334581,0,4,6,3,5,6,horizontal,horizontal,vertical,horizontal,horizontal,vertical
1a,12,100155,1,51,51,26,M,NA,variable,heterogeneous,3,absent,1.0582389831543,1,horizontal,horizontal,1,0.905876941680908,red,3,NaN,601.827779828472,439.523300282291,NaN,NaN,760.109211414741,851.86052685176,1038.06300875679,508.616172865948,601.827779828472,439.523300282291,0,0,0,0,0,0,0,3,4,NaN,NaN,NaN,horizontal,vertical,horizontal,none,none,none
1a,12,100155,1,52,52,26,M,NA,variable,heterogeneous,4,present,1.25546598434448,1,horizontal,horizontal,1,1.01175742149353,green,2,4,1051.86052685176,639.890788585259,548.13947314824,560.109211414741,760.109211414741,851.86052685176,1051.86052685176,639.890788585259,839.890788585259,348.13947314824,548.13947314824,560.109211414741,0,0,0,0,0,4,6,6,NaN,NaN,horizontal,horizontal,vertical,vertical,none,none
1a,12,100155,1,53,53,26,M,NA,variable,heterogeneous,5,absent,1.64231085777283,1,horizontal,horizontal,1,1.05881541252136,green,1,NaN,791.100628340862,854.844660889869,NaN,NaN,791.100628340862,854.844660889869,1039.62161830041,687.215136548046,956.993676208043,399.057257830286,657.405809614959,388.595418998464,554.878267535729,670.287525733335,0,0,4,0,5,0,6,NaN,horizontal,horizontal,horizontal,horizontal,vertical,none
1a,12,100155,1,54,54,26,M,NA,variable,heterogeneous,3,absent,0.979657173156738,1,vertical,vertical,1,0.623528995513916,green,3,NaN,576.971974679454,476.373546837184,NaN,NaN,804.450363641507,854.96116226488,1018.57766167904,468.665290897936,576.971974679454,476.373546837184,0,0,0,0,0,0,0,3,4,NaN,NaN,NaN,vertical,horizontal,vertical,none,none,none
1a,12,100155,1,55,55,26,M,NA,variable,heterogeneous,4,absent,1.14347100257874,1,vertical,vertical,1,0.799996461868286,red,4,NaN,610.498069503264,770.628304621509,NaN,NaN,970.628304621509,789.501930496736,989.501930496736,429.371695378491,629.371695378491,410.498069503264,610.498069503264,770.628304621509,0,0,0,0,5,3,6,4,NaN,NaN,vertical,vertical,vertical,vertical,none,none
1a,12,100155,1,56,56,26,M,NA,variable,heterogeneous,3,absent,0.817771911621094,1,vertical,vertical,1,0.764702968597412,green,2,NaN,1013.86099482608,461.117046071168,NaN,NaN,813.345668841951,854.650531362416,1013.86099482608,461.117046071168,572.793336331966,484.232422566416,0,0,0,0,0,0,0,4,5,NaN,NaN,NaN,vertical,vertical,vertical,none,none,none
1a,12,100155,1,57,57,26,M,NA,variable,heterogeneous,6,absent,1.34305310249329,1,vertical,vertical,1,1.03528641700745,green,1,NaN,903.717843984329,832.954091698863,NaN,NaN,903.717843984329,832.954091698863,1053.60308331891,626.654758133252,949.885239334581,393.700666434388,696.282156015671,367.045908301137,546.39691668109,573.345241866748,650.114760665419,806.299333565612,4,0,0,3,5,6,vertical,horizontal,vertical,horizontal,horizontal,vertical
1a,12,100155,1,58,58,26,M,NA,variable,heterogeneous,5,present,0.987881183624268,0,horizontal,vertical,1,0.882347946166992,green,3,5,923.626453162816,376.971974679454,568.891514305654,707.767656743878,831.076682568313,853.099268668537,1050.31493177915,648.656293821019,923.626453162816,376.971974679454,626.090418184063,413.504806087112,568.891514305654,707.767656743878,0,0,5,5,4,0,6,NaN,horizontal,horizontal,horizontal,vertical,vertical,none
1a,12,100155,1,59,59,26,M,NA,variable,heterogeneous,3,present,0.963325023651123,1,horizontal,horizontal,1,0.976463928222656,red,1,2,716.980120613425,841.107236777826,1050.31493177915,551.343706178981,716.980120613425,841.107236777826,1050.31493177915,551.343706178981,632.704947607421,407.549057043193,0,0,0,0,0,0,4,3,5,NaN,NaN,NaN,horizontal,horizontal,vertical,none,none,none
1a,12,100155,1,60,60,26,M,NA,variable,heterogeneous,6,present,0.99064302444458,1,vertical,vertical,1,0.788231964111328,red,3,1,1003.65205506206,446.537169096228,831.076682568313,853.099268668537,831.076682568313,853.099268668537,1034.72873763037,699.636437764765,1003.65205506206,446.537169096228,768.923317431687,346.900731331463,565.271262369628,500.363562235235,596.34794493794,753.462830903772,5,6,4,5,0,0,vertical,horizontal,vertical,horizontal,horizontal,horizontal
1a,12,100155,1,61,61,26,M,NA,variable,heterogeneous,3,present,1.33787298202515,1,vertical,vertical,1,0.764702968597412,red,2,1,989.501930496736,429.371695378491,853.017481158529,849.42763818712,853.017481158529,849.42763818712,989.501930496736,429.371695378491,557.480588344736,521.200666434388,0,0,0,0,0,0,0,4,6,NaN,NaN,NaN,horizontal,vertical,horizontal,none,none,none
1a,12,100155,1,62,62,26,M,NA,variable,heterogeneous,4,absent,NaN,0,horizontal,none,0,0.788231964111328,green,3,NaN,746.982518841471,350.57236181288,NaN,NaN,853.017481158529,849.42763818712,1049.42763818712,546.982518841471,746.982518841471,350.57236181288,550.57236181288,653.017481158529,0,0,0,0,6,5,4,5,NaN,NaN,vertical,horizontal,horizontal,horizontal,none,none
1a,12,100155,1,63,63,26,M,NA,variable,heterogeneous,3,absent,1.0533390045166,1,horizontal,horizontal,1,1.02352191925049,red,2,NaN,848.656293821019,349.685068220846,NaN,NaN,992.450942956807,767.295052392579,848.656293821019,349.685068220846,558.892763222174,683.019879386575,0,0,0,0,0,0,6,4,5,NaN,NaN,NaN,horizontal,horizontal,horizontal,none,none,none
1a,12,100155,1,64,64,26,M,NA,variable,heterogeneous,3,present,0.740415096282959,1,vertical,vertical,1,0.89411244392395,green,1,3,664.870587620533,816.252264519889,680.284751489598,374.848363820974,664.870587620533,816.252264519889,1054.84466088987,608.899371659138,680.284751489598,374.848363820974,0,0,0,0,0,0,4,5,0,NaN,NaN,NaN,vertical,vertical,horizontal,none,none,none
1a,12,100155,2,1,65,26,M,NA,variable,heterogeneous,4,present,1.02441215515137,1,vertical,vertical,1,0.870583448410034,green,1,3,895.524681321058,836.431882914531,704.475318678942,363.568117085469,895.524681321058,836.431882914531,1036.43188291453,504.475318678942,704.475318678942,363.568117085469,563.568117085469,695.524681321058,0,0,0,0,4,0,5,5,NaN,NaN,vertical,horizontal,horizontal,horizontal,none,none
1a,12,100155,2,2,66,26,M,NA,variable,heterogeneous,5,absent,1.38265419006348,1,horizontal,horizontal,1,0.870583448410034,green,1,NaN,672.5,820.836477965032,NaN,NaN,672.5,820.836477965032,970.628304621509,789.501930496736,1032.95409169886,496.282156015671,773.345241866748,346.39691668109,550.57236181288,546.982518841471,0,0,4,3,6,5,6,NaN,horizontal,vertical,vertical,vertical,vertical,none
1a,12,100155,2,3,67,26,M,NA,variable,heterogeneous,5,absent,0.845802068710327,1,horizontal,horizontal,1,0.764702968597412,green,1,NaN,844.280285305067,851.125977018113,NaN,NaN,844.280285305067,851.125977018113,1052.5183575291,635.489140744817,911.784642431215,370.807518193712,616.568350913644,422.862115532956,574.848363820974,719.715248510402,0,0,4,5,6,3,5,NaN,horizontal,horizontal,horizontal,vertical,horizontal,none
1a,12,100155,2,4,68,26,M,NA,variable,heterogeneous,6,present,1.65651917457581,1,horizontal,horizontal,1,1.08234440803528,red,5,4,613.504806087112,426.090418184063,857.362518857686,351.535633479765,742.637481142314,848.464366520235,986.495193912888,773.909581815937,1043.85771277057,525.445215295702,857.362518857686,351.535633479765,613.504806087112,426.090418184063,556.142287229426,674.554784704298,3,3,6,5,4,0,vertical,horizontal,vertical,horizontal,horizontal,vertical
1a,12,100155,2,5,69,26,M,NA,variable,heterogeneous,3,present,0.813582181930542,1,vertical,vertical,1,0.999992923736572,green,1,3,742.637481142314,848.464366520235,613.504806087112,426.090418184063,742.637481142314,848.464366520235,1043.85771277057,525.445215295702,613.504806087112,426.090418184063,0,0,0,0,0,0,4,6,0,NaN,NaN,NaN,vertical,vertical,vertical,none,none,none
1a,12,100155,2,6,70,26,M,NA,variable,heterogeneous,5,present,0.644351005554199,1,vertical,vertical,1,0.905876941680908,red,1,3,742.637481142314,848.464366520235,992.450942956807,432.704947607421,742.637481142314,848.464366520235,1018.57766167904,731.334709102064,992.450942956807,432.704947607421,700.363562235235,365.271262369628,545.970351986605,622.224714400653,0,0,4,0,6,3,3,NaN,vertical,horizontal,vertical,vertical,horizontal,none
1a,12,100155,2,7,71,26,M,NA,variable,heterogeneous,6,absent,0.950700998306274,1,horizontal,horizontal,1,0.870583448410034,green,5,NaN,574.848363820974,480.284751489598,NaN,NaN,808.899371659138,854.844660889869,1025.15163617903,719.715248510402,1016.25226451989,464.870587620533,791.100628340862,345.155339110131,574.848363820974,480.284751489598,583.747735480111,735.129412379467,5,0,6,0,4,5,vertical,vertical,vertical,vertical,horizontal,vertical
1a,12,100155,2,8,72,26,M,NA,variable,heterogeneous,5,absent,0.991154193878174,1,vertical,vertical,1,1.07057991027832,red,5,NaN,557.480588344736,678.799333565612,NaN,NaN,800,855,1042.51941165526,678.799333565612,949.885239334581,393.700666434388,650.114760665419,393.700666434388,557.480588344736,678.799333565612,0,0,6,0,3,0,4,NaN,vertical,vertical,vertical,horizontal,vertical,none
1a,12,100155,2,9,73,26,M,NA,variable,heterogeneous,3,absent,0.734314918518066,1,vertical,vertical,1,0.95293493270874,green,3,NaN,570.807518193712,711.784642431215,NaN,NaN,1011.40458100154,742.594190385041,817.787900804752,345.621167183745,570.807518193712,711.784642431215,0,0,0,0,0,0,0,6,4,NaN,NaN,NaN,horizontal,vertical,vertical,none,none,none
1a,12,100155,2,10,74,26,M,NA,variable,heterogeneous,4,absent,0.781451225280762,1,horizontal,horizontal,1,0.811760959625244,green,4,NaN,576.971974679454,723.626453162816,NaN,NaN,923.626453162816,823.028025320546,1023.02802532055,476.373546837184,676.373546837184,376.971974679454,576.971974679454,723.626453162816,0,0,0,0,3,5,6,4,NaN,NaN,horizontal,horizontal,vertical,horizontal,none,none
1a,12,100155,2,11,75,26,M,NA,variable,heterogeneous,3,absent,0.772959232330322,1,vertical,vertical,1,0.788231964111328,red,3,NaN,746.982518841471,350.57236181288,NaN,NaN,610.498069503264,770.628304621509,1042.51941165526,678.799333565612,746.982518841471,350.57236181288,0,0,0,0,0,0,5,6,4,NaN,NaN,NaN,horizontal,horizontal,vertical,none,none,none
1a,12,100155,2,12,76,26,M,NA,variable,heterogeneous,6,absent,0.90704607963562,0,horizontal,vertical,1,0.729409475326538,red,5,NaN,551.535633479765,542.637481142314,NaN,NaN,874.554784704298,843.857712770574,1048.46436652023,657.362518857686,973.909581815937,413.504806087112,725.445215295702,356.142287229426,551.535633479765,542.637481142314,626.090418184063,786.495193912888,5,6,6,0,4,3,horizontal,horizontal,horizontal,vertical,horizontal,vertical
1a,12,100155,2,13,77,26,M,NA,variable,heterogeneous,6,present,1.06347894668579,1,horizontal,horizontal,1,1.09410890579224,green,1,3,725.445215295702,843.857712770574,1048.46436652023,542.637481142314,725.445215295702,843.857712770574,973.909581815937,786.495193912888,1048.46436652023,542.637481142314,874.554784704298,356.142287229426,626.090418184063,413.504806087112,551.535633479765,657.362518857686,4,0,6,6,5,3,horizontal,horizontal,vertical,vertical,vertical,horizontal
1a,12,100155,2,14,78,26,M,NA,variable,heterogeneous,3,absent,0.99894118309021,0,horizontal,vertical,1,0.705880479812622,red,1,NaN,973.909581815937,786.495193912888,NaN,NaN,973.909581815937,786.495193912888,874.554784704298,356.142287229426,551.535633479765,657.362518857686,0,0,0,0,0,0,4,3,6,NaN,NaN,NaN,horizontal,horizontal,horizontal,none,none,none
1a,12,100155,2,15,79,26,M,NA,variable,heterogeneous,6,present,1.28491020202637,1,vertical,vertical,1,0.89411244392395,red,4,2,891.383827134052,361.936991243214,960.476699717708,798.172220171528,708.616172865948,838.063008756786,960.476699717708,798.172220171528,1051.86052685176,560.109211414741,891.383827134052,361.936991243214,639.523300282292,401.827779828472,548.13947314824,639.890788585259,3,0,6,4,5,6,vertical,horizontal,horizontal,vertical,vertical,vertical
1a,12,100155,2,16,80,26,M,NA,variable,heterogeneous,5,absent,0.934551000595093,1,vertical,vertical,1,0.976463928222656,green,5,NaN,548.874022981887,555.719714694933,NaN,NaN,680.284751489598,825.151636179026,977.137884467044,783.431649086356,1029.19248180629,488.215357568785,764.510859255183,347.4816424709,548.874022981887,555.719714694933,0,0,5,6,3,0,4,NaN,vertical,vertical,vertical,vertical,vertical,none
1a,12,100155,2,17,81,26,M,NA,variable,heterogeneous,3,present,1.5299220085144,1,horizontal,horizontal,1,0.623528995513916,green,2,3,1036.43188291453,504.475318678942,599.057257830286,443.006323791957,764.510859255183,852.518357529101,1036.43188291453,504.475318678942,599.057257830286,443.006323791957,0,0,0,0,0,0,0,4,0,NaN,NaN,NaN,vertical,horizontal,vertical,none,none,none
1a,12,100155,2,18,82,26,M,NA,variable,heterogeneous,3,absent,0.873900890350342,1,vertical,vertical,1,1.05881541252136,red,1,NaN,826.654758133252,853.60308331891,NaN,NaN,826.654758133252,853.60308331891,1006.29933356561,450.114760665419,567.045908301137,496.282156015671,0,0,0,0,0,0,4,5,0,NaN,NaN,NaN,vertical,horizontal,horizontal,none,none,none
1a,12,100155,2,19,83,26,M,NA,variable,heterogeneous,6,absent,1.09233999252319,1,vertical,vertical,1,1.03528641700745,green,6,NaN,551.535633479765,657.362518857686,NaN,NaN,725.445215295702,843.857712770574,973.909581815937,786.495193912888,1048.46436652023,542.637481142314,874.554784704298,356.142287229426,626.090418184063,413.504806087112,551.535633479765,657.362518857686,6,0,5,5,6,4,vertical,horizontal,horizontal,vertical,horizontal,vertical
1a,12,100155,2,20,84,26,M,NA,variable,heterogeneous,5,present,0.924849987030029,1,horizontal,horizontal,1,0.729409475326538,red,2,4,1054.84466088987,591.100628340862,588.595418998464,457.40580961496,887.215136548046,839.621618300407,1054.84466088987,591.100628340862,870.287525733335,354.878267535729,588.595418998464,457.40580961496,599.057257830286,756.993676208043,0,0,6,4,6,3,3,NaN,horizontal,horizontal,vertical,vertical,vertical,none
1a,12,100155,2,21,85,26,M,NA,variable,heterogeneous,4,present,1.31154203414917,1,horizontal,horizontal,1,1.01175742149353,red,2,4,1038.06300875679,691.383827134052,561.936991243214,508.616172865948,708.616172865948,838.063008756786,1038.06300875679,691.383827134052,891.383827134052,361.936991243214,561.936991243214,508.616172865948,0,0,0,0,3,4,0,6,NaN,NaN,horizontal,horizontal,horizontal,horizontal,none,none
1a,12,100155,2,22,86,26,M,NA,variable,heterogeneous,4,absent,1.18323993682861,1,vertical,vertical,1,0.858818950653076,red,3,NaN,742.637481142314,351.535633479765,NaN,NaN,857.362518857686,848.464366520235,1048.46436652023,542.637481142314,742.637481142314,351.535633479765,551.535633479765,657.362518857686,0,0,0,0,6,3,4,0,NaN,NaN,horizontal,vertical,vertical,vertical,none,none
1a,12,100155,2,23,87,26,M,NA,variable,heterogeneous,4,present,0.955538034439087,1,horizontal,horizontal,1,1.02352191925049,green,4,3,596.34794493794,446.537169096228,953.462830903772,396.34794493794,646.537169096228,803.65205506206,1003.65205506206,753.462830903772,953.462830903772,396.34794493794,596.34794493794,446.537169096228,0,0,0,0,0,3,5,4,NaN,NaN,vertical,horizontal,horizontal,horizontal,none,none
1a,12,100155,2,24,88,26,M,NA,variable,heterogeneous,6,absent,0.961896896362305,1,horizontal,horizontal,1,0.741173973083496,red,1,NaN,813.345668841951,854.650531362416,NaN,NaN,813.345668841951,854.650531362416,1027.20666366803,715.767577433584,1013.86099482608,461.117046071168,786.654331158049,345.349468637584,572.793336331966,484.232422566416,586.139005173917,738.882953928832,4,3,6,5,5,6,horizontal,horizontal,vertical,vertical,horizontal,horizontal
1a,12,100155,2,25,89,26,M,NA,variable,heterogeneous,3,present,0.886286020278931,1,horizontal,horizontal,1,1.07057991027832,green,2,3,874.554784704298,356.142287229426,551.535633479765,657.362518857686,973.909581815937,786.495193912888,874.554784704298,356.142287229426,551.535633479765,657.362518857686,0,0,0,0,0,0,3,4,0,NaN,NaN,NaN,horizontal,horizontal,horizontal,none,none,none
1a,12,100155,2,26,90,26,M,NA,variable,heterogeneous,6,present,0.848455905914307,1,horizontal,horizontal,1,0.999992923736572,green,2,5,1052.5183575291,635.489140744817,547.481642470899,564.510859255183,895.524681321058,836.431882914531,1052.5183575291,635.489140744817,956.993676208043,399.057257830286,704.475318678942,363.568117085469,547.481642470899,564.510859255183,643.006323791957,800.942742169714,6,4,6,0,0,5,horizontal,horizontal,horizontal,horizontal,vertical,horizontal
1a,12,100155,2,27,91,26,M,NA,variable,heterogeneous,4,absent,0.912837028503418,1,vertical,vertical,1,0.764702968597412,green,1,NaN,768.923317431687,853.099268668537,NaN,NaN,768.923317431687,853.099268668537,1053.09926866854,631.076682568313,831.076682568313,346.900731331463,546.900731331463,568.923317431687,0,0,0,0,4,3,0,5,NaN,NaN,vertical,vertical,vertical,vertical,none,none
1a,12,100155,2,28,92,26,M,NA,variable,heterogeneous,4,absent,1.32939004898071,1,horizontal,horizontal,1,0.705880479812622,red,3,NaN,738.309916622085,352.574589799621,NaN,NaN,861.690083377915,847.425410200379,1047.42541020038,538.309916622085,738.309916622085,352.574589799621,552.574589799621,661.690083377915,0,0,0,0,0,6,4,5,NaN,NaN,vertical,vertical,horizontal,vertical,none,none
1a,12,100155,2,29,93,26,M,NA,variable,heterogeneous,6,present,1.08670711517334,1,vertical,vertical,1,0.917641439437866,red,3,4,977.137884467044,416.568350913644,729.712474266665,354.878267535729,870.287525733335,845.121732464271,1047.42541020038,661.690083377915,977.137884467044,416.568350913644,729.712474266665,354.878267535729,552.574589799621,538.309916622085,622.862115532956,783.431649086356,3,3,4,6,0,6,horizontal,vertical,vertical,vertical,vertical,vertical
1a,12,100155,2,30,94,26,M,NA,variable,heterogeneous,4,absent,0.893438816070557,1,horizontal,horizontal,1,0.858818950653076,red,1,NaN,919.715248510402,825.151636179026,NaN,NaN,919.715248510402,825.151636179026,1025.15163617903,480.284751489598,680.284751489598,374.848363820974,574.848363820974,719.715248510402,0,0,0,0,4,5,3,0,NaN,NaN,horizontal,vertical,horizontal,horizontal,none,none
1a,12,100155,2,31,95,26,M,NA,variable,heterogeneous,5,absent,0.700676202774048,1,vertical,vertical,1,1.0470509147644,green,2,NaN,1054.84466088987,591.100628340862,NaN,NaN,887.215136548046,839.621618300407,1054.84466088987,591.100628340862,870.287525733335,354.878267535729,588.595418998464,457.40580961496,599.057257830286,756.993676208043,0,0,3,4,6,0,0,NaN,horizontal,vertical,vertical,vertical,horizontal,none
1a,12,100155,2,32,96,26,M,NA,variable,heterogeneous,3,absent,0.642409086227417,1,vertical,vertical,1,0.976463928222656,green,2,NaN,1046.31108570371,665.998856501143,NaN,NaN,619.68777079743,780.31222920257,1046.31108570371,665.998856501143,734.001143498857,353.688914296288,0,0,0,0,0,0,3,4,3,NaN,NaN,NaN,vertical,vertical,vertical,none,none,none
1a,12,100155,2,33,97,26,M,NA,variable,heterogeneous,3,present,0.815097093582153,1,horizontal,horizontal,1,0.988228425979614,red,2,1,1047.42541020038,538.309916622085,729.712474266665,845.121732464271,729.712474266665,845.121732464271,1047.42541020038,538.309916622085,622.862115532956,416.568350913644,0,0,0,0,0,0,0,4,0,NaN,NaN,NaN,horizontal,horizontal,horizontal,none,none,none
1a,12,100155,2,34,98,26,M,NA,variable,heterogeneous,6,absent,1.04951500892639,1,vertical,vertical,1,1.09410890579224,green,4,NaN,800,345,NaN,NaN,800,855,1020.83647796503,727.5,1020.83647796503,472.5,800,345,579.163522034968,472.5,579.163522034968,727.5,3,6,0,4,5,5,vertical,horizontal,horizontal,vertical,vertical,vertical
1a,12,100155,2,35,99,26,M,NA,variable,heterogeneous,5,present,1.3624861240387,1,horizontal,horizontal,1,0.788231964111328,green,4,3,639.523300282292,401.827779828472,938.882953928832,386.139005173917,813.345668841951,854.650531362416,1046.31108570371,665.998856501143,938.882953928832,386.139005173917,639.523300282292,401.827779828472,561.936991243214,691.383827134052,0,0,0,3,0,4,5,NaN,horizontal,vertical,horizontal,horizontal,vertical,none
1a,12,100155,2,36,100,26,M,NA,variable,heterogeneous,3,present,0.830744028091431,1,vertical,vertical,1,0.847054452896118,green,1,2,692.232343256122,831.108485694346,1054.0296480134,577.775285599347,692.232343256122,831.108485694346,1054.0296480134,577.775285599347,653.738008730483,391.116228706307,0,0,0,0,0,0,4,5,6,NaN,NaN,NaN,vertical,vertical,horizontal,none,none,none
1a,12,100155,2,37,101,26,M,NA,variable,heterogeneous,5,present,1.09718894958496,1,vertical,vertical,1,0.882347946166992,red,4,5,591.116228706307,453.738008730483,596.34794493794,753.462830903772,883.019879386575,841.107236777826,1054.96116226488,595.549636358493,874.554784704298,356.142287229426,591.116228706307,453.738008730483,596.34794493794,753.462830903772,0,0,5,0,6,4,0,NaN,vertical,horizontal,horizontal,vertical,horizontal,none
1a,12,100155,2,38,102,26,M,NA,variable,heterogeneous,3,present,0.75461220741272,1,vertical,vertical,1,0.964699430465698,red,2,1,1023.02802532055,476.373546837184,795.549636358493,854.96116226488,795.549636358493,854.96116226488,1023.02802532055,476.373546837184,581.422338320961,468.665290897936,0,0,0,0,0,0,6,4,0,NaN,NaN,NaN,horizontal,vertical,vertical,none,none,none
1a,12,100155,2,39,103,26,M,NA,variable,heterogeneous,3,absent,0.963176965713501,1,horizontal,horizontal,1,0.65882248878479,green,3,NaN,712.784863451954,360.378381699593,NaN,NaN,636.089159529932,795.341332995339,1051.12597701811,644.280285305067,712.784863451954,360.378381699593,0,0,0,0,0,0,6,5,4,NaN,NaN,NaN,vertical,vertical,horizontal,none,none,none
1a,12,100155,2,40,104,26,M,NA,variable,heterogeneous,5,absent,0.967180967330933,1,horizontal,horizontal,1,0.83528995513916,red,2,NaN,953.462830903772,803.65205506206,NaN,NaN,653.738008730483,808.883771293693,953.462830903772,803.65205506206,1041.10723677783,516.980120613425,795.549636358493,345.03883773512,556.142287229426,525.445215295702,0,0,3,4,5,6,0,NaN,horizontal,horizontal,horizontal,horizontal,horizontal,none
1a,12,100155,2,41,105,26,M,NA,variable,heterogeneous,5,present,1.54572200775146,1,horizontal,horizontal,1,0.941170434951782,red,2,3,1036.43188291453,695.524681321058,963.910840470068,404.658667004661,782.212099195248,854.378832816255,1036.43188291453,695.524681321058,963.910840470068,404.658667004661,664.870587620533,383.747735480111,552.574589799621,661.690083377915,0,0,6,4,5,3,5,NaN,horizontal,horizontal,horizontal,vertical,vertical,none
1a,12,100155,2,42,106,26,M,NA,variable,heterogeneous,4,present,1.22032284736633,1,vertical,vertical,1,0.964699430465698,red,3,2,786.654331158049,345.349468637584,1054.65053136242,586.654331158049,813.345668841951,854.650531362416,1054.65053136242,586.654331158049,786.654331158049,345.349468637584,545.349468637584,613.345668841951,0,0,0,0,0,3,4,5,NaN,NaN,horizontal,vertical,vertical,vertical,none,none
1a,12,100155,2,43,107,26,M,NA,variable,heterogeneous,4,absent,0.968474149703979,1,vertical,vertical,1,0.788231964111328,green,1,NaN,935.129412379467,816.252264519889,NaN,NaN,935.129412379467,816.252264519889,1016.25226451989,464.870587620533,664.870587620533,383.747735480111,583.747735480111,735.129412379467,0,0,0,0,4,6,6,0,NaN,NaN,vertical,horizontal,vertical,vertical,none,none
1a,12,100155,2,44,108,26,M,NA,variable,heterogeneous,6,absent,1.34794402122498,1,horizontal,horizontal,1,1.01175742149353,green,2,NaN,963.910840470068,795.341332995339,NaN,NaN,712.784863451954,839.621618300407,963.910840470068,795.341332995339,1051.12597701811,555.719714694933,887.215136548046,360.378381699593,636.089159529932,404.658667004661,548.874022981887,644.280285305067,6,4,5,6,3,0,horizontal,horizontal,vertical,horizontal,vertical,vertical
1a,12,100155,2,45,109,26,M,NA,variable,heterogeneous,5,present,0.939915180206299,1,vertical,vertical,1,0.623528995513916,green,2,3,1032.95409169886,703.717843984329,970.628304621509,410.498069503264,773.345241866748,853.60308331891,1032.95409169886,703.717843984329,970.628304621509,410.498069503264,672.5,379.163522034968,550.57236181288,653.017481158529,0,0,6,4,0,5,5,NaN,vertical,vertical,horizontal,horizontal,vertical,none
1a,12,100155,2,46,110,26,M,NA,variable,heterogeneous,5,present,0.84381890296936,1,horizontal,horizontal,1,0.647057991027832,green,2,5,1051.86052685176,560.109211414741,619.68777079743,780.31222920257,915.767577433584,827.206663668034,1051.86052685176,560.109211414741,839.890788585259,348.13947314824,572.793336331966,484.232422566416,619.68777079743,780.31222920257,0,0,0,4,0,6,6,NaN,horizontal,horizontal,horizontal,horizontal,horizontal,none
1a,12,100155,2,47,111,26,M,NA,variable,heterogeneous,4,present,0.861517190933228,1,horizontal,horizontal,1,0.823525457382202,green,4,2,565.271262369628,699.636437764765,1034.72873763037,500.363562235235,899.636437764765,834.728737630372,1034.72873763037,500.363562235235,700.363562235235,365.271262369628,565.271262369628,699.636437764765,0,0,0,0,6,3,0,4,NaN,NaN,vertical,horizontal,horizontal,horizontal,none,none
1a,12,100155,2,48,112,26,M,NA,variable,heterogeneous,6,present,1.15922999382019,1,vertical,vertical,1,1.02352191925049,green,1,4,795.549636358493,854.96116226488,804.450363641507,345.03883773512,795.549636358493,854.96116226488,1018.57766167904,731.334709102064,1023.02802532055,476.373546837184,804.450363641507,345.03883773512,581.422338320961,468.665290897936,576.971974679454,723.626453162816,4,3,0,6,5,6,vertical,vertical,vertical,vertical,horizontal,vertical
1a,12,100155,2,49,113,26,M,NA,variable,heterogeneous,6,present,0.912313938140869,1,vertical,vertical,1,1.08234440803528,green,3,4,942.594190385041,388.595418998464,688.215357568785,370.807518193712,911.784642431215,829.192481806288,1054.37883281626,617.787900804752,942.594190385041,388.595418998464,688.215357568785,370.807518193712,545.621167183745,582.212099195248,657.405809614959,811.404581001536,6,0,4,3,6,3,vertical,vertical,vertical,vertical,horizontal,horizontal
1a,12,100155,2,50,114,26,M,NA,variable,heterogeneous,4,present,0.751160144805908,1,vertical,vertical,1,0.635293493270874,green,3,4,887.215136548046,360.378381699593,560.378381699593,512.784863451954,712.784863451954,839.621618300407,1039.62161830041,687.215136548046,887.215136548046,360.378381699593,560.378381699593,512.784863451954,0,0,0,0,3,6,4,6,NaN,NaN,vertical,horizontal,vertical,vertical,none,none
1a,12,100155,2,51,115,26,M,NA,variable,heterogeneous,6,absent,1.22516918182373,1,vertical,vertical,1,0.941170434951782,red,4,NaN,857.362518857686,351.535633479765,NaN,NaN,742.637481142314,848.464366520235,986.495193912888,773.909581815937,1043.85771277057,525.445215295702,857.362518857686,351.535633479765,613.504806087112,426.090418184063,556.142287229426,674.554784704298,0,3,0,4,5,6,vertical,horizontal,vertical,vertical,horizontal,horizontal
1a,12,100155,2,52,116,26,M,NA,variable,heterogeneous,3,absent,1.18049001693726,1,horizontal,horizontal,1,0.729409475326538,green,1,NaN,613.504806087112,773.909581815937,NaN,NaN,613.504806087112,773.909581815937,1043.85771277057,674.554784704298,742.637481142314,351.535633479765,0,0,0,0,0,0,4,0,0,NaN,NaN,NaN,horizontal,horizontal,vertical,none,none,none
1a,12,100155,2,53,117,26,M,NA,variable,heterogeneous,4,absent,0.965030193328857,1,vertical,vertical,1,0.83528995513916,red,2,NaN,1054.84466088987,608.899371659138,NaN,NaN,791.100628340862,854.844660889869,1054.84466088987,608.899371659138,808.899371659138,345.155339110131,545.155339110131,591.100628340862,0,0,0,0,3,4,3,5,NaN,NaN,horizontal,vertical,horizontal,vertical,none,none
1a,12,100155,2,54,118,26,M,NA,variable,heterogeneous,5,present,1.42730498313904,1,vertical,vertical,1,0.729409475326538,green,3,1,839.890788585259,348.13947314824,915.767577433584,827.206663668034,915.767577433584,827.206663668034,1051.86052685176,560.109211414741,839.890788585259,348.13947314824,572.793336331966,484.232422566416,619.68777079743,780.31222920257,0,0,6,3,4,0,6,NaN,horizontal,horizontal,vertical,vertical,horizontal,none
1a,12,100155,2,55,119,26,M,NA,variable,heterogeneous,3,present,0.80287504196167,1,vertical,vertical,1,0.741173973083496,red,2,3,1052.5183575291,564.510859255183,643.006323791957,399.057257830286,704.475318678942,836.431882914531,1052.5183575291,564.510859255183,643.006323791957,399.057257830286,0,0,0,0,0,0,6,4,6,NaN,NaN,NaN,horizontal,vertical,horizontal,none,none,none
1a,12,100155,2,56,120,26,M,NA,variable,heterogeneous,5,absent,1.30436992645264,0,vertical,horizontal,1,0.670586986541748,red,5,NaN,557.480588344736,521.200666434388,NaN,NaN,650.114760665419,806.299333565612,949.885239334581,806.299333565612,1042.51941165526,521.200666434388,800,345,557.480588344736,521.200666434388,0,0,3,3,6,5,4,NaN,vertical,horizontal,horizontal,horizontal,vertical,none
1a,12,100155,2,57,121,26,M,NA,variable,heterogeneous,5,absent,1.57965302467346,1,horizontal,horizontal,1,0.847054452896118,red,4,NaN,755.719714694933,348.874022981887,NaN,NaN,688.215357568785,829.192481806288,983.431649086356,777.137884467044,1025.15163617903,480.284751489598,755.719714694933,348.874022981887,547.481642470899,564.510859255183,0,0,6,5,3,4,6,NaN,vertical,horizontal,horizontal,horizontal,horizontal,none
1a,12,100155,2,58,122,26,M,NA,variable,heterogeneous,4,present,0.817520141601562,1,vertical,vertical,1,0.694115982055664,red,2,4,1045.12173246427,670.287525733335,554.878267535729,529.712474266665,729.712474266665,845.121732464271,1045.12173246427,670.287525733335,870.287525733335,354.878267535729,554.878267535729,529.712474266665,0,0,0,0,6,4,0,5,NaN,NaN,vertical,vertical,horizontal,vertical,none,none
1a,12,100155,2,59,123,26,M,NA,variable,heterogeneous,3,present,0.804343938827515,1,horizontal,horizontal,1,0.917641439437866,red,1,2,800,855,1020.83647796503,472.5,800,855,1020.83647796503,472.5,579.163522034968,472.5,0,0,0,0,0,0,4,0,3,NaN,NaN,NaN,horizontal,vertical,vertical,none,none,none
1a,12,100155,2,60,124,26,M,NA,variable,heterogeneous,3,absent,0.788778066635132,1,horizontal,horizontal,1,0.811760959625244,red,3,NaN,599.057257830286,443.006323791957,NaN,NaN,764.510859255183,852.518357529101,1036.43188291453,504.475318678942,599.057257830286,443.006323791957,0,0,0,0,0,0,0,5,4,NaN,NaN,NaN,vertical,vertical,horizontal,none,none,none
1a,12,100155,2,61,125,26,M,NA,variable,heterogeneous,6,absent,1.02376699447632,1,vertical,vertical,1,0.741173973083496,red,4,NaN,786.654331158049,345.349468637584,NaN,NaN,813.345668841951,854.650531362416,1027.20666366803,715.767577433584,1013.86099482608,461.117046071168,786.654331158049,345.349468637584,572.793336331966,484.232422566416,586.139005173917,738.882953928832,3,5,0,4,6,0,vertical,vertical,vertical,vertical,vertical,horizontal
1a,12,100155,2,62,126,26,M,NA,variable,heterogeneous,4,absent,1.13636207580566,1,horizontal,horizontal,1,1.01175742149353,green,4,NaN,604.658667004661,763.910840470068,NaN,NaN,963.910840470068,795.341332995339,995.341332995339,436.089159529932,636.089159529932,404.658667004661,604.658667004661,763.910840470068,0,0,0,0,3,0,6,4,NaN,NaN,vertical,vertical,vertical,horizontal,none,none
1a,12,100155,2,63,127,26,M,NA,variable,heterogeneous,6,present,1.07437801361084,1,horizontal,horizontal,1,0.929405937194824,red,4,5,700.363562235235,365.271262369628,546.900731331463,568.923317431687,899.636437764765,834.728737630372,1053.09926866854,631.076682568313,953.462830903772,396.34794493794,700.363562235235,365.271262369628,546.900731331463,568.923317431687,646.537169096228,803.65205506206,0,6,3,4,0,3,horizontal,vertical,vertical,horizontal,vertical,horizontal
1a,12,100155,2,64,128,26,M,NA,variable,heterogeneous,4,present,1.26805186271667,1,horizontal,horizontal,1,0.611764497756958,red,3,2,949.885239334581,393.700666434388,1006.29933356561,749.885239334581,650.114760665419,806.299333565612,1006.29933356561,749.885239334581,949.885239334581,393.700666434388,593.700666434388,450.114760665419,0,0,0,0,5,6,4,5,NaN,NaN,vertical,vertical,horizontal,vertical,none,none
1a,12,100155,3,1,129,26,M,NA,variable,heterogeneous,4,absent,0.886498928070068,1,vertical,vertical,1,0.729409475326538,red,4,NaN,548.874022981887,555.719714694933,NaN,NaN,755.719714694933,851.125977018113,1051.12597701811,644.280285305067,844.280285305067,348.874022981887,548.874022981887,555.719714694933,0,0,0,0,0,3,5,4,NaN,NaN,horizontal,horizontal,vertical,vertical,none,none
1a,12,100155,3,2,130,26,M,NA,variable,heterogeneous,5,absent,1.57919192314148,1,horizontal,horizontal,1,0.941170434951782,green,5,NaN,548.874022981887,644.280285305067,NaN,NaN,764.510859255183,852.518357529101,1029.19248180629,711.784642431215,977.137884467044,416.568350913644,680.284751489598,374.848363820974,548.874022981887,644.280285305067,0,0,0,5,3,5,4,NaN,horizontal,horizontal,horizontal,vertical,horizontal,none
1a,12,100155,3,3,131,26,M,NA,variable,heterogeneous,4,absent,1.39993405342102,1,vertical,vertical,1,0.647057991027832,red,4,NaN,545.349468637584,613.345668841951,NaN,NaN,813.345668841951,854.650531362416,1054.65053136242,586.654331158049,786.654331158049,345.349468637584,545.349468637584,613.345668841951,0,0,0,0,0,5,5,4,NaN,NaN,vertical,horizontal,vertical,vertical,none,none
1a,12,100155,3,4,132,26,M,NA,variable,heterogeneous,5,present,1.44435095787048,1,horizontal,horizontal,1,0.999992923736572,green,2,1,1042.51941165526,678.799333565612,800,855,800,855,1042.51941165526,678.799333565612,949.885239334581,393.700666434388,650.114760665419,393.700666434388,557.480588344736,678.799333565612,0,0,5,4,6,6,5,NaN,horizontal,horizontal,horizontal,vertical,vertical,none
1a,12,100155,3,5,133,26,M,NA,variable,heterogeneous,5,absent,1.19893598556519,1,horizontal,horizontal,1,1.09410890579224,red,1,NaN,782.212099195248,854.378832816255,NaN,NaN,782.212099195248,854.378832816255,1036.43188291453,695.524681321058,963.910840470068,404.658667004661,664.870587620533,383.747735480111,552.574589799621,661.690083377915,0,0,4,5,6,6,0,NaN,horizontal,vertical,vertical,horizontal,vertical,none
1a,12,100155,3,6,134,26,M,NA,variable,heterogeneous,3,absent,0.788376808166504,1,horizontal,horizontal,1,0.847054452896118,red,2,NaN,1000.94274216971,443.006323791957,NaN,NaN,835.489140744817,852.518357529101,1000.94274216971,443.006323791957,563.568117085469,504.475318678942,0,0,0,0,0,0,6,4,6,NaN,NaN,NaN,horizontal,horizontal,horizontal,none,none,none
1a,12,100155,3,7,135,26,M,NA,variable,heterogeneous,5,present,1.13143706321716,1,vertical,vertical,1,0.752938470840454,green,1,2,874.554784704298,843.857712770574,1054.96116226488,604.450363641507,874.554784704298,843.857712770574,1054.96116226488,604.450363641507,883.019879386575,358.892763222174,596.34794493794,446.537169096228,591.116228706307,746.261991269517,0,0,4,5,5,3,3,NaN,vertical,horizontal,vertical,vertical,vertical,none
1a,12,100155,3,8,136,26,M,NA,variable,heterogeneous,3,absent,0.91592001914978,1,vertical,vertical,1,0.682351484298706,green,3,NaN,572.793336331966,484.232422566416,NaN,NaN,813.345668841951,854.650531362416,1013.86099482608,461.117046071168,572.793336331966,484.232422566416,0,0,0,0,0,0,0,6,4,NaN,NaN,NaN,vertical,vertical,vertical,none,none,none
1a,12,100155,3,9,137,26,M,NA,variable,heterogeneous,5,present,1.21110892295837,0,vertical,horizontal,1,0.83528995513916,green,5,3,545.621167183745,582.212099195248,1016.25226451989,464.870587620533,704.475318678942,836.431882914531,995.341332995339,763.910840470068,1016.25226451989,464.870587620533,738.309916622085,352.574589799621,545.621167183745,582.212099195248,0,0,6,6,3,5,4,NaN,vertical,vertical,horizontal,vertical,vertical,none
1a,12,100155,3,10,138,26,M,NA,variable,heterogeneous,6,absent,1.68114995956421,1,vertical,vertical,1,0.682351484298706,red,4,NaN,692.232343256122,368.891514305654,NaN,NaN,907.767656743878,831.108485694346,1054.0296480134,622.224714400653,946.261991269517,391.116228706307,692.232343256122,368.891514305654,545.970351986605,577.775285599347,653.738008730483,808.883771293693,0,5,3,4,3,6,vertical,horizontal,horizontal,vertical,horizontal,horizontal
1a,12,100155,3,11,139,26,M,NA,variable,heterogeneous,3,present,1.25154185295105,1,horizontal,horizontal,1,1.02352191925049,red,1,2,998.172220171528,760.476699717708,839.890788585259,348.13947314824,998.172220171528,760.476699717708,839.890788585259,348.13947314824,561.936991243214,691.383827134052,0,0,0,0,0,0,4,5,6,NaN,NaN,NaN,horizontal,vertical,vertical,none,none,none
1a,12,100155,3,12,140,26,M,NA,variable,heterogeneous,6,present,1.3849241733551,1,horizontal,horizontal,1,0.999992923736572,green,5,6,556.142287229426,525.445215295702,613.504806087112,773.909581815937,857.362518857686,848.464366520235,1043.85771277057,674.554784704298,986.495193912888,426.090418184063,742.637481142314,351.535633479765,556.142287229426,525.445215295702,613.504806087112,773.909581815937,5,0,5,3,4,6,horizontal,horizontal,vertical,horizontal,horizontal,horizontal
1a,12,100155,3,13,141,26,M,NA,variable,heterogeneous,4,present,0.905513048171997,1,vertical,vertical,1,0.83528995513916,red,1,3,729.712474266665,845.121732464271,870.287525733335,354.878267535729,729.712474266665,845.121732464271,1045.12173246427,670.287525733335,870.287525733335,354.878267535729,554.878267535729,529.712474266665,0,0,0,0,4,0,3,6,NaN,NaN,vertical,vertical,horizontal,horizontal,none,none
1a,12,100155,3,14,142,26,M,NA,variable,heterogeneous,3,absent,0.743947982788086,1,vertical,vertical,1,0.611764497756958,red,1,NaN,738.309916622085,847.425410200379,NaN,NaN,738.309916622085,847.425410200379,1045.12173246427,529.712474266665,616.568350913644,422.862115532956,0,0,0,0,0,0,4,3,5,NaN,NaN,NaN,vertical,vertical,horizontal,none,none,none
1a,12,100155,3,15,143,26,M,NA,variable,heterogeneous,6,present,0.803647994995117,1,vertical,vertical,1,0.83528995513916,red,5,4,552.574589799621,538.309916622085,729.712474266665,354.878267535729,870.287525733335,845.121732464271,1047.42541020038,661.690083377915,977.137884467044,416.568350913644,729.712474266665,354.878267535729,552.574589799621,538.309916622085,622.862115532956,783.431649086356,5,3,5,6,4,0,vertical,vertical,vertical,vertical,vertical,vertical
1a,12,100155,3,16,144,26,M,NA,variable,heterogeneous,3,present,1.34724593162537,1,horizontal,horizontal,1,0.964699430465698,green,3,1,782.212099195248,345.621167183745,588.595418998464,742.594190385041,588.595418998464,742.594190385041,1029.19248180629,711.784642431215,782.212099195248,345.621167183745,0,0,0,0,0,0,0,5,4,NaN,NaN,NaN,horizontal,vertical,horizontal,none,none,none
1a,12,100155,3,17,145,26,M,NA,variable,heterogeneous,4,absent,1.35760307312012,1,horizontal,horizontal,1,0.764702968597412,red,3,NaN,895.524681321058,363.568117085469,NaN,NaN,704.475318678942,836.431882914531,1036.43188291453,695.524681321058,895.524681321058,363.568117085469,563.568117085469,504.475318678942,0,0,0,0,5,6,4,0,NaN,NaN,vertical,vertical,horizontal,horizontal,none,none
1a,12,100155,3,18,146,26,M,NA,variable,heterogeneous,3,absent,0.812265157699585,1,horizontal,horizontal,1,0.764702968597412,red,2,NaN,1054.37883281626,617.787900804752,NaN,NaN,657.405809614959,811.404581001536,1054.37883281626,617.787900804752,688.215357568785,370.807518193712,0,0,0,0,0,0,3,4,0,NaN,NaN,NaN,vertical,horizontal,horizontal,none,none,none
1a,12,100155,3,19,147,26,M,NA,variable,heterogeneous,3,present,1.19828510284424,0,vertical,horizontal,1,0.870583448410034,red,3,2,725.445215295702,356.142287229426,1048.46436652023,657.362518857686,626.090418184063,786.495193912888,1048.46436652023,657.362518857686,725.445215295702,356.142287229426,0,0,0,0,0,0,0,5,4,NaN,NaN,NaN,vertical,vertical,vertical,none,none,none
1a,12,100155,3,20,148,26,M,NA,variable,heterogeneous,3,absent,1.15966486930847,1,horizontal,horizontal,1,0.670586986541748,green,3,NaN,586.139005173917,461.117046071168,NaN,NaN,786.654331158049,854.650531362416,1027.20666366803,484.232422566416,586.139005173917,461.117046071168,0,0,0,0,0,0,3,5,4,NaN,NaN,NaN,vertical,vertical,horizontal,none,none,none
1a,12,100155,3,21,149,26,M,NA,variable,heterogeneous,6,absent,1.37618494033813,1,vertical,vertical,1,0.858818950653076,red,3,NaN,935.129412379467,383.747735480111,NaN,NaN,919.715248510402,825.151636179026,1054.84466088987,608.899371659138,935.129412379467,383.747735480111,680.284751489598,374.848363820974,545.155339110131,591.100628340862,664.870587620533,816.252264519889,3,0,4,5,6,0,vertical,horizontal,vertical,horizontal,horizontal,horizontal
1a,12,100155,3,22,150,26,M,NA,variable,heterogeneous,4,absent,1.57102704048157,1,horizontal,horizontal,1,0.95293493270874,red,3,NaN,636.089159529932,404.658667004661,NaN,NaN,963.910840470068,795.341332995339,995.341332995339,436.089159529932,636.089159529932,404.658667004661,604.658667004661,763.910840470068,0,0,0,0,6,5,4,5,NaN,NaN,vertical,horizontal,horizontal,vertical,none,none
1a,12,100155,3,23,151,26,M,NA,variable,heterogeneous,6,absent,1.03604078292847,1,vertical,vertical,1,0.870583448410034,green,4,NaN,919.715248510402,374.848363820974,NaN,NaN,680.284751489598,825.151636179026,935.129412379467,816.252264519889,1054.84466088987,591.100628340862,919.715248510402,374.848363820974,664.870587620533,383.747735480111,545.155339110131,608.899371659138,6,5,5,4,6,3,horizontal,horizontal,vertical,vertical,vertical,vertical
1a,12,100155,3,24,152,26,M,NA,variable,heterogeneous,4,absent,1.12904906272888,1,vertical,vertical,1,0.611764497756958,green,3,NaN,657.405809614959,388.595418998464,NaN,NaN,942.594190385041,811.404581001536,1011.40458100154,457.40580961496,657.405809614959,388.595418998464,588.595418998464,742.594190385041,0,0,0,0,5,3,4,6,NaN,NaN,vertical,horizontal,vertical,vertical,none,none
1a,12,100155,3,25,153,26,M,NA,variable,heterogeneous,6,present,1.32814407348633,0,vertical,horizontal,1,0.611764497756958,red,6,2,604.658667004661,763.910840470068,1039.62161830041,687.215136548046,844.280285305067,851.125977018113,1039.62161830041,687.215136548046,995.341332995339,436.089159529932,755.719714694933,348.874022981887,560.378381699593,512.784863451954,604.658667004661,763.910840470068,5,6,3,6,0,4,vertical,vertical,vertical,vertical,vertical,vertical
1a,12,100155,3,26,154,26,M,NA,variable,heterogeneous,4,present,1.26913809776306,1,vertical,vertical,1,0.89411244392395,green,4,1,576.971974679454,476.373546837184,676.373546837184,823.028025320546,676.373546837184,823.028025320546,1023.02802532055,723.626453162816,923.626453162816,376.971974679454,576.971974679454,476.373546837184,0,0,0,0,3,6,5,4,NaN,NaN,horizontal,vertical,vertical,vertical,none,none
1a,12,100155,3,27,155,26,M,NA,variable,heterogeneous,5,absent,1.5542688369751,1,horizontal,horizontal,1,0.77646746635437,red,3,NaN,1034.72873763037,500.363562235235,NaN,NaN,668.665290897936,818.577661679039,967.295052392579,792.450942956807,1034.72873763037,500.363562235235,777.775285599347,345.970351986605,551.535633479765,542.637481142314,0,0,5,3,4,0,5,NaN,horizontal,vertical,horizontal,horizontal,horizontal,none
1a,12,100155,3,28,156,26,M,NA,variable,heterogeneous,3,absent,0.986232995986938,1,vertical,vertical,1,0.635293493270874,red,2,NaN,1029.19248180629,711.784642431215,NaN,NaN,588.595418998464,742.594190385041,1029.19248180629,711.784642431215,782.212099195248,345.621167183745,0,0,0,0,0,0,5,4,0,NaN,NaN,NaN,vertical,vertical,vertical,none,none,none
1a,12,100155,3,29,157,26,M,NA,variable,heterogeneous,4,present,1.19154596328735,1,horizontal,horizontal,1,0.670586986541748,red,2,4,1032.95409169886,703.717843984329,567.045908301137,496.282156015671,696.282156015671,832.954091698863,1032.95409169886,703.717843984329,903.717843984329,367.045908301137,567.045908301137,496.282156015671,0,0,0,0,3,4,0,6,NaN,NaN,horizontal,horizontal,vertical,vertical,none,none
1a,12,100155,3,30,158,26,M,NA,variable,heterogeneous,4,absent,1.19706606864929,1,horizontal,horizontal,1,0.882347946166992,green,4,NaN,552.574589799621,661.690083377915,NaN,NaN,861.690083377915,847.425410200379,1047.42541020038,538.309916622085,738.309916622085,352.574589799621,552.574589799621,661.690083377915,0,0,0,0,6,6,3,4,NaN,NaN,horizontal,horizontal,vertical,horizontal,none,none
1a,12,100155,3,31,159,26,M,NA,variable,heterogeneous,6,absent,0.933903932571411,1,vertical,vertical,1,0.823525457382202,green,3,NaN,1023.02802532055,476.373546837184,NaN,NaN,795.549636358493,854.96116226488,1018.57766167904,731.334709102064,1023.02802532055,476.373546837184,804.450363641507,345.03883773512,581.422338320961,468.665290897936,576.971974679454,723.626453162816,3,0,4,3,0,6,vertical,vertical,vertical,vertical,vertical,vertical
1a,12,100155,3,32,160,26,M,NA,variable,heterogeneous,4,present,1.02406907081604,1,horizontal,horizontal,1,0.976463928222656,green,4,1,549.685068220846,551.343706178981,751.343706178981,850.314931779154,751.343706178981,850.314931779154,1050.31493177915,648.656293821019,848.656293821019,349.685068220846,549.685068220846,551.343706178981,0,0,0,0,0,0,3,4,NaN,NaN,horizontal,vertical,vertical,horizontal,none,none
1a,12,100155,3,33,161,26,M,NA,variable,heterogeneous,6,absent,1.52956795692444,0,horizontal,vertical,1,0.83528995513916,green,3,NaN,1008.88377129369,453.738008730483,NaN,NaN,822.224714400653,854.029648013395,1031.10848569435,707.767656743878,1008.88377129369,453.738008730483,777.775285599347,345.970351986605,568.891514305654,492.232343256122,591.116228706307,746.261991269517,5,6,4,5,6,3,horizontal,horizontal,horizontal,vertical,horizontal,horizontal
1a,12,100155,3,34,162,26,M,NA,variable,heterogeneous,5,absent,1.27686381340027,1,vertical,vertical,1,0.823525457382202,red,2,NaN,1042.51941165526,521.200666434388,NaN,NaN,949.885239334581,806.299333565612,1042.51941165526,521.200666434388,800,345,557.480588344736,521.200666434388,650.114760665419,806.299333565612,0,0,3,4,0,6,3,NaN,vertical,vertical,horizontal,horizontal,horizontal,none
1a,12,100155,3,35,163,26,M,NA,variable,heterogeneous,5,absent,0.900280952453613,1,vertical,vertical,1,0.89411244392395,green,5,NaN,545.03883773512,595.549636358493,NaN,NaN,716.980120613425,841.107236777826,1003.65205506206,753.462830903772,1008.88377129369,453.738008730483,725.445215295702,356.142287229426,545.03883773512,595.549636358493,0,0,5,0,3,6,4,NaN,horizontal,horizontal,vertical,vertical,vertical,none
1a,12,100155,3,36,164,26,M,NA,variable,heterogeneous,3,present,1.11975002288818,1,horizontal,horizontal,1,1.05881541252136,green,2,1,931.334709102064,381.422338320961,923.626453162816,823.028025320546,923.626453162816,823.028025320546,931.334709102064,381.422338320961,545.03883773512,595.549636358493,0,0,0,0,0,0,5,4,6,NaN,NaN,NaN,horizontal,horizontal,vertical,none,none,none
1a,12,100155,3,37,165,26,M,NA,variable,heterogeneous,4,absent,1.04183006286621,1,horizontal,horizontal,1,0.764702968597412,green,4,NaN,549.685068220846,551.343706178981,NaN,NaN,751.343706178981,850.314931779154,1050.31493177915,648.656293821019,848.656293821019,349.685068220846,549.685068220846,551.343706178981,0,0,0,0,3,6,0,4,NaN,NaN,horizontal,vertical,horizontal,horizontal,none,none
1a,12,100155,3,38,166,26,M,NA,variable,heterogeneous,6,absent,1.49974703788757,1,horizontal,horizontal,1,0.847054452896118,green,1,NaN,708.616172865948,838.063008756786,NaN,NaN,708.616172865948,838.063008756786,960.476699717708,798.172220171528,1051.86052685176,560.109211414741,891.383827134052,361.936991243214,639.523300282292,401.827779828472,548.13947314824,639.890788585259,4,0,6,0,5,5,horizontal,vertical,horizontal,vertical,horizontal,horizontal
1a,12,100155,3,39,167,26,M,NA,variable,heterogeneous,5,absent,1.17884707450867,1,horizontal,horizontal,1,1.0470509147644,green,5,NaN,593.700666434388,749.885239334581,NaN,NaN,878.799333565612,842.519411655264,1055,600,878.799333565612,357.480588344736,593.700666434388,450.114760665419,593.700666434388,749.885239334581,0,0,5,6,3,6,4,NaN,horizontal,vertical,vertical,vertical,horizontal,none
1a,12,100155,3,40,168,26,M,NA,variable,heterogeneous,5,absent,1.12929797172546,1,vertical,vertical,1,0.741173973083496,green,1,NaN,746.982518841471,849.42763818712,NaN,NaN,746.982518841471,849.42763818712,1020.83647796503,727.5,989.501930496736,429.371695378491,696.282156015671,367.045908301137,546.39691668109,626.654758133252,0,0,4,5,6,3,0,NaN,vertical,horizontal,vertical,vertical,horizontal,none
1a,12,100155,3,41,169,26,M,NA,variable,heterogeneous,6,present,1.71709799766541,1,vertical,vertical,1,0.647057991027832,green,2,6,927.5,820.836477965032,545,600,672.5,820.836477965032,927.5,820.836477965032,1055,600,927.5,379.163522034968,672.5,379.163522034968,545,600,3,4,0,3,5,5,horizontal,vertical,vertical,horizontal,horizontal,vertical
1a,12,100155,3,42,170,26,M,NA,variable,heterogeneous,5,present,0.949087858200073,1,vertical,vertical,1,0.670586986541748,red,5,2,586.139005173917,738.882953928832,1054.65053136242,613.345668841951,865.998856501143,846.311085703712,1054.65053136242,613.345668841951,891.383827134052,361.936991243214,601.827779828472,439.523300282291,586.139005173917,738.882953928832,0,0,5,0,6,0,4,NaN,vertical,vertical,horizontal,horizontal,vertical,none
1a,12,100155,3,43,171,26,M,NA,variable,heterogeneous,3,absent,1.5778980255127,1,horizontal,horizontal,1,1.08234440803528,green,2,NaN,1053.60308331891,626.654758133252,NaN,NaN,650.114760665419,806.299333565612,1053.60308331891,626.654758133252,696.282156015671,367.045908301137,0,0,0,0,0,0,5,4,6,NaN,NaN,NaN,horizontal,horizontal,vertical,none,none,none
1a,12,100155,3,44,172,26,M,NA,variable,heterogeneous,5,present,1.30497908592224,1,vertical,vertical,1,0.964699430465698,red,4,3,773.345241866748,346.39691668109,1032.95409169886,496.282156015671,672.5,820.836477965032,970.628304621509,789.501930496736,1032.95409169886,496.282156015671,773.345241866748,346.39691668109,550.57236181288,546.982518841471,0,0,5,3,3,4,0,NaN,vertical,horizontal,vertical,vertical,horizontal,none
1a,12,100155,3,45,173,26,M,NA,variable,heterogeneous,4,present,1.16007709503174,1,vertical,vertical,1,0.83528995513916,green,3,4,935.129412379467,383.747735480111,583.747735480111,464.870587620533,664.870587620533,816.252264519889,1016.25226451989,735.129412379467,935.129412379467,383.747735480111,583.747735480111,464.870587620533,0,0,0,0,6,6,4,3,NaN,NaN,vertical,vertical,vertical,horizontal,none,none
1a,12,100155,3,46,174,26,M,NA,variable,heterogeneous,3,absent,0.819566011428833,1,vertical,vertical,1,0.999992923736572,green,3,NaN,553.688914296288,665.998856501143,NaN,NaN,980.31222920257,780.31222920257,865.998856501143,353.688914296288,553.688914296288,665.998856501143,0,0,0,0,0,0,0,6,4,NaN,NaN,NaN,vertical,horizontal,vertical,none,none,none
1a,12,100155,3,47,175,26,M,NA,variable,heterogeneous,3,present,0.786551952362061,1,vertical,vertical,1,0.729409475326538,green,1,2,708.616172865948,838.063008756786,1051.86052685176,560.109211414741,708.616172865948,838.063008756786,1051.86052685176,560.109211414741,639.523300282292,401.827779828472,0,0,0,0,0,0,4,3,5,NaN,NaN,NaN,vertical,vertical,vertical,none,none,none
1a,12,100155,3,48,176,26,M,NA,variable,heterogeneous,6,absent,1.36543393135071,1,horizontal,horizontal,1,0.752938470840454,red,1,NaN,746.982518841471,849.42763818712,NaN,NaN,746.982518841471,849.42763818712,989.501930496736,770.628304621509,1042.51941165526,521.200666434388,853.017481158529,350.57236181288,610.498069503264,429.371695378491,557.480588344736,678.799333565612,4,3,5,6,0,6,horizontal,vertical,horizontal,horizontal,horizontal,horizontal
1a,12,100155,3,49,177,26,M,NA,variable,heterogeneous,3,present,1.25582218170166,1,horizontal,horizontal,1,0.941170434951782,red,2,1,1016.25226451989,464.870587620533,808.899371659138,854.844660889869,808.899371659138,854.844660889869,1016.25226451989,464.870587620533,574.848363820974,480.284751489598,0,0,0,0,0,0,6,4,5,NaN,NaN,NaN,horizontal,horizontal,vertical,none,none,none
1a,12,100155,3,50,178,26,M,NA,variable,heterogeneous,6,present,1.01433801651001,1,horizontal,horizontal,1,0.670586986541748,green,6,5,610.498069503264,770.628304621509,557.480588344736,521.200666434388,853.017481158529,849.42763818712,1042.51941165526,678.799333565612,989.501930496736,429.371695378491,746.982518841471,350.57236181288,557.480588344736,521.200666434388,610.498069503264,770.628304621509,3,5,0,6,0,4,vertical,horizontal,horizontal,vertical,vertical,horizontal
1a,12,100155,3,51,179,26,M,NA,variable,heterogeneous,6,present,1.59375405311584,1,horizontal,horizontal,1,0.941170434951782,red,4,5,791.100628340862,345.155339110131,574.848363820974,480.284751489598,808.899371659138,854.844660889869,1025.15163617903,719.715248510402,1016.25226451989,464.870587620533,791.100628340862,345.155339110131,574.848363820974,480.284751489598,583.747735480111,735.129412379467,0,0,5,4,3,6,horizontal,horizontal,vertical,horizontal,horizontal,horizontal
1a,12,100155,3,52,180,26,M,NA,variable,heterogeneous,5,absent,0.814665079116821,1,vertical,vertical,1,1.03528641700745,red,5,NaN,551.535633479765,542.637481142314,NaN,NaN,668.665290897936,818.577661679039,967.295052392579,792.450942956807,1034.72873763037,500.363562235235,777.775285599347,345.970351986605,551.535633479765,542.637481142314,0,0,6,3,3,5,4,NaN,vertical,vertical,vertical,vertical,vertical,none
1a,12,100155,3,53,181,26,M,NA,variable,heterogeneous,6,absent,1.19711208343506,1,horizontal,horizontal,1,0.905876941680908,red,6,NaN,646.537169096228,803.65205506206,NaN,NaN,899.636437764765,834.728737630372,1053.09926866854,631.076682568313,953.462830903772,396.34794493794,700.363562235235,365.271262369628,546.900731331463,568.923317431687,646.537169096228,803.65205506206,3,0,6,0,5,4,vertical,horizontal,horizontal,horizontal,horizontal,horizontal
1a,12,100155,3,54,182,26,M,NA,variable,heterogeneous,6,present,0.942886114120483,1,horizontal,horizontal,1,0.694115982055664,red,1,5,861.690083377915,847.425410200379,554.878267535729,529.712474266665,861.690083377915,847.425410200379,1045.12173246427,670.287525733335,983.431649086356,422.862115532956,738.309916622085,352.574589799621,554.878267535729,529.712474266665,616.568350913644,777.137884467044,4,3,0,6,0,3,horizontal,horizontal,horizontal,vertical,horizontal,vertical
1a,12,100155,3,55,183,26,M,NA,variable,heterogeneous,4,present,0.954322099685669,1,horizontal,horizontal,1,0.611764497756958,red,2,4,1051.12597701811,644.280285305067,548.874022981887,555.719714694933,755.719714694933,851.125977018113,1051.12597701811,644.280285305067,844.280285305067,348.874022981887,548.874022981887,555.719714694933,0,0,0,0,3,4,5,5,NaN,NaN,vertical,horizontal,vertical,horizontal,none,none
1a,12,100155,3,56,184,26,M,NA,variable,heterogeneous,3,present,1.19485211372375,1,vertical,vertical,1,1.05881541252136,red,3,2,738.309916622085,352.574589799621,1045.12173246427,670.287525733335,616.568350913644,777.137884467044,1045.12173246427,670.287525733335,738.309916622085,352.574589799621,0,0,0,0,0,0,3,6,4,NaN,NaN,NaN,vertical,vertical,vertical,none,none,none
1a,12,100155,3,57,185,26,M,NA,variable,heterogeneous,4,present,1.55640721321106,1,horizontal,horizontal,1,0.670586986541748,green,2,3,1027.20666366803,715.767577433584,915.767577433584,372.793336331966,684.232422566416,827.206663668034,1027.20666366803,715.767577433584,915.767577433584,372.793336331966,572.793336331966,484.232422566416,0,0,0,0,0,4,3,5,NaN,NaN,horizontal,horizontal,horizontal,vertical,none,none
1a,12,100155,3,58,186,26,M,NA,variable,heterogeneous,4,absent,1.0255868434906,1,vertical,vertical,1,1.09410890579224,green,1,NaN,915.767577433584,827.206663668034,NaN,NaN,915.767577433584,827.206663668034,1027.20666366803,484.232422566416,684.232422566416,372.793336331966,572.793336331966,715.767577433584,0,0,0,0,4,0,3,3,NaN,NaN,vertical,horizontal,horizontal,vertical,none,none
1a,12,100155,3,59,187,26,M,NA,variable,heterogeneous,5,present,0.941797018051147,1,horizontal,horizontal,1,0.77646746635437,green,1,4,857.362518857686,848.464366520235,607.549057043193,432.704947607421,857.362518857686,848.464366520235,1054.0296480134,622.224714400653,899.636437764765,365.271262369628,607.549057043193,432.704947607421,581.422338320961,731.334709102064,0,0,4,6,0,6,3,NaN,horizontal,vertical,vertical,vertical,horizontal,none
1a,12,100155,3,60,188,26,M,NA,variable,heterogeneous,3,present,1.39364910125732,1,vertical,vertical,1,0.83528995513916,green,3,2,565.271262369628,699.636437764765,831.076682568313,346.900731331463,1003.65205506206,753.462830903772,831.076682568313,346.900731331463,565.271262369628,699.636437764765,0,0,0,0,0,0,6,5,4,NaN,NaN,NaN,horizontal,horizontal,vertical,none,none,none
1a,12,100155,3,61,189,26,M,NA,variable,heterogeneous,5,present,0.897367000579834,1,horizontal,horizontal,1,0.976463928222656,red,2,1,1050.31493177915,648.656293821019,831.076682568313,853.099268668537,831.076682568313,853.099268668537,1050.31493177915,648.656293821019,923.626453162816,376.971974679454,626.090418184063,413.504806087112,568.891514305654,707.767656743878,0,0,0,4,6,0,3,NaN,vertical,horizontal,vertical,vertical,horizontal,none
1a,12,100155,3,62,190,26,M,NA,variable,heterogeneous,5,present,1.16826796531677,1,horizontal,horizontal,1,0.647057991027832,red,4,3,557.480588344736,521.200666434388,800,345,949.885239334581,806.299333565612,1042.51941165526,521.200666434388,800,345,557.480588344736,521.200666434388,650.114760665419,806.299333565612,0,0,0,3,3,4,5,NaN,horizontal,vertical,vertical,horizontal,vertical,none
1a,12,100155,3,63,191,26,M,NA,variable,heterogeneous,6,present,1.7389760017395,1,vertical,vertical,1,0.941170434951782,green,5,4,572.793336331966,484.232422566416,786.654331158049,345.349468637584,813.345668841951,854.650531362416,1027.20666366803,715.767577433584,1013.86099482608,461.117046071168,786.654331158049,345.349468637584,572.793336331966,484.232422566416,586.139005173917,738.882953928832,6,3,0,6,4,5,vertical,vertical,horizontal,horizontal,vertical,horizontal
1a,12,100155,3,64,192,26,M,NA,variable,heterogeneous,4,present,1.20599699020386,1,vertical,vertical,1,0.823525457382202,red,3,2,839.890788585259,348.13947314824,1051.86052685176,639.890788585259,760.109211414741,851.86052685176,1051.86052685176,639.890788585259,839.890788585259,348.13947314824,548.13947314824,560.109211414741,0,0,0,0,5,3,4,3,NaN,NaN,vertical,vertical,vertical,horizontal,none,none
1a,12,100155,4,1,193,26,M,NA,variable,heterogeneous,3,absent,0.600972890853882,1,horizontal,horizontal,1,0.917641439437866,green,3,NaN,556.142287229426,525.445215295702,NaN,NaN,857.362518857686,848.464366520235,986.495193912888,426.090418184063,556.142287229426,525.445215295702,0,0,0,0,0,0,3,6,4,NaN,NaN,NaN,vertical,horizontal,horizontal,none,none,none
1a,12,100155,4,2,194,26,M,NA,variable,heterogeneous,5,present,1.20046281814575,1,horizontal,horizontal,1,0.764702968597412,red,1,3,931.334709102064,818.577661679039,822.224714400653,345.970351986605,931.334709102064,818.577661679039,1048.46436652023,542.637481142314,822.224714400653,345.970351986605,565.271262369628,500.363562235235,632.704947607421,792.450942956807,0,0,4,0,0,5,6,NaN,horizontal,vertical,horizontal,vertical,vertical,none
1a,12,100155,4,3,195,26,M,NA,variable,heterogeneous,6,absent,1.77462220191956,1,vertical,vertical,1,0.694115982055664,red,4,NaN,773.345241866748,346.39691668109,NaN,NaN,826.654758133252,853.60308331891,1032.95409169886,703.717843984329,1006.29933356561,450.114760665419,773.345241866748,346.39691668109,567.045908301137,496.282156015671,593.700666434388,749.885239334581,5,0,5,4,3,0,horizontal,horizontal,horizontal,vertical,vertical,horizontal
1a,12,100155,4,4,196,26,M,NA,variable,heterogeneous,5,present,0.770071029663086,1,vertical,vertical,1,1.01175742149353,green,4,1,567.045908301137,496.282156015671,927.5,820.836477965032,927.5,820.836477965032,1049.42763818712,546.982518841471,826.654758133252,346.39691668109,567.045908301137,496.282156015671,629.371695378491,789.501930496736,0,0,3,0,0,4,6,NaN,vertical,horizontal,vertical,vertical,vertical,none
1a,12,100155,4,5,197,26,M,NA,variable,heterogeneous,4,absent,0.943116188049316,1,vertical,vertical,1,0.65882248878479,red,1,NaN,927.5,820.836477965032,NaN,NaN,927.5,820.836477965032,1020.83647796503,472.5,672.5,379.163522034968,579.163522034968,727.5,0,0,0,0,4,3,6,6,NaN,NaN,vertical,horizontal,vertical,horizontal,none,none
1a,12,100155,4,6,198,26,M,NA,variable,heterogeneous,6,absent,0.890992879867554,1,horizontal,horizontal,1,1.03528641700745,green,1,NaN,676.373546837184,823.028025320546,NaN,NaN,676.373546837184,823.028025320546,931.334709102064,818.577661679039,1054.96116226488,595.549636358493,923.626453162816,376.971974679454,668.665290897936,381.422338320961,545.03883773512,604.450363641507,4,3,5,0,0,3,horizontal,vertical,vertical,horizontal,horizontal,vertical
1a,12,100155,4,7,199,26,M,NA,variable,heterogeneous,6,absent,0.998692035675049,1,vertical,vertical,1,0.89411244392395,green,2,NaN,953.462830903772,803.65205506206,NaN,NaN,700.363562235235,834.728737630372,953.462830903772,803.65205506206,1053.09926866854,568.923317431687,899.636437764765,365.271262369628,646.537169096228,396.34794493794,546.900731331463,631.076682568313,6,4,3,0,6,5,vertical,vertical,vertical,horizontal,horizontal,vertical
1a,12,100155,4,8,200,26,M,NA,variable,heterogeneous,3,absent,0.804954051971436,1,horizontal,horizontal,1,0.694115982055664,red,3,NaN,773.345241866748,346.39691668109,NaN,NaN,593.700666434388,749.885239334581,1032.95409169886,703.717843984329,773.345241866748,346.39691668109,0,0,0,0,0,0,6,0,4,NaN,NaN,NaN,horizontal,horizontal,horizontal,none,none,none
1a,12,100155,4,9,201,26,M,NA,variable,heterogeneous,3,absent,0.8678138256073,1,vertical,vertical,1,0.941170434951782,green,3,NaN,712.784863451954,360.378381699593,NaN,NaN,636.089159529932,795.341332995339,1051.12597701811,644.280285305067,712.784863451954,360.378381699593,0,0,0,0,0,0,5,3,4,NaN,NaN,NaN,horizontal,horizontal,vertical,none,none,none
1a,12,100155,4,10,202,26,M,NA,variable,heterogeneous,5,present,1.07267999649048,1,vertical,vertical,1,0.964699430465698,green,1,3,676.373546837184,823.028025320546,1031.10848569435,492.232343256122,676.373546837184,823.028025320546,973.909581815937,786.495193912888,1031.10848569435,492.232343256122,768.923317431687,346.900731331463,549.685068220846,551.343706178981,0,0,4,6,0,5,6,NaN,vertical,vertical,vertical,vertical,vertical,none
1a,12,100155,4,11,203,26,M,NA,variable,heterogeneous,4,present,1.31459093093872,1,horizontal,horizontal,1,0.811760959625244,red,3,2,907.767656743878,368.891514305654,1031.10848569435,707.767656743878,692.232343256122,831.108485694346,1031.10848569435,707.767656743878,907.767656743878,368.891514305654,568.891514305654,492.232343256122,0,0,0,0,5,3,4,3,NaN,NaN,horizontal,vertical,horizontal,vertical,none,none
1a,12,100155,4,12,204,26,M,NA,variable,heterogeneous,3,present,1.11098480224609,1,horizontal,horizontal,1,1.09410890579224,green,2,3,942.594190385041,388.595418998464,545.621167183745,582.212099195248,911.784642431215,829.192481806288,942.594190385041,388.595418998464,545.621167183745,582.212099195248,0,0,0,0,0,0,6,4,0,NaN,NaN,NaN,horizontal,horizontal,vertical,none,none,none
1a,12,100155,4,13,205,26,M,NA,variable,heterogeneous,3,present,0.757985830307007,1,vertical,vertical,1,0.83528995513916,red,2,1,1046.31108570371,534.001143498857,734.001143498857,846.311085703712,734.001143498857,846.311085703712,1046.31108570371,534.001143498857,619.68777079743,419.68777079743,0,0,0,0,0,0,3,4,0,NaN,NaN,NaN,horizontal,vertical,vertical,none,none,none
1a,12,100155,4,14,206,26,M,NA,variable,heterogeneous,3,absent,0.938791990280151,1,vertical,vertical,1,0.670586986541748,red,2,NaN,935.129412379467,383.747735480111,NaN,NaN,919.715248510402,825.151636179026,935.129412379467,383.747735480111,545.155339110131,591.100628340862,0,0,0,0,0,0,5,4,3,NaN,NaN,NaN,vertical,vertical,vertical,none,none,none
1a,12,100155,4,15,207,26,M,NA,variable,heterogeneous,4,present,1.11571979522705,1,vertical,vertical,1,0.705880479812622,red,2,4,1032.95409169886,703.717843984329,567.045908301137,496.282156015671,696.282156015671,832.954091698863,1032.95409169886,703.717843984329,903.717843984329,367.045908301137,567.045908301137,496.282156015671,0,0,0,0,0,4,3,0,NaN,NaN,vertical,vertical,horizontal,horizontal,none,none
1a,12,100155,4,16,208,26,M,NA,variable,heterogeneous,6,present,1.78720498085022,1,vertical,vertical,1,1.05881541252136,red,2,6,1051.86052685176,639.890788585259,639.523300282292,798.172220171528,891.383827134052,838.063008756786,1051.86052685176,639.890788585259,960.476699717708,401.827779828472,708.616172865948,361.936991243214,548.13947314824,560.109211414741,639.523300282292,798.172220171528,6,4,6,0,5,0,vertical,vertical,vertical,vertical,horizontal,vertical
1a,12,100155,4,17,209,26,M,NA,variable,heterogeneous,6,present,1.04255199432373,1,horizontal,horizontal,1,0.752938470840454,red,5,3,565.271262369628,500.363562235235,1003.65205506206,446.537169096228,831.076682568313,853.099268668537,1034.72873763037,699.636437764765,1003.65205506206,446.537169096228,768.923317431687,346.900731331463,565.271262369628,500.363562235235,596.34794493794,753.462830903772,3,5,6,6,4,0,vertical,horizontal,vertical,vertical,horizontal,vertical
1a,12,100155,4,18,210,26,M,NA,variable,heterogeneous,4,absent,1.38053107261658,1,vertical,vertical,1,0.847054452896118,green,2,NaN,1054.0296480134,577.775285599347,NaN,NaN,822.224714400653,854.029648013395,1054.0296480134,577.775285599347,777.775285599347,345.970351986605,545.970351986605,622.224714400653,0,0,0,0,3,4,6,5,NaN,NaN,horizontal,vertical,horizontal,horizontal,none,none
1a,12,100155,4,19,211,26,M,NA,variable,heterogeneous,3,absent,1.64583802223206,1,vertical,vertical,1,1.08234440803528,green,3,NaN,572.793336331966,715.767577433584,NaN,NaN,1013.86099482608,738.882953928832,813.345668841951,345.349468637584,572.793336331966,715.767577433584,0,0,0,0,0,0,3,6,4,NaN,NaN,NaN,horizontal,horizontal,vertical,none,none,none
1a,12,100155,4,20,212,26,M,NA,variable,heterogeneous,5,absent,0.845386028289795,1,vertical,vertical,1,0.71764497756958,green,1,NaN,760.109211414741,851.86052685176,NaN,NaN,760.109211414741,851.86052685176,1027.20666366803,715.767577433584,980.31222920257,419.68777079743,684.232422566416,372.793336331966,548.13947314824,639.890788585259,0,0,4,5,6,0,3,NaN,vertical,vertical,vertical,horizontal,vertical,none
1a,12,100155,4,21,213,26,M,NA,variable,heterogeneous,5,present,1.47720694541931,1,horizontal,horizontal,1,0.95293493270874,green,1,3,927.5,820.836477965032,826.654758133252,346.39691668109,927.5,820.836477965032,1049.42763818712,546.982518841471,826.654758133252,346.39691668109,567.045908301137,496.282156015671,629.371695378491,789.501930496736,0,0,4,0,6,6,5,NaN,horizontal,horizontal,horizontal,vertical,horizontal,none
1a,12,100155,4,22,214,26,M,NA,variable,heterogeneous,4,present,1.08172583580017,1,horizontal,horizontal,1,0.929405937194824,red,4,3,545.621167183745,617.787900804752,782.212099195248,345.621167183745,817.787900804752,854.378832816255,1054.37883281626,582.212099195248,782.212099195248,345.621167183745,545.621167183745,617.787900804752,0,0,0,0,6,3,5,4,NaN,NaN,vertical,horizontal,horizontal,horizontal,none,none
1a,12,100155,4,23,215,26,M,NA,variable,heterogeneous,6,absent,0.826126098632812,1,vertical,vertical,1,0.729409475326538,red,2,NaN,977.137884467044,783.431649086356,NaN,NaN,729.712474266665,845.121732464271,977.137884467044,783.431649086356,1047.42541020038,538.309916622085,870.287525733335,354.878267535729,622.862115532956,416.568350913644,552.574589799621,661.690083377915,5,4,6,6,5,3,horizontal,vertical,vertical,horizontal,horizontal,vertical
1a,12,100155,4,24,216,26,M,NA,variable,heterogeneous,4,absent,1.02155208587646,1,horizontal,horizontal,1,0.729409475326538,red,4,NaN,579.163522034968,472.5,NaN,NaN,672.5,820.836477965032,1020.83647796503,727.5,927.5,379.163522034968,579.163522034968,472.5,0,0,0,0,0,3,6,4,NaN,NaN,horizontal,horizontal,horizontal,horizontal,none,none
1a,12,100155,4,25,217,26,M,NA,variable,heterogeneous,6,present,1.01744413375854,1,vertical,vertical,1,0.964699430465698,red,6,1,668.665290897936,818.577661679039,923.626453162816,823.028025320546,923.626453162816,823.028025320546,1054.96116226488,604.450363641507,931.334709102064,381.422338320961,676.373546837184,376.971974679454,545.03883773512,595.549636358493,668.665290897936,818.577661679039,3,3,0,6,0,4,vertical,horizontal,vertical,vertical,horizontal,vertical
1a,12,100155,4,26,218,26,M,NA,variable,heterogeneous,5,absent,1.38538002967834,1,vertical,vertical,1,0.976463928222656,red,5,NaN,548.874022981887,644.280285305067,NaN,NaN,764.510859255183,852.518357529101,1029.19248180629,711.784642431215,977.137884467044,416.568350913644,680.284751489598,374.848363820974,548.874022981887,644.280285305067,0,0,6,5,0,0,4,NaN,horizontal,vertical,vertical,horizontal,vertical,none
1a,12,100155,4,27,219,26,M,NA,variable,heterogeneous,3,present,0.877681016921997,1,vertical,vertical,1,0.823525457382202,red,3,1,676.373546837184,376.971974679454,668.665290897936,818.577661679039,668.665290897936,818.577661679039,1054.96116226488,604.450363641507,676.373546837184,376.971974679454,0,0,0,0,0,0,3,0,4,NaN,NaN,NaN,vertical,horizontal,vertical,none,none,none
1a,12,100155,4,28,220,26,M,NA,variable,heterogeneous,3,present,1.02790594100952,1,horizontal,horizontal,1,0.623528995513916,red,2,1,1054.96116226488,604.450363641507,668.665290897936,818.577661679039,668.665290897936,818.577661679039,1054.96116226488,604.450363641507,676.373546837184,376.971974679454,0,0,0,0,0,0,5,4,5,NaN,NaN,NaN,vertical,horizontal,horizontal,none,none,none
1a,12,100155,4,29,221,26,M,NA,variable,heterogeneous,5,present,0.855169057846069,1,vertical,vertical,1,0.929405937194824,red,5,2,570.807518193712,711.784642431215,1051.12597701811,644.280285305067,835.489140744817,852.518357529101,1051.12597701811,644.280285305067,919.715248510402,374.848363820974,622.862115532956,416.568350913644,570.807518193712,711.784642431215,0,0,0,6,3,5,4,NaN,horizontal,vertical,vertical,horizontal,vertical,none
1a,12,100155,4,30,222,26,M,NA,variable,heterogeneous,6,absent,0.800904989242554,1,horizontal,horizontal,1,0.635293493270874,green,3,NaN,1053.60308331891,573.345241866748,NaN,NaN,696.282156015671,832.954091698863,949.885239334581,806.299333565612,1053.60308331891,573.345241866748,903.717843984329,367.045908301137,650.114760665419,393.700666434388,546.39691668109,626.654758133252,3,6,4,0,6,3,horizontal,vertical,horizontal,horizontal,vertical,horizontal
1a,12,100155,4,31,223,26,M,NA,variable,heterogeneous,4,present,0.995759010314941,1,vertical,vertical,1,0.929405937194824,green,2,1,992.450942956807,767.295052392579,632.704947607421,792.450942956807,632.704947607421,792.450942956807,992.450942956807,767.295052392579,967.295052392579,407.549057043193,607.549057043193,432.704947607421,0,0,0,0,3,4,6,5,NaN,NaN,horizontal,vertical,vertical,vertical,none,none
1a,12,100155,4,32,224,26,M,NA,variable,heterogeneous,5,absent,1.10368180274963,1,vertical,vertical,1,0.788231964111328,green,2,NaN,1029.19248180629,711.784642431215,NaN,NaN,764.510859255183,852.518357529101,1029.19248180629,711.784642431215,977.137884467044,416.568350913644,680.284751489598,374.848363820974,548.874022981887,644.280285305067,0,0,6,4,0,0,6,NaN,vertical,vertical,vertical,vertical,horizontal,none
1a,12,100155,4,33,225,26,M,NA,variable,heterogeneous,4,absent,0.992070913314819,1,vertical,vertical,1,0.917641439437866,red,3,NaN,891.383827134052,361.936991243214,NaN,NaN,708.616172865948,838.063008756786,1038.06300875679,691.383827134052,891.383827134052,361.936991243214,561.936991243214,508.616172865948,0,0,0,0,6,3,4,6,NaN,NaN,horizontal,vertical,vertical,vertical,none,none
1a,12,100155,4,34,226,26,M,NA,variable,heterogeneous,6,absent,1.00340104103088,1,horizontal,horizontal,1,0.764702968597412,red,5,NaN,550.57236181288,546.982518841471,NaN,NaN,878.799333565612,842.519411655264,1049.42763818712,653.017481158529,970.628304621509,410.498069503264,721.200666434388,357.480588344736,550.57236181288,546.982518841471,629.371695378491,789.501930496736,3,3,0,5,4,5,vertical,horizontal,horizontal,horizontal,horizontal,horizontal
1a,12,100155,4,35,227,26,M,NA,variable,heterogeneous,6,present,0.972517013549805,1,horizontal,horizontal,1,1.03528641700745,green,6,2,553.688914296288,665.998856501143,980.31222920257,780.31222920257,734.001143498857,846.311085703712,980.31222920257,780.31222920257,1046.31108570371,534.001143498857,865.998856501143,353.688914296288,619.68777079743,419.68777079743,553.688914296288,665.998856501143,6,5,0,6,0,4,horizontal,horizontal,horizontal,vertical,vertical,horizontal
1a,12,100155,4,36,228,26,M,NA,variable,heterogeneous,6,absent,1.18290305137634,1,horizontal,horizontal,1,0.941170434951782,red,3,NaN,998.172220171528,439.523300282291,NaN,NaN,839.890788585259,851.86052685176,1038.06300875679,691.383827134052,998.172220171528,439.523300282291,760.109211414741,348.13947314824,561.936991243214,508.616172865948,601.827779828472,760.476699717708,6,5,4,6,0,3,vertical,vertical,horizontal,vertical,vertical,horizontal
1a,12,100155,4,37,229,26,M,NA,variable,heterogeneous,3,present,0.838598966598511,1,vertical,vertical,1,0.988228425979614,green,2,1,1036.43188291453,504.475318678942,764.510859255183,852.518357529101,764.510859255183,852.518357529101,1036.43188291453,504.475318678942,599.057257830286,443.006323791957,0,0,0,0,0,0,5,4,3,NaN,NaN,NaN,vertical,vertical,horizontal,none,none,none
1a,12,100155,4,38,230,26,M,NA,variable,heterogeneous,5,absent,0.944334030151367,1,horizontal,horizontal,1,1.0470509147644,green,1,NaN,777.775285599347,854.029648013395,NaN,NaN,777.775285599347,854.029648013395,1034.72873763037,699.636437764765,967.295052392579,407.549057043193,668.665290897936,381.422338320961,551.535633479765,657.362518857686,0,0,4,0,6,6,3,NaN,horizontal,vertical,vertical,horizontal,vertical,none
1a,12,100155,4,39,231,26,M,NA,variable,heterogeneous,6,present,0.788892984390259,1,vertical,vertical,1,1.08234440803528,green,2,1,1054.84466088987,608.899371659138,919.715248510402,825.151636179026,919.715248510402,825.151636179026,1054.84466088987,608.899371659138,935.129412379467,383.747735480111,680.284751489598,374.848363820974,545.155339110131,591.100628340862,664.870587620533,816.252264519889,5,4,6,5,0,3,horizontal,vertical,vertical,vertical,horizontal,vertical
1a,12,100155,4,40,232,26,M,NA,variable,heterogeneous,5,present,0.96566104888916,1,horizontal,horizontal,1,1.02352191925049,red,1,5,903.717843984329,832.954091698863,610.498069503264,770.628304621509,903.717843984329,832.954091698863,1053.60308331891,573.345241866748,853.017481158529,350.57236181288,579.163522034968,472.5,610.498069503264,770.628304621509,0,0,4,6,5,3,3,NaN,horizontal,vertical,vertical,horizontal,horizontal,none
1a,12,100155,4,41,233,26,M,NA,variable,heterogeneous,6,absent,1.22123003005981,1,vertical,vertical,1,0.999992923736572,green,6,NaN,576.971974679454,723.626453162816,NaN,NaN,795.549636358493,854.96116226488,1018.57766167904,731.334709102064,1023.02802532055,476.373546837184,804.450363641507,345.03883773512,581.422338320961,468.665290897936,576.971974679454,723.626453162816,5,6,5,0,3,4,horizontal,vertical,vertical,horizontal,vertical,vertical
1a,12,100155,4,42,234,26,M,NA,variable,heterogeneous,3,present,0.824141025543213,1,horizontal,horizontal,1,0.71764497756958,red,3,2,604.658667004661,436.089159529932,1039.62161830041,512.784863451954,755.719714694933,851.125977018113,1039.62161830041,512.784863451954,604.658667004661,436.089159529932,0,0,0,0,0,0,5,6,4,NaN,NaN,NaN,vertical,vertical,horizontal,none,none,none
1a,12,100155,4,43,235,26,M,NA,variable,heterogeneous,5,absent,1.32490682601929,1,horizontal,horizontal,1,0.799996461868286,red,3,NaN,800,345,NaN,NaN,949.885239334581,806.299333565612,1042.51941165526,521.200666434388,800,345,557.480588344736,521.200666434388,650.114760665419,806.299333565612,0,0,0,6,4,3,3,NaN,vertical,vertical,horizontal,vertical,horizontal,none
1a,12,100155,4,44,236,26,M,NA,variable,heterogeneous,3,absent,0.740139961242676,1,horizontal,horizontal,1,1.02352191925049,red,2,NaN,1042.51941165526,678.799333565612,NaN,NaN,610.498069503264,770.628304621509,1042.51941165526,678.799333565612,746.982518841471,350.57236181288,0,0,0,0,0,0,5,4,0,NaN,NaN,NaN,horizontal,horizontal,horizontal,none,none,none
1a,12,100155,4,45,237,26,M,NA,variable,heterogeneous,4,present,0.818972110748291,1,horizontal,horizontal,1,0.6,green,4,1,547.481642470899,635.489140744817,835.489140744817,852.518357529101,835.489140744817,852.518357529101,1052.5183575291,564.510859255183,764.510859255183,347.4816424709,547.481642470899,635.489140744817,0,0,0,0,6,3,0,4,NaN,NaN,vertical,vertical,horizontal,horizontal,none,none
1a,12,100155,4,46,238,26,M,NA,variable,heterogeneous,3,present,0.882349967956543,1,horizontal,horizontal,1,0.752938470840454,green,3,2,547.481642470899,635.489140744817,895.524681321058,363.568117085469,956.993676208043,800.942742169714,895.524681321058,363.568117085469,547.481642470899,635.489140744817,0,0,0,0,0,0,0,5,4,NaN,NaN,NaN,horizontal,vertical,horizontal,none,none,none
1a,12,100155,4,47,239,26,M,NA,variable,heterogeneous,4,present,0.877486228942871,1,vertical,vertical,1,0.847054452896118,green,2,3,1042.51941165526,678.799333565612,878.799333565612,357.480588344736,721.200666434388,842.519411655264,1042.51941165526,678.799333565612,878.799333565612,357.480588344736,557.480588344736,521.200666434388,0,0,0,0,0,4,3,6,NaN,NaN,horizontal,vertical,horizontal,horizontal,none,none
1a,12,100155,4,48,240,26,M,NA,variable,heterogeneous,4,present,1.0477979183197,1,horizontal,horizontal,1,1.03528641700745,green,4,3,607.549057043193,432.704947607421,967.295052392579,407.549057043193,632.704947607421,792.450942956807,992.450942956807,767.295052392579,967.295052392579,407.549057043193,607.549057043193,432.704947607421,0,0,0,0,3,3,5,4,NaN,NaN,horizontal,horizontal,horizontal,horizontal,none,none
1a,12,100155,4,49,241,26,M,NA,variable,heterogeneous,4,present,0.850131988525391,1,vertical,vertical,1,0.858818950653076,red,1,4,977.137884467044,783.431649086356,616.568350913644,777.137884467044,977.137884467044,783.431649086356,983.431649086356,422.862115532956,622.862115532956,416.568350913644,616.568350913644,777.137884467044,0,0,0,0,4,3,6,0,NaN,NaN,vertical,horizontal,horizontal,vertical,none,none
1a,12,100155,4,50,242,26,M,NA,variable,heterogeneous,3,absent,0.681619882583618,1,horizontal,horizontal,1,0.917641439437866,green,3,NaN,561.936991243214,508.616172865948,NaN,NaN,839.890788585259,851.86052685176,998.172220171528,439.523300282291,561.936991243214,508.616172865948,0,0,0,0,0,0,6,0,4,NaN,NaN,NaN,vertical,vertical,horizontal,none,none,none
1a,12,100155,4,51,243,26,M,NA,variable,heterogeneous,4,absent,0.875514030456543,1,horizontal,horizontal,1,0.999992923736572,green,3,NaN,953.462830903772,396.34794493794,NaN,NaN,646.537169096228,803.65205506206,1003.65205506206,753.462830903772,953.462830903772,396.34794493794,596.34794493794,446.537169096228,0,0,0,0,0,6,4,3,NaN,NaN,horizontal,horizontal,horizontal,horizontal,none,none
1a,12,100155,4,52,244,26,M,NA,variable,heterogeneous,3,absent,0.782629013061523,1,vertical,vertical,1,0.65882248878479,red,1,NaN,725.445215295702,843.857712770574,NaN,NaN,725.445215295702,843.857712770574,1048.46436652023,542.637481142314,626.090418184063,413.504806087112,0,0,0,0,0,0,4,0,6,NaN,NaN,NaN,vertical,vertical,horizontal,none,none,none
