experiment,subject,uniqueID,block,trial,trial_cumulative,age,gender,color_cond_blocking,color_history,shape_type,set_size,distractor,rt,acc,target_orient,response_key,response_made,iti,target_color,target_item,distractor_item,target_X,target_Y,distractor_X,distractor_Y,item1_X,item1_Y,item2_X,item2_Y,item3_X,item3_Y,item4_X,item4_Y,item5_X,item5_Y,item6_X,item6_Y,item1_shape,item2_shape,item3_shape,item4_shape,item5_shape,item6_shape,item1_line,item2_line,item3_line,item4_line,item5_line,item6_line
1a,13,100145,1,1,1,20,F,NA,variable,heterogeneous,4,absent,1.6272439956665,1,horizontal,horizontal,1,0.752937726974487,green,4,NaN,596.34794493794,446.537169096228,NaN,NaN,646.537169096228,803.65205506206,1003.65205506206,753.462830903772,953.462830903772,396.34794493794,596.34794493794,446.537169096228,0,0,0,0,5,3,6,4,NaN,NaN,vertical,horizontal,vertical,horizontal,none,none
1a,13,100145,1,2,2,20,F,NA,variable,heterogeneous,3,absent,1.42565107345581,1,vertical,vertical,1,0.694115524291992,red,1,NaN,911.784642431215,829.192481806288,NaN,NaN,911.784642431215,829.192481806288,942.594190385041,388.595418998464,545.621167183745,582.212099195248,0,0,0,0,0,0,4,3,0,NaN,NaN,NaN,vertical,vertical,horizontal,none,none,none
1a,13,100145,1,3,3,20,F,NA,variable,heterogeneous,6,present,1.26048684120178,0,horizontal,vertical,1,0.905875453948975,green,5,1,636.089159529932,404.658667004661,712.784863451954,839.621618300407,712.784863451954,839.621618300407,963.910840470068,795.341332995339,1051.12597701811,555.719714694933,887.215136548046,360.378381699593,636.089159529932,404.658667004661,548.874022981887,644.280285305067,5,3,6,0,4,0,horizontal,vertical,horizontal,horizontal,horizontal,vertical
1a,13,100145,1,4,4,20,F,NA,variable,heterogeneous,3,present,1.91635203361511,1,horizontal,horizontal,1,0.905875453948975,red,1,3,861.690083377915,847.425410200379,554.878267535729,529.712474266665,861.690083377915,847.425410200379,983.431649086356,422.862115532956,554.878267535729,529.712474266665,0,0,0,0,0,0,4,3,0,NaN,NaN,NaN,horizontal,vertical,horizontal,none,none,none
1a,13,100145,1,5,5,20,F,NA,variable,heterogeneous,5,present,1.18480086326599,1,vertical,vertical,1,0.705879964828491,green,4,5,800,345,557.480588344736,521.200666434388,650.114760665419,806.299333565612,949.885239334581,806.299333565612,1042.51941165526,521.200666434388,800,345,557.480588344736,521.200666434388,0,0,0,0,3,4,6,NaN,horizontal,vertical,horizontal,vertical,horizontal,none
1a,13,100145,1,6,6,20,F,NA,variable,heterogeneous,4,absent,1.64606595039368,1,horizontal,horizontal,1,1.07057762145996,red,4,NaN,599.057257830286,756.993676208043,NaN,NaN,956.993676208043,800.942742169714,1000.94274216971,443.006323791957,643.006323791957,399.057257830286,599.057257830286,756.993676208043,0,0,0,0,0,6,5,4,NaN,NaN,vertical,vertical,horizontal,horizontal,none,none
1a,13,100145,1,7,7,20,F,NA,variable,heterogeneous,5,absent,1.23993301391602,1,vertical,vertical,1,0.635293321609497,red,5,NaN,567.045908301137,703.717843984329,NaN,NaN,826.654758133252,853.60308331891,1049.42763818712,653.017481158529,927.5,379.163522034968,629.371695378491,410.498069503264,567.045908301137,703.717843984329,0,0,6,3,3,0,4,NaN,vertical,vertical,vertical,vertical,vertical,none
1a,13,100145,1,8,8,20,F,NA,variable,heterogeneous,5,absent,1.09462213516235,1,horizontal,horizontal,1,0.882346572875977,green,5,NaN,581.422338320961,731.334709102064,NaN,NaN,857.362518857686,848.464366520235,1054.0296480134,622.224714400653,899.636437764765,365.271262369628,607.549057043193,432.704947607421,581.422338320961,731.334709102064,0,0,0,5,6,5,4,NaN,vertical,vertical,horizontal,horizontal,horizontal,none
1a,13,100145,1,9,9,20,F,NA,variable,heterogeneous,6,absent,NaN,0,vertical,none,0,0.929404335021973,red,2,NaN,1048.46436652023,657.362518857686,NaN,NaN,874.554784704298,843.857712770574,1048.46436652023,657.362518857686,973.909581815937,413.504806087112,725.445215295702,356.142287229426,551.535633479765,542.637481142314,626.090418184063,786.495193912888,3,4,6,6,3,0,horizontal,vertical,horizontal,vertical,horizontal,vertical
1a,13,100145,1,10,10,20,F,NA,variable,heterogeneous,4,present,1.40441703796387,1,vertical,vertical,1,0.635293321609497,green,2,3,1043.85771277057,674.554784704298,874.554784704298,356.142287229426,725.445215295702,843.857712770574,1043.85771277057,674.554784704298,874.554784704298,356.142287229426,556.142287229426,525.445215295702,0,0,0,0,0,4,5,3,NaN,NaN,horizontal,vertical,vertical,horizontal,none,none
1a,13,100145,1,11,11,20,F,NA,variable,heterogeneous,6,present,1.37717604637146,0,horizontal,vertical,1,0.823524370193481,red,1,6,773.345241866748,853.60308331891,567.045908301137,703.717843984329,773.345241866748,853.60308331891,1006.29933356561,749.885239334581,1032.95409169886,496.282156015671,826.654758133252,346.39691668109,593.700666434388,450.114760665419,567.045908301137,703.717843984329,4,0,5,6,5,0,horizontal,horizontal,horizontal,vertical,horizontal,vertical
1a,13,100145,1,12,12,20,F,NA,variable,heterogeneous,4,present,1.13626503944397,1,vertical,vertical,1,0.96469765663147,red,2,3,1023.02802532055,476.373546837184,676.373546837184,376.971974679454,923.626453162816,823.028025320546,1023.02802532055,476.373546837184,676.373546837184,376.971974679454,576.971974679454,723.626453162816,0,0,0,0,3,4,6,0,NaN,NaN,vertical,vertical,vertical,vertical,none,none
1a,13,100145,1,13,13,20,F,NA,variable,heterogeneous,3,absent,0.856758832931519,1,horizontal,horizontal,1,0.882346572875977,red,1,NaN,607.549057043193,767.295052392579,NaN,NaN,607.549057043193,767.295052392579,1041.10723677783,683.019879386575,751.343706178981,349.685068220846,0,0,0,0,0,0,4,5,0,NaN,NaN,NaN,horizontal,horizontal,vertical,none,none,none
1a,13,100145,1,14,14,20,F,NA,variable,heterogeneous,4,absent,0.889777898788452,1,vertical,vertical,1,0.788231048583984,green,2,NaN,1003.65205506206,446.537169096228,NaN,NaN,953.462830903772,803.65205506206,1003.65205506206,446.537169096228,646.537169096228,396.34794493794,596.34794493794,753.462830903772,0,0,0,0,6,4,0,6,NaN,NaN,vertical,vertical,horizontal,vertical,none,none
1a,13,100145,1,15,15,20,F,NA,variable,heterogeneous,4,present,1.53304004669189,1,vertical,vertical,1,1.07057762145996,green,4,2,545.621167183745,617.787900804752,1054.37883281626,582.212099195248,817.787900804752,854.378832816255,1054.37883281626,582.212099195248,782.212099195248,345.621167183745,545.621167183745,617.787900804752,0,0,0,0,6,3,0,4,NaN,NaN,horizontal,vertical,horizontal,vertical,none,none
1a,13,100145,1,16,16,20,F,NA,variable,heterogeneous,5,present,0.943553924560547,1,vertical,vertical,1,0.776466608047485,green,5,4,547.481642470899,564.510859255183,755.719714694933,348.874022981887,688.215357568785,829.192481806288,983.431649086356,777.137884467044,1025.15163617903,480.284751489598,755.719714694933,348.874022981887,547.481642470899,564.510859255183,0,0,3,6,5,6,4,NaN,horizontal,horizontal,vertical,horizontal,vertical,none
1a,13,100145,1,17,17,20,F,NA,variable,heterogeneous,5,absent,0.76428484916687,1,horizontal,horizontal,1,1.08234206199646,green,4,NaN,558.892763222174,516.980120613425,NaN,NaN,946.261991269517,808.883771293693,1043.85771277057,525.445215295702,804.450363641507,345.03883773512,558.892763222174,516.980120613425,646.537169096228,803.65205506206,0,0,5,3,0,4,5,NaN,vertical,vertical,vertical,horizontal,vertical,none
1a,13,100145,1,18,18,20,F,NA,variable,heterogeneous,6,present,1.8376030921936,1,vertical,vertical,1,0.870582132339478,red,2,6,949.885239334581,806.299333565612,546.39691668109,626.654758133252,696.282156015671,832.954091698863,949.885239334581,806.299333565612,1053.60308331891,573.345241866748,903.717843984329,367.045908301137,650.114760665419,393.700666434388,546.39691668109,626.654758133252,0,4,3,0,6,3,vertical,vertical,vertical,horizontal,vertical,horizontal
1a,13,100145,1,19,19,20,F,NA,variable,heterogeneous,5,present,NaN,0,vertical,none,0,0.96469765663147,red,5,2,546.900731331463,568.923317431687,986.495193912888,773.909581815937,692.232343256122,831.108485694346,986.495193912888,773.909581815937,1023.02802532055,476.373546837184,751.343706178981,349.685068220846,546.900731331463,568.923317431687,0,0,0,5,6,3,4,NaN,vertical,vertical,vertical,vertical,vertical,none
1a,13,100145,1,20,20,20,F,NA,variable,heterogeneous,3,absent,1.57103705406189,1,vertical,vertical,1,1.05881318092346,red,3,NaN,786.654331158049,345.349468637584,NaN,NaN,586.139005173917,738.882953928832,1027.20666366803,715.767577433584,786.654331158049,345.349468637584,0,0,0,0,0,0,3,5,4,NaN,NaN,NaN,vertical,vertical,vertical,none,none,none
1a,13,100145,1,21,21,20,F,NA,variable,heterogeneous,4,absent,1.14658498764038,1,horizontal,horizontal,1,0.799995489120483,red,1,NaN,692.232343256122,831.108485694346,NaN,NaN,692.232343256122,831.108485694346,1031.10848569435,707.767656743878,907.767656743878,368.891514305654,568.891514305654,492.232343256122,0,0,0,0,4,0,6,0,NaN,NaN,horizontal,vertical,vertical,horizontal,none,none
1a,13,100145,1,22,22,20,F,NA,variable,heterogeneous,5,absent,1.42971611022949,1,horizontal,horizontal,1,0.788231048583984,red,4,NaN,696.282156015671,367.045908301137,NaN,NaN,746.982518841471,849.42763818712,1020.83647796503,727.5,989.501930496736,429.371695378491,696.282156015671,367.045908301137,546.39691668109,626.654758133252,0,0,0,5,3,4,5,NaN,horizontal,vertical,horizontal,horizontal,vertical,none
1a,13,100145,1,23,23,20,F,NA,variable,heterogeneous,6,absent,1.50672292709351,1,horizontal,horizontal,1,0.823524370193481,red,1,NaN,676.373546837184,823.028025320546,NaN,NaN,676.373546837184,823.028025320546,931.334709102064,818.577661679039,1054.96116226488,595.549636358493,923.626453162816,376.971974679454,668.665290897936,381.422338320961,545.03883773512,604.450363641507,4,6,6,3,5,0,horizontal,vertical,horizontal,vertical,horizontal,vertical
1a,13,100145,1,24,24,20,F,NA,variable,heterogeneous,5,present,1.28656697273254,1,horizontal,horizontal,1,1.07057762145996,red,2,4,1054.0296480134,622.224714400653,607.549057043193,432.704947607421,857.362518857686,848.464366520235,1054.0296480134,622.224714400653,899.636437764765,365.271262369628,607.549057043193,432.704947607421,581.422338320961,731.334709102064,0,0,6,4,5,6,5,NaN,horizontal,horizontal,horizontal,horizontal,horizontal,none
1a,13,100145,1,25,25,20,F,NA,variable,heterogeneous,4,present,0.920460939407349,1,horizontal,horizontal,1,0.799995489120483,red,2,4,1029.19248180629,711.784642431215,570.807518193712,488.215357568785,688.215357568785,829.192481806288,1029.19248180629,711.784642431215,911.784642431215,370.807518193712,570.807518193712,488.215357568785,0,0,0,0,6,4,0,3,NaN,NaN,horizontal,horizontal,vertical,vertical,none,none
1a,13,100145,1,26,26,20,F,NA,variable,heterogeneous,6,absent,1.6716160774231,1,horizontal,horizontal,1,0.623528881072998,green,4,NaN,848.656293821019,349.685068220846,NaN,NaN,751.343706178981,850.314931779154,992.450942956807,767.295052392579,1041.10723677783,516.980120613425,848.656293821019,349.685068220846,607.549057043193,432.704947607421,558.892763222174,683.019879386575,3,0,3,4,6,5,vertical,horizontal,vertical,horizontal,vertical,vertical
1a,13,100145,1,27,27,20,F,NA,variable,heterogeneous,4,absent,1.55108618736267,1,horizontal,horizontal,1,1.09410650253296,green,1,NaN,931.334709102064,818.577661679039,NaN,NaN,931.334709102064,818.577661679039,1018.57766167904,468.665290897936,668.665290897936,381.422338320961,581.422338320961,731.334709102064,0,0,0,0,4,0,3,6,NaN,NaN,horizontal,horizontal,vertical,horizontal,none,none
1a,13,100145,1,28,28,20,F,NA,variable,heterogeneous,3,present,1.37564396858215,1,vertical,vertical,1,1.07057762145996,red,1,3,923.626453162816,823.028025320546,545.03883773512,595.549636358493,923.626453162816,823.028025320546,931.334709102064,381.422338320961,545.03883773512,595.549636358493,0,0,0,0,0,0,4,6,5,NaN,NaN,NaN,vertical,vertical,vertical,none,none,none
1a,13,100145,1,29,29,20,F,NA,variable,heterogeneous,5,absent,1.59099197387695,1,horizontal,horizontal,1,0.764702167510986,red,3,NaN,983.431649086356,422.862115532956,NaN,NaN,755.719714694933,851.125977018113,1025.15163617903,719.715248510402,983.431649086356,422.862115532956,688.215357568785,370.807518193712,547.481642470899,635.489140744817,0,0,0,0,4,6,3,NaN,horizontal,horizontal,horizontal,vertical,horizontal,none
1a,13,100145,1,30,30,20,F,NA,variable,heterogeneous,6,present,1.92986989021301,1,horizontal,horizontal,1,0.941168775558472,red,2,5,983.431649086356,777.137884467044,616.568350913644,422.862115532956,738.309916622085,847.425410200379,983.431649086356,777.137884467044,1045.12173246427,529.712474266665,861.690083377915,352.574589799621,616.568350913644,422.862115532956,554.878267535729,670.287525733335,0,4,3,5,3,0,horizontal,horizontal,horizontal,vertical,horizontal,horizontal
1a,13,100145,1,31,31,20,F,NA,variable,heterogeneous,3,absent,0.996896028518677,1,horizontal,horizontal,1,0.799995489120483,green,2,NaN,1003.65205506206,446.537169096228,NaN,NaN,831.076682568313,853.099268668537,1003.65205506206,446.537169096228,565.271262369628,500.363562235235,0,0,0,0,0,0,5,4,0,NaN,NaN,NaN,horizontal,horizontal,vertical,none,none,none
1a,13,100145,1,32,32,20,F,NA,variable,heterogeneous,4,absent,1.31152391433716,1,vertical,vertical,1,0.941168775558472,red,3,NaN,800,345,NaN,NaN,800,855,1055,600,800,345,545,600,0,0,0,0,5,6,4,3,NaN,NaN,vertical,horizontal,vertical,horizontal,none,none
1a,13,100145,1,33,33,20,F,NA,variable,heterogeneous,6,absent,1.16129183769226,1,horizontal,horizontal,1,0.752937726974487,red,4,NaN,895.524681321058,363.568117085469,NaN,NaN,704.475318678942,836.431882914531,956.993676208043,800.942742169714,1052.5183575291,564.510859255183,895.524681321058,363.568117085469,643.006323791957,399.057257830286,547.481642470899,635.489140744817,6,6,3,4,3,5,horizontal,horizontal,horizontal,horizontal,vertical,horizontal
1a,13,100145,1,34,34,20,F,NA,variable,heterogeneous,5,present,1.20601201057434,1,vertical,vertical,1,0.870582132339478,red,3,1,949.885239334581,393.700666434388,800,855,800,855,1042.51941165526,678.799333565612,949.885239334581,393.700666434388,650.114760665419,393.700666434388,557.480588344736,678.799333565612,0,0,6,6,4,0,5,NaN,vertical,horizontal,vertical,horizontal,vertical,none
1a,13,100145,1,35,35,20,F,NA,variable,heterogeneous,4,present,1.80520915985107,1,vertical,vertical,1,0.764702167510986,red,1,3,768.923317431687,853.099268668537,831.076682568313,346.900731331463,768.923317431687,853.099268668537,1053.09926866854,631.076682568313,831.076682568313,346.900731331463,546.900731331463,568.923317431687,0,0,0,0,4,5,5,3,NaN,NaN,vertical,horizontal,horizontal,vertical,none,none
1a,13,100145,1,36,36,20,F,NA,variable,heterogeneous,5,absent,1.03075003623962,1,vertical,vertical,1,0.658822202682495,red,3,NaN,1008.88377129369,453.738008730483,NaN,NaN,716.980120613425,841.107236777826,1003.65205506206,753.462830903772,1008.88377129369,453.738008730483,725.445215295702,356.142287229426,545.03883773512,595.549636358493,0,0,6,5,4,3,0,NaN,vertical,vertical,vertical,vertical,horizontal,none
1a,13,100145,1,37,37,20,F,NA,variable,heterogeneous,3,absent,1.60871720314026,1,horizontal,horizontal,1,1.05881318092346,red,1,NaN,919.715248510402,825.151636179026,NaN,NaN,919.715248510402,825.151636179026,935.129412379467,383.747735480111,545.155339110131,591.100628340862,0,0,0,0,0,0,4,3,5,NaN,NaN,NaN,horizontal,vertical,vertical,none,none,none
1a,13,100145,1,38,38,20,F,NA,variable,heterogeneous,3,present,1.0944299697876,1,horizontal,horizontal,1,0.870582132339478,green,2,3,1045.12173246427,529.712474266665,616.568350913644,422.862115532956,738.309916622085,847.425410200379,1045.12173246427,529.712474266665,616.568350913644,422.862115532956,0,0,0,0,0,0,0,4,0,NaN,NaN,NaN,vertical,horizontal,vertical,none,none,none
1a,13,100145,1,39,39,20,F,NA,variable,heterogeneous,6,present,1.47252893447876,1,vertical,vertical,1,1.01175541877747,green,4,1,751.343706178981,349.685068220846,848.656293821019,850.314931779154,848.656293821019,850.314931779154,1041.10723677783,683.019879386575,992.450942956807,432.704947607421,751.343706178981,349.685068220846,558.892763222174,516.980120613425,607.549057043193,767.295052392579,3,5,3,4,5,6,horizontal,horizontal,horizontal,vertical,horizontal,horizontal
1a,13,100145,1,40,40,20,F,NA,variable,heterogeneous,6,present,1.59243512153625,1,horizontal,horizontal,1,0.894111013412476,green,3,6,946.261991269517,391.116228706307,653.738008730483,808.883771293693,907.767656743878,831.108485694346,1054.0296480134,622.224714400653,946.261991269517,391.116228706307,692.232343256122,368.891514305654,545.970351986605,577.775285599347,653.738008730483,808.883771293693,0,3,4,5,0,3,vertical,vertical,horizontal,vertical,horizontal,vertical
1a,13,100145,1,41,41,20,F,NA,variable,heterogeneous,6,absent,0.936491966247559,1,vertical,vertical,1,0.799995489120483,green,3,NaN,995.341332995339,436.089159529932,NaN,NaN,844.280285305067,851.125977018113,1039.62161830041,687.215136548046,995.341332995339,436.089159529932,755.719714694933,348.874022981887,560.378381699593,512.784863451954,604.658667004661,763.910840470068,6,5,4,3,0,0,horizontal,vertical,vertical,horizontal,vertical,horizontal
1a,13,100145,1,42,42,20,F,NA,variable,heterogeneous,4,absent,0.935369968414307,1,vertical,vertical,1,0.611764440536499,green,3,NaN,668.665290897936,381.422338320961,NaN,NaN,931.334709102064,818.577661679039,1018.57766167904,468.665290897936,668.665290897936,381.422338320961,581.422338320961,731.334709102064,0,0,0,0,0,3,4,5,NaN,NaN,horizontal,horizontal,vertical,horizontal,none,none
1a,13,100145,1,43,43,20,F,NA,variable,heterogeneous,3,absent,0.960559129714966,1,vertical,vertical,1,0.905875453948975,green,1,NaN,688.215357568785,829.192481806288,NaN,NaN,688.215357568785,829.192481806288,1054.37883281626,582.212099195248,657.405809614959,388.595418998464,0,0,0,0,0,0,4,3,6,NaN,NaN,NaN,vertical,horizontal,horizontal,none,none,none
1a,13,100145,1,44,44,20,F,NA,variable,heterogeneous,4,present,1.09289216995239,0,horizontal,vertical,1,1.04704874038696,green,4,2,565.271262369628,699.636437764765,1034.72873763037,500.363562235235,899.636437764765,834.728737630372,1034.72873763037,500.363562235235,700.363562235235,365.271262369628,565.271262369628,699.636437764765,0,0,0,0,6,0,3,4,NaN,NaN,horizontal,horizontal,vertical,horizontal,none,none
1a,13,100145,1,45,45,20,F,NA,variable,heterogeneous,3,present,0.88632607460022,1,vertical,vertical,1,0.764702167510986,green,1,3,581.422338320961,731.334709102064,795.549636358493,345.03883773512,581.422338320961,731.334709102064,1023.02802532055,723.626453162816,795.549636358493,345.03883773512,0,0,0,0,0,0,4,5,6,NaN,NaN,NaN,vertical,vertical,vertical,none,none,none
1a,13,100145,1,46,46,20,F,NA,variable,heterogeneous,5,present,1.0266261100769,1,horizontal,horizontal,1,0.917639894485474,green,1,3,657.405809614959,811.404581001536,1039.62161830041,512.784863451954,657.405809614959,811.404581001536,956.993676208043,800.942742169714,1039.62161830041,512.784863451954,791.100628340862,345.155339110131,554.878267535729,529.712474266665,0,0,4,6,5,6,0,NaN,horizontal,vertical,horizontal,vertical,vertical,none
1a,13,100145,1,47,47,20,F,NA,variable,heterogeneous,5,present,1.46104288101196,1,horizontal,horizontal,1,0.882346572875977,red,4,1,567.045908301137,496.282156015671,927.5,820.836477965032,927.5,820.836477965032,1049.42763818712,546.982518841471,826.654758133252,346.39691668109,567.045908301137,496.282156015671,629.371695378491,789.501930496736,0,0,5,6,6,4,3,NaN,vertical,vertical,horizontal,horizontal,horizontal,none
1a,13,100145,1,48,48,20,F,NA,variable,heterogeneous,3,absent,1.04033398628235,1,vertical,vertical,1,0.694115524291992,green,2,NaN,986.495193912888,426.090418184063,NaN,NaN,857.362518857686,848.464366520235,986.495193912888,426.090418184063,556.142287229426,525.445215295702,0,0,0,0,0,0,3,4,0,NaN,NaN,NaN,vertical,vertical,horizontal,none,none,none
1a,13,100145,1,49,49,20,F,NA,variable,heterogeneous,3,present,1.12222194671631,1,horizontal,horizontal,1,0.647057762145996,green,1,2,639.523300282292,798.172220171528,1051.86052685176,639.890788585259,639.523300282292,798.172220171528,1051.86052685176,639.890788585259,708.616172865948,361.936991243214,0,0,0,0,0,0,4,3,0,NaN,NaN,NaN,horizontal,horizontal,vertical,none,none,none
1a,13,100145,1,50,50,20,F,NA,variable,heterogeneous,6,present,NaN,0,vertical,none,0,0.835288810729981,red,3,4,986.495193912888,426.090418184063,742.637481142314,351.535633479765,857.362518857686,848.464366520235,1043.85771277057,674.554784704298,986.495193912888,426.090418184063,742.637481142314,351.535633479765,556.142287229426,525.445215295702,613.504806087112,773.909581815937,6,3,4,0,5,6,vertical,vertical,vertical,vertical,vertical,horizontal
1a,13,100145,1,51,51,20,F,NA,variable,heterogeneous,6,absent,1.4043140411377,1,vertical,vertical,1,0.71764440536499,red,6,NaN,607.549057043193,767.295052392579,NaN,NaN,848.656293821019,850.314931779154,1041.10723677783,683.019879386575,992.450942956807,432.704947607421,751.343706178981,349.685068220846,558.892763222174,516.980120613425,607.549057043193,767.295052392579,6,5,3,0,3,4,horizontal,vertical,vertical,vertical,vertical,vertical
1a,13,100145,1,52,52,20,F,NA,variable,heterogeneous,4,present,1.94868803024292,1,horizontal,horizontal,1,0.811759929656982,green,3,2,619.68777079743,419.68777079743,980.31222920257,419.68777079743,980.31222920257,780.31222920257,980.31222920257,419.68777079743,619.68777079743,419.68777079743,619.68777079743,780.31222920257,0,0,0,0,5,3,4,0,NaN,NaN,horizontal,horizontal,horizontal,vertical,none,none
1a,13,100145,1,53,53,20,F,NA,variable,heterogeneous,4,present,1.49764108657837,1,horizontal,horizontal,1,0.882346572875977,red,3,4,956.993676208043,399.057257830286,599.057257830286,443.006323791957,643.006323791957,800.942742169714,1000.94274216971,756.993676208043,956.993676208043,399.057257830286,599.057257830286,443.006323791957,0,0,0,0,6,6,4,3,NaN,NaN,horizontal,horizontal,horizontal,vertical,none,none
1a,13,100145,1,54,54,20,F,NA,variable,heterogeneous,3,present,1.06506705284119,1,horizontal,horizontal,1,0.670586643218994,red,3,1,668.665290897936,381.422338320961,676.373546837184,823.028025320546,676.373546837184,823.028025320546,1054.96116226488,595.549636358493,668.665290897936,381.422338320961,0,0,0,0,0,0,3,5,4,NaN,NaN,NaN,vertical,horizontal,horizontal,none,none,none
1a,13,100145,1,55,55,20,F,NA,variable,heterogeneous,4,absent,1.11696004867554,1,vertical,vertical,1,0.71764440536499,red,2,NaN,980.31222920257,780.31222920257,NaN,NaN,619.68777079743,780.31222920257,980.31222920257,780.31222920257,980.31222920257,419.68777079743,619.68777079743,419.68777079743,0,0,0,0,6,4,3,0,NaN,NaN,horizontal,vertical,horizontal,horizontal,none,none
1a,13,100145,1,56,56,20,F,NA,variable,heterogeneous,6,absent,1.19657492637634,1,horizontal,horizontal,1,0.647057762145996,green,4,NaN,692.232343256122,368.891514305654,NaN,NaN,907.767656743878,831.108485694346,1054.0296480134,622.224714400653,946.261991269517,391.116228706307,692.232343256122,368.891514305654,545.970351986605,577.775285599347,653.738008730483,808.883771293693,3,0,3,4,6,6,vertical,horizontal,vertical,horizontal,horizontal,vertical
1a,13,100145,1,57,57,20,F,NA,variable,heterogeneous,3,present,0.88792610168457,1,vertical,vertical,1,0.96469765663147,green,2,3,835.489140744817,347.4816424709,563.568117085469,695.524681321058,1000.94274216971,756.993676208043,835.489140744817,347.4816424709,563.568117085469,695.524681321058,0,0,0,0,0,0,0,4,5,NaN,NaN,NaN,horizontal,vertical,vertical,none,none,none
1a,13,100145,1,58,58,20,F,NA,variable,heterogeneous,5,absent,1.03810501098633,1,vertical,vertical,1,0.811759929656982,green,4,NaN,557.480588344736,521.200666434388,NaN,NaN,949.885239334581,806.299333565612,1042.51941165526,521.200666434388,800,345,557.480588344736,521.200666434388,650.114760665419,806.299333565612,0,0,5,6,0,4,0,NaN,horizontal,vertical,horizontal,vertical,horizontal,none
1a,13,100145,1,59,59,20,F,NA,variable,heterogeneous,5,present,1.08191585540771,1,horizontal,horizontal,1,0.941168775558472,green,5,4,545.349468637584,586.654331158049,734.001143498857,353.688914296288,708.616172865948,838.063008756786,998.172220171528,760.476699717708,1013.86099482608,461.117046071168,734.001143498857,353.688914296288,545.349468637584,586.654331158049,0,0,5,6,0,6,4,NaN,vertical,horizontal,vertical,vertical,horizontal,none
1a,13,100145,1,60,60,20,F,NA,variable,heterogeneous,6,present,1.07206678390503,1,vertical,vertical,1,0.611764440536499,green,6,3,591.116228706307,746.261991269517,1008.88377129369,453.738008730483,822.224714400653,854.029648013395,1031.10848569435,707.767656743878,1008.88377129369,453.738008730483,777.775285599347,345.970351986605,568.891514305654,492.232343256122,591.116228706307,746.261991269517,0,0,6,6,5,4,vertical,horizontal,horizontal,horizontal,horizontal,vertical
1a,13,100145,1,61,61,20,F,NA,variable,heterogeneous,5,absent,0.766649961471558,1,vertical,vertical,1,0.647057762145996,green,3,NaN,995.341332995339,436.089159529932,NaN,NaN,738.309916622085,847.425410200379,1016.25226451989,735.129412379467,995.341332995339,436.089159529932,704.475318678942,363.568117085469,545.621167183745,617.787900804752,0,0,0,5,4,5,6,NaN,horizontal,horizontal,vertical,vertical,horizontal,none
1a,13,100145,1,62,62,20,F,NA,variable,heterogeneous,3,present,0.836860179901123,1,vertical,vertical,1,0.929404335021973,red,3,2,629.371695378491,410.498069503264,1049.42763818712,546.982518841471,721.200666434388,842.519411655264,1049.42763818712,546.982518841471,629.371695378491,410.498069503264,0,0,0,0,0,0,3,5,4,NaN,NaN,NaN,horizontal,vertical,vertical,none,none,none
1a,13,100145,1,63,63,20,F,NA,variable,heterogeneous,6,absent,0.907970905303955,1,vertical,vertical,1,0.905875453948975,green,4,NaN,911.784642431215,370.807518193712,NaN,NaN,688.215357568785,829.192481806288,942.594190385041,811.404581001536,1054.37883281626,582.212099195248,911.784642431215,370.807518193712,657.405809614959,388.595418998464,545.621167183745,617.787900804752,0,3,3,4,6,0,horizontal,vertical,horizontal,vertical,vertical,horizontal
1a,13,100145,1,64,64,20,F,NA,variable,heterogeneous,3,absent,0.983739852905273,1,horizontal,horizontal,1,0.670586643218994,green,2,NaN,1054.84466088987,591.100628340862,NaN,NaN,680.284751489598,825.151636179026,1054.84466088987,591.100628340862,664.870587620533,383.747735480111,0,0,0,0,0,0,6,4,5,NaN,NaN,NaN,horizontal,horizontal,horizontal,none,none,none
1a,13,100145,2,1,65,20,F,NA,variable,heterogeneous,5,absent,1.20474600791931,1,horizontal,horizontal,1,1.07057762145996,green,4,NaN,561.936991243214,508.616172865948,NaN,NaN,938.882953928832,813.860994826083,1046.31108570371,534.001143498857,813.345668841951,345.349468637584,561.936991243214,508.616172865948,639.523300282292,798.172220171528,0,0,3,6,5,4,6,NaN,vertical,vertical,vertical,horizontal,vertical,none
1a,13,100145,2,2,66,20,F,NA,variable,heterogeneous,4,present,0.852397203445435,1,horizontal,horizontal,1,0.96469765663147,green,4,2,547.481642470899,564.510859255183,1052.5183575291,635.489140744817,764.510859255183,852.518357529101,1052.5183575291,635.489140744817,835.489140744817,347.4816424709,547.481642470899,564.510859255183,0,0,0,0,6,5,3,4,NaN,NaN,horizontal,vertical,horizontal,horizontal,none,none
1a,13,100145,2,3,67,20,F,NA,variable,heterogeneous,5,absent,0.885367870330811,1,vertical,vertical,1,1.01175541877747,green,5,NaN,557.480588344736,521.200666434388,NaN,NaN,650.114760665419,806.299333565612,949.885239334581,806.299333565612,1042.51941165526,521.200666434388,800,345,557.480588344736,521.200666434388,0,0,5,3,0,3,4,NaN,horizontal,horizontal,vertical,vertical,vertical,none
1a,13,100145,2,4,68,20,F,NA,variable,heterogeneous,4,present,0.979116916656494,1,vertical,vertical,1,0.96469765663147,red,1,3,844.280285305067,851.125977018113,755.719714694933,348.874022981887,844.280285305067,851.125977018113,1051.12597701811,555.719714694933,755.719714694933,348.874022981887,548.874022981887,644.280285305067,0,0,0,0,4,3,0,6,NaN,NaN,vertical,vertical,vertical,vertical,none,none
1a,13,100145,2,5,69,20,F,NA,variable,heterogeneous,3,present,0.711395978927612,1,vertical,vertical,1,0.623528881072998,red,2,1,1043.85771277057,674.554784704298,613.504806087112,773.909581815937,613.504806087112,773.909581815937,1043.85771277057,674.554784704298,742.637481142314,351.535633479765,0,0,0,0,0,0,0,4,3,NaN,NaN,NaN,vertical,vertical,vertical,none,none,none
1a,13,100145,2,6,70,20,F,NA,variable,heterogeneous,4,absent,0.948121070861816,1,vertical,vertical,1,0.917639894485474,red,1,NaN,895.524681321058,836.431882914531,NaN,NaN,895.524681321058,836.431882914531,1036.43188291453,504.475318678942,704.475318678942,363.568117085469,563.568117085469,695.524681321058,0,0,0,0,4,6,3,0,NaN,NaN,vertical,horizontal,vertical,vertical,none,none
1a,13,100145,2,7,71,20,F,NA,variable,heterogeneous,5,absent,0.987682819366455,1,vertical,vertical,1,1.02351985931396,green,5,NaN,572.793336331966,715.767577433584,NaN,NaN,839.890788585259,851.86052685176,1051.86052685176,639.890788585259,915.767577433584,372.793336331966,619.68777079743,419.68777079743,572.793336331966,715.767577433584,0,0,3,3,6,6,4,NaN,horizontal,horizontal,horizontal,horizontal,vertical,none
1a,13,100145,2,8,72,20,F,NA,variable,heterogeneous,3,present,0.829632043838501,1,horizontal,horizontal,1,0.694115524291992,red,1,3,1006.29933356561,749.885239334581,567.045908301137,703.717843984329,1006.29933356561,749.885239334581,826.654758133252,346.39691668109,567.045908301137,703.717843984329,0,0,0,0,0,0,4,0,6,NaN,NaN,NaN,horizontal,horizontal,vertical,none,none,none
1a,13,100145,2,9,73,20,F,NA,variable,heterogeneous,5,absent,1.02295184135437,1,horizontal,horizontal,1,0.635293321609497,red,5,NaN,626.090418184063,786.495193912888,NaN,NaN,923.626453162816,823.028025320546,1050.31493177915,551.343706178981,831.076682568313,346.900731331463,568.891514305654,492.232343256122,626.090418184063,786.495193912888,0,0,5,3,6,0,4,NaN,vertical,horizontal,horizontal,vertical,horizontal,none
1a,13,100145,2,10,74,20,F,NA,variable,heterogeneous,6,present,1.49693512916565,1,horizontal,horizontal,1,0.858817691802979,red,1,6,887.215136548046,839.621618300407,636.089159529932,795.341332995339,887.215136548046,839.621618300407,1051.12597701811,644.280285305067,963.910840470068,404.658667004661,712.784863451954,360.378381699593,548.874022981887,555.719714694933,636.089159529932,795.341332995339,4,0,3,0,3,6,horizontal,vertical,horizontal,vertical,horizontal,horizontal
1a,13,100145,2,11,75,20,F,NA,variable,heterogeneous,4,present,0.961973905563354,1,horizontal,horizontal,1,0.741173286437988,green,3,4,915.767577433584,372.793336331966,572.793336331966,484.232422566416,684.232422566416,827.206663668034,1027.20666366803,715.767577433584,915.767577433584,372.793336331966,572.793336331966,484.232422566416,0,0,0,0,0,3,4,5,NaN,NaN,horizontal,horizontal,horizontal,vertical,none,none
1a,13,100145,2,12,76,20,F,NA,variable,heterogeneous,5,present,0.970532894134521,1,vertical,vertical,1,0.658822202682495,green,4,3,700.363562235235,365.271262369628,992.450942956807,432.704947607421,742.637481142314,848.464366520235,1018.57766167904,731.334709102064,992.450942956807,432.704947607421,700.363562235235,365.271262369628,545.970351986605,622.224714400653,0,0,3,0,3,4,5,NaN,horizontal,horizontal,horizontal,vertical,horizontal,none
1a,13,100145,2,13,77,20,F,NA,variable,heterogeneous,5,present,0.832656145095825,1,vertical,vertical,1,0.729408845901489,red,3,4,977.137884467044,416.568350913644,680.284751489598,374.848363820974,764.510859255183,852.518357529101,1029.19248180629,711.784642431215,977.137884467044,416.568350913644,680.284751489598,374.848363820974,548.874022981887,644.280285305067,0,0,5,5,4,6,0,NaN,horizontal,horizontal,vertical,vertical,horizontal,none
1a,13,100145,2,14,78,20,F,NA,variable,heterogeneous,4,absent,0.794542074203491,1,vertical,vertical,1,1.05881318092346,green,4,NaN,557.480588344736,521.200666434388,NaN,NaN,721.200666434388,842.519411655264,1042.51941165526,678.799333565612,878.799333565612,357.480588344736,557.480588344736,521.200666434388,0,0,0,0,3,6,6,4,NaN,NaN,vertical,horizontal,horizontal,vertical,none,none
1a,13,100145,2,15,79,20,F,NA,variable,heterogeneous,3,absent,1.47972297668457,1,horizontal,horizontal,1,1.05881318092346,red,2,NaN,1053.09926866854,568.923317431687,NaN,NaN,700.363562235235,834.728737630372,1053.09926866854,568.923317431687,646.537169096228,396.34794493794,0,0,0,0,0,0,3,4,5,NaN,NaN,NaN,horizontal,horizontal,horizontal,none,none,none
1a,13,100145,2,16,80,20,F,NA,variable,heterogeneous,5,absent,1.744873046875,1,vertical,vertical,1,0.764702167510986,red,1,NaN,680.284751489598,825.151636179026,NaN,NaN,680.284751489598,825.151636179026,977.137884467044,783.431649086356,1029.19248180629,488.215357568785,764.510859255183,347.4816424709,548.874022981887,555.719714694933,0,0,4,3,3,5,5,NaN,vertical,vertical,horizontal,vertical,horizontal,none
1a,13,100145,2,17,81,20,F,NA,variable,heterogeneous,4,present,1.08279299736023,1,vertical,vertical,1,0.941168775558472,green,4,1,557.480588344736,678.799333565612,878.799333565612,842.519411655264,878.799333565612,842.519411655264,1042.51941165526,521.200666434388,721.200666434388,357.480588344736,557.480588344736,678.799333565612,0,0,0,0,0,5,6,4,NaN,NaN,horizontal,horizontal,horizontal,vertical,none,none
1a,13,100145,2,18,82,20,F,NA,variable,heterogeneous,4,present,0.988757133483887,1,vertical,vertical,1,0.999990978240967,red,1,2,927.5,820.836477965032,1020.83647796503,472.5,927.5,820.836477965032,1020.83647796503,472.5,672.5,379.163522034968,579.163522034968,727.5,0,0,0,0,4,5,0,0,NaN,NaN,vertical,vertical,horizontal,vertical,none,none
1a,13,100145,2,19,83,20,F,NA,variable,heterogeneous,3,absent,0.874905109405518,1,horizontal,horizontal,1,0.905875453948975,green,1,NaN,989.501930496736,770.628304621509,NaN,NaN,989.501930496736,770.628304621509,853.017481158529,350.57236181288,557.480588344736,678.799333565612,0,0,0,0,0,0,4,0,6,NaN,NaN,NaN,horizontal,horizontal,horizontal,none,none,none
1a,13,100145,2,20,84,20,F,NA,variable,heterogeneous,6,present,1.29378390312195,1,vertical,vertical,1,0.858817691802979,green,4,1,746.982518841471,350.57236181288,853.017481158529,849.42763818712,853.017481158529,849.42763818712,1042.51941165526,678.799333565612,989.501930496736,429.371695378491,746.982518841471,350.57236181288,557.480588344736,521.200666434388,610.498069503264,770.628304621509,5,3,0,4,5,6,vertical,horizontal,horizontal,vertical,horizontal,horizontal
1a,13,100145,2,21,85,20,F,NA,variable,heterogeneous,3,present,1.60235595703125,1,horizontal,horizontal,1,0.929404335021973,red,3,2,661.117046071168,386.139005173917,1054.65053136242,586.654331158049,684.232422566416,827.206663668034,1054.65053136242,586.654331158049,661.117046071168,386.139005173917,0,0,0,0,0,0,0,3,4,NaN,NaN,NaN,horizontal,vertical,horizontal,none,none,none
1a,13,100145,2,22,86,20,F,NA,variable,heterogeneous,6,present,1.33106994628906,1,horizontal,horizontal,1,0.611764440536499,red,1,3,861.690083377915,847.425410200379,983.431649086356,422.862115532956,861.690083377915,847.425410200379,1045.12173246427,670.287525733335,983.431649086356,422.862115532956,738.309916622085,352.574589799621,554.878267535729,529.712474266665,616.568350913644,777.137884467044,4,3,5,0,0,3,horizontal,horizontal,horizontal,vertical,vertical,horizontal
1a,13,100145,2,23,87,20,F,NA,variable,heterogeneous,6,absent,1.13105201721191,1,horizontal,horizontal,1,0.858817691802979,red,4,NaN,899.636437764765,365.271262369628,NaN,NaN,700.363562235235,834.728737630372,953.462830903772,803.65205506206,1053.09926866854,568.923317431687,899.636437764765,365.271262369628,646.537169096228,396.34794493794,546.900731331463,631.076682568313,6,3,6,4,3,5,horizontal,horizontal,horizontal,horizontal,vertical,horizontal
1a,13,100145,2,24,88,20,F,NA,variable,heterogeneous,3,absent,1.0195848941803,1,vertical,vertical,1,0.682351083755493,red,2,NaN,1043.85771277057,525.445215295702,NaN,NaN,742.637481142314,848.464366520235,1043.85771277057,525.445215295702,613.504806087112,426.090418184063,0,0,0,0,0,0,6,4,0,NaN,NaN,NaN,horizontal,vertical,vertical,none,none,none
1a,13,100145,2,25,89,20,F,NA,variable,heterogeneous,3,present,0.676065921783447,1,vertical,vertical,1,0.999990978240967,red,2,3,946.261991269517,391.116228706307,545.970351986605,577.775285599347,907.767656743878,831.108485694346,946.261991269517,391.116228706307,545.970351986605,577.775285599347,0,0,0,0,0,0,3,4,0,NaN,NaN,NaN,vertical,vertical,vertical,none,none,none
1a,13,100145,2,26,90,20,F,NA,variable,heterogeneous,5,present,0.854428052902222,1,horizontal,horizontal,1,0.835288810729981,green,2,3,1051.86052685176,560.109211414741,839.890788585259,348.13947314824,915.767577433584,827.206663668034,1051.86052685176,560.109211414741,839.890788585259,348.13947314824,572.793336331966,484.232422566416,619.68777079743,780.31222920257,0,0,0,4,6,3,3,NaN,horizontal,horizontal,vertical,vertical,horizontal,none
1a,13,100145,2,27,91,20,F,NA,variable,heterogeneous,3,present,1.06064391136169,1,horizontal,horizontal,1,1.04704874038696,green,1,3,764.510859255183,852.518357529101,599.057257830286,443.006323791957,764.510859255183,852.518357529101,1036.43188291453,504.475318678942,599.057257830286,443.006323791957,0,0,0,0,0,0,4,6,5,NaN,NaN,NaN,horizontal,vertical,vertical,none,none,none
1a,13,100145,2,28,92,20,F,NA,variable,heterogeneous,6,present,0.771239995956421,1,vertical,vertical,1,0.658822202682495,red,2,1,1045.12173246427,670.287525733335,861.690083377915,847.425410200379,861.690083377915,847.425410200379,1045.12173246427,670.287525733335,983.431649086356,422.862115532956,738.309916622085,352.574589799621,554.878267535729,529.712474266665,616.568350913644,777.137884467044,6,4,0,5,6,3,vertical,vertical,vertical,vertical,horizontal,vertical
1a,13,100145,2,29,93,20,F,NA,variable,heterogeneous,6,present,1.97183513641357,1,horizontal,horizontal,1,1.04704874038696,green,4,3,848.656293821019,349.685068220846,1041.10723677783,516.980120613425,751.343706178981,850.314931779154,992.450942956807,767.295052392579,1041.10723677783,516.980120613425,848.656293821019,349.685068220846,607.549057043193,432.704947607421,558.892763222174,683.019879386575,5,0,0,4,5,3,horizontal,horizontal,vertical,horizontal,horizontal,horizontal
1a,13,100145,2,30,94,20,F,NA,variable,heterogeneous,6,absent,1.00292086601257,1,vertical,vertical,1,0.976462097167969,red,4,NaN,777.775285599347,345.970351986605,NaN,NaN,822.224714400653,854.029648013395,1031.10848569435,707.767656743878,1008.88377129369,453.738008730483,777.775285599347,345.970351986605,568.891514305654,492.232343256122,591.116228706307,746.261991269517,3,0,5,4,3,6,horizontal,vertical,vertical,vertical,horizontal,horizontal
1a,13,100145,2,31,95,20,F,NA,variable,heterogeneous,3,present,1.66686582565308,1,horizontal,horizontal,1,1.01175541877747,green,3,2,579.163522034968,727.5,800,345,1020.83647796503,727.5,800,345,579.163522034968,727.5,0,0,0,0,0,0,3,0,4,NaN,NaN,NaN,vertical,vertical,horizontal,none,none,none
1a,13,100145,2,32,96,20,F,NA,variable,heterogeneous,6,present,1.52255892753601,1,vertical,vertical,1,0.682351083755493,red,5,1,568.891514305654,492.232343256122,822.224714400653,854.029648013395,822.224714400653,854.029648013395,1031.10848569435,707.767656743878,1008.88377129369,453.738008730483,777.775285599347,345.970351986605,568.891514305654,492.232343256122,591.116228706307,746.261991269517,3,5,0,0,4,6,vertical,vertical,horizontal,horizontal,vertical,vertical
1a,13,100145,2,33,97,20,F,NA,variable,heterogeneous,3,absent,0.894696950912476,1,vertical,vertical,1,1.08234206199646,green,3,NaN,545,600,NaN,NaN,927.5,820.836477965032,927.5,379.163522034968,545,600,0,0,0,0,0,0,5,3,4,NaN,NaN,NaN,horizontal,vertical,vertical,none,none,none
1a,13,100145,2,34,98,20,F,NA,variable,heterogeneous,4,absent,1.53099393844604,1,horizontal,horizontal,1,0.682351083755493,red,3,NaN,742.637481142314,351.535633479765,NaN,NaN,857.362518857686,848.464366520235,1048.46436652023,542.637481142314,742.637481142314,351.535633479765,551.535633479765,657.362518857686,0,0,0,0,5,5,4,0,NaN,NaN,vertical,horizontal,horizontal,vertical,none,none
1a,13,100145,2,35,99,20,F,NA,variable,heterogeneous,6,absent,NaN,0,horizontal,none,0,0.858817691802979,red,3,NaN,1039.62161830041,512.784863451954,NaN,NaN,755.719714694933,851.125977018113,995.341332995339,763.910840470068,1039.62161830041,512.784863451954,844.280285305067,348.874022981887,604.658667004661,436.089159529932,560.378381699593,687.215136548046,3,0,4,0,3,5,vertical,horizontal,horizontal,horizontal,horizontal,vertical
1a,13,100145,2,36,100,20,F,NA,variable,heterogeneous,5,present,1.10487484931946,1,vertical,vertical,1,0.894111013412476,green,3,1,899.636437764765,365.271262369628,857.362518857686,848.464366520235,857.362518857686,848.464366520235,1054.0296480134,622.224714400653,899.636437764765,365.271262369628,607.549057043193,432.704947607421,581.422338320961,731.334709102064,0,0,0,3,4,6,5,NaN,vertical,vertical,vertical,horizontal,horizontal,none
1a,13,100145,2,37,101,20,F,NA,variable,heterogeneous,6,present,1.47585105895996,1,horizontal,horizontal,1,1.02351985931396,green,5,4,596.34794493794,446.537169096228,831.076682568313,346.900731331463,768.923317431687,853.099268668537,1003.65205506206,753.462830903772,1034.72873763037,500.363562235235,831.076682568313,346.900731331463,596.34794493794,446.537169096228,565.271262369628,699.636437764765,0,6,0,5,4,6,horizontal,horizontal,horizontal,vertical,horizontal,vertical
1a,13,100145,2,38,102,20,F,NA,variable,heterogeneous,6,present,1.30544495582581,1,vertical,vertical,1,0.799995489120483,green,6,2,613.504806087112,773.909581815937,1043.85771277057,674.554784704298,857.362518857686,848.464366520235,1043.85771277057,674.554784704298,986.495193912888,426.090418184063,742.637481142314,351.535633479765,556.142287229426,525.445215295702,613.504806087112,773.909581815937,0,3,6,3,5,4,vertical,vertical,vertical,vertical,vertical,vertical
1a,13,100145,2,39,103,20,F,NA,variable,heterogeneous,5,absent,NaN,0,horizontal,none,0,0.882346572875977,red,4,NaN,619.68777079743,419.68777079743,NaN,NaN,839.890788585259,851.86052685176,1051.86052685176,639.890788585259,915.767577433584,372.793336331966,619.68777079743,419.68777079743,572.793336331966,715.767577433584,0,0,3,5,0,4,3,NaN,horizontal,horizontal,vertical,horizontal,vertical,none
1a,13,100145,2,40,104,20,F,NA,variable,heterogeneous,3,absent,1.39462900161743,1,vertical,vertical,1,0.835288810729981,green,2,NaN,1003.65205506206,446.537169096228,NaN,NaN,831.076682568313,853.099268668537,1003.65205506206,446.537169096228,565.271262369628,500.363562235235,0,0,0,0,0,0,6,4,3,NaN,NaN,NaN,horizontal,vertical,horizontal,none,none,none
1a,13,100145,2,41,105,20,F,NA,variable,heterogeneous,3,absent,1.28057384490967,1,horizontal,horizontal,1,0.682351083755493,red,1,NaN,596.34794493794,753.462830903772,NaN,NaN,596.34794493794,753.462830903772,1034.72873763037,699.636437764765,768.923317431687,346.900731331463,0,0,0,0,0,0,4,3,0,NaN,NaN,NaN,horizontal,vertical,vertical,none,none,none
1a,13,100145,2,42,106,20,F,NA,variable,heterogeneous,4,present,1.1098849773407,1,horizontal,horizontal,1,0.999990978240967,red,4,2,550.57236181288,546.982518841471,1049.42763818712,653.017481158529,746.982518841471,849.42763818712,1049.42763818712,653.017481158529,853.017481158529,350.57236181288,550.57236181288,546.982518841471,0,0,0,0,0,3,3,4,NaN,NaN,horizontal,vertical,horizontal,horizontal,none,none
1a,13,100145,2,43,107,20,F,NA,variable,heterogeneous,6,absent,1.8391170501709,1,horizontal,horizontal,1,0.729408845901489,green,2,NaN,1027.20666366803,715.767577433584,NaN,NaN,813.345668841951,854.650531362416,1027.20666366803,715.767577433584,1013.86099482608,461.117046071168,786.654331158049,345.349468637584,572.793336331966,484.232422566416,586.139005173917,738.882953928832,3,4,0,3,6,6,vertical,horizontal,horizontal,vertical,vertical,vertical
1a,13,100145,2,44,108,20,F,NA,variable,heterogeneous,5,present,1.45844197273254,1,vertical,vertical,1,0.917639894485474,red,4,3,704.475318678942,363.568117085469,995.341332995339,436.089159529932,738.309916622085,847.425410200379,1016.25226451989,735.129412379467,995.341332995339,436.089159529932,704.475318678942,363.568117085469,545.621167183745,617.787900804752,0,0,5,3,6,4,0,NaN,horizontal,vertical,vertical,vertical,vertical,none
1a,13,100145,2,45,109,20,F,NA,variable,heterogeneous,4,absent,1.52122211456299,1,horizontal,horizontal,1,1.05881318092346,red,1,NaN,935.129412379467,816.252264519889,NaN,NaN,935.129412379467,816.252264519889,1016.25226451989,464.870587620533,664.870587620533,383.747735480111,583.747735480111,735.129412379467,0,0,0,0,4,5,6,3,NaN,NaN,horizontal,horizontal,vertical,horizontal,none,none
1a,13,100145,2,46,110,20,F,NA,variable,heterogeneous,4,absent,0.884912967681885,1,vertical,vertical,1,0.658822202682495,red,4,NaN,545.621167183745,582.212099195248,NaN,NaN,782.212099195248,854.378832816255,1054.37883281626,617.787900804752,817.787900804752,345.621167183745,545.621167183745,582.212099195248,0,0,0,0,3,6,0,4,NaN,NaN,horizontal,horizontal,horizontal,vertical,none,none
1a,13,100145,2,47,111,20,F,NA,variable,heterogeneous,5,present,1.06842803955078,1,horizontal,horizontal,1,0.682351083755493,red,2,5,953.462830903772,803.65205506206,556.142287229426,525.445215295702,653.738008730483,808.883771293693,953.462830903772,803.65205506206,1041.10723677783,516.980120613425,795.549636358493,345.03883773512,556.142287229426,525.445215295702,0,0,6,4,3,0,5,NaN,vertical,horizontal,horizontal,horizontal,vertical,none
1a,13,100145,2,48,112,20,F,NA,variable,heterogeneous,6,absent,0.667032957077026,1,vertical,vertical,1,1.05881318092346,green,3,NaN,989.501930496736,429.371695378491,NaN,NaN,853.017481158529,849.42763818712,1042.51941165526,678.799333565612,989.501930496736,429.371695378491,746.982518841471,350.57236181288,557.480588344736,521.200666434388,610.498069503264,770.628304621509,6,5,4,6,5,0,horizontal,horizontal,vertical,horizontal,vertical,horizontal
1a,13,100145,2,49,113,20,F,NA,variable,heterogeneous,5,present,0.872157096862793,1,horizontal,horizontal,1,0.788231048583984,red,1,4,684.232422566416,827.206663668034,760.109211414741,348.13947314824,684.232422566416,827.206663668034,980.31222920257,780.31222920257,1027.20666366803,484.232422566416,760.109211414741,348.13947314824,548.13947314824,560.109211414741,0,0,4,3,6,5,0,NaN,horizontal,vertical,horizontal,vertical,vertical,none
1a,13,100145,2,50,114,20,F,NA,variable,heterogeneous,3,present,0.978230953216553,1,vertical,vertical,1,0.611764440536499,green,1,3,831.076682568313,853.099268668537,565.271262369628,500.363562235235,831.076682568313,853.099268668537,1003.65205506206,446.537169096228,565.271262369628,500.363562235235,0,0,0,0,0,0,4,3,6,NaN,NaN,NaN,vertical,horizontal,horizontal,none,none,none
1a,13,100145,2,51,115,20,F,NA,variable,heterogeneous,3,absent,1.01874613761902,1,vertical,vertical,1,1.03528429985046,red,2,NaN,1051.12597701811,555.719714694933,NaN,NaN,712.784863451954,839.621618300407,1051.12597701811,555.719714694933,636.089159529932,404.658667004661,0,0,0,0,0,0,0,4,0,NaN,NaN,NaN,horizontal,vertical,horizontal,none,none,none
1a,13,100145,2,52,116,20,F,NA,variable,heterogeneous,3,absent,1.22767806053162,1,horizontal,horizontal,1,0.623528881072998,green,3,NaN,574.848363820974,480.284751489598,NaN,NaN,808.899371659138,854.844660889869,1016.25226451989,464.870587620533,574.848363820974,480.284751489598,0,0,0,0,0,0,3,6,4,NaN,NaN,NaN,vertical,vertical,horizontal,none,none,none
1a,13,100145,2,53,117,20,F,NA,variable,heterogeneous,4,present,1.23424696922302,1,vertical,vertical,1,0.694115524291992,green,1,2,942.594190385041,811.404581001536,1011.40458100154,457.40580961496,942.594190385041,811.404581001536,1011.40458100154,457.40580961496,657.405809614959,388.595418998464,588.595418998464,742.594190385041,0,0,0,0,4,3,6,5,NaN,NaN,vertical,horizontal,vertical,horizontal,none,none
1a,13,100145,2,54,118,20,F,NA,variable,heterogeneous,4,present,1.06450915336609,1,horizontal,horizontal,1,0.858817691802979,red,1,2,980.31222920257,780.31222920257,980.31222920257,419.68777079743,980.31222920257,780.31222920257,980.31222920257,419.68777079743,619.68777079743,419.68777079743,619.68777079743,780.31222920257,0,0,0,0,4,6,0,5,NaN,NaN,horizontal,horizontal,horizontal,vertical,none,none
1a,13,100145,2,55,119,20,F,NA,variable,heterogeneous,6,absent,1.17419600486755,1,horizontal,horizontal,1,0.611764440536499,green,4,NaN,870.287525733335,354.878267535729,NaN,NaN,729.712474266665,845.121732464271,977.137884467044,783.431649086356,1047.42541020038,538.309916622085,870.287525733335,354.878267535729,622.862115532956,416.568350913644,552.574589799621,661.690083377915,0,5,6,4,3,0,horizontal,horizontal,vertical,horizontal,horizontal,vertical
1a,13,100145,2,56,120,20,F,NA,variable,heterogeneous,4,absent,0.915321111679077,1,horizontal,horizontal,1,0.682351083755493,green,4,NaN,545.155339110131,591.100628340862,NaN,NaN,791.100628340862,854.844660889869,1054.84466088987,608.899371659138,808.899371659138,345.155339110131,545.155339110131,591.100628340862,0,0,0,0,3,6,5,4,NaN,NaN,vertical,horizontal,vertical,horizontal,none,none
1a,13,100145,2,57,121,20,F,NA,variable,heterogeneous,5,present,1.59792280197144,1,horizontal,horizontal,1,0.799995489120483,green,4,3,560.378381699593,512.784863451954,808.899371659138,345.155339110131,942.594190385041,811.404581001536,1045.12173246427,529.712474266665,808.899371659138,345.155339110131,560.378381699593,512.784863451954,643.006323791957,800.942742169714,0,0,6,3,0,4,6,NaN,vertical,horizontal,vertical,horizontal,horizontal,none
1a,13,100145,2,58,122,20,F,NA,variable,heterogeneous,6,absent,1.80590415000916,1,vertical,vertical,1,0.799995489120483,red,3,NaN,1011.40458100154,457.40580961496,NaN,NaN,817.787900804752,854.378832816255,1029.19248180629,711.784642431215,1011.40458100154,457.40580961496,782.212099195248,345.621167183745,570.807518193712,488.215357568785,588.595418998464,742.594190385041,3,5,4,3,6,6,horizontal,horizontal,vertical,vertical,horizontal,vertical
1a,13,100145,2,59,123,20,F,NA,variable,heterogeneous,5,absent,1.63728809356689,1,vertical,vertical,1,0.741173286437988,red,5,NaN,583.747735480111,735.129412379467,NaN,NaN,861.690083377915,847.425410200379,1054.37883281626,617.787900804752,895.524681321058,363.568117085469,604.658667004661,436.089159529932,583.747735480111,735.129412379467,0,0,3,6,0,5,4,NaN,horizontal,vertical,vertical,vertical,vertical,none
1a,13,100145,2,60,124,20,F,NA,variable,heterogeneous,5,absent,1.14565205574036,1,horizontal,horizontal,1,0.988226537704468,green,5,NaN,545.970351986605,622.224714400653,NaN,NaN,742.637481142314,848.464366520235,1018.57766167904,731.334709102064,992.450942956807,432.704947607421,700.363562235235,365.271262369628,545.970351986605,622.224714400653,0,0,5,0,3,6,4,NaN,vertical,vertical,vertical,vertical,horizontal,none
1a,13,100145,2,61,125,20,F,NA,variable,heterogeneous,6,absent,NaN,0,vertical,none,0,0.96469765663147,green,5,NaN,607.549057043193,432.704947607421,NaN,NaN,751.343706178981,850.314931779154,992.450942956807,767.295052392579,1041.10723677783,516.980120613425,848.656293821019,349.685068220846,607.549057043193,432.704947607421,558.892763222174,683.019879386575,5,5,6,0,4,0,horizontal,horizontal,vertical,vertical,vertical,horizontal
1a,13,100145,2,62,126,20,F,NA,variable,heterogeneous,4,absent,1.37125301361084,1,vertical,vertical,1,0.941168775558472,green,1,NaN,791.100628340862,854.844660889869,NaN,NaN,791.100628340862,854.844660889869,1054.84466088987,608.899371659138,808.899371659138,345.155339110131,545.155339110131,591.100628340862,0,0,0,0,4,0,3,6,NaN,NaN,vertical,horizontal,horizontal,vertical,none,none
1a,13,100145,2,63,127,20,F,NA,variable,heterogeneous,3,present,1.36670684814453,1,vertical,vertical,1,0.788231048583984,green,3,2,782.212099195248,345.621167183745,1029.19248180629,711.784642431215,588.595418998464,742.594190385041,1029.19248180629,711.784642431215,782.212099195248,345.621167183745,0,0,0,0,0,0,6,3,4,NaN,NaN,NaN,vertical,horizontal,vertical,none,none,none
1a,13,100145,2,64,128,20,F,NA,variable,heterogeneous,4,absent,1.03891205787659,1,horizontal,horizontal,1,1.04704874038696,green,2,NaN,1042.51941165526,521.200666434388,NaN,NaN,878.799333565612,842.519411655264,1042.51941165526,521.200666434388,721.200666434388,357.480588344736,557.480588344736,678.799333565612,0,0,0,0,6,4,0,3,NaN,NaN,horizontal,horizontal,horizontal,vertical,none,none
1a,13,100145,3,1,129,20,F,NA,variable,heterogeneous,4,present,1.22901487350464,1,horizontal,horizontal,1,0.811759929656982,green,3,4,835.489140744817,347.4816424709,547.481642470899,564.510859255183,764.510859255183,852.518357529101,1052.5183575291,635.489140744817,835.489140744817,347.4816424709,547.481642470899,564.510859255183,0,0,0,0,6,5,4,6,NaN,NaN,horizontal,vertical,horizontal,horizontal,none,none
1a,13,100145,3,2,130,20,F,NA,variable,heterogeneous,6,present,1.51571202278137,1,vertical,vertical,1,0.894111013412476,green,6,5,576.971974679454,723.626453162816,581.422338320961,468.665290897936,795.549636358493,854.96116226488,1018.57766167904,731.334709102064,1023.02802532055,476.373546837184,804.450363641507,345.03883773512,581.422338320961,468.665290897936,576.971974679454,723.626453162816,5,5,6,0,0,4,vertical,horizontal,horizontal,horizontal,vertical,vertical
1a,13,100145,3,3,131,20,F,NA,variable,heterogeneous,5,absent,0.996254920959473,1,vertical,vertical,1,0.905875453948975,green,2,NaN,1047.42541020038,538.309916622085,NaN,NaN,935.129412379467,816.252264519889,1047.42541020038,538.309916622085,817.787900804752,345.621167183745,563.568117085469,504.475318678942,636.089159529932,795.341332995339,0,0,5,4,0,6,3,NaN,vertical,vertical,vertical,vertical,horizontal,none
1a,13,100145,3,4,132,20,F,NA,variable,heterogeneous,5,present,1.05259418487549,1,vertical,vertical,1,1.02351985931396,green,4,3,653.738008730483,391.116228706307,953.462830903772,396.34794493794,795.549636358493,854.96116226488,1041.10723677783,683.019879386575,953.462830903772,396.34794493794,653.738008730483,391.116228706307,556.142287229426,674.554784704298,0,0,0,6,6,4,5,NaN,horizontal,vertical,horizontal,vertical,horizontal,none
1a,13,100145,3,5,133,20,F,NA,variable,heterogeneous,3,present,1.01835107803345,1,horizontal,horizontal,1,1.02351985931396,red,3,2,574.848363820974,480.284751489598,1016.25226451989,464.870587620533,808.899371659138,854.844660889869,1016.25226451989,464.870587620533,574.848363820974,480.284751489598,0,0,0,0,0,0,0,5,4,NaN,NaN,NaN,horizontal,horizontal,horizontal,none,none,none
1a,13,100145,3,6,134,20,F,NA,variable,heterogeneous,6,absent,0.622830867767334,1,vertical,vertical,1,0.988226537704468,green,3,NaN,1051.12597701811,555.719714694933,NaN,NaN,712.784863451954,839.621618300407,963.910840470068,795.341332995339,1051.12597701811,555.719714694933,887.215136548046,360.378381699593,636.089159529932,404.658667004661,548.874022981887,644.280285305067,0,5,4,6,0,3,horizontal,vertical,vertical,vertical,horizontal,vertical
1a,13,100145,3,7,135,20,F,NA,variable,heterogeneous,6,present,1.17628192901611,1,vertical,vertical,1,0.635293321609497,red,1,4,870.287525733335,845.121732464271,729.712474266665,354.878267535729,870.287525733335,845.121732464271,1047.42541020038,661.690083377915,977.137884467044,416.568350913644,729.712474266665,354.878267535729,552.574589799621,538.309916622085,622.862115532956,783.431649086356,4,6,3,0,3,5,vertical,horizontal,vertical,vertical,vertical,horizontal
1a,13,100145,3,8,136,20,F,NA,variable,heterogeneous,4,absent,0.949493169784546,1,horizontal,horizontal,1,1.07057762145996,green,2,NaN,1053.60308331891,626.654758133252,NaN,NaN,773.345241866748,853.60308331891,1053.60308331891,626.654758133252,826.654758133252,346.39691668109,546.39691668109,573.345241866748,0,0,0,0,6,4,6,5,NaN,NaN,horizontal,horizontal,vertical,vertical,none,none
1a,13,100145,3,9,137,20,F,NA,variable,heterogeneous,3,absent,0.867083072662354,1,vertical,vertical,1,0.729408845901489,red,1,NaN,1013.86099482608,738.882953928832,NaN,NaN,1013.86099482608,738.882953928832,813.345668841951,345.349468637584,572.793336331966,715.767577433584,0,0,0,0,0,0,4,6,6,NaN,NaN,NaN,vertical,horizontal,horizontal,none,none,none
1a,13,100145,3,10,138,20,F,NA,variable,heterogeneous,5,present,0.887913942337036,1,vertical,vertical,1,0.96469765663147,green,5,2,545,600,1006.29933356561,749.885239334581,721.200666434388,842.519411655264,1006.29933356561,749.885239334581,1006.29933356561,450.114760665419,721.200666434388,357.480588344736,545,600,0,0,5,5,3,0,4,NaN,vertical,vertical,horizontal,horizontal,vertical,none
1a,13,100145,3,11,139,20,F,NA,variable,heterogeneous,3,absent,1.09600210189819,1,vertical,vertical,1,0.705879964828491,green,3,NaN,668.665290897936,381.422338320961,NaN,NaN,676.373546837184,823.028025320546,1054.96116226488,595.549636358493,668.665290897936,381.422338320961,0,0,0,0,0,0,5,3,4,NaN,NaN,NaN,horizontal,horizontal,vertical,none,none,none
1a,13,100145,3,12,140,20,F,NA,variable,heterogeneous,3,present,1.62587714195251,1,horizontal,horizontal,1,0.988226537704468,red,3,1,583.747735480111,464.870587620533,791.100628340862,854.844660889869,791.100628340862,854.844660889869,1025.15163617903,480.284751489598,583.747735480111,464.870587620533,0,0,0,0,0,0,5,3,4,NaN,NaN,NaN,vertical,vertical,horizontal,none,none,none
1a,13,100145,3,13,141,20,F,NA,variable,heterogeneous,6,present,1.96541500091553,1,horizontal,horizontal,1,0.729408845901489,red,4,2,777.775285599347,345.970351986605,1031.10848569435,707.767656743878,822.224714400653,854.029648013395,1031.10848569435,707.767656743878,1008.88377129369,453.738008730483,777.775285599347,345.970351986605,568.891514305654,492.232343256122,591.116228706307,746.261991269517,6,6,0,4,5,5,vertical,vertical,horizontal,horizontal,vertical,horizontal
1a,13,100145,3,14,142,20,F,NA,variable,heterogeneous,3,present,1.03794503211975,1,horizontal,horizontal,1,1.04704874038696,green,1,2,826.654758133252,853.60308331891,1006.29933356561,450.114760665419,826.654758133252,853.60308331891,1006.29933356561,450.114760665419,567.045908301137,496.282156015671,0,0,0,0,0,0,4,5,6,NaN,NaN,NaN,horizontal,vertical,vertical,none,none,none
1a,13,100145,3,15,143,20,F,NA,variable,heterogeneous,4,absent,1.37250208854675,1,horizontal,horizontal,1,1.08234206199646,green,3,NaN,891.383827134052,361.936991243214,NaN,NaN,708.616172865948,838.063008756786,1038.06300875679,691.383827134052,891.383827134052,361.936991243214,561.936991243214,508.616172865948,0,0,0,0,0,5,4,6,NaN,NaN,horizontal,vertical,horizontal,horizontal,none,none
1a,13,100145,3,16,144,20,F,NA,variable,heterogeneous,5,present,1.39371609687805,1,horizontal,horizontal,1,1.08234206199646,green,2,1,1054.96116226488,595.549636358493,883.019879386575,841.107236777826,883.019879386575,841.107236777826,1054.96116226488,595.549636358493,874.554784704298,356.142287229426,591.116228706307,453.738008730483,596.34794493794,753.462830903772,0,0,6,4,3,5,6,NaN,horizontal,horizontal,vertical,horizontal,horizontal,none
1a,13,100145,3,17,145,20,F,NA,variable,heterogeneous,4,present,1.1783561706543,1,vertical,vertical,1,0.623528881072998,green,2,4,1042.51941165526,521.200666434388,557.480588344736,678.799333565612,878.799333565612,842.519411655264,1042.51941165526,521.200666434388,721.200666434388,357.480588344736,557.480588344736,678.799333565612,0,0,0,0,3,4,3,5,NaN,NaN,horizontal,vertical,vertical,vertical,none,none
1a,13,100145,3,18,146,20,F,NA,variable,heterogeneous,6,absent,1.71760296821594,1,vertical,vertical,1,0.976462097167969,green,6,NaN,557.480588344736,678.799333565612,NaN,NaN,746.982518841471,849.42763818712,989.501930496736,770.628304621509,1042.51941165526,521.200666434388,853.017481158529,350.57236181288,610.498069503264,429.371695378491,557.480588344736,678.799333565612,5,5,6,3,0,4,vertical,vertical,vertical,vertical,vertical,vertical
1a,13,100145,3,19,147,20,F,NA,variable,heterogeneous,4,present,1.2112889289856,1,horizontal,horizontal,1,0.952933216094971,red,3,1,891.383827134052,361.936991243214,708.616172865948,838.063008756786,708.616172865948,838.063008756786,1038.06300875679,691.383827134052,891.383827134052,361.936991243214,561.936991243214,508.616172865948,0,0,0,0,3,0,4,5,NaN,NaN,vertical,horizontal,horizontal,vertical,none,none
1a,13,100145,3,20,148,20,F,NA,variable,heterogeneous,6,absent,1.16784596443176,1,vertical,vertical,1,1.01175541877747,red,3,NaN,1052.5183575291,564.510859255183,NaN,NaN,704.475318678942,836.431882914531,956.993676208043,800.942742169714,1052.5183575291,564.510859255183,895.524681321058,363.568117085469,643.006323791957,399.057257830286,547.481642470899,635.489140744817,0,3,4,0,5,6,vertical,vertical,vertical,horizontal,horizontal,vertical
1a,13,100145,3,21,149,20,F,NA,variable,heterogeneous,4,present,0.796485185623169,1,horizontal,horizontal,1,1.03528429985046,green,1,2,935.129412379467,816.252264519889,1016.25226451989,464.870587620533,935.129412379467,816.252264519889,1016.25226451989,464.870587620533,664.870587620533,383.747735480111,583.747735480111,735.129412379467,0,0,0,0,4,0,6,6,NaN,NaN,horizontal,vertical,vertical,horizontal,none,none
1a,13,100145,3,22,150,20,F,NA,variable,heterogeneous,6,present,NaN,0,vertical,none,0,0.658822202682495,red,5,2,545.970351986605,577.775285599347,1054.0296480134,622.224714400653,907.767656743878,831.108485694346,1054.0296480134,622.224714400653,946.261991269517,391.116228706307,692.232343256122,368.891514305654,545.970351986605,577.775285599347,653.738008730483,808.883771293693,5,6,6,5,4,3,vertical,vertical,horizontal,horizontal,vertical,vertical
1a,13,100145,3,23,151,20,F,NA,variable,heterogeneous,4,absent,1.62796401977539,1,horizontal,horizontal,1,0.705879964828491,red,1,NaN,970.628304621509,789.501930496736,NaN,NaN,970.628304621509,789.501930496736,989.501930496736,429.371695378491,629.371695378491,410.498069503264,610.498069503264,770.628304621509,0,0,0,0,4,5,0,3,NaN,NaN,horizontal,vertical,vertical,vertical,none,none
1a,13,100145,3,24,152,20,F,NA,variable,heterogeneous,4,absent,1.03842496871948,1,vertical,vertical,1,0.682351083755493,green,4,NaN,579.163522034968,727.5,NaN,NaN,927.5,820.836477965032,1020.83647796503,472.5,672.5,379.163522034968,579.163522034968,727.5,0,0,0,0,3,6,0,4,NaN,NaN,horizontal,vertical,horizontal,vertical,none,none
1a,13,100145,3,25,153,20,F,NA,variable,heterogeneous,6,absent,1.67794609069824,1,horizontal,horizontal,1,0.729408845901489,red,1,NaN,786.654331158049,854.650531362416,NaN,NaN,786.654331158049,854.650531362416,1013.86099482608,738.882953928832,1027.20666366803,484.232422566416,813.345668841951,345.349468637584,586.139005173917,461.117046071168,572.793336331966,715.767577433584,4,0,5,5,3,0,horizontal,horizontal,horizontal,vertical,vertical,horizontal
1a,13,100145,3,26,154,20,F,NA,variable,heterogeneous,4,present,0.800449848175049,1,horizontal,horizontal,1,0.635293321609497,red,1,3,967.295052392579,792.450942956807,632.704947607421,407.549057043193,967.295052392579,792.450942956807,992.450942956807,432.704947607421,632.704947607421,407.549057043193,607.549057043193,767.295052392579,0,0,0,0,4,6,0,5,NaN,NaN,horizontal,horizontal,horizontal,vertical,none,none
1a,13,100145,3,27,155,20,F,NA,variable,heterogeneous,4,present,1.14772200584412,1,vertical,vertical,1,0.952933216094971,green,3,2,672.5,379.163522034968,1020.83647796503,472.5,927.5,820.836477965032,1020.83647796503,472.5,672.5,379.163522034968,579.163522034968,727.5,0,0,0,0,0,3,4,5,NaN,NaN,horizontal,vertical,vertical,vertical,none,none
1a,13,100145,3,28,156,20,F,NA,variable,heterogeneous,6,present,1.20604300498962,1,horizontal,horizontal,1,0.96469765663147,red,5,6,591.116228706307,453.738008730483,568.891514305654,707.767656743878,777.775285599347,854.029648013395,1008.88377129369,746.261991269517,1031.10848569435,492.232343256122,822.224714400653,345.970351986605,591.116228706307,453.738008730483,568.891514305654,707.767656743878,5,0,6,3,4,0,horizontal,horizontal,vertical,horizontal,horizontal,vertical
1a,13,100145,3,29,157,20,F,NA,variable,heterogeneous,3,absent,0.773214101791382,1,horizontal,horizontal,1,0.741173286437988,green,2,NaN,1018.57766167904,468.665290897936,NaN,NaN,804.450363641507,854.96116226488,1018.57766167904,468.665290897936,576.971974679454,476.373546837184,0,0,0,0,0,0,5,4,6,NaN,NaN,NaN,horizontal,horizontal,horizontal,none,none,none
1a,13,100145,3,30,158,20,F,NA,variable,heterogeneous,5,absent,0.939435005187988,1,horizontal,horizontal,1,0.929404335021973,green,4,NaN,676.373546837184,376.971974679454,NaN,NaN,768.923317431687,853.099268668537,1031.10848569435,707.767656743878,973.909581815937,413.504806087112,676.373546837184,376.971974679454,549.685068220846,648.656293821019,0,0,0,3,0,4,6,NaN,horizontal,horizontal,horizontal,horizontal,horizontal,none
1a,13,100145,3,31,159,20,F,NA,variable,heterogeneous,6,absent,1.78099989891052,0,vertical,horizontal,1,0.729408845901489,red,6,NaN,552.574589799621,661.690083377915,NaN,NaN,729.712474266665,845.121732464271,977.137884467044,783.431649086356,1047.42541020038,538.309916622085,870.287525733335,354.878267535729,622.862115532956,416.568350913644,552.574589799621,661.690083377915,5,3,0,6,3,4,horizontal,horizontal,vertical,horizontal,horizontal,vertical
1a,13,100145,3,32,160,20,F,NA,variable,heterogeneous,6,absent,1.12913608551025,1,horizontal,horizontal,1,1.02351985931396,red,6,NaN,554.878267535729,670.287525733335,NaN,NaN,738.309916622085,847.425410200379,983.431649086356,777.137884467044,1045.12173246427,529.712474266665,861.690083377915,352.574589799621,616.568350913644,422.862115532956,554.878267535729,670.287525733335,3,5,6,3,6,4,vertical,vertical,vertical,horizontal,horizontal,horizontal
1a,13,100145,3,33,161,20,F,NA,variable,heterogeneous,3,present,0.924164056777954,1,vertical,vertical,1,0.6,red,3,1,556.142287229426,525.445215295702,857.362518857686,848.464366520235,857.362518857686,848.464366520235,986.495193912888,426.090418184063,556.142287229426,525.445215295702,0,0,0,0,0,0,3,0,4,NaN,NaN,NaN,vertical,horizontal,vertical,none,none,none
1a,13,100145,3,34,162,20,F,NA,variable,heterogeneous,4,absent,1.4422619342804,1,vertical,vertical,1,0.776466608047485,red,3,NaN,931.334709102064,381.422338320961,NaN,NaN,668.665290897936,818.577661679039,1018.57766167904,731.334709102064,931.334709102064,381.422338320961,581.422338320961,468.665290897936,0,0,0,0,3,3,4,6,NaN,NaN,vertical,vertical,vertical,vertical,none,none
1a,13,100145,3,35,163,20,F,NA,variable,heterogeneous,5,present,1.64830183982849,1,horizontal,horizontal,1,0.858817691802979,green,5,4,545.155339110131,591.100628340862,729.712474266665,354.878267535729,712.784863451954,839.621618300407,1000.94274216971,756.993676208043,1011.40458100154,457.40580961496,729.712474266665,354.878267535729,545.155339110131,591.100628340862,0,0,6,3,0,3,4,NaN,horizontal,vertical,horizontal,vertical,horizontal,none
1a,13,100145,3,36,164,20,F,NA,variable,heterogeneous,3,absent,1.55890798568726,1,horizontal,horizontal,1,0.670586643218994,red,1,NaN,986.495193912888,773.909581815937,NaN,NaN,986.495193912888,773.909581815937,857.362518857686,351.535633479765,556.142287229426,674.554784704298,0,0,0,0,0,0,4,3,6,NaN,NaN,NaN,horizontal,vertical,horizontal,none,none,none
1a,13,100145,3,37,165,20,F,NA,variable,heterogeneous,3,absent,1.68861985206604,0,vertical,horizontal,1,0.705879964828491,red,3,NaN,588.595418998464,457.40580961496,NaN,NaN,782.212099195248,854.378832816255,1029.19248180629,488.215357568785,588.595418998464,457.40580961496,0,0,0,0,0,0,3,6,4,NaN,NaN,NaN,vertical,vertical,vertical,none,none,none
1a,13,100145,3,38,166,20,F,NA,variable,heterogeneous,5,absent,NaN,0,vertical,none,0,0.835288810729981,red,2,NaN,1054.65053136242,613.345668841951,NaN,NaN,865.998856501143,846.311085703712,1054.65053136242,613.345668841951,891.383827134052,361.936991243214,601.827779828472,439.523300282291,586.139005173917,738.882953928832,0,0,6,4,5,5,3,NaN,horizontal,vertical,horizontal,horizontal,vertical,none
1a,13,100145,3,39,167,20,F,NA,variable,heterogeneous,4,present,0.780884981155396,1,vertical,vertical,1,0.670586643218994,red,4,2,546.900731331463,631.076682568313,1053.09926866854,568.923317431687,831.076682568313,853.099268668537,1053.09926866854,568.923317431687,768.923317431687,346.900731331463,546.900731331463,631.076682568313,0,0,0,0,3,5,6,4,NaN,NaN,horizontal,horizontal,horizontal,vertical,none,none
1a,13,100145,3,40,168,20,F,NA,variable,heterogeneous,3,present,0.831366062164307,1,horizontal,horizontal,1,0.729408845901489,green,3,2,568.891514305654,492.232343256122,1008.88377129369,453.738008730483,822.224714400653,854.029648013395,1008.88377129369,453.738008730483,568.891514305654,492.232343256122,0,0,0,0,0,0,3,5,4,NaN,NaN,NaN,vertical,horizontal,horizontal,none,none,none
1a,13,100145,3,41,169,20,F,NA,variable,heterogeneous,5,absent,0.78226900100708,1,vertical,vertical,1,0.71764440536499,green,3,NaN,1039.62161830041,512.784863451954,NaN,NaN,657.405809614959,811.404581001536,956.993676208043,800.942742169714,1039.62161830041,512.784863451954,791.100628340862,345.155339110131,554.878267535729,529.712474266665,0,0,0,0,4,6,3,NaN,horizontal,horizontal,vertical,horizontal,vertical,none
1a,13,100145,3,42,170,20,F,NA,variable,heterogeneous,6,present,NaN,0,horizontal,none,0,0.858817691802979,green,5,3,549.685068220846,551.343706178981,967.295052392579,407.549057043193,883.019879386575,841.107236777826,1050.31493177915,648.656293821019,967.295052392579,407.549057043193,716.980120613425,358.892763222174,549.685068220846,551.343706178981,632.704947607421,792.450942956807,5,3,3,6,4,5,horizontal,vertical,horizontal,vertical,horizontal,vertical
1a,13,100145,3,43,171,20,F,NA,variable,heterogeneous,5,absent,1.36076712608337,1,horizontal,horizontal,1,0.658822202682495,red,2,NaN,1053.09926866854,631.076682568313,NaN,NaN,848.656293821019,850.314931779154,1053.09926866854,631.076682568313,907.767656743878,368.891514305654,613.504806087112,426.090418184063,576.971974679454,723.626453162816,0,0,3,4,5,5,0,NaN,horizontal,horizontal,horizontal,horizontal,horizontal,none
1a,13,100145,3,44,172,20,F,NA,variable,heterogeneous,3,absent,1.63945698738098,1,horizontal,horizontal,1,0.96469765663147,red,3,NaN,657.405809614959,388.595418998464,NaN,NaN,688.215357568785,829.192481806288,1054.37883281626,582.212099195248,657.405809614959,388.595418998464,0,0,0,0,0,0,5,3,4,NaN,NaN,NaN,vertical,horizontal,horizontal,none,none,none
1a,13,100145,3,45,173,20,F,NA,variable,heterogeneous,5,present,1.74872493743896,1,horizontal,horizontal,1,0.611764440536499,red,1,3,672.5,820.836477965032,1032.95409169886,496.282156015671,672.5,820.836477965032,970.628304621509,789.501930496736,1032.95409169886,496.282156015671,773.345241866748,346.39691668109,550.57236181288,546.982518841471,0,0,4,5,3,0,6,NaN,horizontal,vertical,vertical,vertical,vertical,none
1a,13,100145,3,46,174,20,F,NA,variable,heterogeneous,3,present,0.908191919326782,1,vertical,vertical,1,1.02351985931396,red,1,3,716.980120613425,841.107236777826,632.704947607421,407.549057043193,716.980120613425,841.107236777826,1050.31493177915,551.343706178981,632.704947607421,407.549057043193,0,0,0,0,0,0,4,3,3,NaN,NaN,NaN,vertical,horizontal,vertical,none,none,none
1a,13,100145,3,47,175,20,F,NA,variable,heterogeneous,4,absent,1.53927397727966,0,vertical,horizontal,1,0.835288810729981,red,2,NaN,1029.19248180629,711.784642431215,NaN,NaN,688.215357568785,829.192481806288,1029.19248180629,711.784642431215,911.784642431215,370.807518193712,570.807518193712,488.215357568785,0,0,0,0,0,4,5,5,NaN,NaN,vertical,vertical,vertical,vertical,none,none
1a,13,100145,3,48,176,20,F,NA,variable,heterogeneous,4,present,1.15680408477783,1,vertical,vertical,1,0.729408845901489,red,1,4,907.767656743878,831.108485694346,568.891514305654,707.767656743878,907.767656743878,831.108485694346,1031.10848569435,492.232343256122,692.232343256122,368.891514305654,568.891514305654,707.767656743878,0,0,0,0,4,6,0,5,NaN,NaN,vertical,vertical,vertical,vertical,none,none
1a,13,100145,3,49,177,20,F,NA,variable,heterogeneous,5,absent,0.884140014648438,1,vertical,vertical,1,1.01175541877747,red,2,NaN,1054.96116226488,595.549636358493,NaN,NaN,883.019879386575,841.107236777826,1054.96116226488,595.549636358493,874.554784704298,356.142287229426,591.116228706307,453.738008730483,596.34794493794,753.462830903772,0,0,5,4,5,0,6,NaN,horizontal,vertical,vertical,horizontal,vertical,none
1a,13,100145,3,50,178,20,F,NA,variable,heterogeneous,5,present,1.14303088188171,1,vertical,vertical,1,1.02351985931396,red,3,1,865.998856501143,353.688914296288,891.383827134052,838.063008756786,891.383827134052,838.063008756786,1054.65053136242,586.654331158049,865.998856501143,353.688914296288,586.139005173917,461.117046071168,601.827779828472,760.476699717708,0,0,0,3,4,0,6,NaN,vertical,horizontal,vertical,vertical,vertical,none
1a,13,100145,3,51,179,20,F,NA,variable,heterogeneous,6,absent,1.29981112480164,1,horizontal,horizontal,1,0.882346572875977,green,1,NaN,725.445215295702,843.857712770574,NaN,NaN,725.445215295702,843.857712770574,973.909581815937,786.495193912888,1048.46436652023,542.637481142314,874.554784704298,356.142287229426,626.090418184063,413.504806087112,551.535633479765,657.362518857686,4,5,0,5,3,6,horizontal,vertical,vertical,horizontal,horizontal,horizontal
1a,13,100145,3,52,180,20,F,NA,variable,heterogeneous,4,absent,1.11095499992371,1,horizontal,horizontal,1,0.658822202682495,red,3,NaN,684.232422566416,372.793336331966,NaN,NaN,915.767577433584,827.206663668034,1027.20666366803,484.232422566416,684.232422566416,372.793336331966,572.793336331966,715.767577433584,0,0,0,0,6,6,4,3,NaN,NaN,horizontal,horizontal,horizontal,vertical,none,none
1a,13,100145,3,53,181,20,F,NA,variable,heterogeneous,3,present,1.10016703605652,1,vertical,vertical,1,0.941168775558472,green,2,3,949.885239334581,393.700666434388,546.39691668109,573.345241866748,903.717843984329,832.954091698863,949.885239334581,393.700666434388,546.39691668109,573.345241866748,0,0,0,0,0,0,5,4,0,NaN,NaN,NaN,vertical,vertical,horizontal,none,none,none
1a,13,100145,3,54,182,20,F,NA,variable,heterogeneous,3,present,1.37503099441528,1,vertical,vertical,1,0.635293321609497,green,3,1,548.874022981887,555.719714694933,887.215136548046,839.621618300407,887.215136548046,839.621618300407,963.910840470068,404.658667004661,548.874022981887,555.719714694933,0,0,0,0,0,0,0,3,4,NaN,NaN,NaN,vertical,vertical,vertical,none,none,none
1a,13,100145,3,55,183,20,F,NA,variable,heterogeneous,6,present,1.74399995803833,1,horizontal,horizontal,1,1.05881318092346,green,3,2,1049.42763818712,546.982518841471,970.628304621509,789.501930496736,721.200666434388,842.519411655264,970.628304621509,789.501930496736,1049.42763818712,546.982518841471,878.799333565612,357.480588344736,629.371695378491,410.498069503264,550.57236181288,653.017481158529,3,0,4,5,6,0,vertical,horizontal,horizontal,vertical,vertical,horizontal
1a,13,100145,3,56,184,20,F,NA,variable,heterogeneous,5,present,1.76672911643982,1,vertical,vertical,1,0.976462097167969,red,1,2,895.524681321058,836.431882914531,1054.37883281626,582.212099195248,895.524681321058,836.431882914531,1054.37883281626,582.212099195248,861.690083377915,352.574589799621,583.747735480111,464.870587620533,604.658667004661,763.910840470068,0,0,4,0,0,6,3,NaN,vertical,horizontal,horizontal,vertical,horizontal,none
1a,13,100145,3,57,185,20,F,NA,variable,heterogeneous,3,absent,1.91826200485229,1,horizontal,horizontal,1,0.6,green,2,NaN,1054.37883281626,617.787900804752,NaN,NaN,657.405809614959,811.404581001536,1054.37883281626,617.787900804752,688.215357568785,370.807518193712,0,0,0,0,0,0,3,4,3,NaN,NaN,NaN,vertical,horizontal,vertical,none,none,none
1a,13,100145,3,58,186,20,F,NA,variable,heterogeneous,6,absent,1.82184815406799,1,horizontal,horizontal,1,1.04704874038696,green,2,NaN,1016.25226451989,735.129412379467,NaN,NaN,791.100628340862,854.844660889869,1016.25226451989,735.129412379467,1025.15163617903,480.284751489598,808.899371659138,345.155339110131,583.747735480111,464.870587620533,574.848363820974,719.715248510402,6,4,3,0,0,5,vertical,horizontal,horizontal,vertical,horizontal,horizontal
1a,13,100145,3,59,187,20,F,NA,variable,heterogeneous,5,present,1.83552384376526,1,horizontal,horizontal,1,0.658822202682495,red,5,1,570.807518193712,711.784642431215,835.489140744817,852.518357529101,835.489140744817,852.518357529101,1051.12597701811,644.280285305067,919.715248510402,374.848363820974,622.862115532956,416.568350913644,570.807518193712,711.784642431215,0,0,6,5,3,0,4,NaN,horizontal,horizontal,vertical,vertical,horizontal,none
1a,13,100145,3,60,188,20,F,NA,variable,heterogeneous,6,present,NaN,0,vertical,none,0,1.09410650253296,green,4,2,746.982518841471,350.57236181288,1042.51941165526,678.799333565612,853.017481158529,849.42763818712,1042.51941165526,678.799333565612,989.501930496736,429.371695378491,746.982518841471,350.57236181288,557.480588344736,521.200666434388,610.498069503264,770.628304621509,6,5,0,4,3,5,vertical,vertical,horizontal,vertical,horizontal,horizontal
1a,13,100145,3,61,189,20,F,NA,variable,heterogeneous,5,absent,NaN,0,horizontal,none,0,0.729408845901489,green,3,NaN,857.362518857686,351.535633479765,NaN,NaN,899.636437764765,834.728737630372,1054.0296480134,577.775285599347,857.362518857686,351.535633479765,581.422338320961,468.665290897936,607.549057043193,767.295052392579,0,0,6,0,4,5,5,NaN,horizontal,vertical,horizontal,horizontal,vertical,none
1a,13,100145,3,62,190,20,F,NA,variable,heterogeneous,3,absent,1.56634092330933,1,vertical,vertical,1,1.02351985931396,green,1,NaN,700.363562235235,834.728737630372,NaN,NaN,700.363562235235,834.728737630372,1053.09926866854,568.923317431687,646.537169096228,396.34794493794,0,0,0,0,0,0,4,3,0,NaN,NaN,NaN,vertical,vertical,horizontal,none,none,none
1a,13,100145,3,63,191,20,F,NA,variable,heterogeneous,4,absent,0.824563026428223,1,vertical,vertical,1,0.941168775558472,green,3,NaN,782.212099195248,345.621167183745,NaN,NaN,817.787900804752,854.378832816255,1054.37883281626,582.212099195248,782.212099195248,345.621167183745,545.621167183745,617.787900804752,0,0,0,0,0,6,4,6,NaN,NaN,horizontal,vertical,vertical,horizontal,none,none
1a,13,100145,3,64,192,20,F,NA,variable,heterogeneous,5,absent,0.659432172775269,1,horizontal,horizontal,1,0.705879964828491,red,4,NaN,629.371695378491,410.498069503264,NaN,NaN,826.654758133252,853.60308331891,1049.42763818712,653.017481158529,927.5,379.163522034968,629.371695378491,410.498069503264,567.045908301137,703.717843984329,0,0,3,6,0,4,5,NaN,vertical,horizontal,horizontal,horizontal,horizontal,none
1a,13,100145,4,1,193,20,F,NA,variable,heterogeneous,3,absent,0.848745822906494,1,vertical,vertical,1,0.788231048583984,red,2,NaN,915.767577433584,372.793336331966,NaN,NaN,938.882953928832,813.860994826083,915.767577433584,372.793336331966,545.349468637584,613.345668841951,0,0,0,0,0,0,5,4,0,NaN,NaN,NaN,vertical,vertical,vertical,none,none,none
1a,13,100145,4,2,194,20,F,NA,variable,heterogeneous,6,present,NaN,0,horizontal,none,0,1.05881318092346,red,6,5,604.658667004661,763.910840470068,560.378381699593,512.784863451954,844.280285305067,851.125977018113,1039.62161830041,687.215136548046,995.341332995339,436.089159529932,755.719714694933,348.874022981887,560.378381699593,512.784863451954,604.658667004661,763.910840470068,3,6,5,6,0,4,horizontal,horizontal,horizontal,vertical,horizontal,horizontal
1a,13,100145,4,3,195,20,F,NA,variable,heterogeneous,3,absent,1.10277795791626,1,vertical,vertical,1,0.952933216094971,red,1,NaN,725.445215295702,843.857712770574,NaN,NaN,725.445215295702,843.857712770574,1048.46436652023,542.637481142314,626.090418184063,413.504806087112,0,0,0,0,0,0,4,3,0,NaN,NaN,NaN,vertical,vertical,horizontal,none,none,none
1a,13,100145,4,4,196,20,F,NA,variable,heterogeneous,4,absent,1.15691113471985,1,vertical,vertical,1,0.999990978240967,red,4,NaN,581.422338320961,468.665290897936,NaN,NaN,668.665290897936,818.577661679039,1018.57766167904,731.334709102064,931.334709102064,381.422338320961,581.422338320961,468.665290897936,0,0,0,0,3,5,5,4,NaN,NaN,vertical,horizontal,horizontal,vertical,none,none
1a,13,100145,4,5,197,20,F,NA,variable,heterogeneous,4,absent,0.973985910415649,1,vertical,vertical,1,1.08234206199646,red,2,NaN,1042.51941165526,521.200666434388,NaN,NaN,878.799333565612,842.519411655264,1042.51941165526,521.200666434388,721.200666434388,357.480588344736,557.480588344736,678.799333565612,0,0,0,0,3,4,3,6,NaN,NaN,vertical,vertical,vertical,vertical,none,none
1a,13,100145,4,6,198,20,F,NA,variable,heterogeneous,5,present,0.611202955245972,1,vertical,vertical,1,1.08234206199646,green,3,1,1039.62161830041,512.784863451954,657.405809614959,811.404581001536,657.405809614959,811.404581001536,956.993676208043,800.942742169714,1039.62161830041,512.784863451954,791.100628340862,345.155339110131,554.878267535729,529.712474266665,0,0,3,0,4,0,5,NaN,vertical,vertical,vertical,vertical,horizontal,none
1a,13,100145,4,7,199,20,F,NA,variable,heterogeneous,5,absent,0.685925960540771,1,vertical,vertical,1,0.917639894485474,red,4,NaN,684.232422566416,372.793336331966,NaN,NaN,760.109211414741,851.86052685176,1027.20666366803,715.767577433584,980.31222920257,419.68777079743,684.232422566416,372.793336331966,548.13947314824,639.890788585259,0,0,0,6,6,4,0,NaN,vertical,vertical,vertical,vertical,horizontal,none
1a,13,100145,4,8,200,20,F,NA,variable,heterogeneous,6,present,1.76790690422058,1,vertical,vertical,1,0.799995489120483,red,1,4,848.656293821019,850.314931779154,751.343706178981,349.685068220846,848.656293821019,850.314931779154,1041.10723677783,683.019879386575,992.450942956807,432.704947607421,751.343706178981,349.685068220846,558.892763222174,516.980120613425,607.549057043193,767.295052392579,4,6,0,5,6,3,vertical,horizontal,horizontal,vertical,vertical,horizontal
1a,13,100145,4,9,201,20,F,NA,variable,heterogeneous,3,present,0.726969957351685,1,vertical,vertical,1,0.976462097167969,red,3,1,581.422338320961,468.665290897936,795.549636358493,854.96116226488,795.549636358493,854.96116226488,1023.02802532055,476.373546837184,581.422338320961,468.665290897936,0,0,0,0,0,0,5,3,4,NaN,NaN,NaN,vertical,vertical,vertical,none,none,none
1a,13,100145,4,10,202,20,F,NA,variable,heterogeneous,6,absent,0.940222978591919,1,vertical,vertical,1,0.929404335021973,red,1,NaN,725.445215295702,843.857712770574,NaN,NaN,725.445215295702,843.857712770574,973.909581815937,786.495193912888,1048.46436652023,542.637481142314,874.554784704298,356.142287229426,626.090418184063,413.504806087112,551.535633479765,657.362518857686,4,3,0,5,6,0,vertical,vertical,horizontal,horizontal,horizontal,vertical
1a,13,100145,4,11,203,20,F,NA,variable,heterogeneous,6,present,0.844300031661987,1,vertical,vertical,1,1.04704874038696,red,6,5,629.371695378491,789.501930496736,550.57236181288,546.982518841471,878.799333565612,842.519411655264,1049.42763818712,653.017481158529,970.628304621509,410.498069503264,721.200666434388,357.480588344736,550.57236181288,546.982518841471,629.371695378491,789.501930496736,3,0,5,3,6,4,vertical,vertical,vertical,horizontal,vertical,vertical
1a,13,100145,4,12,204,20,F,NA,variable,heterogeneous,6,absent,1.06644296646118,1,horizontal,horizontal,1,0.658822202682495,red,1,NaN,742.637481142314,848.464366520235,NaN,NaN,742.637481142314,848.464366520235,986.495193912888,773.909581815937,1043.85771277057,525.445215295702,857.362518857686,351.535633479765,613.504806087112,426.090418184063,556.142287229426,674.554784704298,4,0,5,3,6,3,horizontal,vertical,vertical,vertical,horizontal,horizontal
1a,13,100145,4,13,205,20,F,NA,variable,heterogeneous,3,absent,0.689552068710327,1,vertical,vertical,1,0.682351083755493,green,2,NaN,1006.29933356561,450.114760665419,NaN,NaN,826.654758133252,853.60308331891,1006.29933356561,450.114760665419,567.045908301137,496.282156015671,0,0,0,0,0,0,0,4,5,NaN,NaN,NaN,vertical,vertical,horizontal,none,none,none
1a,13,100145,4,14,206,20,F,NA,variable,heterogeneous,6,absent,1.70227098464966,1,vertical,vertical,1,0.741173286437988,green,2,NaN,946.261991269517,808.883771293693,NaN,NaN,692.232343256122,831.108485694346,946.261991269517,808.883771293693,1054.0296480134,577.775285599347,907.767656743878,368.891514305654,653.738008730483,391.116228706307,545.970351986605,622.224714400653,3,4,0,5,6,6,horizontal,vertical,horizontal,horizontal,vertical,vertical
1a,13,100145,4,15,207,20,F,NA,variable,heterogeneous,5,absent,1.75938701629639,0,horizontal,vertical,1,0.941168775558472,red,5,NaN,554.878267535729,670.287525733335,NaN,NaN,791.100628340862,854.844660889869,1039.62161830041,687.215136548046,956.993676208043,399.057257830286,657.405809614959,388.595418998464,554.878267535729,670.287525733335,0,0,6,0,3,5,4,NaN,vertical,horizontal,vertical,vertical,horizontal,none
1a,13,100145,4,16,208,20,F,NA,variable,heterogeneous,5,absent,NaN,0,vertical,none,0,1.04704874038696,red,2,NaN,1013.86099482608,738.882953928832,NaN,NaN,734.001143498857,846.311085703712,1013.86099482608,738.882953928832,998.172220171528,439.523300282291,708.616172865948,361.936991243214,545.349468637584,613.345668841951,0,0,5,4,6,5,6,NaN,vertical,vertical,horizontal,vertical,horizontal,none
1a,13,100145,4,17,209,20,F,NA,variable,heterogeneous,6,absent,NaN,0,horizontal,none,0,0.952933216094971,green,3,NaN,986.495193912888,426.090418184063,NaN,NaN,857.362518857686,848.464366520235,1043.85771277057,674.554784704298,986.495193912888,426.090418184063,742.637481142314,351.535633479765,556.142287229426,525.445215295702,613.504806087112,773.909581815937,3,5,4,6,0,3,vertical,vertical,horizontal,horizontal,horizontal,horizontal
1a,13,100145,4,18,210,20,F,NA,variable,heterogeneous,5,present,1.56165814399719,0,horizontal,vertical,1,0.905875453948975,red,4,2,639.523300282292,401.827779828472,1046.31108570371,665.998856501143,813.345668841951,854.650531362416,1046.31108570371,665.998856501143,938.882953928832,386.139005173917,639.523300282292,401.827779828472,561.936991243214,691.383827134052,0,0,0,6,5,4,0,NaN,horizontal,horizontal,horizontal,horizontal,horizontal,none
1a,13,100145,4,19,211,20,F,NA,variable,heterogeneous,3,absent,1.81270909309387,1,vertical,vertical,1,0.6,green,2,NaN,942.594190385041,388.595418998464,NaN,NaN,911.784642431215,829.192481806288,942.594190385041,388.595418998464,545.621167183745,582.212099195248,0,0,0,0,0,0,5,4,0,NaN,NaN,NaN,vertical,vertical,horizontal,none,none,none
1a,13,100145,4,20,212,20,F,NA,variable,heterogeneous,4,present,0.814851045608521,1,vertical,vertical,1,0.870582132339478,red,2,1,989.501930496736,429.371695378491,970.628304621509,789.501930496736,970.628304621509,789.501930496736,989.501930496736,429.371695378491,629.371695378491,410.498069503264,610.498069503264,770.628304621509,0,0,0,0,5,4,0,6,NaN,NaN,horizontal,vertical,horizontal,horizontal,none,none
1a,13,100145,4,21,213,20,F,NA,variable,heterogeneous,6,present,NaN,0,horizontal,none,0,0.999990978240967,red,3,1,1051.12597701811,555.719714694933,712.784863451954,839.621618300407,712.784863451954,839.621618300407,963.910840470068,795.341332995339,1051.12597701811,555.719714694933,887.215136548046,360.378381699593,636.089159529932,404.658667004661,548.874022981887,644.280285305067,0,5,4,5,0,6,vertical,horizontal,horizontal,horizontal,horizontal,vertical
1a,13,100145,4,22,214,20,F,NA,variable,heterogeneous,3,present,1.98334312438965,1,horizontal,horizontal,1,1.01175541877747,green,3,2,708.616172865948,361.936991243214,1051.86052685176,639.890788585259,639.523300282292,798.172220171528,1051.86052685176,639.890788585259,708.616172865948,361.936991243214,0,0,0,0,0,0,5,5,4,NaN,NaN,NaN,vertical,vertical,horizontal,none,none,none
1a,13,100145,4,23,215,20,F,NA,variable,heterogeneous,4,present,1.56163096427917,1,vertical,vertical,1,0.705879964828491,green,2,1,1042.51941165526,521.200666434388,878.799333565612,842.519411655264,878.799333565612,842.519411655264,1042.51941165526,521.200666434388,721.200666434388,357.480588344736,557.480588344736,678.799333565612,0,0,0,0,3,4,5,3,NaN,NaN,vertical,vertical,horizontal,horizontal,none,none
1a,13,100145,4,24,216,20,F,NA,variable,heterogeneous,5,present,1.93633484840393,1,vertical,vertical,1,0.764702167510986,red,1,4,891.383827134052,838.063008756786,586.139005173917,461.117046071168,891.383827134052,838.063008756786,1054.65053136242,586.654331158049,865.998856501143,353.688914296288,586.139005173917,461.117046071168,601.827779828472,760.476699717708,0,0,4,3,5,5,3,NaN,vertical,vertical,vertical,vertical,vertical,none
1a,13,100145,4,25,217,20,F,NA,variable,heterogeneous,3,present,1.80197501182556,0,horizontal,vertical,1,0.929404335021973,red,2,3,1054.96116226488,604.450363641507,676.373546837184,376.971974679454,668.665290897936,818.577661679039,1054.96116226488,604.450363641507,676.373546837184,376.971974679454,0,0,0,0,0,0,3,4,0,NaN,NaN,NaN,vertical,horizontal,horizontal,none,none,none
1a,13,100145,4,26,218,20,F,NA,variable,heterogeneous,5,present,1.27611494064331,1,vertical,vertical,1,1.08234206199646,red,1,4,791.100628340862,854.844660889869,657.405809614959,388.595418998464,791.100628340862,854.844660889869,1039.62161830041,687.215136548046,956.993676208043,399.057257830286,657.405809614959,388.595418998464,554.878267535729,670.287525733335,0,0,4,0,6,0,6,NaN,vertical,vertical,horizontal,vertical,vertical,none
1a,13,100145,4,27,219,20,F,NA,variable,heterogeneous,5,absent,1.80150604248047,1,vertical,vertical,1,0.799995489120483,green,4,NaN,588.595418998464,457.40580961496,NaN,NaN,887.215136548046,839.621618300407,1054.84466088987,591.100628340862,870.287525733335,354.878267535729,588.595418998464,457.40580961496,599.057257830286,756.993676208043,0,0,0,3,5,4,5,NaN,horizontal,vertical,horizontal,vertical,horizontal,none
1a,13,100145,4,28,220,20,F,NA,variable,heterogeneous,3,present,1.32817196846008,1,horizontal,horizontal,1,0.917639894485474,red,2,3,857.362518857686,351.535633479765,556.142287229426,674.554784704298,986.495193912888,773.909581815937,857.362518857686,351.535633479765,556.142287229426,674.554784704298,0,0,0,0,0,0,0,4,3,NaN,NaN,NaN,vertical,horizontal,horizontal,none,none,none
1a,13,100145,4,29,221,20,F,NA,variable,heterogeneous,6,present,NaN,0,horizontal,none,0,0.658822202682495,green,6,1,545.970351986605,622.224714400653,692.232343256122,831.108485694346,692.232343256122,831.108485694346,946.261991269517,808.883771293693,1054.0296480134,577.775285599347,907.767656743878,368.891514305654,653.738008730483,391.116228706307,545.970351986605,622.224714400653,3,3,6,0,6,4,horizontal,vertical,vertical,horizontal,horizontal,horizontal
1a,13,100145,4,30,222,20,F,NA,variable,heterogeneous,6,present,1.6244580745697,1,vertical,vertical,1,0.988226537704468,green,2,4,1018.57766167904,731.334709102064,804.450363641507,345.03883773512,795.549636358493,854.96116226488,1018.57766167904,731.334709102064,1023.02802532055,476.373546837184,804.450363641507,345.03883773512,581.422338320961,468.665290897936,576.971974679454,723.626453162816,0,4,5,6,6,3,horizontal,vertical,vertical,horizontal,horizontal,horizontal
1a,13,100145,4,31,223,20,F,NA,variable,heterogeneous,6,absent,0.93582010269165,1,horizontal,horizontal,1,0.941168775558472,red,4,NaN,870.287525733335,354.878267535729,NaN,NaN,729.712474266665,845.121732464271,977.137884467044,783.431649086356,1047.42541020038,538.309916622085,870.287525733335,354.878267535729,622.862115532956,416.568350913644,552.574589799621,661.690083377915,0,6,0,4,5,6,vertical,horizontal,vertical,horizontal,vertical,horizontal
1a,13,100145,4,32,224,20,F,NA,variable,heterogeneous,5,present,0.83476996421814,1,vertical,vertical,1,0.999990978240967,green,3,4,804.450363641507,345.03883773512,558.892763222174,516.980120613425,946.261991269517,808.883771293693,1043.85771277057,525.445215295702,804.450363641507,345.03883773512,558.892763222174,516.980120613425,646.537169096228,803.65205506206,0,0,5,5,4,6,0,NaN,horizontal,vertical,vertical,vertical,vertical,none
1a,13,100145,4,33,225,20,F,NA,variable,heterogeneous,4,absent,1.13125109672546,1,vertical,vertical,1,0.776466608047485,green,3,NaN,622.862115532956,416.568350913644,NaN,NaN,977.137884467044,783.431649086356,983.431649086356,422.862115532956,622.862115532956,416.568350913644,616.568350913644,777.137884467044,0,0,0,0,3,5,4,3,NaN,NaN,vertical,horizontal,vertical,vertical,none,none
1a,13,100145,4,34,226,20,F,NA,variable,heterogeneous,4,present,1.63334894180298,1,vertical,vertical,1,0.96469765663147,red,1,3,967.295052392579,792.450942956807,632.704947607421,407.549057043193,967.295052392579,792.450942956807,992.450942956807,432.704947607421,632.704947607421,407.549057043193,607.549057043193,767.295052392579,0,0,0,0,4,6,5,0,NaN,NaN,vertical,vertical,vertical,horizontal,none,none
1a,13,100145,4,35,227,20,F,NA,variable,heterogeneous,4,present,1.06736612319946,1,horizontal,horizontal,1,0.658822202682495,green,2,4,1027.20666366803,484.232422566416,572.793336331966,715.767577433584,915.767577433584,827.206663668034,1027.20666366803,484.232422566416,684.232422566416,372.793336331966,572.793336331966,715.767577433584,0,0,0,0,6,4,3,0,NaN,NaN,vertical,horizontal,vertical,vertical,none,none
1a,13,100145,4,36,228,20,F,NA,variable,heterogeneous,3,absent,0.729942083358765,1,horizontal,horizontal,1,1.05881318092346,red,2,NaN,1013.86099482608,461.117046071168,NaN,NaN,813.345668841951,854.650531362416,1013.86099482608,461.117046071168,572.793336331966,484.232422566416,0,0,0,0,0,0,3,4,3,NaN,NaN,NaN,horizontal,horizontal,horizontal,none,none,none
1a,13,100145,4,37,229,20,F,NA,variable,heterogeneous,6,present,0.862453937530518,1,vertical,vertical,1,0.870582132339478,green,5,3,664.870587620533,383.747735480111,1054.84466088987,591.100628340862,680.284751489598,825.151636179026,935.129412379467,816.252264519889,1054.84466088987,591.100628340862,919.715248510402,374.848363820974,664.870587620533,383.747735480111,545.155339110131,608.899371659138,6,5,5,0,4,3,vertical,horizontal,horizontal,vertical,vertical,vertical
1a,13,100145,4,38,230,20,F,NA,variable,heterogeneous,3,absent,1.12391781806946,1,horizontal,horizontal,1,0.611764440536499,green,3,NaN,616.568350913644,422.862115532956,NaN,NaN,738.309916622085,847.425410200379,1045.12173246427,529.712474266665,616.568350913644,422.862115532956,0,0,0,0,0,0,0,5,4,NaN,NaN,NaN,horizontal,horizontal,horizontal,none,none,none
1a,13,100145,4,39,231,20,F,NA,variable,heterogeneous,3,present,0.807801961898804,1,vertical,vertical,1,1.05881318092346,green,1,2,870.287525733335,845.121732464271,977.137884467044,416.568350913644,870.287525733335,845.121732464271,977.137884467044,416.568350913644,552.574589799621,538.309916622085,0,0,0,0,0,0,4,5,0,NaN,NaN,NaN,vertical,horizontal,horizontal,none,none,none
1a,13,100145,4,40,232,20,F,NA,variable,heterogeneous,4,present,1.23695111274719,1,horizontal,horizontal,1,0.647057762145996,green,3,1,963.910840470068,404.658667004661,636.089159529932,795.341332995339,636.089159529932,795.341332995339,995.341332995339,763.910840470068,963.910840470068,404.658667004661,604.658667004661,436.089159529932,0,0,0,0,6,0,4,3,NaN,NaN,horizontal,horizontal,horizontal,horizontal,none,none
1a,13,100145,4,41,233,20,F,NA,variable,heterogeneous,5,present,1.41444492340088,1,horizontal,horizontal,1,0.623528881072998,red,5,1,632.704947607421,792.450942956807,931.334709102064,818.577661679039,931.334709102064,818.577661679039,1048.46436652023,542.637481142314,822.224714400653,345.970351986605,565.271262369628,500.363562235235,632.704947607421,792.450942956807,0,0,3,6,3,6,4,NaN,vertical,horizontal,horizontal,vertical,horizontal,none
1a,13,100145,4,42,234,20,F,NA,variable,heterogeneous,5,absent,0.932423114776611,1,horizontal,horizontal,1,0.658822202682495,green,3,NaN,923.626453162816,376.971974679454,NaN,NaN,831.076682568313,853.099268668537,1050.31493177915,648.656293821019,923.626453162816,376.971974679454,626.090418184063,413.504806087112,568.891514305654,707.767656743878,0,0,6,0,4,3,3,NaN,vertical,vertical,horizontal,vertical,horizontal,none
1a,13,100145,4,43,235,20,F,NA,variable,heterogeneous,4,absent,1.04414916038513,1,horizontal,horizontal,1,0.658822202682495,green,4,NaN,574.848363820974,719.715248510402,NaN,NaN,919.715248510402,825.151636179026,1025.15163617903,480.284751489598,680.284751489598,374.848363820974,574.848363820974,719.715248510402,0,0,0,0,6,5,0,4,NaN,NaN,horizontal,horizontal,vertical,horizontal,none,none
1a,13,100145,4,44,236,20,F,NA,variable,heterogeneous,4,absent,0.766100168228149,1,horizontal,horizontal,1,0.847053251266479,green,3,NaN,927.5,379.163522034968,NaN,NaN,672.5,820.836477965032,1020.83647796503,727.5,927.5,379.163522034968,579.163522034968,472.5,0,0,0,0,6,5,4,5,NaN,NaN,horizontal,vertical,horizontal,horizontal,none,none
1a,13,100145,4,45,237,20,F,NA,variable,heterogeneous,3,present,0.926589965820312,1,horizontal,horizontal,1,0.647057762145996,green,2,3,1031.10848569435,492.232343256122,591.116228706307,453.738008730483,777.775285599347,854.029648013395,1031.10848569435,492.232343256122,591.116228706307,453.738008730483,0,0,0,0,0,0,0,4,5,NaN,NaN,NaN,vertical,horizontal,horizontal,none,none,none
1a,13,100145,4,46,238,20,F,NA,variable,heterogeneous,5,absent,0.824564933776855,1,horizontal,horizontal,1,0.96469765663147,red,5,NaN,546.900731331463,631.076682568313,NaN,NaN,751.343706178981,850.314931779154,1023.02802532055,723.626453162816,986.495193912888,426.090418184063,692.232343256122,368.891514305654,546.900731331463,631.076682568313,0,0,0,0,5,6,4,NaN,horizontal,vertical,horizontal,horizontal,horizontal,none
1a,13,100145,4,47,239,20,F,NA,variable,heterogeneous,3,present,0.837285041809082,1,vertical,vertical,1,0.799995489120483,green,2,1,800,345,1020.83647796503,727.5,1020.83647796503,727.5,800,345,579.163522034968,727.5,0,0,0,0,0,0,5,4,3,NaN,NaN,NaN,vertical,vertical,vertical,none,none,none
1a,13,100145,4,48,240,20,F,NA,variable,heterogeneous,3,absent,0.930877208709717,1,horizontal,horizontal,1,0.835288810729981,green,1,NaN,700.363562235235,834.728737630372,NaN,NaN,700.363562235235,834.728737630372,1053.09926866854,568.923317431687,646.537169096228,396.34794493794,0,0,0,0,0,0,4,5,0,NaN,NaN,NaN,horizontal,horizontal,vertical,none,none,none
1a,13,100145,4,49,241,20,F,NA,variable,heterogeneous,4,absent,1.04963994026184,1,vertical,vertical,1,0.988226537704468,green,2,NaN,1034.72873763037,699.636437764765,NaN,NaN,700.363562235235,834.728737630372,1034.72873763037,699.636437764765,899.636437764765,365.271262369628,565.271262369628,500.363562235235,0,0,0,0,6,4,5,0,NaN,NaN,vertical,vertical,horizontal,horizontal,none,none
1a,13,100145,4,50,242,20,F,NA,variable,heterogeneous,3,absent,0.915576934814453,1,horizontal,horizontal,1,0.835288810729981,red,3,NaN,549.685068220846,551.343706178981,NaN,NaN,883.019879386575,841.107236777826,967.295052392579,407.549057043193,549.685068220846,551.343706178981,0,0,0,0,0,0,3,0,4,NaN,NaN,NaN,vertical,vertical,horizontal,none,none,none
1a,13,100145,4,51,243,20,F,NA,variable,heterogeneous,5,present,1.2845311164856,1,horizontal,horizontal,1,0.729408845901489,green,5,2,560.378381699593,687.215136548046,1045.12173246427,670.287525733335,808.899371659138,854.844660889869,1045.12173246427,670.287525733335,942.594190385041,388.595418998464,643.006323791957,399.057257830286,560.378381699593,687.215136548046,0,0,6,3,3,6,4,NaN,vertical,vertical,vertical,horizontal,horizontal,none
1a,13,100145,4,52,244,20,F,NA,variable,heterogeneous,6,absent,NaN,0,vertical,none,0,0.952933216094971,red,2,NaN,953.462830903772,803.65205506206,NaN,NaN,700.363562235235,834.728737630372,953.462830903772,803.65205506206,1053.09926866854,568.923317431687,899.636437764765,365.271262369628,646.537169096228,396.34794493794,546.900731331463,631.076682568313,3,4,0,0,3,5,vertical,vertical,horizontal,vertical,vertical,horizontal
