experiment,subject,uniqueID,block,trial,trial_cumulative,age,gender,color_cond_blocking,color_history,shape_type,set_size,distractor,rt,acc,target_orient,response_key,response_made,iti,target_color,target_item,distractor_item,target_X,target_Y,distractor_X,distractor_Y,item1_X,item1_Y,item2_X,item2_Y,item3_X,item3_Y,item4_X,item4_Y,item5_X,item5_Y,item6_X,item6_Y,item1_shape,item2_shape,item3_shape,item4_shape,item5_shape,item6_shape,item1_line,item2_line,item3_line,item4_line,item5_line,item6_line
1a,14,100154,1,1,1,18,M,NA,variable,heterogeneous,3,absent,NaN,0,horizontal,none,0,0.717579412460327,red,1,NaN,786.654331158049,854.650531362416,NaN,NaN,786.654331158049,854.650531362416,1027.20666366803,484.232422566416,586.139005173917,461.117046071168,0,0,0,0,0,0,4,5,0,NaN,NaN,NaN,horizontal,vertical,vertical,none,none,none
1a,14,100154,1,2,2,18,M,NA,variable,heterogeneous,5,present,1.63750696182251,1,horizontal,horizontal,1,1.02328588485718,green,4,2,561.936991243214,508.616172865948,1046.31108570371,534.001143498857,938.882953928832,813.860994826083,1046.31108570371,534.001143498857,813.345668841951,345.349468637584,561.936991243214,508.616172865948,639.523300282292,798.172220171528,0,0,6,3,0,4,3,NaN,horizontal,horizontal,horizontal,horizontal,horizontal,none
1a,14,100154,1,3,3,18,M,NA,variable,heterogeneous,3,absent,1.42352294921875,1,horizontal,horizontal,1,1.04680176734924,red,1,NaN,716.980120613425,841.107236777826,NaN,NaN,716.980120613425,841.107236777826,1050.31493177915,551.343706178981,632.704947607421,407.549057043193,0,0,0,0,0,0,4,0,5,NaN,NaN,NaN,horizontal,vertical,horizontal,none,none,none
1a,14,100154,1,4,4,18,M,NA,variable,heterogeneous,4,present,NaN,0,vertical,none,0,0.999770002365112,red,4,3,546.39691668109,573.345241866748,826.654758133252,346.39691668109,773.345241866748,853.60308331891,1053.60308331891,626.654758133252,826.654758133252,346.39691668109,546.39691668109,573.345241866748,0,0,0,0,6,5,5,4,NaN,NaN,vertical,vertical,vertical,vertical,none,none
1a,14,100154,1,5,5,18,M,NA,variable,heterogeneous,5,absent,1.91072106361389,1,horizontal,horizontal,1,0.905706472396851,green,2,NaN,963.910840470068,795.341332995339,NaN,NaN,664.870587620533,816.252264519889,963.910840470068,795.341332995339,1036.43188291453,504.475318678942,782.212099195248,345.621167183745,552.574589799621,538.309916622085,0,0,6,4,0,0,3,NaN,vertical,horizontal,horizontal,horizontal,horizontal,none
1a,14,100154,1,6,6,18,M,NA,variable,heterogeneous,4,absent,1.23299884796143,1,horizontal,horizontal,1,0.999770002365112,green,3,NaN,661.117046071168,386.139005173917,NaN,NaN,938.882953928832,813.860994826083,1013.86099482608,461.117046071168,661.117046071168,386.139005173917,586.139005173917,738.882953928832,0,0,0,0,0,3,4,0,NaN,NaN,vertical,vertical,horizontal,vertical,none,none
1a,14,100154,1,7,7,18,M,NA,variable,heterogeneous,4,present,1.88787794113159,1,vertical,vertical,1,0.893948531150818,green,3,1,738.309916622085,352.574589799621,861.690083377915,847.425410200379,861.690083377915,847.425410200379,1047.42541020038,538.309916622085,738.309916622085,352.574589799621,552.574589799621,661.690083377915,0,0,0,0,6,3,4,5,NaN,NaN,horizontal,horizontal,vertical,horizontal,none,none
1a,14,100154,1,8,8,18,M,NA,variable,heterogeneous,3,absent,1.09121179580688,1,vertical,vertical,1,1.09383353233337,red,2,NaN,1054.96116226488,604.450363641507,NaN,NaN,668.665290897936,818.577661679039,1054.96116226488,604.450363641507,676.373546837184,376.971974679454,0,0,0,0,0,0,5,4,6,NaN,NaN,NaN,horizontal,vertical,vertical,none,none,none
1a,14,100154,1,9,9,18,M,NA,variable,heterogeneous,5,present,1.82644510269165,1,vertical,vertical,1,0.85867470741272,green,1,5,835.489140744817,852.518357529101,570.807518193712,711.784642431215,835.489140744817,852.518357529101,1051.12597701811,644.280285305067,919.715248510402,374.848363820974,622.862115532956,416.568350913644,570.807518193712,711.784642431215,0,0,4,0,6,0,3,NaN,vertical,vertical,vertical,vertical,horizontal,none
1a,14,100154,1,10,10,18,M,NA,variable,heterogeneous,5,present,NaN,0,horizontal,none,0,0.846916766166687,red,1,3,923.626453162816,823.028025320546,831.076682568313,346.900731331463,923.626453162816,823.028025320546,1050.31493177915,551.343706178981,831.076682568313,346.900731331463,568.891514305654,492.232343256122,626.090418184063,786.495193912888,0,0,4,5,0,3,3,NaN,horizontal,vertical,horizontal,horizontal,vertical,none
1a,14,100154,1,11,11,18,M,NA,variable,heterogeneous,3,absent,1.10831594467163,1,vertical,vertical,1,0.999770002365112,red,2,NaN,1051.12597701811,555.719714694933,NaN,NaN,712.784863451954,839.621618300407,1051.12597701811,555.719714694933,636.089159529932,404.658667004661,0,0,0,0,0,0,3,4,0,NaN,NaN,NaN,horizontal,vertical,horizontal,none,none,none
1a,14,100154,1,12,12,18,M,NA,variable,heterogeneous,6,present,NaN,0,horizontal,none,0,0.976254119873047,green,4,5,791.100628340862,345.155339110131,574.848363820974,480.284751489598,808.899371659138,854.844660889869,1025.15163617903,719.715248510402,1016.25226451989,464.870587620533,791.100628340862,345.155339110131,574.848363820974,480.284751489598,583.747735480111,735.129412379467,3,6,3,4,6,5,horizontal,vertical,horizontal,horizontal,horizontal,vertical
1a,14,100154,1,13,13,18,M,NA,variable,heterogeneous,5,absent,1.30682110786438,1,vertical,vertical,1,1.02328588485718,green,2,NaN,963.910840470068,795.341332995339,NaN,NaN,664.870587620533,816.252264519889,963.910840470068,795.341332995339,1036.43188291453,504.475318678942,782.212099195248,345.621167183745,552.574589799621,538.309916622085,0,0,6,4,6,0,0,NaN,horizontal,vertical,horizontal,horizontal,vertical,none
1a,14,100154,1,14,14,18,M,NA,variable,heterogeneous,5,present,1.40301704406738,1,vertical,vertical,1,1.08207559108734,red,4,2,622.862115532956,416.568350913644,1051.12597701811,644.280285305067,835.489140744817,852.518357529101,1051.12597701811,644.280285305067,919.715248510402,374.848363820974,622.862115532956,416.568350913644,570.807518193712,711.784642431215,0,0,0,3,6,4,5,NaN,vertical,horizontal,vertical,vertical,horizontal,none
1a,14,100154,1,15,15,18,M,NA,variable,heterogeneous,5,present,1.275475025177,1,vertical,vertical,1,0.811642942428589,green,1,3,650.114760665419,806.299333565612,1042.51941165526,521.200666434388,650.114760665419,806.299333565612,949.885239334581,806.299333565612,1042.51941165526,521.200666434388,800,345,557.480588344736,521.200666434388,0,0,4,0,5,6,3,NaN,vertical,horizontal,horizontal,horizontal,vertical,none
1a,14,100154,1,16,16,18,M,NA,variable,heterogeneous,4,absent,1.40460801124573,1,horizontal,horizontal,1,0.764611177444458,green,3,NaN,650.114760665419,393.700666434388,NaN,NaN,949.885239334581,806.299333565612,1006.29933356561,450.114760665419,650.114760665419,393.700666434388,593.700666434388,749.885239334581,0,0,0,0,6,0,4,3,NaN,NaN,horizontal,vertical,horizontal,vertical,none,none
1a,14,100154,1,17,17,18,M,NA,variable,heterogeneous,6,present,NaN,0,horizontal,none,0,0.835158824920654,green,2,6,1027.20666366803,715.767577433584,586.139005173917,738.882953928832,813.345668841951,854.650531362416,1027.20666366803,715.767577433584,1013.86099482608,461.117046071168,786.654331158049,345.349468637584,572.793336331966,484.232422566416,586.139005173917,738.882953928832,5,4,0,3,5,3,vertical,horizontal,vertical,horizontal,vertical,horizontal
1a,14,100154,1,18,18,18,M,NA,variable,heterogeneous,4,present,1.32651519775391,1,vertical,vertical,1,1.03504382610321,green,2,1,1031.10848569435,492.232343256122,907.767656743878,831.108485694346,907.767656743878,831.108485694346,1031.10848569435,492.232343256122,692.232343256122,368.891514305654,568.891514305654,707.767656743878,0,0,0,0,3,4,6,6,NaN,NaN,horizontal,vertical,vertical,vertical,none,none
1a,14,100154,1,19,19,18,M,NA,variable,heterogeneous,5,absent,1.59065198898315,0,horizontal,vertical,1,0.870432648658752,green,4,NaN,599.057257830286,443.006323791957,NaN,NaN,870.287525733335,845.121732464271,1054.84466088987,608.899371659138,887.215136548046,360.378381699593,599.057257830286,443.006323791957,588.595418998464,742.594190385041,0,0,6,3,3,4,5,NaN,vertical,horizontal,vertical,horizontal,vertical,none
1a,14,100154,1,20,20,18,M,NA,variable,heterogeneous,4,present,1.12294101715088,1,horizontal,horizontal,1,0.611757941246033,red,2,3,1048.46436652023,542.637481142314,742.637481142314,351.535633479765,857.362518857686,848.464366520235,1048.46436652023,542.637481142314,742.637481142314,351.535633479765,551.535633479765,657.362518857686,0,0,0,0,6,4,5,5,NaN,NaN,horizontal,horizontal,horizontal,horizontal,none,none
1a,14,100154,1,21,21,18,M,NA,variable,heterogeneous,3,present,0.824486017227173,1,vertical,vertical,1,0.752853236198425,green,3,1,545.03883773512,595.549636358493,923.626453162816,823.028025320546,923.626453162816,823.028025320546,931.334709102064,381.422338320961,545.03883773512,595.549636358493,0,0,0,0,0,0,0,5,4,NaN,NaN,NaN,vertical,vertical,vertical,none,none,none
1a,14,100154,1,22,22,18,M,NA,variable,heterogeneous,3,absent,1.5872859954834,1,horizontal,horizontal,1,0.705821471214294,green,3,NaN,583.747735480111,464.870587620533,NaN,NaN,791.100628340862,854.844660889869,1025.15163617903,480.284751489598,583.747735480111,464.870587620533,0,0,0,0,0,0,0,5,4,NaN,NaN,NaN,horizontal,vertical,horizontal,none,none,none
1a,14,100154,1,23,23,18,M,NA,variable,heterogeneous,5,absent,NaN,0,horizontal,none,0,0.976254119873047,red,3,NaN,949.885239334581,393.700666434388,NaN,NaN,800,855,1042.51941165526,678.799333565612,949.885239334581,393.700666434388,650.114760665419,393.700666434388,557.480588344736,678.799333565612,0,0,3,3,4,0,6,NaN,vertical,vertical,horizontal,vertical,horizontal,none
1a,14,100154,1,24,24,18,M,NA,variable,heterogeneous,6,absent,1.57423114776611,0,horizontal,vertical,1,0.752853236198425,red,6,NaN,593.700666434388,749.885239334581,NaN,NaN,826.654758133252,853.60308331891,1032.95409169886,703.717843984329,1006.29933356561,450.114760665419,773.345241866748,346.39691668109,567.045908301137,496.282156015671,593.700666434388,749.885239334581,3,5,0,5,6,4,horizontal,vertical,horizontal,vertical,vertical,horizontal
1a,14,100154,1,25,25,18,M,NA,variable,heterogeneous,4,present,1.62714600563049,1,horizontal,horizontal,1,0.658789706230164,red,3,2,817.787900804752,345.621167183745,1054.37883281626,617.787900804752,782.212099195248,854.378832816255,1054.37883281626,617.787900804752,817.787900804752,345.621167183745,545.621167183745,582.212099195248,0,0,0,0,0,5,4,6,NaN,NaN,vertical,vertical,horizontal,horizontal,none,none
1a,14,100154,1,26,26,18,M,NA,variable,heterogeneous,6,absent,1.38499212265015,1,vertical,vertical,1,0.670547647476196,red,2,NaN,1043.85771277057,674.554784704298,NaN,NaN,857.362518857686,848.464366520235,1043.85771277057,674.554784704298,986.495193912888,426.090418184063,742.637481142314,351.535633479765,556.142287229426,525.445215295702,613.504806087112,773.909581815937,3,4,5,0,6,0,horizontal,vertical,horizontal,vertical,horizontal,horizontal
1a,14,100154,1,27,27,18,M,NA,variable,heterogeneous,3,absent,1.08790612220764,1,vertical,vertical,1,0.940980296134949,green,1,NaN,857.362518857686,848.464366520235,NaN,NaN,857.362518857686,848.464366520235,986.495193912888,426.090418184063,556.142287229426,525.445215295702,0,0,0,0,0,0,4,5,3,NaN,NaN,NaN,vertical,vertical,vertical,none,none,none
1a,14,100154,1,28,28,18,M,NA,variable,heterogeneous,4,absent,1.94404411315918,1,vertical,vertical,1,0.705821471214294,red,4,NaN,545.155339110131,608.899371659138,NaN,NaN,808.899371659138,854.844660889869,1054.84466088987,591.100628340862,791.100628340862,345.155339110131,545.155339110131,608.899371659138,0,0,0,0,0,0,3,4,NaN,NaN,vertical,horizontal,horizontal,vertical,none,none
1a,14,100154,1,29,29,18,M,NA,variable,heterogeneous,3,present,1.26863884925842,1,horizontal,horizontal,1,0.882190589904785,green,2,1,980.31222920257,419.68777079743,865.998856501143,846.311085703712,865.998856501143,846.311085703712,980.31222920257,419.68777079743,553.688914296288,534.001143498857,0,0,0,0,0,0,3,4,5,NaN,NaN,NaN,horizontal,horizontal,horizontal,none,none,none
1a,14,100154,1,30,30,18,M,NA,variable,heterogeneous,6,absent,1.68752694129944,1,vertical,vertical,1,0.870432648658752,red,5,NaN,653.738008730483,391.116228706307,NaN,NaN,692.232343256122,831.108485694346,946.261991269517,808.883771293693,1054.0296480134,577.775285599347,907.767656743878,368.891514305654,653.738008730483,391.116228706307,545.970351986605,622.224714400653,5,0,3,6,4,0,horizontal,horizontal,vertical,vertical,vertical,horizontal
1a,14,100154,1,31,31,18,M,NA,variable,heterogeneous,6,present,1.33362793922424,1,vertical,vertical,1,0.611757941246033,green,2,6,938.882953928832,813.860994826083,545.349468637584,613.345668841951,684.232422566416,827.206663668034,938.882953928832,813.860994826083,1054.65053136242,586.654331158049,915.767577433584,372.793336331966,661.117046071168,386.139005173917,545.349468637584,613.345668841951,5,4,3,5,6,6,vertical,vertical,vertical,vertical,vertical,vertical
1a,14,100154,1,32,32,18,M,NA,variable,heterogeneous,5,absent,1.07762813568115,1,vertical,vertical,1,1.05855970859528,red,2,NaN,1049.42763818712,653.017481158529,NaN,NaN,826.654758133252,853.60308331891,1049.42763818712,653.017481158529,927.5,379.163522034968,629.371695378491,410.498069503264,567.045908301137,703.717843984329,0,0,3,4,5,3,5,NaN,horizontal,vertical,horizontal,vertical,horizontal,none
1a,14,100154,1,33,33,18,M,NA,variable,heterogeneous,5,absent,1.04803586006165,1,vertical,vertical,1,0.835158824920654,red,2,NaN,998.172220171528,760.476699717708,NaN,NaN,708.616172865948,838.063008756786,998.172220171528,760.476699717708,1013.86099482608,461.117046071168,734.001143498857,353.688914296288,545.349468637584,586.654331158049,0,0,6,4,5,3,0,NaN,horizontal,vertical,vertical,vertical,vertical,none
1a,14,100154,1,34,34,18,M,NA,variable,heterogeneous,4,absent,0.831683874130249,1,vertical,vertical,1,0.917464413642883,red,3,NaN,949.885239334581,393.700666434388,NaN,NaN,650.114760665419,806.299333565612,1006.29933356561,749.885239334581,949.885239334581,393.700666434388,593.700666434388,450.114760665419,0,0,0,0,0,6,4,6,NaN,NaN,horizontal,vertical,vertical,horizontal,none,none
1a,14,100154,1,35,35,18,M,NA,variable,heterogeneous,6,present,1.40063619613647,1,horizontal,horizontal,1,0.611757941246033,red,1,2,760.109211414741,851.86052685176,998.172220171528,760.476699717708,760.109211414741,851.86052685176,998.172220171528,760.476699717708,1038.06300875679,508.616172865948,839.890788585259,348.13947314824,601.827779828472,439.523300282291,561.936991243214,691.383827134052,4,6,3,5,0,3,horizontal,horizontal,vertical,vertical,horizontal,vertical
1a,14,100154,1,36,36,18,M,NA,variable,heterogeneous,3,present,1.35362792015076,1,horizontal,horizontal,1,0.635273823738098,green,1,2,970.628304621509,789.501930496736,878.799333565612,357.480588344736,970.628304621509,789.501930496736,878.799333565612,357.480588344736,550.57236181288,653.017481158529,0,0,0,0,0,0,4,5,6,NaN,NaN,NaN,horizontal,horizontal,vertical,none,none,none
1a,14,100154,1,37,37,18,M,NA,variable,heterogeneous,6,present,1.83457803726196,0,vertical,horizontal,1,0.682305588722229,red,6,2,583.747735480111,735.129412379467,1025.15163617903,719.715248510402,808.899371659138,854.844660889869,1025.15163617903,719.715248510402,1016.25226451989,464.870587620533,791.100628340862,345.155339110131,574.848363820974,480.284751489598,583.747735480111,735.129412379467,6,3,6,5,0,4,vertical,horizontal,vertical,horizontal,vertical,vertical
1a,14,100154,1,38,38,18,M,NA,variable,heterogeneous,3,absent,0.932528018951416,1,vertical,vertical,1,0.846916766166687,green,2,NaN,1051.86052685176,639.890788585259,NaN,NaN,639.523300282292,798.172220171528,1051.86052685176,639.890788585259,708.616172865948,361.936991243214,0,0,0,0,0,0,3,4,6,NaN,NaN,NaN,vertical,vertical,vertical,none,none,none
1a,14,100154,1,39,39,18,M,NA,variable,heterogeneous,3,present,0.942429065704346,1,vertical,vertical,1,0.952738237380981,red,1,2,650.114760665419,806.299333565612,1053.60308331891,626.654758133252,650.114760665419,806.299333565612,1053.60308331891,626.654758133252,696.282156015671,367.045908301137,0,0,0,0,0,0,4,3,5,NaN,NaN,NaN,vertical,horizontal,horizontal,none,none,none
1a,14,100154,1,40,40,18,M,NA,variable,heterogeneous,5,present,1.67849898338318,1,vertical,vertical,1,0.647031764984131,red,4,5,629.371695378491,410.498069503264,567.045908301137,703.717843984329,826.654758133252,853.60308331891,1049.42763818712,653.017481158529,927.5,379.163522034968,629.371695378491,410.498069503264,567.045908301137,703.717843984329,0,0,5,5,6,4,3,NaN,vertical,vertical,vertical,vertical,vertical,none
1a,14,100154,1,41,41,18,M,NA,variable,heterogeneous,3,present,0.810671091079712,1,vertical,vertical,1,0.929222354888916,red,2,3,1043.85771277057,674.554784704298,742.637481142314,351.535633479765,613.504806087112,773.909581815937,1043.85771277057,674.554784704298,742.637481142314,351.535633479765,0,0,0,0,0,0,0,4,5,NaN,NaN,NaN,horizontal,vertical,vertical,none,none,none
1a,14,100154,1,42,42,18,M,NA,variable,heterogeneous,6,absent,1.72707200050354,1,horizontal,horizontal,1,0.788127059936523,red,1,NaN,773.345241866748,853.60308331891,NaN,NaN,773.345241866748,853.60308331891,1006.29933356561,749.885239334581,1032.95409169886,496.282156015671,826.654758133252,346.39691668109,593.700666434388,450.114760665419,567.045908301137,703.717843984329,4,3,5,0,3,0,horizontal,horizontal,vertical,vertical,vertical,horizontal
1a,14,100154,1,43,43,18,M,NA,variable,heterogeneous,4,present,1.44664406776428,0,horizontal,vertical,1,0.647031764984131,green,2,1,1018.57766167904,468.665290897936,931.334709102064,818.577661679039,931.334709102064,818.577661679039,1018.57766167904,468.665290897936,668.665290897936,381.422338320961,581.422338320961,731.334709102064,0,0,0,0,5,4,3,0,NaN,NaN,horizontal,horizontal,vertical,vertical,none,none
1a,14,100154,1,44,44,18,M,NA,variable,heterogeneous,5,absent,1.10033702850342,1,vertical,vertical,1,0.823400883674622,green,1,NaN,927.5,820.836477965032,NaN,NaN,927.5,820.836477965032,1049.42763818712,546.982518841471,826.654758133252,346.39691668109,567.045908301137,496.282156015671,629.371695378491,789.501930496736,0,0,4,0,5,6,5,NaN,vertical,horizontal,horizontal,horizontal,horizontal,none
1a,14,100154,1,45,45,18,M,NA,variable,heterogeneous,6,absent,1.16022300720215,1,horizontal,horizontal,1,0.882190589904785,green,2,NaN,953.462830903772,803.65205506206,NaN,NaN,700.363562235235,834.728737630372,953.462830903772,803.65205506206,1053.09926866854,568.923317431687,899.636437764765,365.271262369628,646.537169096228,396.34794493794,546.900731331463,631.076682568313,0,4,5,0,6,3,horizontal,horizontal,vertical,horizontal,horizontal,vertical
1a,14,100154,1,46,46,18,M,NA,variable,heterogeneous,4,absent,1.39624810218811,1,vertical,vertical,1,1.04680176734924,green,3,NaN,746.982518841471,350.57236181288,NaN,NaN,853.017481158529,849.42763818712,1049.42763818712,546.982518841471,746.982518841471,350.57236181288,550.57236181288,653.017481158529,0,0,0,0,0,3,4,5,NaN,NaN,horizontal,vertical,vertical,vertical,none,none
1a,14,100154,1,47,47,18,M,NA,variable,heterogeneous,3,absent,1.18315291404724,1,horizontal,horizontal,1,0.940980296134949,green,1,NaN,861.690083377915,847.425410200379,NaN,NaN,861.690083377915,847.425410200379,983.431649086356,422.862115532956,554.878267535729,529.712474266665,0,0,0,0,0,0,4,5,3,NaN,NaN,NaN,horizontal,horizontal,horizontal,none,none,none
1a,14,100154,1,48,48,18,M,NA,variable,heterogeneous,4,present,0.912091970443726,1,horizontal,horizontal,1,0.85867470741272,green,1,2,923.626453162816,823.028025320546,1023.02802532055,476.373546837184,923.626453162816,823.028025320546,1023.02802532055,476.373546837184,676.373546837184,376.971974679454,576.971974679454,723.626453162816,0,0,0,0,4,3,5,0,NaN,NaN,horizontal,horizontal,vertical,vertical,none,none
1a,14,100154,1,49,49,18,M,NA,variable,heterogeneous,6,present,1.44024300575256,1,vertical,vertical,1,1.08207559108734,red,5,6,653.738008730483,391.116228706307,545.970351986605,622.224714400653,692.232343256122,831.108485694346,946.261991269517,808.883771293693,1054.0296480134,577.775285599347,907.767656743878,368.891514305654,653.738008730483,391.116228706307,545.970351986605,622.224714400653,3,6,6,5,4,3,horizontal,vertical,vertical,horizontal,vertical,vertical
1a,14,100154,1,50,50,18,M,NA,variable,heterogeneous,5,present,0.985533952713013,1,horizontal,horizontal,1,1.02328588485718,green,2,4,986.495193912888,773.909581815937,751.343706178981,349.685068220846,692.232343256122,831.108485694346,986.495193912888,773.909581815937,1023.02802532055,476.373546837184,751.343706178981,349.685068220846,546.900731331463,568.923317431687,0,0,5,4,6,0,0,NaN,vertical,horizontal,vertical,vertical,horizontal,none
1a,14,100154,1,51,51,18,M,NA,variable,heterogeneous,6,present,1.96773791313171,1,vertical,vertical,1,0.717579412460327,green,4,6,927.5,379.163522034968,545,600,672.5,820.836477965032,927.5,820.836477965032,1055,600,927.5,379.163522034968,672.5,379.163522034968,545,600,0,3,3,4,6,6,horizontal,vertical,horizontal,vertical,horizontal,horizontal
1a,14,100154,1,52,52,18,M,NA,variable,heterogeneous,3,present,1.11260795593262,1,horizontal,horizontal,1,1.07031764984131,red,3,1,545.970351986605,577.775285599347,907.767656743878,831.108485694346,907.767656743878,831.108485694346,946.261991269517,391.116228706307,545.970351986605,577.775285599347,0,0,0,0,0,0,6,0,4,NaN,NaN,NaN,vertical,vertical,horizontal,none,none,none
1a,14,100154,1,53,53,18,M,NA,variable,heterogeneous,4,present,1.5559139251709,1,vertical,vertical,1,0.647031764984131,red,2,4,1051.86052685176,560.109211414741,548.13947314824,639.890788585259,839.890788585259,851.86052685176,1051.86052685176,560.109211414741,760.109211414741,348.13947314824,548.13947314824,639.890788585259,0,0,0,0,5,4,0,6,NaN,NaN,vertical,vertical,vertical,horizontal,none,none
1a,14,100154,1,54,54,18,M,NA,variable,heterogeneous,6,absent,1.42108583450317,1,vertical,vertical,1,1.08207559108734,green,2,NaN,1031.10848569435,707.767656743878,NaN,NaN,822.224714400653,854.029648013395,1031.10848569435,707.767656743878,1008.88377129369,453.738008730483,777.775285599347,345.970351986605,568.891514305654,492.232343256122,591.116228706307,746.261991269517,6,4,3,3,0,5,horizontal,vertical,vertical,vertical,horizontal,vertical
1a,14,100154,1,55,55,18,M,NA,variable,heterogeneous,6,absent,1.30531597137451,1,vertical,vertical,1,0.788127059936523,green,3,NaN,1051.86052685176,560.109211414741,NaN,NaN,708.616172865948,838.063008756786,960.476699717708,798.172220171528,1051.86052685176,560.109211414741,891.383827134052,361.936991243214,639.523300282292,401.827779828472,548.13947314824,639.890788585259,6,6,4,5,3,5,horizontal,horizontal,vertical,horizontal,vertical,horizontal
1a,14,100154,1,56,56,18,M,NA,variable,heterogeneous,5,present,1.28323006629944,1,horizontal,horizontal,1,0.976254119873047,red,3,1,989.501930496736,429.371695378491,746.982518841471,849.42763818712,746.982518841471,849.42763818712,1020.83647796503,727.5,989.501930496736,429.371695378491,696.282156015671,367.045908301137,546.39691668109,626.654758133252,0,0,5,0,4,6,0,NaN,horizontal,horizontal,horizontal,vertical,horizontal,none
1a,14,100154,1,57,57,18,M,NA,variable,heterogeneous,3,present,1.49252510070801,1,vertical,vertical,1,0.976254119873047,green,1,3,581.422338320961,731.334709102064,795.549636358493,345.03883773512,581.422338320961,731.334709102064,1023.02802532055,723.626453162816,795.549636358493,345.03883773512,0,0,0,0,0,0,4,6,3,NaN,NaN,NaN,vertical,vertical,horizontal,none,none,none
1a,14,100154,1,58,58,18,M,NA,variable,heterogeneous,6,present,1.77089309692383,1,horizontal,horizontal,1,0.999770002365112,red,6,4,619.68777079743,780.31222920257,734.001143498857,353.688914296288,865.998856501143,846.311085703712,1046.31108570371,665.998856501143,980.31222920257,419.68777079743,734.001143498857,353.688914296288,553.688914296288,534.001143498857,619.68777079743,780.31222920257,6,6,0,3,3,4,horizontal,vertical,vertical,horizontal,vertical,horizontal
1a,14,100154,1,59,59,18,M,NA,variable,heterogeneous,4,absent,1.70070004463196,1,vertical,vertical,1,0.917464413642883,green,3,NaN,650.114760665419,393.700666434388,NaN,NaN,949.885239334581,806.299333565612,1006.29933356561,450.114760665419,650.114760665419,393.700666434388,593.700666434388,749.885239334581,0,0,0,0,0,3,4,3,NaN,NaN,vertical,horizontal,vertical,vertical,none,none
1a,14,100154,1,60,60,18,M,NA,variable,heterogeneous,5,absent,1.5530481338501,1,horizontal,horizontal,1,0.905706472396851,red,5,NaN,546.900731331463,568.923317431687,NaN,NaN,692.232343256122,831.108485694346,986.495193912888,773.909581815937,1023.02802532055,476.373546837184,751.343706178981,349.685068220846,546.900731331463,568.923317431687,0,0,6,0,6,5,4,NaN,vertical,horizontal,vertical,horizontal,horizontal,none
1a,14,100154,1,61,61,18,M,NA,variable,heterogeneous,4,absent,1.66989207267761,0,horizontal,vertical,1,1.07031764984131,red,2,NaN,1054.84466088987,608.899371659138,NaN,NaN,791.100628340862,854.844660889869,1054.84466088987,608.899371659138,808.899371659138,345.155339110131,545.155339110131,591.100628340862,0,0,0,0,0,4,6,5,NaN,NaN,horizontal,horizontal,vertical,vertical,none,none
1a,14,100154,1,62,62,18,M,NA,variable,heterogeneous,4,absent,1.72871208190918,1,horizontal,horizontal,1,0.658789706230164,red,2,NaN,1036.43188291453,695.524681321058,NaN,NaN,704.475318678942,836.431882914531,1036.43188291453,695.524681321058,895.524681321058,363.568117085469,563.568117085469,504.475318678942,0,0,0,0,3,4,0,3,NaN,NaN,vertical,horizontal,vertical,horizontal,none,none
1a,14,100154,1,63,63,18,M,NA,variable,heterogeneous,3,present,1.11190390586853,1,horizontal,horizontal,1,0.811642942428589,red,1,2,927.5,820.836477965032,927.5,379.163522034968,927.5,820.836477965032,927.5,379.163522034968,545,600,0,0,0,0,0,0,4,3,0,NaN,NaN,NaN,horizontal,horizontal,vertical,none,none,none
1a,14,100154,1,64,64,18,M,NA,variable,heterogeneous,6,absent,1.11215496063232,1,horizontal,horizontal,1,0.705821471214294,green,3,NaN,1038.06300875679,508.616172865948,NaN,NaN,760.109211414741,851.86052685176,998.172220171528,760.476699717708,1038.06300875679,508.616172865948,839.890788585259,348.13947314824,601.827779828472,439.523300282291,561.936991243214,691.383827134052,5,0,4,6,3,0,vertical,horizontal,horizontal,vertical,horizontal,horizontal
1a,14,100154,2,1,65,18,M,NA,variable,heterogeneous,4,present,1.32940101623535,1,vertical,vertical,1,0.6,green,2,4,1055,600,545,600,800,855,1055,600,800,345,545,600,0,0,0,0,5,4,6,3,NaN,NaN,horizontal,vertical,horizontal,vertical,none,none
1a,14,100154,2,2,66,18,M,NA,variable,heterogeneous,5,absent,0.715620040893555,1,vertical,vertical,1,0.776369118690491,red,5,NaN,567.045908301137,703.717843984329,NaN,NaN,826.654758133252,853.60308331891,1049.42763818712,653.017481158529,927.5,379.163522034968,629.371695378491,410.498069503264,567.045908301137,703.717843984329,0,0,0,5,0,3,4,NaN,vertical,horizontal,horizontal,horizontal,vertical,none
1a,14,100154,2,3,67,18,M,NA,variable,heterogeneous,5,absent,1.05506205558777,1,vertical,vertical,1,0.846916766166687,green,5,NaN,552.574589799621,661.690083377915,NaN,NaN,782.212099195248,854.378832816255,1036.43188291453,695.524681321058,963.910840470068,404.658667004661,664.870587620533,383.747735480111,552.574589799621,661.690083377915,0,0,3,5,5,0,4,NaN,vertical,horizontal,vertical,horizontal,vertical,none
1a,14,100154,2,4,68,18,M,NA,variable,heterogeneous,5,present,1.55714392662048,1,vertical,vertical,1,1.04680176734924,green,3,2,861.690083377915,352.574589799621,1054.37883281626,582.212099195248,895.524681321058,836.431882914531,1054.37883281626,582.212099195248,861.690083377915,352.574589799621,583.747735480111,464.870587620533,604.658667004661,763.910840470068,0,0,6,5,4,5,0,NaN,horizontal,horizontal,vertical,vertical,vertical,none
1a,14,100154,2,5,69,18,M,NA,variable,heterogeneous,4,present,1.04958915710449,1,horizontal,horizontal,1,0.846916766166687,red,2,1,1043.85771277057,674.554784704298,725.445215295702,843.857712770574,725.445215295702,843.857712770574,1043.85771277057,674.554784704298,874.554784704298,356.142287229426,556.142287229426,525.445215295702,0,0,0,0,3,4,6,6,NaN,NaN,vertical,horizontal,vertical,horizontal,none,none
1a,14,100154,2,6,70,18,M,NA,variable,heterogeneous,6,present,1.31170892715454,1,vertical,vertical,1,0.647031764984131,red,5,4,546.900731331463,568.923317431687,700.363562235235,365.271262369628,899.636437764765,834.728737630372,1053.09926866854,631.076682568313,953.462830903772,396.34794493794,700.363562235235,365.271262369628,546.900731331463,568.923317431687,646.537169096228,803.65205506206,6,3,0,5,4,0,horizontal,horizontal,vertical,vertical,vertical,horizontal
1a,14,100154,2,7,71,18,M,NA,variable,heterogeneous,6,present,1.35125684738159,1,horizontal,horizontal,1,1.05855970859528,red,2,4,989.501930496736,770.628304621509,853.017481158529,350.57236181288,746.982518841471,849.42763818712,989.501930496736,770.628304621509,1042.51941165526,521.200666434388,853.017481158529,350.57236181288,610.498069503264,429.371695378491,557.480588344736,678.799333565612,3,4,3,0,6,6,vertical,horizontal,horizontal,horizontal,vertical,horizontal
1a,14,100154,2,8,72,18,M,NA,variable,heterogeneous,5,absent,1.50328707695007,1,horizontal,horizontal,1,0.846916766166687,red,2,NaN,1011.40458100154,742.594190385041,NaN,NaN,729.712474266665,845.121732464271,1011.40458100154,742.594190385041,1000.94274216971,443.006323791957,712.784863451954,360.378381699593,545.155339110131,608.899371659138,0,0,0,4,3,5,3,NaN,horizontal,horizontal,horizontal,horizontal,vertical,none
1a,14,100154,2,9,73,18,M,NA,variable,heterogeneous,3,present,1.31081819534302,1,horizontal,horizontal,1,0.670547647476196,green,1,2,650.114760665419,806.299333565612,1053.60308331891,626.654758133252,650.114760665419,806.299333565612,1053.60308331891,626.654758133252,696.282156015671,367.045908301137,0,0,0,0,0,0,4,6,0,NaN,NaN,NaN,horizontal,horizontal,vertical,none,none,none
1a,14,100154,2,10,74,18,M,NA,variable,heterogeneous,4,present,1.1382908821106,1,horizontal,horizontal,1,1.04680176734924,green,4,2,607.549057043193,432.704947607421,992.450942956807,767.295052392579,632.704947607421,792.450942956807,992.450942956807,767.295052392579,967.295052392579,407.549057043193,607.549057043193,432.704947607421,0,0,0,0,0,3,6,4,NaN,NaN,horizontal,horizontal,vertical,horizontal,none,none
1a,14,100154,2,11,75,18,M,NA,variable,heterogeneous,5,present,1.2398099899292,1,vertical,vertical,1,0.741095294952393,red,2,1,1025.15163617903,719.715248510402,755.719714694933,851.125977018113,755.719714694933,851.125977018113,1025.15163617903,719.715248510402,983.431649086356,422.862115532956,688.215357568785,370.807518193712,547.481642470899,635.489140744817,0,0,5,4,3,6,5,NaN,vertical,vertical,horizontal,horizontal,horizontal,none
1a,14,100154,2,12,76,18,M,NA,variable,heterogeneous,3,absent,1.17870306968689,1,horizontal,horizontal,1,0.893948531150818,red,2,NaN,1032.95409169886,496.282156015671,NaN,NaN,773.345241866748,853.60308331891,1032.95409169886,496.282156015671,593.700666434388,450.114760665419,0,0,0,0,0,0,3,4,6,NaN,NaN,NaN,horizontal,horizontal,vertical,none,none,none
1a,14,100154,2,13,77,18,M,NA,variable,heterogeneous,5,absent,1.64976096153259,1,vertical,vertical,1,0.964496178627014,red,5,NaN,567.045908301137,703.717843984329,NaN,NaN,826.654758133252,853.60308331891,1049.42763818712,653.017481158529,927.5,379.163522034968,629.371695378491,410.498069503264,567.045908301137,703.717843984329,0,0,5,6,3,0,4,NaN,vertical,vertical,horizontal,vertical,vertical,none
1a,14,100154,2,14,78,18,M,NA,variable,heterogeneous,3,absent,0.739248037338257,1,horizontal,horizontal,1,0.611757941246033,green,1,NaN,963.910840470068,795.341332995339,NaN,NaN,963.910840470068,795.341332995339,887.215136548046,360.378381699593,548.874022981887,644.280285305067,0,0,0,0,0,0,4,3,0,NaN,NaN,NaN,horizontal,horizontal,horizontal,none,none,none
1a,14,100154,2,15,79,18,M,NA,variable,heterogeneous,6,absent,1.16626691818237,1,horizontal,horizontal,1,0.799885001182556,green,6,NaN,563.568117085469,695.524681321058,NaN,NaN,764.510859255183,852.518357529101,1000.94274216971,756.993676208043,1036.43188291453,504.475318678942,835.489140744817,347.4816424709,599.057257830286,443.006323791957,563.568117085469,695.524681321058,0,6,3,5,5,4,horizontal,horizontal,vertical,horizontal,horizontal,horizontal
1a,14,100154,2,16,80,18,M,NA,variable,heterogeneous,3,present,1.49133896827698,1,horizontal,horizontal,1,0.882190589904785,green,2,1,989.501930496736,429.371695378491,853.017481158529,849.42763818712,853.017481158529,849.42763818712,989.501930496736,429.371695378491,557.480588344736,521.200666434388,0,0,0,0,0,0,3,4,6,NaN,NaN,NaN,vertical,horizontal,vertical,none,none,none
1a,14,100154,2,17,81,18,M,NA,variable,heterogeneous,3,present,0.807417869567871,1,vertical,vertical,1,0.917464413642883,green,1,3,953.462830903772,803.65205506206,546.900731331463,631.076682568313,953.462830903772,803.65205506206,899.636437764765,365.271262369628,546.900731331463,631.076682568313,0,0,0,0,0,0,4,0,0,NaN,NaN,NaN,vertical,vertical,horizontal,none,none,none
1a,14,100154,2,18,82,18,M,NA,variable,heterogeneous,3,absent,1.32525491714478,1,horizontal,horizontal,1,0.670547647476196,red,2,NaN,1048.46436652023,542.637481142314,NaN,NaN,725.445215295702,843.857712770574,1048.46436652023,542.637481142314,626.090418184063,413.504806087112,0,0,0,0,0,0,5,4,6,NaN,NaN,NaN,horizontal,horizontal,vertical,none,none,none
1a,14,100154,2,19,83,18,M,NA,variable,heterogeneous,6,absent,0.834285020828247,1,vertical,vertical,1,0.72933735370636,red,2,NaN,1023.02802532055,723.626453162816,NaN,NaN,804.450363641507,854.96116226488,1023.02802532055,723.626453162816,1018.57766167904,468.665290897936,795.549636358493,345.03883773512,576.971974679454,476.373546837184,581.422338320961,731.334709102064,0,4,5,3,6,5,horizontal,vertical,horizontal,horizontal,vertical,vertical
1a,14,100154,2,20,84,18,M,NA,variable,heterogeneous,5,present,1.65609312057495,1,vertical,vertical,1,0.635273823738098,red,2,3,1041.10723677783,683.019879386575,953.462830903772,396.34794493794,795.549636358493,854.96116226488,1041.10723677783,683.019879386575,953.462830903772,396.34794493794,653.738008730483,391.116228706307,556.142287229426,674.554784704298,0,0,6,4,6,3,0,NaN,vertical,vertical,horizontal,vertical,vertical,none
1a,14,100154,2,21,85,18,M,NA,variable,heterogeneous,6,present,1.62321496009827,1,horizontal,horizontal,1,0.694063529968262,green,4,1,773.345241866748,346.39691668109,826.654758133252,853.60308331891,826.654758133252,853.60308331891,1032.95409169886,703.717843984329,1006.29933356561,450.114760665419,773.345241866748,346.39691668109,567.045908301137,496.282156015671,593.700666434388,749.885239334581,0,0,6,4,6,3,horizontal,vertical,horizontal,horizontal,horizontal,vertical
1a,14,100154,2,22,86,18,M,NA,variable,heterogeneous,4,absent,1.84536004066467,1,vertical,vertical,1,0.670547647476196,red,3,NaN,629.371695378491,410.498069503264,NaN,NaN,970.628304621509,789.501930496736,989.501930496736,429.371695378491,629.371695378491,410.498069503264,610.498069503264,770.628304621509,0,0,0,0,6,0,4,0,NaN,NaN,vertical,vertical,vertical,horizontal,none,none
1a,14,100154,2,23,87,18,M,NA,variable,heterogeneous,6,present,1.74292421340942,1,vertical,vertical,1,0.623515882492065,red,1,4,700.363562235235,834.728737630372,899.636437764765,365.271262369628,700.363562235235,834.728737630372,953.462830903772,803.65205506206,1053.09926866854,568.923317431687,899.636437764765,365.271262369628,646.537169096228,396.34794493794,546.900731331463,631.076682568313,4,0,0,3,6,5,vertical,vertical,vertical,vertical,horizontal,horizontal
1a,14,100154,2,24,88,18,M,NA,variable,heterogeneous,4,absent,0.900583982467651,1,vertical,vertical,1,0.929222354888916,green,1,NaN,927.5,820.836477965032,NaN,NaN,927.5,820.836477965032,1020.83647796503,472.5,672.5,379.163522034968,579.163522034968,727.5,0,0,0,0,4,6,5,3,NaN,NaN,vertical,horizontal,horizontal,horizontal,none,none
1a,14,100154,2,25,89,18,M,NA,variable,heterogeneous,5,present,NaN,0,horizontal,none,0,1.01152794361114,red,4,3,653.738008730483,391.116228706307,953.462830903772,396.34794493794,795.549636358493,854.96116226488,1041.10723677783,683.019879386575,953.462830903772,396.34794493794,653.738008730483,391.116228706307,556.142287229426,674.554784704298,0,0,0,5,6,4,3,NaN,horizontal,horizontal,horizontal,horizontal,vertical,none
1a,14,100154,2,26,90,18,M,NA,variable,heterogeneous,5,absent,1.44410490989685,0,horizontal,vertical,1,1.04680176734924,green,2,NaN,967.295052392579,792.450942956807,NaN,NaN,668.665290897936,818.577661679039,967.295052392579,792.450942956807,1034.72873763037,500.363562235235,777.775285599347,345.970351986605,551.535633479765,542.637481142314,0,0,5,4,5,0,3,NaN,vertical,horizontal,vertical,vertical,vertical,none
1a,14,100154,2,27,91,18,M,NA,variable,heterogeneous,5,present,NaN,0,horizontal,none,0,0.6,green,5,1,639.523300282292,798.172220171528,938.882953928832,813.860994826083,938.882953928832,813.860994826083,1046.31108570371,534.001143498857,813.345668841951,345.349468637584,561.936991243214,508.616172865948,639.523300282292,798.172220171528,0,0,6,5,0,3,4,NaN,horizontal,vertical,horizontal,vertical,horizontal,none
1a,14,100154,2,28,92,18,M,NA,variable,heterogeneous,3,absent,0.90871787071228,1,vertical,vertical,1,0.764611177444458,red,1,NaN,1020.83647796503,727.5,NaN,NaN,1020.83647796503,727.5,800,345,579.163522034968,727.5,0,0,0,0,0,0,4,3,5,NaN,NaN,NaN,vertical,vertical,vertical,none,none,none
1a,14,100154,2,29,93,18,M,NA,variable,heterogeneous,5,absent,1.20855498313904,1,horizontal,horizontal,1,0.670547647476196,green,2,NaN,960.476699717708,798.172220171528,NaN,NaN,661.117046071168,813.860994826083,960.476699717708,798.172220171528,1038.06300875679,508.616172865948,786.654331158049,345.349468637584,553.688914296288,534.001143498857,0,0,3,4,6,3,6,NaN,horizontal,horizontal,vertical,vertical,vertical,none
1a,14,100154,2,30,94,18,M,NA,variable,heterogeneous,4,absent,1.18640899658203,1,horizontal,horizontal,1,1.08207559108734,red,2,NaN,989.501930496736,429.371695378491,NaN,NaN,970.628304621509,789.501930496736,989.501930496736,429.371695378491,629.371695378491,410.498069503264,610.498069503264,770.628304621509,0,0,0,0,6,4,3,3,NaN,NaN,horizontal,horizontal,horizontal,vertical,none,none
1a,14,100154,2,31,95,18,M,NA,variable,heterogeneous,4,present,1.37383794784546,1,vertical,vertical,1,0.964496178627014,green,1,4,946.261991269517,808.883771293693,591.116228706307,746.261991269517,946.261991269517,808.883771293693,1008.88377129369,453.738008730483,653.738008730483,391.116228706307,591.116228706307,746.261991269517,0,0,0,0,4,0,0,5,NaN,NaN,vertical,vertical,horizontal,horizontal,none,none
1a,14,100154,2,32,96,18,M,NA,variable,heterogeneous,5,present,1.62697005271912,1,horizontal,horizontal,1,0.882190589904785,red,3,5,967.295052392579,407.549057043193,551.535633479765,657.362518857686,777.775285599347,854.029648013395,1034.72873763037,699.636437764765,967.295052392579,407.549057043193,668.665290897936,381.422338320961,551.535633479765,657.362518857686,0,0,3,0,4,6,0,NaN,horizontal,vertical,horizontal,horizontal,horizontal,none
1a,14,100154,2,33,97,18,M,NA,variable,heterogeneous,3,present,1.0489559173584,1,vertical,vertical,1,0.670547647476196,red,1,3,613.504806087112,773.909581815937,742.637481142314,351.535633479765,613.504806087112,773.909581815937,1043.85771277057,674.554784704298,742.637481142314,351.535633479765,0,0,0,0,0,0,4,6,5,NaN,NaN,NaN,vertical,vertical,vertical,none,none,none
1a,14,100154,2,34,98,18,M,NA,variable,heterogeneous,4,absent,1.36775302886963,1,horizontal,horizontal,1,0.670547647476196,green,1,NaN,946.261991269517,808.883771293693,NaN,NaN,946.261991269517,808.883771293693,1008.88377129369,453.738008730483,653.738008730483,391.116228706307,591.116228706307,746.261991269517,0,0,0,0,4,6,0,5,NaN,NaN,horizontal,horizontal,vertical,horizontal,none,none
1a,14,100154,2,35,99,18,M,NA,variable,heterogeneous,6,absent,1.97390389442444,1,vertical,vertical,1,0.929222354888916,green,3,NaN,1020.83647796503,472.5,NaN,NaN,800,855,1020.83647796503,727.5,1020.83647796503,472.5,800,345,579.163522034968,472.5,579.163522034968,727.5,0,5,4,3,3,5,vertical,vertical,vertical,vertical,vertical,horizontal
1a,14,100154,2,36,100,18,M,NA,variable,heterogeneous,4,absent,1.45302414894104,1,vertical,vertical,1,0.976254119873047,red,4,NaN,604.658667004661,436.089159529932,NaN,NaN,636.089159529932,795.341332995339,995.341332995339,763.910840470068,963.910840470068,404.658667004661,604.658667004661,436.089159529932,0,0,0,0,3,6,5,4,NaN,NaN,horizontal,vertical,vertical,vertical,none,none
1a,14,100154,2,37,101,18,M,NA,variable,heterogeneous,4,absent,0.547053098678589,1,horizontal,horizontal,1,0.647031764984131,red,4,NaN,579.163522034968,472.5,NaN,NaN,672.5,820.836477965032,1020.83647796503,727.5,927.5,379.163522034968,579.163522034968,472.5,0,0,0,0,0,5,6,4,NaN,NaN,horizontal,horizontal,vertical,horizontal,none,none
1a,14,100154,2,38,102,18,M,NA,variable,heterogeneous,6,absent,NaN,0,horizontal,none,0,0.72933735370636,red,6,NaN,550.57236181288,653.017481158529,NaN,NaN,721.200666434388,842.519411655264,970.628304621509,789.501930496736,1049.42763818712,546.982518841471,878.799333565612,357.480588344736,629.371695378491,410.498069503264,550.57236181288,653.017481158529,5,6,0,5,3,4,horizontal,vertical,vertical,vertical,vertical,horizontal
1a,14,100154,2,39,103,18,M,NA,variable,heterogeneous,3,absent,0.813074827194214,1,vertical,vertical,1,0.6,green,1,NaN,643.006323791957,800.942742169714,NaN,NaN,643.006323791957,800.942742169714,1052.5183575291,635.489140744817,704.475318678942,363.568117085469,0,0,0,0,0,0,4,6,3,NaN,NaN,NaN,vertical,horizontal,horizontal,none,none,none
1a,14,100154,2,40,104,18,M,NA,variable,heterogeneous,6,present,1.79857707023621,1,vertical,vertical,1,0.846916766166687,green,5,6,560.378381699593,512.784863451954,604.658667004661,763.910840470068,844.280285305067,851.125977018113,1039.62161830041,687.215136548046,995.341332995339,436.089159529932,755.719714694933,348.874022981887,560.378381699593,512.784863451954,604.658667004661,763.910840470068,3,0,6,0,4,5,vertical,vertical,horizontal,vertical,vertical,horizontal
1a,14,100154,2,41,105,18,M,NA,variable,heterogeneous,6,absent,1.07076692581177,1,vertical,vertical,1,1.01152794361114,red,1,NaN,725.445215295702,843.857712770574,NaN,NaN,725.445215295702,843.857712770574,973.909581815937,786.495193912888,1048.46436652023,542.637481142314,874.554784704298,356.142287229426,626.090418184063,413.504806087112,551.535633479765,657.362518857686,4,0,5,6,3,3,vertical,vertical,horizontal,horizontal,vertical,horizontal
1a,14,100154,2,42,106,18,M,NA,variable,heterogeneous,4,present,1.68149399757385,1,vertical,vertical,1,0.835158824920654,red,3,4,760.109211414741,348.13947314824,548.13947314824,639.890788585259,839.890788585259,851.86052685176,1051.86052685176,560.109211414741,760.109211414741,348.13947314824,548.13947314824,639.890788585259,0,0,0,0,0,3,4,6,NaN,NaN,horizontal,vertical,vertical,vertical,none,none
1a,14,100154,2,43,107,18,M,NA,variable,heterogeneous,5,present,1.2019898891449,1,horizontal,horizontal,1,0.929222354888916,green,2,3,1054.0296480134,577.775285599347,857.362518857686,351.535633479765,899.636437764765,834.728737630372,1054.0296480134,577.775285599347,857.362518857686,351.535633479765,581.422338320961,468.665290897936,607.549057043193,767.295052392579,0,0,5,4,0,0,3,NaN,horizontal,horizontal,horizontal,horizontal,horizontal,none
1a,14,100154,2,44,108,18,M,NA,variable,heterogeneous,5,absent,1.60095000267029,1,horizontal,horizontal,1,0.741095294952393,red,4,NaN,616.568350913644,422.862115532956,NaN,NaN,844.280285305067,851.125977018113,1052.5183575291,635.489140744817,911.784642431215,370.807518193712,616.568350913644,422.862115532956,574.848363820974,719.715248510402,0,0,5,5,6,4,3,NaN,vertical,vertical,horizontal,horizontal,vertical,none
1a,14,100154,2,45,109,18,M,NA,variable,heterogeneous,3,present,1.31735777854919,1,vertical,vertical,1,0.799885001182556,green,3,2,545.970351986605,577.775285599347,946.261991269517,391.116228706307,907.767656743878,831.108485694346,946.261991269517,391.116228706307,545.970351986605,577.775285599347,0,0,0,0,0,0,0,5,4,NaN,NaN,NaN,horizontal,vertical,vertical,none,none,none
1a,14,100154,2,46,110,18,M,NA,variable,heterogeneous,4,absent,1.53850817680359,1,vertical,vertical,1,0.929222354888916,green,2,NaN,1000.94274216971,443.006323791957,NaN,NaN,956.993676208043,800.942742169714,1000.94274216971,443.006323791957,643.006323791957,399.057257830286,599.057257830286,756.993676208043,0,0,0,0,5,4,3,3,NaN,NaN,vertical,vertical,vertical,vertical,none,none
1a,14,100154,2,47,111,18,M,NA,variable,heterogeneous,3,absent,1.09004688262939,1,horizontal,horizontal,1,0.635273823738098,green,1,NaN,661.117046071168,813.860994826083,NaN,NaN,661.117046071168,813.860994826083,1054.65053136242,613.345668841951,684.232422566416,372.793336331966,0,0,0,0,0,0,4,0,6,NaN,NaN,NaN,horizontal,horizontal,vertical,none,none,none
1a,14,100154,2,48,112,18,M,NA,variable,heterogeneous,6,absent,1.35548806190491,1,horizontal,horizontal,1,0.976254119873047,green,5,NaN,551.535633479765,542.637481142314,NaN,NaN,874.554784704298,843.857712770574,1048.46436652023,657.362518857686,973.909581815937,413.504806087112,725.445215295702,356.142287229426,551.535633479765,542.637481142314,626.090418184063,786.495193912888,5,0,3,0,4,6,horizontal,horizontal,vertical,vertical,horizontal,horizontal
1a,14,100154,2,49,113,18,M,NA,variable,heterogeneous,6,absent,1.27510094642639,1,vertical,vertical,1,0.811642942428589,green,6,NaN,567.045908301137,703.717843984329,NaN,NaN,773.345241866748,853.60308331891,1006.29933356561,749.885239334581,1032.95409169886,496.282156015671,826.654758133252,346.39691668109,593.700666434388,450.114760665419,567.045908301137,703.717843984329,0,5,6,5,3,4,vertical,vertical,vertical,vertical,vertical,vertical
1a,14,100154,2,50,114,18,M,NA,variable,heterogeneous,4,present,1.23181200027466,1,vertical,vertical,1,0.952738237380981,red,2,4,1054.96116226488,595.549636358493,545.03883773512,604.450363641507,804.450363641507,854.96116226488,1054.96116226488,595.549636358493,795.549636358493,345.03883773512,545.03883773512,604.450363641507,0,0,0,0,0,4,6,5,NaN,NaN,vertical,vertical,horizontal,horizontal,none,none
1a,14,100154,2,51,115,18,M,NA,variable,heterogeneous,3,present,1.11614108085632,1,vertical,vertical,1,0.976254119873047,red,1,2,895.524681321058,836.431882914531,956.993676208043,399.057257830286,895.524681321058,836.431882914531,956.993676208043,399.057257830286,547.481642470899,564.510859255183,0,0,0,0,0,0,4,6,3,NaN,NaN,NaN,vertical,horizontal,horizontal,none,none,none
1a,14,100154,2,52,116,18,M,NA,variable,heterogeneous,5,present,1.14228296279907,1,vertical,vertical,1,0.999770002365112,green,2,5,1055,600,593.700666434388,749.885239334581,878.799333565612,842.519411655264,1055,600,878.799333565612,357.480588344736,593.700666434388,450.114760665419,593.700666434388,749.885239334581,0,0,5,4,0,6,6,NaN,horizontal,vertical,vertical,vertical,vertical,none
1a,14,100154,2,53,117,18,M,NA,variable,heterogeneous,6,absent,0.828245162963867,1,horizontal,horizontal,1,0.72933735370636,red,3,NaN,1053.60308331891,573.345241866748,NaN,NaN,696.282156015671,832.954091698863,949.885239334581,806.299333565612,1053.60308331891,573.345241866748,903.717843984329,367.045908301137,650.114760665419,393.700666434388,546.39691668109,626.654758133252,5,3,4,0,5,0,horizontal,vertical,horizontal,horizontal,vertical,vertical
1a,14,100154,2,54,118,18,M,NA,variable,heterogeneous,3,absent,0.833060026168823,1,vertical,vertical,1,0.6,green,3,NaN,549.685068220846,648.656293821019,NaN,NaN,967.295052392579,792.450942956807,883.019879386575,358.892763222174,549.685068220846,648.656293821019,0,0,0,0,0,0,6,5,4,NaN,NaN,NaN,vertical,vertical,vertical,none,none,none
1a,14,100154,2,55,119,18,M,NA,variable,heterogeneous,6,present,1.29746699333191,1,horizontal,horizontal,1,0.988012061119079,green,2,5,1048.46436652023,657.362518857686,551.535633479765,542.637481142314,874.554784704298,843.857712770574,1048.46436652023,657.362518857686,973.909581815937,413.504806087112,725.445215295702,356.142287229426,551.535633479765,542.637481142314,626.090418184063,786.495193912888,5,4,6,3,0,0,horizontal,horizontal,vertical,vertical,horizontal,vertical
1a,14,100154,2,56,120,18,M,NA,variable,heterogeneous,6,present,NaN,0,vertical,none,0,0.752853236198425,green,1,6,751.343706178981,850.314931779154,558.892763222174,683.019879386575,751.343706178981,850.314931779154,992.450942956807,767.295052392579,1041.10723677783,516.980120613425,848.656293821019,349.685068220846,607.549057043193,432.704947607421,558.892763222174,683.019879386575,4,3,6,6,0,5,vertical,horizontal,vertical,vertical,vertical,vertical
1a,14,100154,2,57,121,18,M,NA,variable,heterogeneous,3,present,1.02121686935425,1,horizontal,horizontal,1,0.717579412460327,red,3,1,567.045908301137,496.282156015671,826.654758133252,853.60308331891,826.654758133252,853.60308331891,1006.29933356561,450.114760665419,567.045908301137,496.282156015671,0,0,0,0,0,0,5,0,4,NaN,NaN,NaN,vertical,vertical,horizontal,none,none,none
1a,14,100154,2,58,122,18,M,NA,variable,heterogeneous,3,present,1.51130795478821,1,horizontal,horizontal,1,1.09383353233337,red,1,2,946.261991269517,808.883771293693,907.767656743878,368.891514305654,946.261991269517,808.883771293693,907.767656743878,368.891514305654,545.970351986605,622.224714400653,0,0,0,0,0,0,4,0,3,NaN,NaN,NaN,horizontal,vertical,vertical,none,none,none
1a,14,100154,2,59,123,18,M,NA,variable,heterogeneous,6,present,1.54329800605774,1,horizontal,horizontal,1,1.05855970859528,red,1,5,826.654758133252,853.60308331891,567.045908301137,496.282156015671,826.654758133252,853.60308331891,1032.95409169886,703.717843984329,1006.29933356561,450.114760665419,773.345241866748,346.39691668109,567.045908301137,496.282156015671,593.700666434388,749.885239334581,4,0,3,6,0,5,horizontal,vertical,vertical,vertical,horizontal,horizontal
1a,14,100154,2,60,124,18,M,NA,variable,heterogeneous,4,absent,0.862803936004639,1,horizontal,horizontal,1,0.823400883674622,green,4,NaN,560.378381699593,512.784863451954,NaN,NaN,712.784863451954,839.621618300407,1039.62161830041,687.215136548046,887.215136548046,360.378381699593,560.378381699593,512.784863451954,0,0,0,0,6,5,0,4,NaN,NaN,horizontal,horizontal,horizontal,horizontal,none,none
1a,14,100154,2,61,125,18,M,NA,variable,heterogeneous,4,present,1.35224390029907,1,horizontal,horizontal,1,0.799885001182556,red,4,1,596.34794493794,753.462830903772,953.462830903772,803.65205506206,953.462830903772,803.65205506206,1003.65205506206,446.537169096228,646.537169096228,396.34794493794,596.34794493794,753.462830903772,0,0,0,0,5,0,3,4,NaN,NaN,horizontal,vertical,vertical,horizontal,none,none
1a,14,100154,2,62,126,18,M,NA,variable,heterogeneous,5,absent,1.22293996810913,1,vertical,vertical,1,0.764611177444458,green,1,NaN,700.363562235235,834.728737630372,NaN,NaN,700.363562235235,834.728737630372,992.450942956807,767.295052392579,1018.57766167904,468.665290897936,742.637481142314,351.535633479765,545.970351986605,577.775285599347,0,0,4,5,0,3,0,NaN,vertical,vertical,horizontal,vertical,vertical,none
1a,14,100154,2,63,127,18,M,NA,variable,heterogeneous,4,present,NaN,0,horizontal,none,0,0.952738237380981,green,3,2,712.784863451954,360.378381699593,1039.62161830041,512.784863451954,887.215136548046,839.621618300407,1039.62161830041,512.784863451954,712.784863451954,360.378381699593,560.378381699593,687.215136548046,0,0,0,0,6,3,4,0,NaN,NaN,vertical,horizontal,horizontal,horizontal,none,none
1a,14,100154,2,64,128,18,M,NA,variable,heterogeneous,3,absent,0.905744075775146,1,vertical,vertical,1,0.741095294952393,red,3,NaN,700.363562235235,365.271262369628,NaN,NaN,646.537169096228,803.65205506206,1053.09926866854,631.076682568313,700.363562235235,365.271262369628,0,0,0,0,0,0,5,3,4,NaN,NaN,NaN,horizontal,horizontal,vertical,none,none,none
1a,14,100154,3,1,129,18,M,NA,variable,heterogeneous,6,present,NaN,0,horizontal,none,0,0.705821471214294,red,5,1,591.116228706307,453.738008730483,777.775285599347,854.029648013395,777.775285599347,854.029648013395,1008.88377129369,746.261991269517,1031.10848569435,492.232343256122,822.224714400653,345.970351986605,591.116228706307,453.738008730483,568.891514305654,707.767656743878,0,3,3,5,4,5,vertical,vertical,horizontal,horizontal,horizontal,horizontal
1a,14,100154,3,2,130,18,M,NA,variable,heterogeneous,5,absent,0.905065059661865,1,vertical,vertical,1,1.05855970859528,green,1,NaN,738.309916622085,847.425410200379,NaN,NaN,738.309916622085,847.425410200379,1016.25226451989,735.129412379467,995.341332995339,436.089159529932,704.475318678942,363.568117085469,545.621167183745,617.787900804752,0,0,4,6,5,6,0,NaN,vertical,vertical,vertical,vertical,vertical,none
1a,14,100154,3,3,131,18,M,NA,variable,heterogeneous,4,present,1.00434994697571,1,horizontal,horizontal,1,0.647031764984131,green,1,3,725.445215295702,843.857712770574,874.554784704298,356.142287229426,725.445215295702,843.857712770574,1043.85771277057,674.554784704298,874.554784704298,356.142287229426,556.142287229426,525.445215295702,0,0,0,0,4,6,0,5,NaN,NaN,horizontal,horizontal,vertical,horizontal,none,none
1a,14,100154,3,4,132,18,M,NA,variable,heterogeneous,5,present,1.5972421169281,1,vertical,vertical,1,0.635273823738098,green,2,4,989.501930496736,770.628304621509,746.982518841471,350.57236181288,696.282156015671,832.954091698863,989.501930496736,770.628304621509,1020.83647796503,472.5,746.982518841471,350.57236181288,546.39691668109,573.345241866748,0,0,5,4,5,3,6,NaN,horizontal,vertical,horizontal,vertical,horizontal,none
1a,14,100154,3,5,133,18,M,NA,variable,heterogeneous,5,absent,1.01251697540283,1,horizontal,horizontal,1,0.952738237380981,red,5,NaN,622.862115532956,783.431649086356,NaN,NaN,919.715248510402,825.151636179026,1051.12597701811,555.719714694933,835.489140744817,347.4816424709,570.807518193712,488.215357568785,622.862115532956,783.431649086356,0,0,0,5,3,5,4,NaN,horizontal,horizontal,vertical,horizontal,horizontal,none
1a,14,100154,3,6,134,18,M,NA,variable,heterogeneous,3,absent,0.926768064498901,1,horizontal,horizontal,1,1.09383353233337,green,1,NaN,989.501930496736,770.628304621509,NaN,NaN,989.501930496736,770.628304621509,853.017481158529,350.57236181288,557.480588344736,678.799333565612,0,0,0,0,0,0,4,5,0,NaN,NaN,NaN,horizontal,horizontal,vertical,none,none,none
1a,14,100154,3,7,135,18,M,NA,variable,heterogeneous,4,present,0.853028059005737,1,vertical,vertical,1,0.776369118690491,green,2,4,1053.09926866854,631.076682568313,546.900731331463,568.923317431687,768.923317431687,853.099268668537,1053.09926866854,631.076682568313,831.076682568313,346.900731331463,546.900731331463,568.923317431687,0,0,0,0,6,4,5,3,NaN,NaN,horizontal,vertical,vertical,vertical,none,none
1a,14,100154,3,8,136,18,M,NA,variable,heterogeneous,5,present,1.73860120773315,0,horizontal,vertical,1,1.02328588485718,red,3,1,1000.94274216971,443.006323791957,729.712474266665,845.121732464271,729.712474266665,845.121732464271,1011.40458100154,742.594190385041,1000.94274216971,443.006323791957,712.784863451954,360.378381699593,545.155339110131,608.899371659138,0,0,3,5,4,6,3,NaN,vertical,vertical,horizontal,horizontal,vertical,none
1a,14,100154,3,9,137,18,M,NA,variable,heterogeneous,6,absent,1.51180696487427,1,vertical,vertical,1,0.917464413642883,red,1,NaN,676.373546837184,823.028025320546,NaN,NaN,676.373546837184,823.028025320546,931.334709102064,818.577661679039,1054.96116226488,595.549636358493,923.626453162816,376.971974679454,668.665290897936,381.422338320961,545.03883773512,604.450363641507,4,5,5,6,3,3,vertical,vertical,vertical,horizontal,horizontal,horizontal
1a,14,100154,3,10,138,18,M,NA,variable,heterogeneous,4,absent,0.85905385017395,1,vertical,vertical,1,0.846916766166687,green,3,NaN,619.68777079743,419.68777079743,NaN,NaN,980.31222920257,780.31222920257,980.31222920257,419.68777079743,619.68777079743,419.68777079743,619.68777079743,780.31222920257,0,0,0,0,3,3,4,0,NaN,NaN,horizontal,vertical,vertical,vertical,none,none
1a,14,100154,3,11,139,18,M,NA,variable,heterogeneous,4,absent,1.02805399894714,1,horizontal,horizontal,1,0.976254119873047,green,1,NaN,639.523300282292,798.172220171528,NaN,NaN,639.523300282292,798.172220171528,998.172220171528,760.476699717708,960.476699717708,401.827779828472,601.827779828472,439.523300282291,0,0,0,0,4,6,3,0,NaN,NaN,horizontal,horizontal,horizontal,vertical,none,none
1a,14,100154,3,12,140,18,M,NA,variable,heterogeneous,4,present,0.757066965103149,1,horizontal,horizontal,1,0.611757941246033,green,1,4,684.232422566416,827.206663668034,572.793336331966,484.232422566416,684.232422566416,827.206663668034,1027.20666366803,715.767577433584,915.767577433584,372.793336331966,572.793336331966,484.232422566416,0,0,0,0,4,5,3,6,NaN,NaN,horizontal,vertical,horizontal,horizontal,none,none
1a,14,100154,3,13,141,18,M,NA,variable,heterogeneous,6,present,NaN,0,horizontal,none,0,1.05855970859528,red,2,4,1053.09926866854,631.076682568313,700.363562235235,365.271262369628,899.636437764765,834.728737630372,1053.09926866854,631.076682568313,953.462830903772,396.34794493794,700.363562235235,365.271262369628,546.900731331463,568.923317431687,646.537169096228,803.65205506206,0,4,5,0,6,6,horizontal,horizontal,vertical,vertical,horizontal,horizontal
1a,14,100154,3,14,142,18,M,NA,variable,heterogeneous,6,present,1.1294801235199,1,vertical,vertical,1,0.976254119873047,green,1,3,688.215357568785,829.192481806288,1054.37883281626,582.212099195248,688.215357568785,829.192481806288,942.594190385041,811.404581001536,1054.37883281626,582.212099195248,911.784642431215,370.807518193712,657.405809614959,388.595418998464,545.621167183745,617.787900804752,4,5,0,3,5,3,vertical,horizontal,vertical,vertical,vertical,horizontal
1a,14,100154,3,15,143,18,M,NA,variable,heterogeneous,5,absent,1.07487916946411,1,horizontal,horizontal,1,0.929222354888916,green,3,NaN,878.799333565612,357.480588344736,NaN,NaN,878.799333565612,842.519411655264,1055,600,878.799333565612,357.480588344736,593.700666434388,450.114760665419,593.700666434388,749.885239334581,0,0,6,3,4,3,5,NaN,horizontal,vertical,horizontal,vertical,horizontal,none
1a,14,100154,3,16,144,18,M,NA,variable,heterogeneous,3,absent,1.00197696685791,0,horizontal,vertical,1,0.670547647476196,red,1,NaN,935.129412379467,816.252264519889,NaN,NaN,935.129412379467,816.252264519889,919.715248510402,374.848363820974,545.155339110131,608.899371659138,0,0,0,0,0,0,4,3,5,NaN,NaN,NaN,horizontal,horizontal,vertical,none,none,none
1a,14,100154,3,17,145,18,M,NA,variable,heterogeneous,3,absent,1.37421607971191,1,horizontal,horizontal,1,0.6,green,1,NaN,755.719714694933,851.125977018113,NaN,NaN,755.719714694933,851.125977018113,1039.62161830041,512.784863451954,604.658667004661,436.089159529932,0,0,0,0,0,0,4,6,5,NaN,NaN,NaN,horizontal,horizontal,horizontal,none,none,none
1a,14,100154,3,18,146,18,M,NA,variable,heterogeneous,5,absent,1.22137403488159,1,vertical,vertical,1,0.776369118690491,red,2,NaN,977.137884467044,783.431649086356,NaN,NaN,680.284751489598,825.151636179026,977.137884467044,783.431649086356,1029.19248180629,488.215357568785,764.510859255183,347.4816424709,548.874022981887,555.719714694933,0,0,6,4,6,3,5,NaN,vertical,vertical,horizontal,vertical,vertical,none
1a,14,100154,3,19,147,18,M,NA,variable,heterogeneous,5,present,0.799168825149536,0,horizontal,vertical,1,1.07031764984131,red,5,4,593.700666434388,749.885239334581,593.700666434388,450.114760665419,878.799333565612,842.519411655264,1055,600,878.799333565612,357.480588344736,593.700666434388,450.114760665419,593.700666434388,749.885239334581,0,0,5,3,3,0,4,NaN,vertical,vertical,horizontal,vertical,horizontal,none
1a,14,100154,3,20,148,18,M,NA,variable,heterogeneous,3,present,0.827591896057129,1,vertical,vertical,1,0.999770002365112,red,1,3,653.738008730483,808.883771293693,692.232343256122,368.891514305654,653.738008730483,808.883771293693,1054.0296480134,622.224714400653,692.232343256122,368.891514305654,0,0,0,0,0,0,4,6,0,NaN,NaN,NaN,vertical,vertical,horizontal,none,none,none
1a,14,100154,3,21,149,18,M,NA,variable,heterogeneous,5,absent,0.932965040206909,1,horizontal,horizontal,1,0.658789706230164,red,5,NaN,583.747735480111,735.129412379467,NaN,NaN,861.690083377915,847.425410200379,1054.37883281626,617.787900804752,895.524681321058,363.568117085469,604.658667004661,436.089159529932,583.747735480111,735.129412379467,0,0,6,0,0,3,4,NaN,horizontal,vertical,vertical,horizontal,horizontal,none
1a,14,100154,3,22,150,18,M,NA,variable,heterogeneous,5,absent,1.62325000762939,1,horizontal,horizontal,1,0.752853236198425,green,4,NaN,746.982518841471,350.57236181288,NaN,NaN,696.282156015671,832.954091698863,989.501930496736,770.628304621509,1020.83647796503,472.5,746.982518841471,350.57236181288,546.39691668109,573.345241866748,0,0,3,6,0,4,0,NaN,horizontal,horizontal,horizontal,horizontal,horizontal,none
1a,14,100154,3,23,151,18,M,NA,variable,heterogeneous,3,present,1.74052906036377,1,vertical,vertical,1,0.823400883674622,green,3,1,646.537169096228,396.34794493794,700.363562235235,834.728737630372,700.363562235235,834.728737630372,1053.09926866854,568.923317431687,646.537169096228,396.34794493794,0,0,0,0,0,0,5,3,4,NaN,NaN,NaN,vertical,horizontal,vertical,none,none,none
1a,14,100154,3,24,152,18,M,NA,variable,heterogeneous,5,present,1.5484619140625,1,vertical,vertical,1,0.647031764984131,red,5,1,550.57236181288,546.982518841471,672.5,820.836477965032,672.5,820.836477965032,970.628304621509,789.501930496736,1032.95409169886,496.282156015671,773.345241866748,346.39691668109,550.57236181288,546.982518841471,0,0,3,0,6,6,4,NaN,vertical,vertical,vertical,vertical,vertical,none
1a,14,100154,3,25,153,18,M,NA,variable,heterogeneous,5,present,0.940513849258423,1,vertical,vertical,1,0.846916766166687,red,5,3,557.480588344736,678.799333565612,949.885239334581,393.700666434388,800,855,1042.51941165526,678.799333565612,949.885239334581,393.700666434388,650.114760665419,393.700666434388,557.480588344736,678.799333565612,0,0,3,6,0,6,4,NaN,horizontal,horizontal,vertical,vertical,vertical,none
1a,14,100154,3,26,154,18,M,NA,variable,heterogeneous,4,present,1.41917896270752,1,vertical,vertical,1,0.776369118690491,red,2,4,1029.19248180629,488.215357568785,570.807518193712,711.784642431215,911.784642431215,829.192481806288,1029.19248180629,488.215357568785,688.215357568785,370.807518193712,570.807518193712,711.784642431215,0,0,0,0,6,4,3,0,NaN,NaN,horizontal,vertical,horizontal,vertical,none,none
1a,14,100154,3,27,155,18,M,NA,variable,heterogeneous,6,present,1.76884198188782,1,horizontal,horizontal,1,0.658789706230164,green,5,4,583.747735480111,464.870587620533,808.899371659138,345.155339110131,791.100628340862,854.844660889869,1016.25226451989,735.129412379467,1025.15163617903,480.284751489598,808.899371659138,345.155339110131,583.747735480111,464.870587620533,574.848363820974,719.715248510402,3,5,0,6,4,0,horizontal,vertical,vertical,horizontal,horizontal,vertical
1a,14,100154,3,28,156,18,M,NA,variable,heterogeneous,5,present,1.63146615028381,0,horizontal,vertical,1,0.952738237380981,green,4,5,619.68777079743,419.68777079743,572.793336331966,715.767577433584,839.890788585259,851.86052685176,1051.86052685176,639.890788585259,915.767577433584,372.793336331966,619.68777079743,419.68777079743,572.793336331966,715.767577433584,0,0,6,5,3,4,3,NaN,vertical,vertical,vertical,horizontal,vertical,none
1a,14,100154,3,29,157,18,M,NA,variable,heterogeneous,3,present,0.852258920669556,1,horizontal,horizontal,1,0.999770002365112,red,3,2,545.621167183745,617.787900804752,911.784642431215,370.807518193712,942.594190385041,811.404581001536,911.784642431215,370.807518193712,545.621167183745,617.787900804752,0,0,0,0,0,0,6,0,4,NaN,NaN,NaN,vertical,horizontal,horizontal,none,none,none
1a,14,100154,3,30,158,18,M,NA,variable,heterogeneous,6,absent,1.20525813102722,1,horizontal,horizontal,1,0.788127059936523,green,4,NaN,870.287525733335,354.878267535729,NaN,NaN,729.712474266665,845.121732464271,977.137884467044,783.431649086356,1047.42541020038,538.309916622085,870.287525733335,354.878267535729,622.862115532956,416.568350913644,552.574589799621,661.690083377915,5,0,0,4,5,3,horizontal,vertical,horizontal,horizontal,vertical,horizontal
1a,14,100154,3,31,159,18,M,NA,variable,heterogeneous,4,absent,0.946969985961914,1,vertical,vertical,1,0.870432648658752,red,1,NaN,887.215136548046,839.621618300407,NaN,NaN,887.215136548046,839.621618300407,1039.62161830041,512.784863451954,712.784863451954,360.378381699593,560.378381699593,687.215136548046,0,0,0,0,4,5,3,0,NaN,NaN,vertical,horizontal,horizontal,horizontal,none,none
1a,14,100154,3,32,160,18,M,NA,variable,heterogeneous,4,present,1.09407806396484,1,vertical,vertical,1,0.611757941246033,red,3,2,942.594190385041,388.595418998464,1011.40458100154,742.594190385041,657.405809614959,811.404581001536,1011.40458100154,742.594190385041,942.594190385041,388.595418998464,588.595418998464,457.40580961496,0,0,0,0,0,0,4,6,NaN,NaN,horizontal,vertical,vertical,vertical,none,none
1a,14,100154,3,33,161,18,M,NA,variable,heterogeneous,6,present,1.36721301078796,1,vertical,vertical,1,0.940980296134949,red,3,6,1054.84466088987,591.100628340862,545.155339110131,608.899371659138,680.284751489598,825.151636179026,935.129412379467,816.252264519889,1054.84466088987,591.100628340862,919.715248510402,374.848363820974,664.870587620533,383.747735480111,545.155339110131,608.899371659138,3,0,4,3,5,0,vertical,vertical,vertical,vertical,vertical,vertical
1a,14,100154,3,34,162,18,M,NA,variable,heterogeneous,6,present,NaN,0,vertical,none,0,0.811642942428589,green,4,5,729.712474266665,354.878267535729,552.574589799621,538.309916622085,870.287525733335,845.121732464271,1047.42541020038,661.690083377915,977.137884467044,416.568350913644,729.712474266665,354.878267535729,552.574589799621,538.309916622085,622.862115532956,783.431649086356,3,6,6,4,0,5,vertical,vertical,horizontal,vertical,vertical,horizontal
1a,14,100154,3,35,163,18,M,NA,variable,heterogeneous,5,present,1.09711599349976,1,vertical,vertical,1,0.694063529968262,green,2,4,1054.37883281626,582.212099195248,583.747735480111,464.870587620533,895.524681321058,836.431882914531,1054.37883281626,582.212099195248,861.690083377915,352.574589799621,583.747735480111,464.870587620533,604.658667004661,763.910840470068,0,0,0,4,3,5,0,NaN,vertical,vertical,vertical,horizontal,horizontal,none
1a,14,100154,3,36,164,18,M,NA,variable,heterogeneous,5,present,1.48072791099548,1,horizontal,horizontal,1,0.670547647476196,green,2,4,1049.42763818712,653.017481158529,629.371695378491,410.498069503264,826.654758133252,853.60308331891,1049.42763818712,653.017481158529,927.5,379.163522034968,629.371695378491,410.498069503264,567.045908301137,703.717843984329,0,0,6,4,5,0,5,NaN,horizontal,horizontal,horizontal,horizontal,vertical,none
1a,14,100154,3,37,165,18,M,NA,variable,heterogeneous,6,absent,1.42333102226257,1,vertical,vertical,1,0.846916766166687,green,6,NaN,550.57236181288,653.017481158529,NaN,NaN,721.200666434388,842.519411655264,970.628304621509,789.501930496736,1049.42763818712,546.982518841471,878.799333565612,357.480588344736,629.371695378491,410.498069503264,550.57236181288,653.017481158529,5,5,6,0,3,4,horizontal,vertical,vertical,vertical,horizontal,vertical
1a,14,100154,3,38,166,18,M,NA,variable,heterogeneous,5,absent,1.95122504234314,0,vertical,horizontal,1,0.964496178627014,red,1,NaN,786.654331158049,854.650531362416,NaN,NaN,786.654331158049,854.650531362416,1038.06300875679,691.383827134052,960.476699717708,401.827779828472,661.117046071168,386.139005173917,553.688914296288,665.998856501143,0,0,4,5,3,3,5,NaN,vertical,horizontal,horizontal,vertical,vertical,none
1a,14,100154,3,39,167,18,M,NA,variable,heterogeneous,4,present,1.65510606765747,0,horizontal,vertical,1,0.811642942428589,red,4,2,591.116228706307,453.738008730483,1008.88377129369,746.261991269517,653.738008730483,808.883771293693,1008.88377129369,746.261991269517,946.261991269517,391.116228706307,591.116228706307,453.738008730483,0,0,0,0,3,5,5,4,NaN,NaN,vertical,horizontal,vertical,horizontal,none,none
1a,14,100154,3,40,168,18,M,NA,variable,heterogeneous,3,absent,1.31956195831299,1,vertical,vertical,1,0.964496178627014,green,3,NaN,610.498069503264,429.371695378491,NaN,NaN,746.982518841471,849.42763818712,1042.51941165526,521.200666434388,610.498069503264,429.371695378491,0,0,0,0,0,0,5,3,4,NaN,NaN,NaN,vertical,horizontal,vertical,none,none,none
1a,14,100154,3,41,169,18,M,NA,variable,heterogeneous,5,absent,1.63050198554993,1,vertical,vertical,1,0.823400883674622,green,2,NaN,1032.95409169886,703.717843984329,NaN,NaN,773.345241866748,853.60308331891,1032.95409169886,703.717843984329,970.628304621509,410.498069503264,672.5,379.163522034968,550.57236181288,653.017481158529,0,0,0,4,6,5,6,NaN,horizontal,vertical,horizontal,vertical,horizontal,none
1a,14,100154,3,42,170,18,M,NA,variable,heterogeneous,3,present,1.20114493370056,1,horizontal,horizontal,1,0.682305588722229,red,2,1,935.129412379467,383.747735480111,919.715248510402,825.151636179026,919.715248510402,825.151636179026,935.129412379467,383.747735480111,545.155339110131,591.100628340862,0,0,0,0,0,0,5,4,6,NaN,NaN,NaN,vertical,horizontal,vertical,none,none,none
1a,14,100154,3,43,171,18,M,NA,variable,heterogeneous,3,present,1.70262098312378,1,vertical,vertical,1,1.07031764984131,green,2,3,870.287525733335,354.878267535729,552.574589799621,661.690083377915,977.137884467044,783.431649086356,870.287525733335,354.878267535729,552.574589799621,661.690083377915,0,0,0,0,0,0,3,4,5,NaN,NaN,NaN,vertical,vertical,vertical,none,none,none
1a,14,100154,3,44,172,18,M,NA,variable,heterogeneous,6,absent,1.36240220069885,0,horizontal,vertical,1,0.682305588722229,red,4,NaN,826.654758133252,346.39691668109,NaN,NaN,773.345241866748,853.60308331891,1006.29933356561,749.885239334581,1032.95409169886,496.282156015671,826.654758133252,346.39691668109,593.700666434388,450.114760665419,567.045908301137,703.717843984329,0,6,5,4,0,6,vertical,horizontal,horizontal,horizontal,horizontal,vertical
1a,14,100154,3,45,173,18,M,NA,variable,heterogeneous,3,present,0.850941896438599,1,vertical,vertical,1,0.85867470741272,red,3,1,738.309916622085,352.574589799621,616.568350913644,777.137884467044,616.568350913644,777.137884467044,1045.12173246427,670.287525733335,738.309916622085,352.574589799621,0,0,0,0,0,0,5,0,4,NaN,NaN,NaN,horizontal,horizontal,vertical,none,none,none
1a,14,100154,3,46,174,18,M,NA,variable,heterogeneous,4,present,1.15552592277527,1,vertical,vertical,1,0.964496178627014,green,3,1,938.882953928832,386.139005173917,661.117046071168,813.860994826083,661.117046071168,813.860994826083,1013.86099482608,738.882953928832,938.882953928832,386.139005173917,586.139005173917,461.117046071168,0,0,0,0,3,0,4,6,NaN,NaN,horizontal,horizontal,vertical,horizontal,none,none
1a,14,100154,3,47,175,18,M,NA,variable,heterogeneous,6,present,NaN,0,horizontal,none,0,0.6,green,1,3,857.362518857686,848.464366520235,986.495193912888,426.090418184063,857.362518857686,848.464366520235,1043.85771277057,674.554784704298,986.495193912888,426.090418184063,742.637481142314,351.535633479765,556.142287229426,525.445215295702,613.504806087112,773.909581815937,4,0,5,3,6,5,horizontal,horizontal,vertical,vertical,horizontal,vertical
1a,14,100154,3,48,176,18,M,NA,variable,heterogeneous,3,absent,0.772909879684448,1,vertical,vertical,1,0.893948531150818,red,3,NaN,591.116228706307,453.738008730483,NaN,NaN,777.775285599347,854.029648013395,1031.10848569435,492.232343256122,591.116228706307,453.738008730483,0,0,0,0,0,0,6,5,4,NaN,NaN,NaN,vertical,horizontal,vertical,none,none,none
1a,14,100154,3,49,177,18,M,NA,variable,heterogeneous,6,absent,1.2619469165802,1,vertical,vertical,1,1.07031764984131,red,5,NaN,607.549057043193,432.704947607421,NaN,NaN,751.343706178981,850.314931779154,992.450942956807,767.295052392579,1041.10723677783,516.980120613425,848.656293821019,349.685068220846,607.549057043193,432.704947607421,558.892763222174,683.019879386575,0,5,3,6,4,0,vertical,horizontal,horizontal,horizontal,vertical,vertical
1a,14,100154,3,50,178,18,M,NA,variable,heterogeneous,4,absent,0.826588153839111,1,horizontal,horizontal,1,0.764611177444458,red,4,NaN,550.57236181288,546.982518841471,NaN,NaN,746.982518841471,849.42763818712,1049.42763818712,653.017481158529,853.017481158529,350.57236181288,550.57236181288,546.982518841471,0,0,0,0,0,5,3,4,NaN,NaN,vertical,horizontal,vertical,horizontal,none,none
1a,14,100154,3,51,179,18,M,NA,variable,heterogeneous,3,absent,1.30053615570068,1,vertical,vertical,1,0.658789706230164,red,3,NaN,568.891514305654,492.232343256122,NaN,NaN,822.224714400653,854.029648013395,1008.88377129369,453.738008730483,568.891514305654,492.232343256122,0,0,0,0,0,0,6,3,4,NaN,NaN,NaN,horizontal,vertical,vertical,none,none,none
1a,14,100154,3,52,180,18,M,NA,variable,heterogeneous,6,absent,1.72076106071472,1,horizontal,horizontal,1,0.705821471214294,green,2,NaN,931.334709102064,818.577661679039,NaN,NaN,676.373546837184,823.028025320546,931.334709102064,818.577661679039,1054.96116226488,595.549636358493,923.626453162816,376.971974679454,668.665290897936,381.422338320961,545.03883773512,604.450363641507,5,4,5,6,0,3,horizontal,horizontal,horizontal,horizontal,horizontal,vertical
1a,14,100154,3,53,181,18,M,NA,variable,heterogeneous,6,present,1.88403582572937,1,vertical,vertical,1,1.03504382610321,red,5,3,558.892763222174,516.980120613425,992.450942956807,432.704947607421,848.656293821019,850.314931779154,1041.10723677783,683.019879386575,992.450942956807,432.704947607421,751.343706178981,349.685068220846,558.892763222174,516.980120613425,607.549057043193,767.295052392579,0,5,5,3,4,0,horizontal,vertical,horizontal,horizontal,vertical,horizontal
1a,14,100154,3,54,182,18,M,NA,variable,heterogeneous,3,present,1.30765008926392,1,horizontal,horizontal,1,1.08207559108734,green,3,2,599.057257830286,443.006323791957,1036.43188291453,504.475318678942,764.510859255183,852.518357529101,1036.43188291453,504.475318678942,599.057257830286,443.006323791957,0,0,0,0,0,0,6,6,4,NaN,NaN,NaN,vertical,vertical,horizontal,none,none,none
1a,14,100154,3,55,183,18,M,NA,variable,heterogeneous,4,absent,1.22165703773499,0,horizontal,vertical,1,0.976254119873047,red,1,NaN,672.5,820.836477965032,NaN,NaN,672.5,820.836477965032,1020.83647796503,727.5,927.5,379.163522034968,579.163522034968,472.5,0,0,0,0,4,0,0,5,NaN,NaN,horizontal,vertical,horizontal,horizontal,none,none
1a,14,100154,3,56,184,18,M,NA,variable,heterogeneous,4,absent,1.85020995140076,1,horizontal,horizontal,1,1.01152794361114,green,1,NaN,963.910840470068,795.341332995339,NaN,NaN,963.910840470068,795.341332995339,995.341332995339,436.089159529932,636.089159529932,404.658667004661,604.658667004661,763.910840470068,0,0,0,0,4,0,0,6,NaN,NaN,horizontal,vertical,horizontal,horizontal,none,none
1a,14,100154,3,57,185,18,M,NA,variable,heterogeneous,3,absent,1.60037279129028,1,horizontal,horizontal,1,0.823400883674622,red,2,NaN,895.524681321058,363.568117085469,NaN,NaN,956.993676208043,800.942742169714,895.524681321058,363.568117085469,547.481642470899,635.489140744817,0,0,0,0,0,0,6,4,6,NaN,NaN,NaN,vertical,horizontal,vertical,none,none,none
1a,14,100154,3,58,186,18,M,NA,variable,heterogeneous,3,absent,1.62567400932312,1,vertical,vertical,1,0.85867470741272,green,2,NaN,865.998856501143,353.688914296288,NaN,NaN,980.31222920257,780.31222920257,865.998856501143,353.688914296288,553.688914296288,665.998856501143,0,0,0,0,0,0,6,4,5,NaN,NaN,NaN,horizontal,vertical,horizontal,none,none,none
1a,14,100154,3,59,187,18,M,NA,variable,heterogeneous,6,absent,NaN,0,vertical,none,0,0.764611177444458,green,2,NaN,1050.31493177915,648.656293821019,NaN,NaN,883.019879386575,841.107236777826,1050.31493177915,648.656293821019,967.295052392579,407.549057043193,716.980120613425,358.892763222174,549.685068220846,551.343706178981,632.704947607421,792.450942956807,0,4,5,5,3,6,horizontal,vertical,horizontal,horizontal,horizontal,horizontal
1a,14,100154,3,60,188,18,M,NA,variable,heterogeneous,4,present,1.62018203735352,1,horizontal,horizontal,1,0.905706472396851,red,4,1,570.807518193712,488.215357568785,688.215357568785,829.192481806288,688.215357568785,829.192481806288,1029.19248180629,711.784642431215,911.784642431215,370.807518193712,570.807518193712,488.215357568785,0,0,0,0,0,5,0,4,NaN,NaN,vertical,vertical,horizontal,horizontal,none,none
1a,14,100154,3,61,189,18,M,NA,variable,heterogeneous,3,present,1.18180203437805,1,horizontal,horizontal,1,0.670547647476196,green,3,2,708.616172865948,361.936991243214,1051.86052685176,639.890788585259,639.523300282292,798.172220171528,1051.86052685176,639.890788585259,708.616172865948,361.936991243214,0,0,0,0,0,0,5,6,4,NaN,NaN,NaN,horizontal,horizontal,horizontal,none,none,none
1a,14,100154,3,62,190,18,M,NA,variable,heterogeneous,4,absent,1.70325803756714,1,vertical,vertical,1,0.882190589904785,red,2,NaN,1051.12597701811,555.719714694933,NaN,NaN,844.280285305067,851.125977018113,1051.12597701811,555.719714694933,755.719714694933,348.874022981887,548.874022981887,644.280285305067,0,0,0,0,0,4,5,0,NaN,NaN,horizontal,vertical,vertical,vertical,none,none
1a,14,100154,3,63,191,18,M,NA,variable,heterogeneous,4,absent,1.09633898735046,1,vertical,vertical,1,0.741095294952393,green,2,NaN,1053.09926866854,568.923317431687,NaN,NaN,831.076682568313,853.099268668537,1053.09926866854,568.923317431687,768.923317431687,346.900731331463,546.900731331463,631.076682568313,0,0,0,0,3,4,0,5,NaN,NaN,vertical,vertical,vertical,horizontal,none,none
1a,14,100154,3,64,192,18,M,NA,variable,heterogeneous,6,absent,1.71227407455444,1,horizontal,horizontal,1,1.09383353233337,red,5,NaN,668.665290897936,381.422338320961,NaN,NaN,676.373546837184,823.028025320546,931.334709102064,818.577661679039,1054.96116226488,595.549636358493,923.626453162816,376.971974679454,668.665290897936,381.422338320961,545.03883773512,604.450363641507,3,3,5,5,4,0,vertical,vertical,vertical,horizontal,horizontal,horizontal
1a,14,100154,4,1,193,18,M,NA,variable,heterogeneous,3,present,0.993828058242798,1,vertical,vertical,1,0.917464413642883,red,3,1,545.155339110131,591.100628340862,919.715248510402,825.151636179026,919.715248510402,825.151636179026,935.129412379467,383.747735480111,545.155339110131,591.100628340862,0,0,0,0,0,0,5,0,4,NaN,NaN,NaN,vertical,horizontal,vertical,none,none,none
1a,14,100154,4,2,194,18,M,NA,variable,heterogeneous,4,present,0.830633878707886,1,horizontal,horizontal,1,0.635273823738098,green,2,4,1045.12173246427,670.287525733335,554.878267535729,529.712474266665,729.712474266665,845.121732464271,1045.12173246427,670.287525733335,870.287525733335,354.878267535729,554.878267535729,529.712474266665,0,0,0,0,6,4,3,0,NaN,NaN,horizontal,horizontal,horizontal,vertical,none,none
1a,14,100154,4,3,195,18,M,NA,variable,heterogeneous,5,present,1.59683394432068,1,vertical,vertical,1,0.670547647476196,red,3,5,931.334709102064,381.422338320961,565.271262369628,699.636437764765,822.224714400653,854.029648013395,1048.46436652023,657.362518857686,931.334709102064,381.422338320961,632.704947607421,407.549057043193,565.271262369628,699.636437764765,0,0,3,5,4,6,5,NaN,vertical,horizontal,vertical,vertical,horizontal,none
1a,14,100154,4,4,196,18,M,NA,variable,heterogeneous,4,present,0.81896710395813,1,vertical,vertical,1,0.905706472396851,green,4,3,557.480588344736,521.200666434388,878.799333565612,357.480588344736,721.200666434388,842.519411655264,1042.51941165526,678.799333565612,878.799333565612,357.480588344736,557.480588344736,521.200666434388,0,0,0,0,6,3,0,4,NaN,NaN,vertical,horizontal,horizontal,vertical,none,none
1a,14,100154,4,5,197,18,M,NA,variable,heterogeneous,4,absent,0.655766010284424,1,vertical,vertical,1,0.811642942428589,red,2,NaN,986.495193912888,426.090418184063,NaN,NaN,973.909581815937,786.495193912888,986.495193912888,426.090418184063,626.090418184063,413.504806087112,613.504806087112,773.909581815937,0,0,0,0,0,4,6,0,NaN,NaN,horizontal,vertical,vertical,horizontal,none,none
1a,14,100154,4,6,198,18,M,NA,variable,heterogeneous,4,present,1.4439959526062,1,horizontal,horizontal,1,0.952738237380981,red,1,4,813.345668841951,854.650531362416,545.349468637584,613.345668841951,813.345668841951,854.650531362416,1054.65053136242,586.654331158049,786.654331158049,345.349468637584,545.349468637584,613.345668841951,0,0,0,0,4,6,3,3,NaN,NaN,horizontal,horizontal,horizontal,vertical,none,none
1a,14,100154,4,7,199,18,M,NA,variable,heterogeneous,6,present,1.85801887512207,0,horizontal,vertical,1,0.85867470741272,red,4,5,804.450363641507,345.03883773512,581.422338320961,468.665290897936,795.549636358493,854.96116226488,1018.57766167904,731.334709102064,1023.02802532055,476.373546837184,804.450363641507,345.03883773512,581.422338320961,468.665290897936,576.971974679454,723.626453162816,0,5,0,4,3,3,horizontal,vertical,vertical,horizontal,horizontal,vertical
1a,14,100154,4,8,200,18,M,NA,variable,heterogeneous,4,absent,0.859148025512695,1,vertical,vertical,1,0.776369118690491,green,4,NaN,596.34794493794,753.462830903772,NaN,NaN,953.462830903772,803.65205506206,1003.65205506206,446.537169096228,646.537169096228,396.34794493794,596.34794493794,753.462830903772,0,0,0,0,6,0,5,4,NaN,NaN,horizontal,vertical,vertical,vertical,none,none
1a,14,100154,4,9,201,18,M,NA,variable,heterogeneous,3,present,0.824894905090332,1,horizontal,horizontal,1,0.811642942428589,green,2,1,1038.06300875679,691.383827134052,601.827779828472,760.476699717708,601.827779828472,760.476699717708,1038.06300875679,691.383827134052,760.109211414741,348.13947314824,0,0,0,0,0,0,5,4,3,NaN,NaN,NaN,horizontal,horizontal,horizontal,none,none,none
1a,14,100154,4,10,202,18,M,NA,variable,heterogeneous,3,present,0.764806985855103,1,horizontal,horizontal,1,0.952738237380981,green,3,2,550.57236181288,546.982518841471,970.628304621509,410.498069503264,878.799333565612,842.519411655264,970.628304621509,410.498069503264,550.57236181288,546.982518841471,0,0,0,0,0,0,3,6,4,NaN,NaN,NaN,horizontal,vertical,horizontal,none,none,none
1a,14,100154,4,11,203,18,M,NA,variable,heterogeneous,4,present,0.99957799911499,1,vertical,vertical,1,0.764611177444458,green,4,2,552.574589799621,538.309916622085,1047.42541020038,661.690083377915,738.309916622085,847.425410200379,1047.42541020038,661.690083377915,861.690083377915,352.574589799621,552.574589799621,538.309916622085,0,0,0,0,6,0,3,4,NaN,NaN,horizontal,horizontal,horizontal,vertical,none,none
1a,14,100154,4,12,204,18,M,NA,variable,heterogeneous,6,absent,NaN,0,horizontal,none,0,0.741095294952393,green,3,NaN,1000.94274216971,443.006323791957,NaN,NaN,835.489140744817,852.518357529101,1036.43188291453,695.524681321058,1000.94274216971,443.006323791957,764.510859255183,347.4816424709,563.568117085469,504.475318678942,599.057257830286,756.993676208043,5,0,4,5,6,0,vertical,horizontal,horizontal,horizontal,horizontal,vertical
1a,14,100154,4,13,205,18,M,NA,variable,heterogeneous,5,present,1.0079779624939,1,vertical,vertical,1,0.658789706230164,red,5,1,619.68777079743,780.31222920257,915.767577433584,827.206663668034,915.767577433584,827.206663668034,1051.86052685176,560.109211414741,839.890788585259,348.13947314824,572.793336331966,484.232422566416,619.68777079743,780.31222920257,0,0,0,3,0,6,4,NaN,vertical,vertical,vertical,horizontal,vertical,none
1a,14,100154,4,14,206,18,M,NA,variable,heterogeneous,6,present,0.815300941467285,1,vertical,vertical,1,0.940980296134949,red,5,6,546.39691668109,573.345241866748,650.114760665419,806.299333565612,903.717843984329,832.954091698863,1053.60308331891,626.654758133252,949.885239334581,393.700666434388,696.282156015671,367.045908301137,546.39691668109,573.345241866748,650.114760665419,806.299333565612,3,0,5,3,4,6,horizontal,horizontal,vertical,vertical,vertical,vertical
1a,14,100154,4,15,207,18,M,NA,variable,heterogeneous,3,absent,0.835148811340332,1,vertical,vertical,1,1.01152794361114,green,3,NaN,622.862115532956,416.568350913644,NaN,NaN,729.712474266665,845.121732464271,1047.42541020038,538.309916622085,622.862115532956,416.568350913644,0,0,0,0,0,0,5,0,4,NaN,NaN,NaN,horizontal,horizontal,vertical,none,none,none
1a,14,100154,4,16,208,18,M,NA,variable,heterogeneous,6,present,1.04928803443909,1,vertical,vertical,1,0.811642942428589,red,1,5,676.373546837184,823.028025320546,668.665290897936,381.422338320961,676.373546837184,823.028025320546,931.334709102064,818.577661679039,1054.96116226488,595.549636358493,923.626453162816,376.971974679454,668.665290897936,381.422338320961,545.03883773512,604.450363641507,4,5,0,6,3,0,vertical,horizontal,vertical,horizontal,horizontal,horizontal
1a,14,100154,4,17,209,18,M,NA,variable,heterogeneous,6,present,1.44356107711792,1,vertical,vertical,1,1.05855970859528,green,2,4,992.450942956807,767.295052392579,848.656293821019,349.685068220846,751.343706178981,850.314931779154,992.450942956807,767.295052392579,1041.10723677783,516.980120613425,848.656293821019,349.685068220846,607.549057043193,432.704947607421,558.892763222174,683.019879386575,3,4,0,3,6,0,vertical,vertical,vertical,horizontal,horizontal,horizontal
1a,14,100154,4,18,210,18,M,NA,variable,heterogeneous,5,present,0.904476881027222,1,vertical,vertical,1,0.611757941246033,green,4,1,561.936991243214,508.616172865948,938.882953928832,813.860994826083,938.882953928832,813.860994826083,1046.31108570371,534.001143498857,813.345668841951,345.349468637584,561.936991243214,508.616172865948,639.523300282292,798.172220171528,0,0,3,6,5,4,0,NaN,vertical,horizontal,horizontal,vertical,horizontal,none
1a,14,100154,4,19,211,18,M,NA,variable,heterogeneous,3,absent,0.996299028396606,1,horizontal,horizontal,1,1.07031764984131,red,3,NaN,570.807518193712,711.784642431215,NaN,NaN,1011.40458100154,742.594190385041,817.787900804752,345.621167183745,570.807518193712,711.784642431215,0,0,0,0,0,0,3,6,4,NaN,NaN,NaN,horizontal,vertical,horizontal,none,none,none
1a,14,100154,4,20,212,18,M,NA,variable,heterogeneous,4,absent,0.824613094329834,1,vertical,vertical,1,0.611757941246033,red,1,NaN,963.910840470068,795.341332995339,NaN,NaN,963.910840470068,795.341332995339,995.341332995339,436.089159529932,636.089159529932,404.658667004661,604.658667004661,763.910840470068,0,0,0,0,4,5,0,6,NaN,NaN,vertical,vertical,horizontal,vertical,none,none
1a,14,100154,4,21,213,18,M,NA,variable,heterogeneous,3,absent,0.525885105133057,1,vertical,vertical,1,0.823400883674622,red,1,NaN,1013.86099482608,738.882953928832,NaN,NaN,1013.86099482608,738.882953928832,813.345668841951,345.349468637584,572.793336331966,715.767577433584,0,0,0,0,0,0,4,3,3,NaN,NaN,NaN,vertical,vertical,vertical,none,none,none
1a,14,100154,4,22,214,18,M,NA,variable,heterogeneous,6,present,0.961354970932007,1,vertical,vertical,1,0.635273823738098,green,2,4,1045.12173246427,670.287525733335,738.309916622085,352.574589799621,861.690083377915,847.425410200379,1045.12173246427,670.287525733335,983.431649086356,422.862115532956,738.309916622085,352.574589799621,554.878267535729,529.712474266665,616.568350913644,777.137884467044,5,4,0,6,3,0,vertical,vertical,horizontal,vertical,vertical,horizontal
1a,14,100154,4,23,215,18,M,NA,variable,heterogeneous,5,present,1.6441068649292,0,horizontal,vertical,1,0.976254119873047,red,5,3,619.68777079743,780.31222920257,839.890788585259,348.13947314824,915.767577433584,827.206663668034,1051.86052685176,560.109211414741,839.890788585259,348.13947314824,572.793336331966,484.232422566416,619.68777079743,780.31222920257,0,0,5,6,3,6,4,NaN,horizontal,vertical,horizontal,vertical,horizontal,none
1a,14,100154,4,24,216,18,M,NA,variable,heterogeneous,6,absent,1.20185804367065,1,vertical,vertical,1,0.635273823738098,green,1,NaN,857.362518857686,848.464366520235,NaN,NaN,857.362518857686,848.464366520235,1043.85771277057,674.554784704298,986.495193912888,426.090418184063,742.637481142314,351.535633479765,556.142287229426,525.445215295702,613.504806087112,773.909581815937,4,5,6,5,0,6,vertical,vertical,vertical,horizontal,horizontal,horizontal
1a,14,100154,4,25,217,18,M,NA,variable,heterogeneous,5,present,1.55477714538574,1,horizontal,horizontal,1,0.835158824920654,green,4,3,610.498069503264,429.371695378491,903.717843984329,367.045908301137,853.017481158529,849.42763818712,1053.60308331891,626.654758133252,903.717843984329,367.045908301137,610.498069503264,429.371695378491,579.163522034968,727.5,0,0,6,6,5,4,0,NaN,vertical,vertical,vertical,horizontal,vertical,none
1a,14,100154,4,26,218,18,M,NA,variable,heterogeneous,4,present,1.04043102264404,1,horizontal,horizontal,1,0.917464413642883,red,2,3,1031.10848569435,707.767656743878,907.767656743878,368.891514305654,692.232343256122,831.108485694346,1031.10848569435,707.767656743878,907.767656743878,368.891514305654,568.891514305654,492.232343256122,0,0,0,0,6,4,5,3,NaN,NaN,vertical,horizontal,vertical,vertical,none,none
1a,14,100154,4,27,219,18,M,NA,variable,heterogeneous,5,absent,1.24375796318054,1,vertical,vertical,1,0.717579412460327,red,3,NaN,1008.88377129369,453.738008730483,NaN,NaN,716.980120613425,841.107236777826,1003.65205506206,753.462830903772,1008.88377129369,453.738008730483,725.445215295702,356.142287229426,545.03883773512,595.549636358493,0,0,0,5,4,3,0,NaN,horizontal,horizontal,vertical,horizontal,horizontal,none
1a,14,100154,4,28,220,18,M,NA,variable,heterogeneous,5,absent,NaN,0,horizontal,none,0,0.682305588722229,green,4,NaN,626.090418184063,413.504806087112,NaN,NaN,831.076682568313,853.099268668537,1050.31493177915,648.656293821019,923.626453162816,376.971974679454,626.090418184063,413.504806087112,568.891514305654,707.767656743878,0,0,0,5,3,4,6,NaN,horizontal,vertical,vertical,horizontal,horizontal,none
1a,14,100154,4,29,221,18,M,NA,variable,heterogeneous,5,absent,0.994065999984741,1,horizontal,horizontal,1,0.964496178627014,red,3,NaN,1034.72873763037,500.363562235235,NaN,NaN,668.665290897936,818.577661679039,967.295052392579,792.450942956807,1034.72873763037,500.363562235235,777.775285599347,345.970351986605,551.535633479765,542.637481142314,0,0,5,0,4,3,5,NaN,horizontal,horizontal,horizontal,horizontal,vertical,none
1a,14,100154,4,30,222,18,M,NA,variable,heterogeneous,3,present,1.43758392333984,1,vertical,vertical,1,0.988012061119079,green,1,3,721.200666434388,842.519411655264,629.371695378491,410.498069503264,721.200666434388,842.519411655264,1049.42763818712,546.982518841471,629.371695378491,410.498069503264,0,0,0,0,0,0,4,5,3,NaN,NaN,NaN,vertical,vertical,horizontal,none,none,none
1a,14,100154,4,31,223,18,M,NA,variable,heterogeneous,3,absent,0.784599781036377,1,vertical,vertical,1,0.694063529968262,red,2,NaN,1027.20666366803,484.232422566416,NaN,NaN,786.654331158049,854.650531362416,1027.20666366803,484.232422566416,586.139005173917,461.117046071168,0,0,0,0,0,0,0,4,6,NaN,NaN,NaN,vertical,vertical,vertical,none,none,none
1a,14,100154,4,32,224,18,M,NA,variable,heterogeneous,6,absent,1.26409101486206,1,horizontal,horizontal,1,0.988012061119079,green,5,NaN,545.349468637584,586.654331158049,NaN,NaN,915.767577433584,827.206663668034,1054.65053136242,613.345668841951,938.882953928832,386.139005173917,684.232422566416,372.793336331966,545.349468637584,586.654331158049,661.117046071168,813.860994826083,6,6,0,5,4,0,vertical,horizontal,vertical,horizontal,horizontal,vertical
1a,14,100154,4,33,225,18,M,NA,variable,heterogeneous,3,present,1.23773384094238,1,vertical,vertical,1,0.611757941246033,red,3,1,676.373546837184,376.971974679454,668.665290897936,818.577661679039,668.665290897936,818.577661679039,1054.96116226488,604.450363641507,676.373546837184,376.971974679454,0,0,0,0,0,0,3,5,4,NaN,NaN,NaN,horizontal,vertical,vertical,none,none,none
1a,14,100154,4,34,226,18,M,NA,variable,heterogeneous,3,absent,0.972536087036133,0,horizontal,vertical,1,0.682305588722229,red,1,NaN,581.422338320961,731.334709102064,NaN,NaN,581.422338320961,731.334709102064,1023.02802532055,723.626453162816,795.549636358493,345.03883773512,0,0,0,0,0,0,4,3,0,NaN,NaN,NaN,horizontal,horizontal,vertical,none,none,none
1a,14,100154,4,35,227,18,M,NA,variable,heterogeneous,3,present,1.71644306182861,1,horizontal,horizontal,1,0.823400883674622,red,2,3,1006.29933356561,450.114760665419,567.045908301137,496.282156015671,826.654758133252,853.60308331891,1006.29933356561,450.114760665419,567.045908301137,496.282156015671,0,0,0,0,0,0,0,4,5,NaN,NaN,NaN,horizontal,horizontal,horizontal,none,none,none
1a,14,100154,4,36,228,18,M,NA,variable,heterogeneous,6,absent,0.732080936431885,1,vertical,vertical,1,0.647031764984131,red,5,NaN,548.13947314824,560.109211414741,NaN,NaN,891.383827134052,838.063008756786,1051.86052685176,639.890788585259,960.476699717708,401.827779828472,708.616172865948,361.936991243214,548.13947314824,560.109211414741,639.523300282292,798.172220171528,5,0,3,5,4,0,horizontal,vertical,vertical,horizontal,vertical,vertical
1a,14,100154,4,37,229,18,M,NA,variable,heterogeneous,3,present,1.51228880882263,1,vertical,vertical,1,0.670547647476196,green,1,3,646.537169096228,803.65205506206,700.363562235235,365.271262369628,646.537169096228,803.65205506206,1053.09926866854,631.076682568313,700.363562235235,365.271262369628,0,0,0,0,0,0,4,3,6,NaN,NaN,NaN,vertical,horizontal,vertical,none,none,none
1a,14,100154,4,38,230,18,M,NA,variable,heterogeneous,5,present,0.813665866851807,0,horizontal,vertical,1,0.940980296134949,green,5,3,591.116228706307,746.261991269517,883.019879386575,358.892763222174,874.554784704298,843.857712770574,1054.96116226488,604.450363641507,883.019879386575,358.892763222174,596.34794493794,446.537169096228,591.116228706307,746.261991269517,0,0,6,3,6,5,4,NaN,horizontal,vertical,vertical,horizontal,horizontal,none
1a,14,100154,4,39,231,18,M,NA,variable,heterogeneous,3,absent,1.07843613624573,1,vertical,vertical,1,1.02328588485718,green,2,NaN,891.383827134052,361.936991243214,NaN,NaN,960.476699717708,798.172220171528,891.383827134052,361.936991243214,548.13947314824,639.890788585259,0,0,0,0,0,0,5,4,6,NaN,NaN,NaN,horizontal,vertical,horizontal,none,none,none
1a,14,100154,4,40,232,18,M,NA,variable,heterogeneous,4,present,1.00967001914978,1,vertical,vertical,1,1.08207559108734,red,4,3,561.936991243214,508.616172865948,891.383827134052,361.936991243214,708.616172865948,838.063008756786,1038.06300875679,691.383827134052,891.383827134052,361.936991243214,561.936991243214,508.616172865948,0,0,0,0,6,6,0,4,NaN,NaN,vertical,horizontal,horizontal,vertical,none,none
1a,14,100154,4,41,233,18,M,NA,variable,heterogeneous,3,absent,0.790752172470093,1,horizontal,horizontal,1,0.823400883674622,green,2,NaN,1051.12597701811,644.280285305067,NaN,NaN,636.089159529932,795.341332995339,1051.12597701811,644.280285305067,712.784863451954,360.378381699593,0,0,0,0,0,0,3,4,0,NaN,NaN,NaN,vertical,horizontal,horizontal,none,none,none
1a,14,100154,4,42,234,18,M,NA,variable,heterogeneous,5,absent,0.997631788253784,1,vertical,vertical,1,0.752853236198425,green,4,NaN,672.5,379.163522034968,NaN,NaN,773.345241866748,853.60308331891,1032.95409169886,703.717843984329,970.628304621509,410.498069503264,672.5,379.163522034968,550.57236181288,653.017481158529,0,0,3,0,0,4,6,NaN,vertical,horizontal,vertical,vertical,vertical,none
1a,14,100154,4,43,235,18,M,NA,variable,heterogeneous,4,absent,0.895292043685913,1,vertical,vertical,1,0.670547647476196,green,4,NaN,616.568350913644,422.862115532956,NaN,NaN,622.862115532956,783.431649086356,983.431649086356,777.137884467044,977.137884467044,416.568350913644,616.568350913644,422.862115532956,0,0,0,0,3,0,6,4,NaN,NaN,horizontal,vertical,vertical,vertical,none,none
1a,14,100154,4,44,236,18,M,NA,variable,heterogeneous,5,absent,1.60412693023682,0,horizontal,vertical,1,0.929222354888916,red,1,NaN,692.232343256122,831.108485694346,NaN,NaN,692.232343256122,831.108485694346,986.495193912888,773.909581815937,1023.02802532055,476.373546837184,751.343706178981,349.685068220846,546.900731331463,568.923317431687,0,0,4,3,6,5,0,NaN,horizontal,horizontal,vertical,vertical,horizontal,none
1a,14,100154,4,45,237,18,M,NA,variable,heterogeneous,6,absent,1.31417298316956,1,vertical,vertical,1,0.694063529968262,green,2,NaN,1016.25226451989,735.129412379467,NaN,NaN,791.100628340862,854.844660889869,1016.25226451989,735.129412379467,1025.15163617903,480.284751489598,808.899371659138,345.155339110131,583.747735480111,464.870587620533,574.848363820974,719.715248510402,0,4,5,6,6,3,vertical,vertical,horizontal,horizontal,horizontal,horizontal
1a,14,100154,4,46,238,18,M,NA,variable,heterogeneous,6,absent,1.40481376647949,1,horizontal,horizontal,1,1.02328588485718,red,4,NaN,704.475318678942,363.568117085469,NaN,NaN,895.524681321058,836.431882914531,1052.5183575291,635.489140744817,956.993676208043,399.057257830286,704.475318678942,363.568117085469,547.481642470899,564.510859255183,643.006323791957,800.942742169714,5,6,3,4,3,0,vertical,vertical,horizontal,horizontal,vertical,horizontal
1a,14,100154,4,47,239,18,M,NA,variable,heterogeneous,6,absent,1.60592484474182,1,vertical,vertical,1,0.835158824920654,red,1,NaN,684.232422566416,827.206663668034,NaN,NaN,684.232422566416,827.206663668034,938.882953928832,813.860994826083,1054.65053136242,586.654331158049,915.767577433584,372.793336331966,661.117046071168,386.139005173917,545.349468637584,613.345668841951,4,3,5,0,6,5,vertical,horizontal,vertical,horizontal,horizontal,vertical
1a,14,100154,4,48,240,18,M,NA,variable,heterogeneous,4,absent,1.50799489021301,1,horizontal,horizontal,1,0.694063529968262,green,3,NaN,899.636437764765,365.271262369628,NaN,NaN,700.363562235235,834.728737630372,1034.72873763037,699.636437764765,899.636437764765,365.271262369628,565.271262369628,500.363562235235,0,0,0,0,0,5,4,5,NaN,NaN,vertical,horizontal,horizontal,vertical,none,none
1a,14,100154,4,49,241,18,M,NA,variable,heterogeneous,6,present,1.52373003959656,0,horizontal,vertical,1,0.882190589904785,green,1,2,919.715248510402,825.151636179026,1054.84466088987,608.899371659138,919.715248510402,825.151636179026,1054.84466088987,608.899371659138,935.129412379467,383.747735480111,680.284751489598,374.848363820974,545.155339110131,591.100628340862,664.870587620533,816.252264519889,4,3,3,6,0,5,horizontal,horizontal,vertical,vertical,vertical,horizontal
1a,14,100154,4,50,242,18,M,NA,variable,heterogeneous,5,present,NaN,0,horizontal,none,0,0.870432648658752,red,3,2,1027.20666366803,484.232422566416,980.31222920257,780.31222920257,684.232422566416,827.206663668034,980.31222920257,780.31222920257,1027.20666366803,484.232422566416,760.109211414741,348.13947314824,548.13947314824,560.109211414741,0,0,6,0,4,5,5,NaN,horizontal,horizontal,horizontal,vertical,horizontal,none
1a,14,100154,4,51,243,18,M,NA,variable,heterogeneous,5,absent,1.45822095870972,1,vertical,vertical,1,0.694063529968262,red,4,NaN,746.982518841471,350.57236181288,NaN,NaN,696.282156015671,832.954091698863,989.501930496736,770.628304621509,1020.83647796503,472.5,746.982518841471,350.57236181288,546.39691668109,573.345241866748,0,0,5,5,3,4,6,NaN,vertical,horizontal,vertical,vertical,vertical,none
1a,14,100154,4,52,244,18,M,NA,variable,heterogeneous,6,present,1.27231812477112,1,horizontal,horizontal,1,1.03504382610321,green,6,4,557.480588344736,678.799333565612,853.017481158529,350.57236181288,746.982518841471,849.42763818712,989.501930496736,770.628304621509,1042.51941165526,521.200666434388,853.017481158529,350.57236181288,610.498069503264,429.371695378491,557.480588344736,678.799333565612,3,0,6,5,5,4,vertical,vertical,vertical,horizontal,vertical,horizontal
1a,14,100154,4,53,245,18,M,NA,variable,heterogeneous,4,absent,1.30822086334229,1,horizontal,horizontal,1,0.905706472396851,red,2,NaN,1018.57766167904,731.334709102064,NaN,NaN,668.665290897936,818.577661679039,1018.57766167904,731.334709102064,931.334709102064,381.422338320961,581.422338320961,468.665290897936,0,0,0,0,3,4,6,0,NaN,NaN,horizontal,horizontal,vertical,vertical,none,none
