experiment,subject,uniqueID,block,trial,trial_cumulative,age,gender,color_cond_blocking,color_history,shape_type,set_size,distractor,rt,acc,target_orient,response_key,response_made,iti,target_color,target_item,distractor_item,target_X,target_Y,distractor_X,distractor_Y,item1_X,item1_Y,item2_X,item2_Y,item3_X,item3_Y,item4_X,item4_Y,item5_X,item5_Y,item6_X,item6_Y,item1_shape,item2_shape,item3_shape,item4_shape,item5_shape,item6_shape,item1_line,item2_line,item3_line,item4_line,item5_line,item6_line
1a,15,100162,1,1,1,20,F,NA,variable,heterogeneous,5,present,0.852982997894287,1,horizontal,horizontal,1,1.08234266565557,red,1,5,853.017481158529,849.42763818712,579.163522034968,727.5,853.017481158529,849.42763818712,1053.60308331891,626.654758133252,903.717843984329,367.045908301137,610.498069503264,429.371695378491,579.163522034968,727.5,0,0,4,3,5,6,6,NaN,horizontal,horizontal,horizontal,horizontal,horizontal,none
1a,15,100162,1,2,2,20,F,NA,variable,heterogeneous,5,present,0.801283836364746,1,horizontal,horizontal,1,0.77646682889838,green,2,1,1046.31108570371,665.998856501143,813.345668841951,854.650531362416,813.345668841951,854.650531362416,1046.31108570371,665.998856501143,938.882953928832,386.139005173917,639.523300282292,401.827779828472,561.936991243214,691.383827134052,0,0,5,4,6,3,3,NaN,horizontal,horizontal,horizontal,horizontal,vertical,none
1a,15,100162,1,3,3,20,F,NA,variable,heterogeneous,6,absent,NaN,0,horizontal,none,0,0.741173463118704,green,2,NaN,1054.84466088987,608.899371659138,NaN,NaN,919.715248510402,825.151636179026,1054.84466088987,608.899371659138,935.129412379467,383.747735480111,680.284751489598,374.848363820974,545.155339110131,591.100628340862,664.870587620533,816.252264519889,5,4,3,6,0,5,horizontal,horizontal,horizontal,horizontal,horizontal,horizontal
1a,15,100162,1,4,4,20,F,NA,variable,heterogeneous,3,present,1.58052086830139,0,horizontal,vertical,1,0.77646682889838,green,3,1,704.475318678942,363.568117085469,643.006323791957,800.942742169714,643.006323791957,800.942742169714,1052.5183575291,635.489140744817,704.475318678942,363.568117085469,0,0,0,0,0,0,5,6,4,NaN,NaN,NaN,horizontal,horizontal,horizontal,none,none,none
1a,15,100162,1,5,5,20,F,NA,variable,heterogeneous,4,absent,NaN,0,horizontal,none,0,0.623528910519784,green,1,NaN,650.114760665419,806.299333565612,NaN,NaN,650.114760665419,806.299333565612,1006.29933356561,749.885239334581,949.885239334581,393.700666434388,593.700666434388,450.114760665419,0,0,0,0,4,6,3,3,NaN,NaN,horizontal,vertical,horizontal,horizontal,none,none
1a,15,100162,1,6,6,20,F,NA,variable,heterogeneous,4,absent,1.26788210868835,1,horizontal,horizontal,1,0.952933657796759,green,3,NaN,708.616172865948,361.936991243214,NaN,NaN,891.383827134052,838.063008756786,1038.06300875679,508.616172865948,708.616172865948,361.936991243214,561.936991243214,691.383827134052,0,0,0,0,5,6,4,0,NaN,NaN,horizontal,vertical,horizontal,horizontal,none,none
1a,15,100162,1,7,7,20,F,NA,variable,heterogeneous,5,absent,0.677848815917969,1,horizontal,horizontal,1,0.823524649937948,green,3,NaN,874.554784704298,356.142287229426,NaN,NaN,883.019879386575,841.107236777826,1054.96116226488,595.549636358493,874.554784704298,356.142287229426,591.116228706307,453.738008730483,596.34794493794,753.462830903772,0,0,5,5,4,3,0,NaN,vertical,horizontal,horizontal,vertical,vertical,none
1a,15,100162,1,8,8,20,F,NA,variable,heterogeneous,6,present,1.44351196289062,1,vertical,vertical,1,0.999991478836327,red,6,4,546.900731331463,631.076682568313,899.636437764765,365.271262369628,700.363562235235,834.728737630372,953.462830903772,803.65205506206,1053.09926866854,568.923317431687,899.636437764765,365.271262369628,646.537169096228,396.34794493794,546.900731331463,631.076682568313,0,5,5,6,0,4,vertical,vertical,vertical,vertical,vertical,vertical
1a,15,100162,1,9,9,20,F,NA,variable,heterogeneous,4,present,1.86928606033325,1,horizontal,horizontal,1,1.02352038935611,green,1,4,870.287525733335,845.121732464271,554.878267535729,670.287525733335,870.287525733335,845.121732464271,1045.12173246427,529.712474266665,729.712474266665,354.878267535729,554.878267535729,670.287525733335,0,0,0,0,4,3,5,0,NaN,NaN,horizontal,horizontal,vertical,horizontal,none,none
1a,15,100162,1,10,10,20,F,NA,variable,heterogeneous,5,present,1.49311399459839,1,horizontal,horizontal,1,0.71764455259892,green,5,2,546.39691668109,626.654758133252,1020.83647796503,727.5,746.982518841471,849.42763818712,1020.83647796503,727.5,989.501930496736,429.371695378491,696.282156015671,367.045908301137,546.39691668109,626.654758133252,0,0,6,6,0,5,4,NaN,horizontal,horizontal,horizontal,vertical,horizontal,none
1a,15,100162,1,11,11,20,F,NA,variable,heterogeneous,5,absent,1.31921195983887,1,vertical,vertical,1,0.811760194678056,red,1,NaN,664.870587620533,816.252264519889,NaN,NaN,664.870587620533,816.252264519889,963.910840470068,795.341332995339,1036.43188291453,504.475318678942,782.212099195248,345.621167183745,552.574589799621,538.309916622085,0,0,4,5,3,0,6,NaN,vertical,horizontal,horizontal,vertical,vertical,none
1a,15,100162,1,12,12,20,F,NA,variable,heterogeneous,6,absent,0.854671001434326,1,vertical,vertical,1,1.02352038935611,green,2,NaN,1054.37883281626,617.787900804752,NaN,NaN,911.784642431215,829.192481806288,1054.37883281626,617.787900804752,942.594190385041,388.595418998464,688.215357568785,370.807518193712,545.621167183745,582.212099195248,657.405809614959,811.404581001536,3,4,6,3,5,0,horizontal,vertical,vertical,vertical,horizontal,vertical
1a,15,100162,1,13,13,20,F,NA,variable,heterogeneous,5,absent,1.13745594024658,1,horizontal,horizontal,1,0.682351186819244,green,3,NaN,1018.57766167904,468.665290897936,NaN,NaN,700.363562235235,834.728737630372,992.450942956807,767.295052392579,1018.57766167904,468.665290897936,742.637481142314,351.535633479765,545.970351986605,577.775285599347,0,0,5,6,4,3,3,NaN,horizontal,horizontal,horizontal,vertical,vertical,none
1a,15,100162,1,14,14,20,F,NA,variable,heterogeneous,4,absent,1.1816771030426,1,vertical,vertical,1,1.07057821039568,green,2,NaN,1018.57766167904,731.334709102064,NaN,NaN,668.665290897936,818.577661679039,1018.57766167904,731.334709102064,931.334709102064,381.422338320961,581.422338320961,468.665290897936,0,0,0,0,0,4,6,0,NaN,NaN,horizontal,vertical,horizontal,vertical,none,none
1a,15,100162,1,15,15,20,F,NA,variable,heterogeneous,3,absent,1.18066811561584,0,horizontal,vertical,1,0.941169202536867,green,2,NaN,973.909581815937,413.504806087112,NaN,NaN,874.554784704298,843.857712770574,973.909581815937,413.504806087112,551.535633479765,542.637481142314,0,0,0,0,0,0,6,4,0,NaN,NaN,NaN,horizontal,horizontal,vertical,none,none,none
1a,15,100162,1,16,16,20,F,NA,variable,heterogeneous,6,present,1.98263001441956,1,horizontal,horizontal,1,0.729409007858812,red,6,5,545.970351986605,622.224714400653,653.738008730483,391.116228706307,692.232343256122,831.108485694346,946.261991269517,808.883771293693,1054.0296480134,577.775285599347,907.767656743878,368.891514305654,653.738008730483,391.116228706307,545.970351986605,622.224714400653,5,5,6,6,0,4,horizontal,vertical,vertical,vertical,horizontal,horizontal
1a,15,100162,1,17,17,20,F,NA,variable,heterogeneous,5,present,1.14033102989197,1,vertical,vertical,1,0.694115642079136,red,2,3,1027.20666366803,715.767577433584,980.31222920257,419.68777079743,760.109211414741,851.86052685176,1027.20666366803,715.767577433584,980.31222920257,419.68777079743,684.232422566416,372.793336331966,548.13947314824,639.890788585259,0,0,0,4,3,3,6,NaN,horizontal,vertical,vertical,vertical,horizontal,none
1a,15,100162,1,18,18,20,F,NA,variable,heterogeneous,3,present,0.793922185897827,1,horizontal,horizontal,1,0.905875836757191,red,2,1,1054.84466088987,591.100628340862,680.284751489598,825.151636179026,680.284751489598,825.151636179026,1054.84466088987,591.100628340862,664.870587620533,383.747735480111,0,0,0,0,0,0,3,4,5,NaN,NaN,NaN,horizontal,horizontal,vertical,none,none,none
1a,15,100162,1,19,19,20,F,NA,variable,heterogeneous,3,present,1.26767992973328,1,vertical,vertical,1,1.09410712091546,red,1,2,980.31222920257,780.31222920257,865.998856501143,353.688914296288,980.31222920257,780.31222920257,865.998856501143,353.688914296288,553.688914296288,665.998856501143,0,0,0,0,0,0,4,6,6,NaN,NaN,NaN,vertical,vertical,horizontal,none,none,none
1a,15,100162,1,20,20,20,F,NA,variable,heterogeneous,5,present,1.52186608314514,1,horizontal,horizontal,1,1.035284844616,red,3,4,895.524681321058,363.568117085469,604.658667004661,436.089159529932,861.690083377915,847.425410200379,1054.37883281626,617.787900804752,895.524681321058,363.568117085469,604.658667004661,436.089159529932,583.747735480111,735.129412379467,0,0,3,0,4,5,6,NaN,horizontal,vertical,horizontal,horizontal,vertical,none
1a,15,100162,1,21,21,20,F,NA,variable,heterogeneous,5,absent,1.21833801269531,1,vertical,vertical,1,1.09410712091546,green,1,NaN,903.717843984329,832.954091698863,NaN,NaN,903.717843984329,832.954091698863,1053.60308331891,573.345241866748,853.017481158529,350.57236181288,579.163522034968,472.5,610.498069503264,770.628304621509,0,0,4,5,3,0,5,NaN,vertical,vertical,vertical,horizontal,horizontal,none
1a,15,100162,1,22,22,20,F,NA,variable,heterogeneous,3,absent,0.909178972244263,1,vertical,vertical,1,0.71764455259892,red,2,NaN,887.215136548046,360.378381699593,NaN,NaN,963.910840470068,795.341332995339,887.215136548046,360.378381699593,548.874022981887,644.280285305067,0,0,0,0,0,0,5,4,5,NaN,NaN,NaN,horizontal,vertical,horizontal,none,none,none
1a,15,100162,1,23,23,20,F,NA,variable,heterogeneous,6,absent,1.60596609115601,1,horizontal,horizontal,1,0.929404747276975,red,1,NaN,907.767656743878,831.108485694346,NaN,NaN,907.767656743878,831.108485694346,1054.0296480134,622.224714400653,946.261991269517,391.116228706307,692.232343256122,368.891514305654,545.970351986605,577.775285599347,653.738008730483,808.883771293693,4,0,5,6,0,3,horizontal,vertical,vertical,vertical,vertical,vertical
1a,15,100162,1,24,24,20,F,NA,variable,heterogeneous,4,present,0.939930200576782,0,vertical,horizontal,1,1.07057821039568,red,3,4,729.712474266665,354.878267535729,554.878267535729,670.287525733335,870.287525733335,845.121732464271,1045.12173246427,529.712474266665,729.712474266665,354.878267535729,554.878267535729,670.287525733335,0,0,0,0,6,0,4,0,NaN,NaN,vertical,horizontal,vertical,vertical,none,none
1a,15,100162,1,25,25,20,F,NA,variable,heterogeneous,6,absent,1.74930286407471,1,vertical,vertical,1,0.71764455259892,red,2,NaN,1054.84466088987,608.899371659138,NaN,NaN,919.715248510402,825.151636179026,1054.84466088987,608.899371659138,935.129412379467,383.747735480111,680.284751489598,374.848363820974,545.155339110131,591.100628340862,664.870587620533,816.252264519889,0,4,0,3,3,5,vertical,vertical,horizontal,vertical,horizontal,horizontal
1a,15,100162,1,26,26,20,F,NA,variable,heterogeneous,3,absent,0.934761047363281,1,vertical,vertical,1,0.917640292017083,red,3,NaN,550.57236181288,546.982518841471,NaN,NaN,878.799333565612,842.519411655264,970.628304621509,410.498069503264,550.57236181288,546.982518841471,0,0,0,0,0,0,5,6,4,NaN,NaN,NaN,horizontal,vertical,vertical,none,none,none
1a,15,100162,1,27,27,20,F,NA,variable,heterogeneous,3,absent,0.723012924194336,1,horizontal,horizontal,1,0.870582470977515,red,3,NaN,777.775285599347,345.970351986605,NaN,NaN,591.116228706307,746.261991269517,1031.10848569435,707.767656743878,777.775285599347,345.970351986605,0,0,0,0,0,0,5,5,4,NaN,NaN,NaN,horizontal,horizontal,horizontal,none,none,none
1a,15,100162,1,28,28,20,F,NA,variable,heterogeneous,4,present,0.773507833480835,1,horizontal,horizontal,1,0.788231284158272,red,1,4,619.68777079743,780.31222920257,619.68777079743,419.68777079743,619.68777079743,780.31222920257,980.31222920257,780.31222920257,980.31222920257,419.68777079743,619.68777079743,419.68777079743,0,0,0,0,4,6,0,5,NaN,NaN,horizontal,vertical,horizontal,vertical,none,none
1a,15,100162,1,29,29,20,F,NA,variable,heterogeneous,6,absent,1.58483791351318,1,horizontal,horizontal,1,0.988227023576435,green,3,NaN,1023.02802532055,476.373546837184,NaN,NaN,795.549636358493,854.96116226488,1018.57766167904,731.334709102064,1023.02802532055,476.373546837184,804.450363641507,345.03883773512,581.422338320961,468.665290897936,576.971974679454,723.626453162816,6,5,4,0,0,3,vertical,vertical,horizontal,horizontal,vertical,horizontal
1a,15,100162,1,30,30,20,F,NA,variable,heterogeneous,4,absent,0.943939924240112,1,horizontal,horizontal,1,0.764702373638488,red,3,NaN,911.784642431215,370.807518193712,NaN,NaN,688.215357568785,829.192481806288,1029.19248180629,711.784642431215,911.784642431215,370.807518193712,570.807518193712,488.215357568785,0,0,0,0,0,0,4,5,NaN,NaN,vertical,vertical,horizontal,vertical,none,none
1a,15,100162,1,31,31,20,F,NA,variable,heterogeneous,5,absent,1.12750792503357,1,vertical,vertical,1,1.02352038935611,green,1,NaN,931.334709102064,818.577661679039,NaN,NaN,931.334709102064,818.577661679039,1048.46436652023,542.637481142314,822.224714400653,345.970351986605,565.271262369628,500.363562235235,632.704947607421,792.450942956807,0,0,4,3,5,0,0,NaN,vertical,vertical,vertical,vertical,vertical,none
1a,15,100162,1,32,32,20,F,NA,variable,heterogeneous,3,absent,0.762109994888306,1,vertical,vertical,1,1.01175593409622,green,2,NaN,848.656293821019,349.685068220846,NaN,NaN,992.450942956807,767.295052392579,848.656293821019,349.685068220846,558.892763222174,683.019879386575,0,0,0,0,0,0,0,4,3,NaN,NaN,NaN,vertical,vertical,horizontal,none,none,none
1a,15,100162,1,33,33,20,F,NA,variable,heterogeneous,4,present,1.09470796585083,1,horizontal,horizontal,1,0.647057821039568,red,4,2,548.13947314824,639.890788585259,1051.86052685176,560.109211414741,839.890788585259,851.86052685176,1051.86052685176,560.109211414741,760.109211414741,348.13947314824,548.13947314824,639.890788585259,0,0,0,0,0,5,3,4,NaN,NaN,horizontal,horizontal,vertical,horizontal,none,none
1a,15,100162,1,34,34,20,F,NA,variable,heterogeneous,4,absent,0.678893804550171,1,horizontal,horizontal,1,0.894111381497299,red,4,NaN,583.747735480111,464.870587620533,NaN,NaN,664.870587620533,816.252264519889,1016.25226451989,735.129412379467,935.129412379467,383.747735480111,583.747735480111,464.870587620533,0,0,0,0,0,6,5,4,NaN,NaN,vertical,vertical,horizontal,horizontal,none,none
1a,15,100162,1,35,35,20,F,NA,variable,heterogeneous,6,present,0.710235834121704,1,horizontal,horizontal,1,1.09410712091546,green,5,1,661.117046071168,386.139005173917,684.232422566416,827.206663668034,684.232422566416,827.206663668034,938.882953928832,813.860994826083,1054.65053136242,586.654331158049,915.767577433584,372.793336331966,661.117046071168,386.139005173917,545.349468637584,613.345668841951,0,5,6,0,4,3,vertical,horizontal,vertical,vertical,horizontal,vertical
1a,15,100162,1,36,36,20,F,NA,variable,heterogeneous,5,present,1.15367794036865,1,vertical,vertical,1,1.0470492998759,green,2,1,980.31222920257,780.31222920257,684.232422566416,827.206663668034,684.232422566416,827.206663668034,980.31222920257,780.31222920257,1027.20666366803,484.232422566416,760.109211414741,348.13947314824,548.13947314824,560.109211414741,0,0,0,4,5,3,6,NaN,horizontal,vertical,vertical,vertical,vertical,none
1a,15,100162,1,37,37,20,F,NA,variable,heterogeneous,3,absent,0.923336029052734,1,horizontal,horizontal,1,0.905875836757191,red,1,NaN,773.345241866748,853.60308331891,NaN,NaN,773.345241866748,853.60308331891,1032.95409169886,496.282156015671,593.700666434388,450.114760665419,0,0,0,0,0,0,4,0,5,NaN,NaN,NaN,horizontal,horizontal,horizontal,none,none,none
1a,15,100162,1,38,38,20,F,NA,variable,heterogeneous,5,present,0.692121982574463,1,vertical,vertical,1,0.917640292017083,green,2,5,1049.42763818712,546.982518841471,629.371695378491,789.501930496736,927.5,820.836477965032,1049.42763818712,546.982518841471,826.654758133252,346.39691668109,567.045908301137,496.282156015671,629.371695378491,789.501930496736,0,0,0,4,3,6,5,NaN,horizontal,vertical,vertical,vertical,vertical,none
1a,15,100162,1,39,39,20,F,NA,variable,heterogeneous,6,present,1.51897215843201,1,vertical,vertical,1,0.847053560457732,green,2,5,1041.10723677783,683.019879386575,558.892763222174,516.980120613425,848.656293821019,850.314931779154,1041.10723677783,683.019879386575,992.450942956807,432.704947607421,751.343706178981,349.685068220846,558.892763222174,516.980120613425,607.549057043193,767.295052392579,3,4,5,0,6,0,horizontal,vertical,vertical,vertical,vertical,vertical
1a,15,100162,1,40,40,20,F,NA,variable,heterogeneous,6,present,1.70632314682007,0,vertical,horizontal,1,0.635293365779676,red,4,5,760.109211414741,348.13947314824,561.936991243214,508.616172865948,839.890788585259,851.86052685176,1038.06300875679,691.383827134052,998.172220171528,439.523300282291,760.109211414741,348.13947314824,561.936991243214,508.616172865948,601.827779828472,760.476699717708,5,5,3,4,6,6,horizontal,vertical,horizontal,vertical,vertical,vertical
1a,15,100162,1,41,41,20,F,NA,variable,heterogeneous,6,absent,1.38600206375122,1,horizontal,horizontal,1,0.858818015717624,red,6,NaN,579.163522034968,727.5,NaN,NaN,800,855,1020.83647796503,727.5,1020.83647796503,472.5,800,345,579.163522034968,472.5,579.163522034968,727.5,3,5,3,0,6,4,horizontal,horizontal,vertical,vertical,horizontal,horizontal
1a,15,100162,1,42,42,20,F,NA,variable,heterogeneous,3,present,1.38616490364075,0,vertical,horizontal,1,0.611764455259892,green,3,2,546.39691668109,626.654758133252,903.717843984329,367.045908301137,949.885239334581,806.299333565612,903.717843984329,367.045908301137,546.39691668109,626.654758133252,0,0,0,0,0,0,3,3,4,NaN,NaN,NaN,horizontal,vertical,vertical,none,none,none
1a,15,100162,1,43,43,20,F,NA,variable,heterogeneous,6,absent,1.42102408409119,1,vertical,vertical,1,0.752937918378596,red,4,NaN,907.767656743878,368.891514305654,NaN,NaN,692.232343256122,831.108485694346,946.261991269517,808.883771293693,1054.0296480134,577.775285599347,907.767656743878,368.891514305654,653.738008730483,391.116228706307,545.970351986605,622.224714400653,5,0,3,4,3,6,horizontal,horizontal,vertical,vertical,vertical,horizontal
1a,15,100162,1,44,44,20,F,NA,variable,heterogeneous,4,present,0.619483947753906,1,vertical,vertical,1,0.705880097339028,red,4,1,591.116228706307,453.738008730483,653.738008730483,808.883771293693,653.738008730483,808.883771293693,1008.88377129369,746.261991269517,946.261991269517,391.116228706307,591.116228706307,453.738008730483,0,0,0,0,6,5,0,4,NaN,NaN,horizontal,horizontal,horizontal,vertical,none,none
1a,15,100162,1,45,45,20,F,NA,variable,heterogeneous,4,absent,0.705573797225952,1,vertical,vertical,1,1.08234266565557,red,4,NaN,546.900731331463,631.076682568313,NaN,NaN,831.076682568313,853.099268668537,1053.09926866854,568.923317431687,768.923317431687,346.900731331463,546.900731331463,631.076682568313,0,0,0,0,5,6,6,4,NaN,NaN,horizontal,vertical,vertical,vertical,none,none
1a,15,100162,1,46,46,20,F,NA,variable,heterogeneous,4,absent,0.730726957321167,1,vertical,vertical,1,0.729409007858812,green,2,NaN,1023.02802532055,476.373546837184,NaN,NaN,923.626453162816,823.028025320546,1023.02802532055,476.373546837184,676.373546837184,376.971974679454,576.971974679454,723.626453162816,0,0,0,0,0,4,0,3,NaN,NaN,horizontal,vertical,horizontal,vertical,none,none
1a,15,100162,1,47,47,20,F,NA,variable,heterogeneous,5,present,1.65525388717651,1,vertical,vertical,1,0.894111381497299,red,2,5,1038.06300875679,691.383827134052,553.688914296288,665.998856501143,786.654331158049,854.650531362416,1038.06300875679,691.383827134052,960.476699717708,401.827779828472,661.117046071168,386.139005173917,553.688914296288,665.998856501143,0,0,3,4,6,6,5,NaN,vertical,vertical,vertical,horizontal,vertical,none
1a,15,100162,1,48,48,20,F,NA,variable,heterogeneous,6,present,0.929275035858154,1,horizontal,horizontal,1,1.035284844616,red,6,4,576.971974679454,723.626453162816,804.450363641507,345.03883773512,795.549636358493,854.96116226488,1018.57766167904,731.334709102064,1023.02802532055,476.373546837184,804.450363641507,345.03883773512,581.422338320961,468.665290897936,576.971974679454,723.626453162816,5,6,3,3,0,4,vertical,horizontal,vertical,horizontal,horizontal,horizontal
1a,15,100162,1,49,49,20,F,NA,variable,heterogeneous,4,present,0.863914012908936,1,horizontal,horizontal,1,0.788231284158272,green,1,3,632.704947607421,792.450942956807,967.295052392579,407.549057043193,632.704947607421,792.450942956807,992.450942956807,767.295052392579,967.295052392579,407.549057043193,607.549057043193,432.704947607421,0,0,0,0,4,6,5,5,NaN,NaN,horizontal,horizontal,vertical,horizontal,none,none
1a,15,100162,1,50,50,20,F,NA,variable,heterogeneous,3,present,0.872663974761963,1,vertical,vertical,1,0.976462568316543,green,3,1,639.523300282292,401.827779828472,708.616172865948,838.063008756786,708.616172865948,838.063008756786,1051.86052685176,560.109211414741,639.523300282292,401.827779828472,0,0,0,0,0,0,3,6,4,NaN,NaN,NaN,horizontal,vertical,vertical,none,none,none
1a,15,100162,1,51,51,20,F,NA,variable,heterogeneous,3,present,1.55991911888123,1,vertical,vertical,1,0.670586731559352,red,1,3,588.595418998464,742.594190385041,782.212099195248,345.621167183745,588.595418998464,742.594190385041,1029.19248180629,711.784642431215,782.212099195248,345.621167183745,0,0,0,0,0,0,4,6,6,NaN,NaN,NaN,vertical,vertical,horizontal,none,none,none
1a,15,100162,1,52,52,20,F,NA,variable,heterogeneous,3,present,0.741608858108521,1,horizontal,horizontal,1,0.917640292017083,green,1,2,983.431649086356,777.137884467044,861.690083377915,352.574589799621,983.431649086356,777.137884467044,861.690083377915,352.574589799621,554.878267535729,670.287525733335,0,0,0,0,0,0,4,6,0,NaN,NaN,NaN,horizontal,horizontal,horizontal,none,none,none
1a,15,100162,1,53,53,20,F,NA,variable,heterogeneous,3,present,1.28984308242798,1,horizontal,horizontal,1,0.858818015717624,red,2,3,861.690083377915,352.574589799621,554.878267535729,670.287525733335,983.431649086356,777.137884467044,861.690083377915,352.574589799621,554.878267535729,670.287525733335,0,0,0,0,0,0,6,4,0,NaN,NaN,NaN,horizontal,horizontal,horizontal,none,none,none
1a,15,100162,1,54,54,20,F,NA,variable,heterogeneous,4,present,NaN,0,vertical,none,0,0.941169202536867,green,4,1,565.271262369628,500.363562235235,700.363562235235,834.728737630372,700.363562235235,834.728737630372,1034.72873763037,699.636437764765,899.636437764765,365.271262369628,565.271262369628,500.363562235235,0,0,0,0,5,5,0,4,NaN,NaN,vertical,vertical,vertical,vertical,none,none
1a,15,100162,1,55,55,20,F,NA,variable,heterogeneous,5,absent,0.735630989074707,1,horizontal,horizontal,1,0.835289105197839,red,4,NaN,581.422338320961,468.665290897936,NaN,NaN,899.636437764765,834.728737630372,1054.0296480134,577.775285599347,857.362518857686,351.535633479765,581.422338320961,468.665290897936,607.549057043193,767.295052392579,0,0,0,5,6,4,3,NaN,vertical,horizontal,vertical,horizontal,vertical,none
1a,15,100162,1,56,56,20,F,NA,variable,heterogeneous,3,absent,0.584175109863281,1,horizontal,horizontal,1,0.882346926237408,green,3,NaN,567.045908301137,496.282156015671,NaN,NaN,826.654758133252,853.60308331891,1006.29933356561,450.114760665419,567.045908301137,496.282156015671,0,0,0,0,0,0,0,6,4,NaN,NaN,NaN,vertical,horizontal,horizontal,none,none,none
1a,15,100162,1,57,57,20,F,NA,variable,heterogeneous,5,absent,1.64448690414429,0,horizontal,vertical,1,1.02352038935611,red,2,NaN,1052.5183575291,564.510859255183,NaN,NaN,911.784642431215,829.192481806288,1052.5183575291,564.510859255183,844.280285305067,348.874022981887,574.848363820974,480.284751489598,616.568350913644,777.137884467044,0,0,6,4,5,3,0,NaN,horizontal,horizontal,horizontal,horizontal,vertical,none
1a,15,100162,1,58,58,20,F,NA,variable,heterogeneous,5,absent,0.711190938949585,1,vertical,vertical,1,0.870582470977515,red,4,NaN,721.200666434388,357.480588344736,NaN,NaN,721.200666434388,842.519411655264,1006.29933356561,749.885239334581,1006.29933356561,450.114760665419,721.200666434388,357.480588344736,545,600,0,0,6,5,0,4,0,NaN,horizontal,vertical,vertical,vertical,horizontal,none
1a,15,100162,1,59,59,20,F,NA,variable,heterogeneous,6,present,0.520148038864136,0,horizontal,vertical,1,0.752937918378596,green,6,1,558.892763222174,683.019879386575,751.343706178981,850.314931779154,751.343706178981,850.314931779154,992.450942956807,767.295052392579,1041.10723677783,516.980120613425,848.656293821019,349.685068220846,607.549057043193,432.704947607421,558.892763222174,683.019879386575,3,0,0,5,6,4,horizontal,horizontal,vertical,vertical,horizontal,horizontal
1a,15,100162,1,60,60,20,F,NA,variable,heterogeneous,4,present,0.825814962387085,1,vertical,vertical,1,0.941169202536867,green,4,3,604.658667004661,436.089159529932,963.910840470068,404.658667004661,636.089159529932,795.341332995339,995.341332995339,763.910840470068,963.910840470068,404.658667004661,604.658667004661,436.089159529932,0,0,0,0,3,0,6,4,NaN,NaN,vertical,vertical,horizontal,vertical,none,none
1a,15,100162,1,61,61,20,F,NA,variable,heterogeneous,6,absent,1.74391293525696,0,vertical,horizontal,1,0.870582470977515,green,2,NaN,938.882953928832,813.860994826083,NaN,NaN,684.232422566416,827.206663668034,938.882953928832,813.860994826083,1054.65053136242,586.654331158049,915.767577433584,372.793336331966,661.117046071168,386.139005173917,545.349468637584,613.345668841951,5,4,3,6,5,0,horizontal,vertical,vertical,horizontal,vertical,vertical
1a,15,100162,1,62,62,20,F,NA,variable,heterogeneous,4,absent,1.35937190055847,0,vertical,horizontal,1,0.6,red,2,NaN,1042.51941165526,521.200666434388,NaN,NaN,878.799333565612,842.519411655264,1042.51941165526,521.200666434388,721.200666434388,357.480588344736,557.480588344736,678.799333565612,0,0,0,0,3,4,0,6,NaN,NaN,horizontal,vertical,horizontal,horizontal,none,none
1a,15,100162,1,63,63,20,F,NA,variable,heterogeneous,6,present,1.27697801589966,1,vertical,vertical,1,0.71764455259892,green,1,5,742.637481142314,848.464366520235,613.504806087112,426.090418184063,742.637481142314,848.464366520235,986.495193912888,773.909581815937,1043.85771277057,525.445215295702,857.362518857686,351.535633479765,613.504806087112,426.090418184063,556.142287229426,674.554784704298,4,0,0,5,3,6,vertical,vertical,horizontal,vertical,vertical,vertical
1a,15,100162,1,64,64,20,F,NA,variable,heterogeneous,3,absent,1.34607315063477,1,vertical,vertical,1,0.77646682889838,green,1,NaN,636.089159529932,795.341332995339,NaN,NaN,636.089159529932,795.341332995339,1051.12597701811,644.280285305067,712.784863451954,360.378381699593,0,0,0,0,0,0,4,3,6,NaN,NaN,NaN,vertical,horizontal,vertical,none,none,none
1a,15,100162,2,1,65,20,F,NA,variable,heterogeneous,4,present,0.806529998779297,1,horizontal,horizontal,1,0.788231284158272,green,4,2,565.271262369628,500.363562235235,1034.72873763037,699.636437764765,700.363562235235,834.728737630372,1034.72873763037,699.636437764765,899.636437764765,365.271262369628,565.271262369628,500.363562235235,0,0,0,0,6,3,0,4,NaN,NaN,vertical,horizontal,horizontal,horizontal,none,none
1a,15,100162,2,2,66,20,F,NA,variable,heterogeneous,5,present,1.44758701324463,1,vertical,vertical,1,0.835289105197839,red,2,4,1054.96116226488,604.450363641507,596.34794493794,446.537169096228,874.554784704298,843.857712770574,1054.96116226488,604.450363641507,883.019879386575,358.892763222174,596.34794493794,446.537169096228,591.116228706307,746.261991269517,0,0,5,4,5,6,6,NaN,vertical,vertical,vertical,vertical,horizontal,none
1a,15,100162,2,3,67,20,F,NA,variable,heterogeneous,3,present,0.71340012550354,1,vertical,vertical,1,0.635293365779676,red,3,1,755.719714694933,348.874022981887,604.658667004661,763.910840470068,604.658667004661,763.910840470068,1039.62161830041,687.215136548046,755.719714694933,348.874022981887,0,0,0,0,0,0,5,0,4,NaN,NaN,NaN,vertical,vertical,vertical,none,none,none
1a,15,100162,2,4,68,20,F,NA,variable,heterogeneous,5,present,0.831637144088745,1,vertical,vertical,1,0.988227023576435,green,2,4,953.462830903772,803.65205506206,795.549636358493,345.03883773512,653.738008730483,808.883771293693,953.462830903772,803.65205506206,1041.10723677783,516.980120613425,795.549636358493,345.03883773512,556.142287229426,525.445215295702,0,0,6,4,0,3,6,NaN,vertical,vertical,horizontal,vertical,vertical,none
1a,15,100162,2,5,69,20,F,NA,variable,heterogeneous,6,present,0.985834121704102,0,horizontal,vertical,1,0.882346926237408,red,2,5,1047.42541020038,661.690083377915,552.574589799621,538.309916622085,870.287525733335,845.121732464271,1047.42541020038,661.690083377915,977.137884467044,416.568350913644,729.712474266665,354.878267535729,552.574589799621,538.309916622085,622.862115532956,783.431649086356,3,4,0,6,5,5,vertical,horizontal,vertical,horizontal,vertical,horizontal
1a,15,100162,2,6,70,20,F,NA,variable,heterogeneous,3,absent,1.20839309692383,1,vertical,vertical,1,0.917640292017083,red,1,NaN,911.784642431215,829.192481806288,NaN,NaN,911.784642431215,829.192481806288,942.594190385041,388.595418998464,545.621167183745,582.212099195248,0,0,0,0,0,0,4,5,0,NaN,NaN,NaN,vertical,horizontal,horizontal,none,none,none
1a,15,100162,2,7,71,20,F,NA,variable,heterogeneous,5,absent,1.35267400741577,1,vertical,vertical,1,0.611764455259892,green,1,NaN,878.799333565612,842.519411655264,NaN,NaN,878.799333565612,842.519411655264,1055,600,878.799333565612,357.480588344736,593.700666434388,450.114760665419,593.700666434388,749.885239334581,0,0,4,5,3,5,6,NaN,vertical,vertical,vertical,horizontal,vertical,none
1a,15,100162,2,8,72,20,F,NA,variable,heterogeneous,4,absent,1.09204292297363,1,horizontal,horizontal,1,0.799995739418164,green,4,NaN,607.549057043193,432.704947607421,NaN,NaN,632.704947607421,792.450942956807,992.450942956807,767.295052392579,967.295052392579,407.549057043193,607.549057043193,432.704947607421,0,0,0,0,6,3,6,4,NaN,NaN,horizontal,vertical,horizontal,horizontal,none,none
1a,15,100162,2,9,73,20,F,NA,variable,heterogeneous,3,present,0.626577138900757,1,horizontal,horizontal,1,1.035284844616,red,3,1,692.232343256122,368.891514305654,653.738008730483,808.883771293693,653.738008730483,808.883771293693,1054.0296480134,622.224714400653,692.232343256122,368.891514305654,0,0,0,0,0,0,5,6,4,NaN,NaN,NaN,horizontal,horizontal,horizontal,none,none,none
1a,15,100162,2,10,74,20,F,NA,variable,heterogeneous,4,absent,0.716315984725952,1,horizontal,horizontal,1,0.635293365779676,red,2,NaN,1016.25226451989,735.129412379467,NaN,NaN,664.870587620533,816.252264519889,1016.25226451989,735.129412379467,935.129412379467,383.747735480111,583.747735480111,464.870587620533,0,0,0,0,6,4,0,3,NaN,NaN,vertical,horizontal,horizontal,vertical,none,none
1a,15,100162,2,11,75,20,F,NA,variable,heterogeneous,4,present,0.782516002655029,1,vertical,vertical,1,0.788231284158272,green,4,3,579.163522034968,472.5,927.5,379.163522034968,672.5,820.836477965032,1020.83647796503,727.5,927.5,379.163522034968,579.163522034968,472.5,0,0,0,0,3,5,0,4,NaN,NaN,vertical,horizontal,horizontal,vertical,none,none
1a,15,100162,2,12,76,20,F,NA,variable,heterogeneous,6,present,1.38219904899597,1,vertical,vertical,1,1.01175593409622,red,1,3,721.200666434388,842.519411655264,1049.42763818712,546.982518841471,721.200666434388,842.519411655264,970.628304621509,789.501930496736,1049.42763818712,546.982518841471,878.799333565612,357.480588344736,629.371695378491,410.498069503264,550.57236181288,653.017481158529,4,0,5,3,6,3,vertical,vertical,vertical,horizontal,vertical,horizontal
1a,15,100162,2,13,77,20,F,NA,variable,heterogeneous,5,present,0.879054069519043,1,horizontal,horizontal,1,1.035284844616,green,4,1,704.475318678942,363.568117085469,738.309916622085,847.425410200379,738.309916622085,847.425410200379,1016.25226451989,735.129412379467,995.341332995339,436.089159529932,704.475318678942,363.568117085469,545.621167183745,617.787900804752,0,0,0,6,3,4,5,NaN,vertical,vertical,vertical,horizontal,vertical,none
1a,15,100162,2,14,78,20,F,NA,variable,heterogeneous,4,present,1.08602499961853,1,horizontal,horizontal,1,0.670586731559352,red,4,1,601.827779828472,760.476699717708,960.476699717708,798.172220171528,960.476699717708,798.172220171528,998.172220171528,439.523300282291,639.523300282292,401.827779828472,601.827779828472,760.476699717708,0,0,0,0,3,6,5,4,NaN,NaN,horizontal,horizontal,vertical,horizontal,none,none
1a,15,100162,2,15,79,20,F,NA,variable,heterogeneous,6,present,0.805238008499146,1,vertical,vertical,1,1.05881375513579,red,5,4,629.371695378491,410.498069503264,878.799333565612,357.480588344736,721.200666434388,842.519411655264,970.628304621509,789.501930496736,1049.42763818712,546.982518841471,878.799333565612,357.480588344736,629.371695378491,410.498069503264,550.57236181288,653.017481158529,3,5,0,5,4,6,vertical,vertical,vertical,vertical,vertical,vertical
1a,15,100162,2,16,80,20,F,NA,variable,heterogeneous,4,absent,1.39541792869568,1,vertical,vertical,1,0.694115642079136,green,2,NaN,1054.84466088987,608.899371659138,NaN,NaN,791.100628340862,854.844660889869,1054.84466088987,608.899371659138,808.899371659138,345.155339110131,545.155339110131,591.100628340862,0,0,0,0,3,4,6,3,NaN,NaN,horizontal,vertical,horizontal,vertical,none,none
1a,15,100162,2,17,81,20,F,NA,variable,heterogeneous,4,absent,1.16618800163269,1,vertical,vertical,1,0.941169202536867,red,2,NaN,1054.84466088987,608.899371659138,NaN,NaN,791.100628340862,854.844660889869,1054.84466088987,608.899371659138,808.899371659138,345.155339110131,545.155339110131,591.100628340862,0,0,0,0,0,4,5,0,NaN,NaN,vertical,vertical,horizontal,vertical,none,none
1a,15,100162,2,18,82,20,F,NA,variable,heterogeneous,4,present,0.667511940002441,1,horizontal,horizontal,1,1.08234266565557,green,4,1,547.481642470899,564.510859255183,764.510859255183,852.518357529101,764.510859255183,852.518357529101,1052.5183575291,635.489140744817,835.489140744817,347.4816424709,547.481642470899,564.510859255183,0,0,0,0,0,3,6,4,NaN,NaN,vertical,horizontal,vertical,horizontal,none,none
1a,15,100162,2,19,83,20,F,NA,variable,heterogeneous,3,absent,1.36267399787903,1,vertical,vertical,1,1.08234266565557,green,2,NaN,938.882953928832,386.139005173917,NaN,NaN,915.767577433584,827.206663668034,938.882953928832,386.139005173917,545.349468637584,586.654331158049,0,0,0,0,0,0,5,4,6,NaN,NaN,NaN,vertical,vertical,horizontal,none,none,none
1a,15,100162,2,20,84,20,F,NA,variable,heterogeneous,5,absent,1.20083594322205,1,horizontal,horizontal,1,0.941169202536867,green,5,NaN,619.68777079743,780.31222920257,NaN,NaN,915.767577433584,827.206663668034,1051.86052685176,560.109211414741,839.890788585259,348.13947314824,572.793336331966,484.232422566416,619.68777079743,780.31222920257,0,0,0,6,3,6,4,NaN,horizontal,horizontal,horizontal,horizontal,horizontal,none
1a,15,100162,2,21,85,20,F,NA,variable,heterogeneous,5,absent,0.786852121353149,1,horizontal,horizontal,1,0.882346926237408,green,5,NaN,554.878267535729,670.287525733335,NaN,NaN,791.100628340862,854.844660889869,1039.62161830041,687.215136548046,956.993676208043,399.057257830286,657.405809614959,388.595418998464,554.878267535729,670.287525733335,0,0,0,3,5,6,4,NaN,vertical,vertical,horizontal,vertical,horizontal,none
1a,15,100162,2,22,86,20,F,NA,variable,heterogeneous,6,absent,0.623900890350342,1,horizontal,horizontal,1,0.65882227629946,green,3,NaN,1054.0296480134,577.775285599347,NaN,NaN,692.232343256122,831.108485694346,946.261991269517,808.883771293693,1054.0296480134,577.775285599347,907.767656743878,368.891514305654,653.738008730483,391.116228706307,545.970351986605,622.224714400653,3,6,4,0,0,3,horizontal,horizontal,horizontal,horizontal,vertical,horizontal
1a,15,100162,2,23,87,20,F,NA,variable,heterogeneous,3,absent,0.592802762985229,1,horizontal,horizontal,1,0.611764455259892,green,3,NaN,548.874022981887,555.719714694933,NaN,NaN,887.215136548046,839.621618300407,963.910840470068,404.658667004661,548.874022981887,555.719714694933,0,0,0,0,0,0,5,0,4,NaN,NaN,NaN,vertical,horizontal,horizontal,none,none,none
1a,15,100162,2,24,88,20,F,NA,variable,heterogeneous,3,absent,0.806810855865479,1,horizontal,horizontal,1,0.882346926237408,green,1,NaN,596.34794493794,753.462830903772,NaN,NaN,596.34794493794,753.462830903772,1034.72873763037,699.636437764765,768.923317431687,346.900731331463,0,0,0,0,0,0,4,6,5,NaN,NaN,NaN,horizontal,horizontal,horizontal,none,none,none
1a,15,100162,2,25,89,20,F,NA,variable,heterogeneous,5,absent,1.43550896644592,0,horizontal,vertical,1,0.623528910519784,red,1,NaN,899.636437764765,834.728737630372,NaN,NaN,899.636437764765,834.728737630372,1054.0296480134,577.775285599347,857.362518857686,351.535633479765,581.422338320961,468.665290897936,607.549057043193,767.295052392579,0,0,4,5,3,5,0,NaN,horizontal,horizontal,vertical,vertical,horizontal,none
1a,15,100162,2,26,90,20,F,NA,variable,heterogeneous,6,present,1.73960709571838,1,horizontal,horizontal,1,0.952933657796759,green,2,5,1003.65205506206,753.462830903772,596.34794493794,446.537169096228,768.923317431687,853.099268668537,1003.65205506206,753.462830903772,1034.72873763037,500.363562235235,831.076682568313,346.900731331463,596.34794493794,446.537169096228,565.271262369628,699.636437764765,5,4,5,0,0,6,horizontal,horizontal,vertical,vertical,vertical,horizontal
1a,15,100162,2,27,91,20,F,NA,variable,heterogeneous,4,absent,0.640285968780518,1,horizontal,horizontal,1,0.894111381497299,green,4,NaN,560.378381699593,512.784863451954,NaN,NaN,712.784863451954,839.621618300407,1039.62161830041,687.215136548046,887.215136548046,360.378381699593,560.378381699593,512.784863451954,0,0,0,0,0,5,5,4,NaN,NaN,horizontal,vertical,horizontal,horizontal,none,none
1a,15,100162,2,28,92,20,F,NA,variable,heterogeneous,5,absent,0.903733015060425,1,vertical,vertical,1,0.929404747276975,green,2,NaN,989.501930496736,770.628304621509,NaN,NaN,696.282156015671,832.954091698863,989.501930496736,770.628304621509,1020.83647796503,472.5,746.982518841471,350.57236181288,546.39691668109,573.345241866748,0,0,3,4,3,5,5,NaN,horizontal,vertical,vertical,vertical,vertical,none
1a,15,100162,2,29,93,20,F,NA,variable,heterogeneous,6,absent,0.789851903915405,1,horizontal,horizontal,1,0.999991478836327,red,6,NaN,601.827779828472,760.476699717708,NaN,NaN,839.890788585259,851.86052685176,1038.06300875679,691.383827134052,998.172220171528,439.523300282291,760.109211414741,348.13947314824,561.936991243214,508.616172865948,601.827779828472,760.476699717708,5,5,0,6,0,4,horizontal,horizontal,horizontal,vertical,horizontal,horizontal
1a,15,100162,2,30,94,20,F,NA,variable,heterogeneous,4,absent,1.44987797737122,1,vertical,vertical,1,0.988227023576435,red,1,NaN,853.017481158529,849.42763818712,NaN,NaN,853.017481158529,849.42763818712,1049.42763818712,546.982518841471,746.982518841471,350.57236181288,550.57236181288,653.017481158529,0,0,0,0,4,5,0,6,NaN,NaN,vertical,vertical,vertical,vertical,none,none
1a,15,100162,2,31,95,20,F,NA,variable,heterogeneous,4,present,0.998435974121094,1,vertical,vertical,1,0.976462568316543,red,2,3,1031.10848569435,707.767656743878,907.767656743878,368.891514305654,692.232343256122,831.108485694346,1031.10848569435,707.767656743878,907.767656743878,368.891514305654,568.891514305654,492.232343256122,0,0,0,0,6,4,3,0,NaN,NaN,horizontal,vertical,vertical,vertical,none,none
1a,15,100162,2,32,96,20,F,NA,variable,heterogeneous,5,present,1.08041405677795,1,vertical,vertical,1,0.682351186819244,green,2,5,1053.09926866854,631.076682568313,576.971974679454,723.626453162816,848.656293821019,850.314931779154,1053.09926866854,631.076682568313,907.767656743878,368.891514305654,613.504806087112,426.090418184063,576.971974679454,723.626453162816,0,0,0,4,6,5,5,NaN,horizontal,vertical,horizontal,horizontal,vertical,none
1a,15,100162,2,33,97,20,F,NA,variable,heterogeneous,6,absent,1.21458196640015,1,horizontal,horizontal,1,0.623528910519784,green,6,NaN,616.568350913644,777.137884467044,NaN,NaN,861.690083377915,847.425410200379,1045.12173246427,670.287525733335,983.431649086356,422.862115532956,738.309916622085,352.574589799621,554.878267535729,529.712474266665,616.568350913644,777.137884467044,6,3,5,0,3,4,horizontal,vertical,horizontal,horizontal,vertical,horizontal
1a,15,100162,2,34,98,20,F,NA,variable,heterogeneous,5,present,1.29925203323364,1,horizontal,horizontal,1,0.611764455259892,red,3,2,907.767656743878,368.891514305654,1053.09926866854,631.076682568313,848.656293821019,850.314931779154,1053.09926866854,631.076682568313,907.767656743878,368.891514305654,613.504806087112,426.090418184063,576.971974679454,723.626453162816,0,0,3,0,4,0,5,NaN,vertical,horizontal,horizontal,vertical,horizontal,none
1a,15,100162,2,35,99,20,F,NA,variable,heterogeneous,3,absent,0.949404954910278,1,vertical,vertical,1,1.01175593409622,green,1,NaN,995.341332995339,763.910840470068,NaN,NaN,995.341332995339,763.910840470068,844.280285305067,348.874022981887,560.378381699593,687.215136548046,0,0,0,0,0,0,4,0,6,NaN,NaN,NaN,vertical,horizontal,vertical,none,none,none
1a,15,100162,2,36,100,20,F,NA,variable,heterogeneous,4,absent,0.918154001235962,1,vertical,vertical,1,0.870582470977515,green,4,NaN,593.700666434388,450.114760665419,NaN,NaN,650.114760665419,806.299333565612,1006.29933356561,749.885239334581,949.885239334581,393.700666434388,593.700666434388,450.114760665419,0,0,0,0,5,3,0,4,NaN,NaN,horizontal,horizontal,horizontal,vertical,none,none
1a,15,100162,2,37,101,20,F,NA,variable,heterogeneous,6,absent,0.766750812530518,1,vertical,vertical,1,0.694115642079136,red,3,NaN,1051.12597701811,555.719714694933,NaN,NaN,712.784863451954,839.621618300407,963.910840470068,795.341332995339,1051.12597701811,555.719714694933,887.215136548046,360.378381699593,636.089159529932,404.658667004661,548.874022981887,644.280285305067,3,3,4,6,0,6,vertical,vertical,vertical,vertical,vertical,horizontal
1a,15,100162,2,38,102,20,F,NA,variable,heterogeneous,6,present,1.72161912918091,1,vertical,vertical,1,0.764702373638488,green,4,2,817.787900804752,345.621167183745,1011.40458100154,742.594190385041,782.212099195248,854.378832816255,1011.40458100154,742.594190385041,1029.19248180629,488.215357568785,817.787900804752,345.621167183745,588.595418998464,457.40580961496,570.807518193712,711.784642431215,0,6,0,4,5,3,vertical,horizontal,horizontal,vertical,horizontal,vertical
1a,15,100162,2,39,103,20,F,NA,variable,heterogeneous,4,present,0.781791925430298,1,horizontal,horizontal,1,1.08234266565557,red,2,1,1052.5183575291,564.510859255183,835.489140744817,852.518357529101,835.489140744817,852.518357529101,1052.5183575291,564.510859255183,764.510859255183,347.4816424709,547.481642470899,635.489140744817,0,0,0,0,3,4,6,5,NaN,NaN,horizontal,horizontal,vertical,vertical,none,none
1a,15,100162,2,40,104,20,F,NA,variable,heterogeneous,3,absent,0.987267971038818,1,horizontal,horizontal,1,1.07057821039568,red,2,NaN,1018.57766167904,468.665290897936,NaN,NaN,804.450363641507,854.96116226488,1018.57766167904,468.665290897936,576.971974679454,476.373546837184,0,0,0,0,0,0,6,4,6,NaN,NaN,NaN,horizontal,horizontal,horizontal,none,none,none
1a,15,100162,2,41,105,20,F,NA,variable,heterogeneous,5,absent,0.747720003128052,1,vertical,vertical,1,0.823524649937948,red,3,NaN,1034.72873763037,500.363562235235,NaN,NaN,668.665290897936,818.577661679039,967.295052392579,792.450942956807,1034.72873763037,500.363562235235,777.775285599347,345.970351986605,551.535633479765,542.637481142314,0,0,0,6,4,5,6,NaN,vertical,horizontal,vertical,vertical,vertical,none
1a,15,100162,2,42,106,20,F,NA,variable,heterogeneous,6,absent,1.16011905670166,1,vertical,vertical,1,1.05881375513579,green,2,NaN,935.129412379467,816.252264519889,NaN,NaN,680.284751489598,825.151636179026,935.129412379467,816.252264519889,1054.84466088987,591.100628340862,919.715248510402,374.848363820974,664.870587620533,383.747735480111,545.155339110131,608.899371659138,6,4,0,5,3,0,vertical,vertical,horizontal,horizontal,horizontal,horizontal
1a,15,100162,2,43,107,20,F,NA,variable,heterogeneous,6,absent,1.84376883506775,1,horizontal,horizontal,1,0.823524649937948,red,4,NaN,773.345241866748,346.39691668109,NaN,NaN,826.654758133252,853.60308331891,1032.95409169886,703.717843984329,1006.29933356561,450.114760665419,773.345241866748,346.39691668109,567.045908301137,496.282156015671,593.700666434388,749.885239334581,0,0,3,4,5,5,vertical,vertical,vertical,horizontal,vertical,vertical
1a,15,100162,2,44,108,20,F,NA,variable,heterogeneous,3,present,1.10220193862915,1,horizontal,horizontal,1,0.670586731559352,red,1,3,989.501930496736,770.628304621509,557.480588344736,678.799333565612,989.501930496736,770.628304621509,853.017481158529,350.57236181288,557.480588344736,678.799333565612,0,0,0,0,0,0,4,3,3,NaN,NaN,NaN,horizontal,vertical,vertical,none,none,none
1a,15,100162,2,45,109,20,F,NA,variable,heterogeneous,4,absent,0.708797216415405,1,horizontal,horizontal,1,0.823524649937948,red,3,NaN,800,345,NaN,NaN,800,855,1055,600,800,345,545,600,0,0,0,0,0,6,4,0,NaN,NaN,horizontal,vertical,horizontal,vertical,none,none
1a,15,100162,2,46,110,20,F,NA,variable,heterogeneous,4,present,1.12480211257935,1,vertical,vertical,1,0.882346926237408,red,1,3,887.215136548046,839.621618300407,712.784863451954,360.378381699593,887.215136548046,839.621618300407,1039.62161830041,512.784863451954,712.784863451954,360.378381699593,560.378381699593,687.215136548046,0,0,0,0,4,0,5,6,NaN,NaN,vertical,vertical,horizontal,horizontal,none,none
1a,15,100162,2,47,111,20,F,NA,variable,heterogeneous,3,present,1.35314893722534,0,horizontal,vertical,1,0.882346926237408,green,1,2,960.476699717708,798.172220171528,891.383827134052,361.936991243214,960.476699717708,798.172220171528,891.383827134052,361.936991243214,548.13947314824,639.890788585259,0,0,0,0,0,0,4,0,6,NaN,NaN,NaN,horizontal,horizontal,vertical,none,none,none
1a,15,100162,2,48,112,20,F,NA,variable,heterogeneous,3,absent,1.24587798118591,0,horizontal,vertical,1,0.870582470977515,red,2,NaN,1051.12597701811,555.719714694933,NaN,NaN,712.784863451954,839.621618300407,1051.12597701811,555.719714694933,636.089159529932,404.658667004661,0,0,0,0,0,0,6,4,5,NaN,NaN,NaN,horizontal,horizontal,vertical,none,none,none
1a,15,100162,2,49,113,20,F,NA,variable,heterogeneous,3,present,1.26703906059265,1,vertical,vertical,1,0.799995739418164,green,1,2,716.980120613425,841.107236777826,1050.31493177915,551.343706178981,716.980120613425,841.107236777826,1050.31493177915,551.343706178981,632.704947607421,407.549057043193,0,0,0,0,0,0,4,6,0,NaN,NaN,NaN,vertical,vertical,vertical,none,none,none
1a,15,100162,2,50,114,20,F,NA,variable,heterogeneous,5,present,1.76810097694397,0,horizontal,vertical,1,0.964698113056651,red,1,3,907.767656743878,831.108485694346,848.656293821019,349.685068220846,907.767656743878,831.108485694346,1053.09926866854,568.923317431687,848.656293821019,349.685068220846,576.971974679454,476.373546837184,613.504806087112,773.909581815937,0,0,4,6,3,5,0,NaN,horizontal,vertical,horizontal,horizontal,horizontal,none
1a,15,100162,2,51,115,20,F,NA,variable,heterogeneous,3,present,1.0696120262146,1,horizontal,horizontal,1,0.905875836757191,green,3,1,545.03883773512,604.450363641507,931.334709102064,818.577661679039,931.334709102064,818.577661679039,923.626453162816,376.971974679454,545.03883773512,604.450363641507,0,0,0,0,0,0,6,6,4,NaN,NaN,NaN,horizontal,vertical,horizontal,none,none,none
1a,15,100162,2,52,116,20,F,NA,variable,heterogeneous,5,absent,0.746361017227173,0,vertical,horizontal,1,0.952933657796759,red,3,NaN,953.462830903772,396.34794493794,NaN,NaN,795.549636358493,854.96116226488,1041.10723677783,683.019879386575,953.462830903772,396.34794493794,653.738008730483,391.116228706307,556.142287229426,674.554784704298,0,0,6,5,4,6,0,NaN,vertical,horizontal,vertical,horizontal,vertical,none
1a,15,100162,2,53,117,20,F,NA,variable,heterogeneous,5,present,0.951000213623047,1,vertical,vertical,1,0.882346926237408,red,5,2,636.089159529932,795.341332995339,1047.42541020038,538.309916622085,935.129412379467,816.252264519889,1047.42541020038,538.309916622085,817.787900804752,345.621167183745,563.568117085469,504.475318678942,636.089159529932,795.341332995339,0,0,5,3,6,0,4,NaN,vertical,horizontal,vertical,horizontal,vertical,none
1a,15,100162,2,54,118,20,F,NA,variable,heterogeneous,3,present,1.00247383117676,1,vertical,vertical,1,0.611764455259892,green,2,3,953.462830903772,396.34794493794,546.900731331463,568.923317431687,899.636437764765,834.728737630372,953.462830903772,396.34794493794,546.900731331463,568.923317431687,0,0,0,0,0,0,5,4,6,NaN,NaN,NaN,vertical,vertical,vertical,none,none,none
1a,15,100162,2,55,119,20,F,NA,variable,heterogeneous,5,absent,1.64850997924805,1,horizontal,horizontal,1,0.694115642079136,red,4,NaN,676.373546837184,376.971974679454,NaN,NaN,768.923317431687,853.099268668537,1031.10848569435,707.767656743878,973.909581815937,413.504806087112,676.373546837184,376.971974679454,549.685068220846,648.656293821019,0,0,0,6,6,4,0,NaN,vertical,vertical,horizontal,horizontal,horizontal,none
1a,15,100162,2,56,120,20,F,NA,variable,heterogeneous,6,present,0.974860191345215,1,horizontal,horizontal,1,0.647057821039568,green,3,6,1000.94274216971,443.006323791957,599.057257830286,756.993676208043,835.489140744817,852.518357529101,1036.43188291453,695.524681321058,1000.94274216971,443.006323791957,764.510859255183,347.4816424709,563.568117085469,504.475318678942,599.057257830286,756.993676208043,3,0,4,5,5,6,vertical,horizontal,horizontal,horizontal,vertical,horizontal
1a,15,100162,2,57,121,20,F,NA,variable,heterogeneous,6,absent,1.13049292564392,1,vertical,vertical,1,0.611764455259892,red,5,NaN,593.700666434388,450.114760665419,NaN,NaN,773.345241866748,853.60308331891,1006.29933356561,749.885239334581,1032.95409169886,496.282156015671,826.654758133252,346.39691668109,593.700666434388,450.114760665419,567.045908301137,703.717843984329,3,5,6,0,4,0,horizontal,horizontal,horizontal,vertical,vertical,vertical
1a,15,100162,2,58,122,20,F,NA,variable,heterogeneous,3,absent,0.965503931045532,0,vertical,horizontal,1,0.799995739418164,red,2,NaN,1029.19248180629,711.784642431215,NaN,NaN,588.595418998464,742.594190385041,1029.19248180629,711.784642431215,782.212099195248,345.621167183745,0,0,0,0,0,0,0,4,3,NaN,NaN,NaN,horizontal,vertical,horizontal,none,none,none
1a,15,100162,2,59,123,20,F,NA,variable,heterogeneous,4,present,1.63322687149048,1,vertical,vertical,1,0.611764455259892,green,1,3,738.309916622085,847.425410200379,861.690083377915,352.574589799621,738.309916622085,847.425410200379,1047.42541020038,661.690083377915,861.690083377915,352.574589799621,552.574589799621,538.309916622085,0,0,0,0,4,0,6,6,NaN,NaN,vertical,horizontal,vertical,vertical,none,none
1a,15,100162,2,60,124,20,F,NA,variable,heterogeneous,6,absent,1.37064599990845,1,vertical,vertical,1,0.835289105197839,green,6,NaN,591.116228706307,746.261991269517,NaN,NaN,822.224714400653,854.029648013395,1031.10848569435,707.767656743878,1008.88377129369,453.738008730483,777.775285599347,345.970351986605,568.891514305654,492.232343256122,591.116228706307,746.261991269517,0,5,0,3,6,4,vertical,horizontal,vertical,horizontal,vertical,vertical
1a,15,100162,2,61,125,20,F,NA,variable,heterogeneous,6,present,1.74586796760559,1,horizontal,horizontal,1,0.77646682889838,red,5,4,552.574589799621,538.309916622085,729.712474266665,354.878267535729,870.287525733335,845.121732464271,1047.42541020038,661.690083377915,977.137884467044,416.568350913644,729.712474266665,354.878267535729,552.574589799621,538.309916622085,622.862115532956,783.431649086356,3,3,6,6,4,5,horizontal,horizontal,horizontal,vertical,horizontal,vertical
1a,15,100162,2,62,126,20,F,NA,variable,heterogeneous,3,present,1.34589505195618,1,vertical,vertical,1,0.647057821039568,red,1,3,716.980120613425,841.107236777826,632.704947607421,407.549057043193,716.980120613425,841.107236777826,1050.31493177915,551.343706178981,632.704947607421,407.549057043193,0,0,0,0,0,0,4,6,6,NaN,NaN,NaN,vertical,vertical,vertical,none,none,none
1a,15,100162,2,63,127,20,F,NA,variable,heterogeneous,6,present,1.16759300231934,0,vertical,horizontal,1,0.729409007858812,green,3,2,1036.43188291453,504.475318678942,1000.94274216971,756.993676208043,764.510859255183,852.518357529101,1000.94274216971,756.993676208043,1036.43188291453,504.475318678942,835.489140744817,347.4816424709,599.057257830286,443.006323791957,563.568117085469,695.524681321058,5,6,4,6,3,0,horizontal,horizontal,vertical,horizontal,horizontal,vertical
1a,15,100162,2,64,128,20,F,NA,variable,heterogeneous,5,present,1.22456192970276,1,horizontal,horizontal,1,0.670586731559352,green,2,1,953.462830903772,803.65205506206,653.738008730483,808.883771293693,653.738008730483,808.883771293693,953.462830903772,803.65205506206,1041.10723677783,516.980120613425,795.549636358493,345.03883773512,556.142287229426,525.445215295702,0,0,6,4,6,3,0,NaN,horizontal,horizontal,vertical,horizontal,horizontal,none
1a,15,100162,3,1,129,20,F,NA,variable,heterogeneous,5,present,1.84155893325806,1,vertical,vertical,1,1.09410712091546,red,4,2,607.549057043193,432.704947607421,1054.0296480134,622.224714400653,857.362518857686,848.464366520235,1054.0296480134,622.224714400653,899.636437764765,365.271262369628,607.549057043193,432.704947607421,581.422338320961,731.334709102064,0,0,0,6,3,4,3,NaN,horizontal,vertical,horizontal,vertical,horizontal,none
1a,15,100162,3,2,130,20,F,NA,variable,heterogeneous,4,present,1.71570611000061,1,horizontal,horizontal,1,1.0470492998759,green,1,4,672.5,820.836477965032,579.163522034968,472.5,672.5,820.836477965032,1020.83647796503,727.5,927.5,379.163522034968,579.163522034968,472.5,0,0,0,0,4,5,3,3,NaN,NaN,horizontal,vertical,vertical,horizontal,none,none
1a,15,100162,3,3,131,20,F,NA,variable,heterogeneous,4,absent,0.722275972366333,1,horizontal,horizontal,1,0.811760194678056,green,4,NaN,546.900731331463,568.923317431687,NaN,NaN,768.923317431687,853.099268668537,1053.09926866854,631.076682568313,831.076682568313,346.900731331463,546.900731331463,568.923317431687,0,0,0,0,5,3,6,4,NaN,NaN,horizontal,vertical,vertical,horizontal,none,none
1a,15,100162,3,4,132,20,F,NA,variable,heterogeneous,4,present,0.72265887260437,1,horizontal,horizontal,1,0.870582470977515,red,1,2,643.006323791957,800.942742169714,1000.94274216971,756.993676208043,643.006323791957,800.942742169714,1000.94274216971,756.993676208043,956.993676208043,399.057257830286,599.057257830286,443.006323791957,0,0,0,0,4,5,5,0,NaN,NaN,horizontal,vertical,vertical,vertical,none,none
1a,15,100162,3,5,133,20,F,NA,variable,heterogeneous,5,present,1.44868087768555,1,horizontal,horizontal,1,0.976462568316543,red,1,3,696.282156015671,832.954091698863,1020.83647796503,472.5,696.282156015671,832.954091698863,989.501930496736,770.628304621509,1020.83647796503,472.5,746.982518841471,350.57236181288,546.39691668109,573.345241866748,0,0,4,3,5,5,3,NaN,horizontal,horizontal,vertical,horizontal,horizontal,none
1a,15,100162,3,6,134,20,F,NA,variable,heterogeneous,6,present,0.682517051696777,1,horizontal,horizontal,1,1.035284844616,green,3,5,1050.31493177915,551.343706178981,632.704947607421,407.549057043193,716.980120613425,841.107236777826,967.295052392579,792.450942956807,1050.31493177915,551.343706178981,883.019879386575,358.892763222174,632.704947607421,407.549057043193,549.685068220846,648.656293821019,0,3,4,6,5,0,horizontal,horizontal,horizontal,vertical,horizontal,vertical
1a,15,100162,3,7,135,20,F,NA,variable,heterogeneous,6,present,0.714147090911865,1,horizontal,horizontal,1,1.08234266565557,red,4,5,919.715248510402,374.848363820974,664.870587620533,383.747735480111,680.284751489598,825.151636179026,935.129412379467,816.252264519889,1054.84466088987,591.100628340862,919.715248510402,374.848363820974,664.870587620533,383.747735480111,545.155339110131,608.899371659138,3,0,0,4,5,5,horizontal,vertical,horizontal,horizontal,vertical,horizontal
1a,15,100162,3,8,136,20,F,NA,variable,heterogeneous,6,absent,1.04221892356873,1,horizontal,horizontal,1,0.682351186819244,green,2,NaN,1053.09926866854,631.076682568313,NaN,NaN,899.636437764765,834.728737630372,1053.09926866854,631.076682568313,953.462830903772,396.34794493794,700.363562235235,365.271262369628,546.900731331463,568.923317431687,646.537169096228,803.65205506206,0,4,5,6,5,6,horizontal,horizontal,vertical,vertical,vertical,vertical
1a,15,100162,3,9,137,20,F,NA,variable,heterogeneous,5,absent,0.838948965072632,1,horizontal,horizontal,1,0.788231284158272,red,4,NaN,716.980120613425,358.892763222174,NaN,NaN,725.445215295702,843.857712770574,1008.88377129369,746.261991269517,1003.65205506206,446.537169096228,716.980120613425,358.892763222174,545.03883773512,604.450363641507,0,0,3,0,5,4,6,NaN,horizontal,horizontal,vertical,horizontal,vertical,none
1a,15,100162,3,10,138,20,F,NA,variable,heterogeneous,5,absent,1.01503896713257,1,vertical,vertical,1,0.752937918378596,red,5,NaN,593.700666434388,749.885239334581,NaN,NaN,878.799333565612,842.519411655264,1055,600,878.799333565612,357.480588344736,593.700666434388,450.114760665419,593.700666434388,749.885239334581,0,0,5,0,6,6,4,NaN,horizontal,vertical,vertical,horizontal,vertical,none
1a,15,100162,3,11,139,20,F,NA,variable,heterogeneous,4,absent,0.707300901412964,1,vertical,vertical,1,0.788231284158272,green,4,NaN,553.688914296288,534.001143498857,NaN,NaN,734.001143498857,846.311085703712,1046.31108570371,665.998856501143,865.998856501143,353.688914296288,553.688914296288,534.001143498857,0,0,0,0,5,0,0,4,NaN,NaN,horizontal,vertical,vertical,vertical,none,none
1a,15,100162,3,12,140,20,F,NA,variable,heterogeneous,6,present,0.586268901824951,1,vertical,vertical,1,1.035284844616,red,3,2,949.885239334581,393.700666434388,1053.60308331891,626.654758133252,903.717843984329,832.954091698863,1053.60308331891,626.654758133252,949.885239334581,393.700666434388,696.282156015671,367.045908301137,546.39691668109,573.345241866748,650.114760665419,806.299333565612,6,5,4,6,0,5,vertical,horizontal,vertical,horizontal,horizontal,horizontal
1a,15,100162,3,13,141,20,F,NA,variable,heterogeneous,6,present,0.721488952636719,1,horizontal,horizontal,1,0.764702373638488,red,3,1,973.909581815937,413.504806087112,874.554784704298,843.857712770574,874.554784704298,843.857712770574,1048.46436652023,657.362518857686,973.909581815937,413.504806087112,725.445215295702,356.142287229426,551.535633479765,542.637481142314,626.090418184063,786.495193912888,3,0,4,6,5,5,horizontal,horizontal,horizontal,vertical,horizontal,horizontal
1a,15,100162,3,14,142,20,F,NA,variable,heterogeneous,4,absent,1.38967895507812,1,vertical,vertical,1,1.08234266565557,green,1,NaN,895.524681321058,836.431882914531,NaN,NaN,895.524681321058,836.431882914531,1036.43188291453,504.475318678942,704.475318678942,363.568117085469,563.568117085469,695.524681321058,0,0,0,0,4,3,6,3,NaN,NaN,vertical,horizontal,vertical,horizontal,none,none
1a,15,100162,3,15,143,20,F,NA,variable,heterogeneous,5,absent,1.4034788608551,1,vertical,vertical,1,0.682351186819244,green,4,NaN,661.117046071168,386.139005173917,NaN,NaN,786.654331158049,854.650531362416,1038.06300875679,691.383827134052,960.476699717708,401.827779828472,661.117046071168,386.139005173917,553.688914296288,665.998856501143,0,0,0,5,3,4,5,NaN,horizontal,vertical,horizontal,vertical,vertical,none
1a,15,100162,3,16,144,20,F,NA,variable,heterogeneous,4,present,1.55550789833069,1,vertical,vertical,1,0.788231284158272,green,2,1,989.501930496736,429.371695378491,970.628304621509,789.501930496736,970.628304621509,789.501930496736,989.501930496736,429.371695378491,629.371695378491,410.498069503264,610.498069503264,770.628304621509,0,0,0,0,5,4,6,3,NaN,NaN,vertical,vertical,horizontal,vertical,none,none
1a,15,100162,3,17,145,20,F,NA,variable,heterogeneous,6,present,0.750837087631226,1,horizontal,horizontal,1,0.999991478836327,green,3,4,1011.40458100154,457.40580961496,782.212099195248,345.621167183745,817.787900804752,854.378832816255,1029.19248180629,711.784642431215,1011.40458100154,457.40580961496,782.212099195248,345.621167183745,570.807518193712,488.215357568785,588.595418998464,742.594190385041,0,5,4,3,3,5,horizontal,vertical,horizontal,horizontal,vertical,horizontal
1a,15,100162,3,18,146,20,F,NA,variable,heterogeneous,5,absent,1.30389404296875,1,vertical,vertical,1,0.694115642079136,green,2,NaN,989.501930496736,770.628304621509,NaN,NaN,696.282156015671,832.954091698863,989.501930496736,770.628304621509,1020.83647796503,472.5,746.982518841471,350.57236181288,546.39691668109,573.345241866748,0,0,3,4,5,0,0,NaN,vertical,vertical,horizontal,vertical,vertical,none
1a,15,100162,3,19,147,20,F,NA,variable,heterogeneous,3,present,1.10904884338379,1,horizontal,horizontal,1,0.952933657796759,red,3,1,581.422338320961,468.665290897936,795.549636358493,854.96116226488,795.549636358493,854.96116226488,1023.02802532055,476.373546837184,581.422338320961,468.665290897936,0,0,0,0,0,0,3,5,4,NaN,NaN,NaN,vertical,vertical,horizontal,none,none,none
1a,15,100162,3,20,148,20,F,NA,variable,heterogeneous,5,absent,0.926069974899292,1,horizontal,horizontal,1,0.729409007858812,red,1,NaN,672.5,820.836477965032,NaN,NaN,672.5,820.836477965032,970.628304621509,789.501930496736,1032.95409169886,496.282156015671,773.345241866748,346.39691668109,550.57236181288,546.982518841471,0,0,4,0,5,6,5,NaN,horizontal,vertical,horizontal,horizontal,horizontal,none
1a,15,100162,3,21,149,20,F,NA,variable,heterogeneous,5,present,0.818783044815063,1,horizontal,horizontal,1,0.905875836757191,green,4,5,646.537169096228,396.34794493794,558.892763222174,683.019879386575,804.450363641507,854.96116226488,1043.85771277057,674.554784704298,946.261991269517,391.116228706307,646.537169096228,396.34794493794,558.892763222174,683.019879386575,0,0,3,3,6,4,0,NaN,vertical,horizontal,vertical,horizontal,vertical,none
1a,15,100162,3,22,150,20,F,NA,variable,heterogeneous,3,absent,1.134033203125,1,horizontal,horizontal,1,0.941169202536867,red,3,NaN,579.163522034968,472.5,NaN,NaN,800,855,1020.83647796503,472.5,579.163522034968,472.5,0,0,0,0,0,0,6,5,4,NaN,NaN,NaN,vertical,vertical,horizontal,none,none,none
1a,15,100162,3,23,151,20,F,NA,variable,heterogeneous,3,present,1.17718005180359,1,horizontal,horizontal,1,0.799995739418164,green,1,2,650.114760665419,806.299333565612,1053.60308331891,626.654758133252,650.114760665419,806.299333565612,1053.60308331891,626.654758133252,696.282156015671,367.045908301137,0,0,0,0,0,0,4,3,0,NaN,NaN,NaN,horizontal,vertical,horizontal,none,none,none
1a,15,100162,3,24,152,20,F,NA,variable,heterogeneous,4,absent,1.2876398563385,1,horizontal,horizontal,1,0.941169202536867,red,1,NaN,729.712474266665,845.121732464271,NaN,NaN,729.712474266665,845.121732464271,1045.12173246427,670.287525733335,870.287525733335,354.878267535729,554.878267535729,529.712474266665,0,0,0,0,4,5,6,0,NaN,NaN,horizontal,vertical,vertical,horizontal,none,none
1a,15,100162,3,25,153,20,F,NA,variable,heterogeneous,5,present,1.39410209655762,1,horizontal,horizontal,1,0.823524649937948,red,4,2,593.700666434388,450.114760665419,1055,600,878.799333565612,842.519411655264,1055,600,878.799333565612,357.480588344736,593.700666434388,450.114760665419,593.700666434388,749.885239334581,0,0,5,6,5,4,3,NaN,horizontal,vertical,horizontal,horizontal,vertical,none
1a,15,100162,3,26,154,20,F,NA,variable,heterogeneous,4,present,1.25613212585449,1,vertical,vertical,1,0.705880097339028,red,2,3,1052.5183575291,635.489140744817,835.489140744817,347.4816424709,764.510859255183,852.518357529101,1052.5183575291,635.489140744817,835.489140744817,347.4816424709,547.481642470899,564.510859255183,0,0,0,0,5,4,5,3,NaN,NaN,horizontal,vertical,horizontal,vertical,none,none
1a,15,100162,3,27,155,20,F,NA,variable,heterogeneous,4,present,0.618178129196167,1,vertical,vertical,1,0.835289105197839,green,3,2,716.980120613425,358.892763222174,1041.10723677783,516.980120613425,883.019879386575,841.107236777826,1041.10723677783,516.980120613425,716.980120613425,358.892763222174,558.892763222174,683.019879386575,0,0,0,0,3,0,4,3,NaN,NaN,horizontal,vertical,vertical,horizontal,none,none
1a,15,100162,3,28,156,20,F,NA,variable,heterogeneous,5,present,0.688341856002808,1,vertical,vertical,1,0.682351186819244,red,3,5,813.345668841951,345.349468637584,639.523300282292,798.172220171528,938.882953928832,813.860994826083,1046.31108570371,534.001143498857,813.345668841951,345.349468637584,561.936991243214,508.616172865948,639.523300282292,798.172220171528,0,0,5,6,4,3,6,NaN,vertical,vertical,vertical,horizontal,vertical,none
1a,15,100162,3,29,157,20,F,NA,variable,heterogeneous,3,absent,0.768290042877197,1,vertical,vertical,1,0.905875836757191,green,2,NaN,960.476699717708,401.827779828472,NaN,NaN,891.383827134052,838.063008756786,960.476699717708,401.827779828472,548.13947314824,560.109211414741,0,0,0,0,0,0,6,4,5,NaN,NaN,NaN,vertical,vertical,horizontal,none,none,none
1a,15,100162,3,30,158,20,F,NA,variable,heterogeneous,6,absent,1.74922800064087,1,horizontal,horizontal,1,0.65882227629946,green,2,NaN,1039.62161830041,687.215136548046,NaN,NaN,844.280285305067,851.125977018113,1039.62161830041,687.215136548046,995.341332995339,436.089159529932,755.719714694933,348.874022981887,560.378381699593,512.784863451954,604.658667004661,763.910840470068,0,4,0,6,6,5,vertical,horizontal,horizontal,horizontal,vertical,vertical
1a,15,100162,3,31,159,20,F,NA,variable,heterogeneous,3,absent,0.845354080200195,1,horizontal,horizontal,1,1.07057821039568,green,1,NaN,973.909581815937,786.495193912888,NaN,NaN,973.909581815937,786.495193912888,874.554784704298,356.142287229426,551.535633479765,657.362518857686,0,0,0,0,0,0,4,6,3,NaN,NaN,NaN,horizontal,horizontal,horizontal,none,none,none
1a,15,100162,3,32,160,20,F,NA,variable,heterogeneous,4,present,0.781575202941895,1,horizontal,horizontal,1,0.752937918378596,green,4,3,545.03883773512,595.549636358493,804.450363641507,345.03883773512,795.549636358493,854.96116226488,1054.96116226488,604.450363641507,804.450363641507,345.03883773512,545.03883773512,595.549636358493,0,0,0,0,6,6,3,4,NaN,NaN,horizontal,vertical,vertical,horizontal,none,none
1a,15,100162,3,33,161,20,F,NA,variable,heterogeneous,5,present,1.37081789970398,1,vertical,vertical,1,1.07057821039568,green,3,1,903.717843984329,367.045908301137,853.017481158529,849.42763818712,853.017481158529,849.42763818712,1053.60308331891,626.654758133252,903.717843984329,367.045908301137,610.498069503264,429.371695378491,579.163522034968,727.5,0,0,5,3,4,0,5,NaN,vertical,vertical,vertical,vertical,vertical,none
1a,15,100162,3,34,162,20,F,NA,variable,heterogeneous,4,absent,0.765763998031616,1,horizontal,horizontal,1,0.764702373638488,red,4,NaN,557.480588344736,521.200666434388,NaN,NaN,721.200666434388,842.519411655264,1042.51941165526,678.799333565612,878.799333565612,357.480588344736,557.480588344736,521.200666434388,0,0,0,0,6,5,0,4,NaN,NaN,horizontal,horizontal,horizontal,horizontal,none,none
1a,15,100162,3,35,163,20,F,NA,variable,heterogeneous,3,absent,0.859009027481079,1,vertical,vertical,1,0.682351186819244,green,1,NaN,622.862115532956,783.431649086356,NaN,NaN,622.862115532956,783.431649086356,1047.42541020038,661.690083377915,729.712474266665,354.878267535729,0,0,0,0,0,0,4,3,0,NaN,NaN,NaN,vertical,vertical,vertical,none,none,none
1a,15,100162,3,36,164,20,F,NA,variable,heterogeneous,4,absent,1.67429304122925,1,vertical,vertical,1,0.682351186819244,red,4,NaN,570.807518193712,711.784642431215,NaN,NaN,911.784642431215,829.192481806288,1029.19248180629,488.215357568785,688.215357568785,370.807518193712,570.807518193712,711.784642431215,0,0,0,0,6,6,5,4,NaN,NaN,horizontal,vertical,vertical,vertical,none,none
1a,15,100162,3,37,165,20,F,NA,variable,heterogeneous,5,present,0.796581029891968,1,vertical,vertical,1,0.635293365779676,green,4,1,586.139005173917,461.117046071168,891.383827134052,838.063008756786,891.383827134052,838.063008756786,1054.65053136242,586.654331158049,865.998856501143,353.688914296288,586.139005173917,461.117046071168,601.827779828472,760.476699717708,0,0,3,0,5,4,6,NaN,horizontal,vertical,vertical,vertical,vertical,none
1a,15,100162,3,38,166,20,F,NA,variable,heterogeneous,6,present,0.856532096862793,1,vertical,vertical,1,0.788231284158272,green,2,6,1054.84466088987,608.899371659138,664.870587620533,816.252264519889,919.715248510402,825.151636179026,1054.84466088987,608.899371659138,935.129412379467,383.747735480111,680.284751489598,374.848363820974,545.155339110131,591.100628340862,664.870587620533,816.252264519889,0,4,6,6,0,5,vertical,vertical,vertical,horizontal,vertical,vertical
1a,15,100162,3,39,167,20,F,NA,variable,heterogeneous,3,present,0.803055047988892,1,vertical,vertical,1,0.682351186819244,green,3,2,548.874022981887,555.719714694933,963.910840470068,404.658667004661,887.215136548046,839.621618300407,963.910840470068,404.658667004661,548.874022981887,555.719714694933,0,0,0,0,0,0,5,3,4,NaN,NaN,NaN,horizontal,vertical,vertical,none,none,none
1a,15,100162,3,40,168,20,F,NA,variable,heterogeneous,5,absent,1.03304004669189,1,horizontal,horizontal,1,0.670586731559352,green,3,NaN,853.017481158529,350.57236181288,NaN,NaN,903.717843984329,832.954091698863,1053.60308331891,573.345241866748,853.017481158529,350.57236181288,579.163522034968,472.5,610.498069503264,770.628304621509,0,0,0,5,4,0,3,NaN,horizontal,vertical,horizontal,vertical,horizontal,none
1a,15,100162,3,41,169,20,F,NA,variable,heterogeneous,6,absent,1.53293895721436,1,vertical,vertical,1,0.752937918378596,red,1,NaN,782.212099195248,854.378832816255,NaN,NaN,782.212099195248,854.378832816255,1011.40458100154,742.594190385041,1029.19248180629,488.215357568785,817.787900804752,345.621167183745,588.595418998464,457.40580961496,570.807518193712,711.784642431215,4,5,6,3,0,3,vertical,horizontal,vertical,vertical,horizontal,vertical
1a,15,100162,3,42,170,20,F,NA,variable,heterogeneous,3,absent,1.03856301307678,1,vertical,vertical,1,0.952933657796759,red,1,NaN,808.899371659138,854.844660889869,NaN,NaN,808.899371659138,854.844660889869,1016.25226451989,464.870587620533,574.848363820974,480.284751489598,0,0,0,0,0,0,4,5,0,NaN,NaN,NaN,vertical,vertical,horizontal,none,none,none
1a,15,100162,3,43,171,20,F,NA,variable,heterogeneous,5,absent,1.16322588920593,1,vertical,vertical,1,0.988227023576435,red,5,NaN,567.045908301137,703.717843984329,NaN,NaN,826.654758133252,853.60308331891,1049.42763818712,653.017481158529,927.5,379.163522034968,629.371695378491,410.498069503264,567.045908301137,703.717843984329,0,0,6,0,5,5,4,NaN,vertical,horizontal,horizontal,horizontal,vertical,none
1a,15,100162,3,44,172,20,F,NA,variable,heterogeneous,4,present,0.797302961349487,1,vertical,vertical,1,0.917640292017083,red,2,4,1011.40458100154,742.594190385041,588.595418998464,457.40580961496,657.405809614959,811.404581001536,1011.40458100154,742.594190385041,942.594190385041,388.595418998464,588.595418998464,457.40580961496,0,0,0,0,6,4,5,0,NaN,NaN,horizontal,vertical,vertical,horizontal,none,none
1a,15,100162,3,45,173,20,F,NA,variable,heterogeneous,6,present,NaN,0,vertical,none,0,0.764702373638488,green,1,5,742.637481142314,848.464366520235,613.504806087112,426.090418184063,742.637481142314,848.464366520235,986.495193912888,773.909581815937,1043.85771277057,525.445215295702,857.362518857686,351.535633479765,613.504806087112,426.090418184063,556.142287229426,674.554784704298,4,6,0,3,5,6,vertical,vertical,vertical,horizontal,vertical,vertical
1a,15,100162,3,46,174,20,F,NA,variable,heterogeneous,4,present,1.02470803260803,1,horizontal,horizontal,1,0.788231284158272,red,1,4,672.5,820.836477965032,579.163522034968,472.5,672.5,820.836477965032,1020.83647796503,727.5,927.5,379.163522034968,579.163522034968,472.5,0,0,0,0,4,5,3,6,NaN,NaN,horizontal,horizontal,horizontal,horizontal,none,none
1a,15,100162,3,47,175,20,F,NA,variable,heterogeneous,5,present,1.21016383171082,1,horizontal,horizontal,1,1.035284844616,green,3,1,1036.43188291453,504.475318678942,664.870587620533,816.252264519889,664.870587620533,816.252264519889,963.910840470068,795.341332995339,1036.43188291453,504.475318678942,782.212099195248,345.621167183745,552.574589799621,538.309916622085,0,0,0,5,4,3,6,NaN,vertical,vertical,horizontal,horizontal,horizontal,none
1a,15,100162,3,48,176,20,F,NA,variable,heterogeneous,3,present,0.857620000839233,1,vertical,vertical,1,0.964698113056651,green,1,2,646.537169096228,803.65205506206,1053.09926866854,631.076682568313,646.537169096228,803.65205506206,1053.09926866854,631.076682568313,700.363562235235,365.271262369628,0,0,0,0,0,0,4,0,3,NaN,NaN,NaN,vertical,vertical,horizontal,none,none,none
1a,15,100162,3,49,177,20,F,NA,variable,heterogeneous,5,absent,1.34303402900696,1,horizontal,horizontal,1,1.01175593409622,green,1,NaN,716.980120613425,841.107236777826,NaN,NaN,716.980120613425,841.107236777826,1003.65205506206,753.462830903772,1008.88377129369,453.738008730483,725.445215295702,356.142287229426,545.03883773512,595.549636358493,0,0,4,6,0,5,3,NaN,horizontal,vertical,horizontal,vertical,horizontal,none
1a,15,100162,3,50,178,20,F,NA,variable,heterogeneous,6,absent,0.85880708694458,1,vertical,vertical,1,0.811760194678056,green,3,NaN,1046.31108570371,534.001143498857,NaN,NaN,734.001143498857,846.311085703712,980.31222920257,780.31222920257,1046.31108570371,534.001143498857,865.998856501143,353.688914296288,619.68777079743,419.68777079743,553.688914296288,665.998856501143,5,3,4,0,6,6,vertical,horizontal,vertical,vertical,vertical,horizontal
1a,15,100162,3,51,179,20,F,NA,variable,heterogeneous,4,absent,0.745836973190308,1,vertical,vertical,1,1.08234266565557,red,3,NaN,760.109211414741,348.13947314824,NaN,NaN,839.890788585259,851.86052685176,1051.86052685176,560.109211414741,760.109211414741,348.13947314824,548.13947314824,639.890788585259,0,0,0,0,5,0,4,5,NaN,NaN,horizontal,horizontal,vertical,horizontal,none,none
1a,15,100162,3,52,180,20,F,NA,variable,heterogeneous,6,present,0.771782159805298,1,vertical,vertical,1,0.741173463118704,red,3,1,1013.86099482608,461.117046071168,813.345668841951,854.650531362416,813.345668841951,854.650531362416,1027.20666366803,715.767577433584,1013.86099482608,461.117046071168,786.654331158049,345.349468637584,572.793336331966,484.232422566416,586.139005173917,738.882953928832,6,0,4,5,0,3,vertical,horizontal,vertical,horizontal,horizontal,horizontal
1a,15,100162,3,53,181,20,F,NA,variable,heterogeneous,3,absent,0.728762865066528,1,vertical,vertical,1,0.65882227629946,red,2,NaN,1020.83647796503,727.5,NaN,NaN,579.163522034968,727.5,1020.83647796503,727.5,800,345,0,0,0,0,0,0,0,4,3,NaN,NaN,NaN,vertical,vertical,vertical,none,none,none
1a,15,100162,3,54,182,20,F,NA,variable,heterogeneous,3,present,0.916093111038208,1,vertical,vertical,1,0.623528910519784,red,1,3,599.057257830286,756.993676208043,764.510859255183,347.4816424709,599.057257830286,756.993676208043,1036.43188291453,695.524681321058,764.510859255183,347.4816424709,0,0,0,0,0,0,4,3,6,NaN,NaN,NaN,vertical,vertical,horizontal,none,none,none
1a,15,100162,3,55,183,20,F,NA,variable,heterogeneous,6,absent,1.29939699172974,1,vertical,vertical,1,0.858818015717624,red,4,NaN,692.232343256122,368.891514305654,NaN,NaN,907.767656743878,831.108485694346,1054.0296480134,622.224714400653,946.261991269517,391.116228706307,692.232343256122,368.891514305654,545.970351986605,577.775285599347,653.738008730483,808.883771293693,6,3,5,4,5,3,horizontal,horizontal,vertical,vertical,horizontal,vertical
1a,15,100162,3,56,184,20,F,NA,variable,heterogeneous,3,present,1.21433806419373,1,vertical,vertical,1,0.635293365779676,red,1,3,629.371695378491,789.501930496736,721.200666434388,357.480588344736,629.371695378491,789.501930496736,1049.42763818712,653.017481158529,721.200666434388,357.480588344736,0,0,0,0,0,0,4,5,5,NaN,NaN,NaN,vertical,horizontal,vertical,none,none,none
1a,15,100162,3,57,185,20,F,NA,variable,heterogeneous,6,absent,0.91744589805603,1,horizontal,horizontal,1,0.929404747276975,red,3,NaN,1045.12173246427,529.712474266665,NaN,NaN,738.309916622085,847.425410200379,983.431649086356,777.137884467044,1045.12173246427,529.712474266665,861.690083377915,352.574589799621,616.568350913644,422.862115532956,554.878267535729,670.287525733335,5,6,4,6,0,3,vertical,vertical,horizontal,horizontal,vertical,horizontal
1a,15,100162,3,58,186,20,F,NA,variable,heterogeneous,3,present,0.878827095031738,1,horizontal,horizontal,1,0.741173463118704,green,3,1,738.309916622085,352.574589799621,616.568350913644,777.137884467044,616.568350913644,777.137884467044,1045.12173246427,670.287525733335,738.309916622085,352.574589799621,0,0,0,0,0,0,0,6,4,NaN,NaN,NaN,horizontal,horizontal,horizontal,none,none,none
1a,15,100162,3,59,187,20,F,NA,variable,heterogeneous,4,absent,1.21027493476868,0,horizontal,vertical,1,0.882346926237408,green,3,NaN,768.923317431687,346.900731331463,NaN,NaN,831.076682568313,853.099268668537,1053.09926866854,568.923317431687,768.923317431687,346.900731331463,546.900731331463,631.076682568313,0,0,0,0,6,3,4,6,NaN,NaN,horizontal,horizontal,horizontal,horizontal,none,none
1a,15,100162,3,60,188,20,F,NA,variable,heterogeneous,6,absent,1.42948818206787,1,horizontal,horizontal,1,0.952933657796759,red,6,NaN,581.422338320961,731.334709102064,NaN,NaN,804.450363641507,854.96116226488,1023.02802532055,723.626453162816,1018.57766167904,468.665290897936,795.549636358493,345.03883773512,576.971974679454,476.373546837184,581.422338320961,731.334709102064,3,0,0,5,5,4,horizontal,vertical,horizontal,horizontal,horizontal,horizontal
1a,15,100162,3,61,189,20,F,NA,variable,heterogeneous,3,present,0.919394016265869,1,horizontal,horizontal,1,0.65882227629946,red,1,3,1016.25226451989,735.129412379467,574.848363820974,719.715248510402,1016.25226451989,735.129412379467,808.899371659138,345.155339110131,574.848363820974,719.715248510402,0,0,0,0,0,0,4,0,5,NaN,NaN,NaN,horizontal,horizontal,horizontal,none,none,none
1a,15,100162,3,62,190,20,F,NA,variable,heterogeneous,3,absent,0.88864803314209,0,horizontal,vertical,1,0.71764455259892,green,1,NaN,607.549057043193,767.295052392579,NaN,NaN,607.549057043193,767.295052392579,1041.10723677783,683.019879386575,751.343706178981,349.685068220846,0,0,0,0,0,0,4,0,5,NaN,NaN,NaN,horizontal,horizontal,vertical,none,none,none
1a,15,100162,3,63,191,20,F,NA,variable,heterogeneous,3,absent,NaN,0,horizontal,none,0,0.71764455259892,red,2,NaN,848.656293821019,349.685068220846,NaN,NaN,992.450942956807,767.295052392579,848.656293821019,349.685068220846,558.892763222174,683.019879386575,0,0,0,0,0,0,5,4,3,NaN,NaN,NaN,vertical,horizontal,vertical,none,none,none
1a,15,100162,3,64,192,20,F,NA,variable,heterogeneous,6,absent,1.44527411460876,0,vertical,horizontal,1,0.811760194678056,green,3,NaN,1045.12173246427,529.712474266665,NaN,NaN,738.309916622085,847.425410200379,983.431649086356,777.137884467044,1045.12173246427,529.712474266665,861.690083377915,352.574589799621,616.568350913644,422.862115532956,554.878267535729,670.287525733335,6,3,4,6,0,3,vertical,horizontal,vertical,vertical,horizontal,vertical
1a,15,100162,4,1,193,20,F,NA,variable,heterogeneous,3,present,NaN,0,vertical,none,0,0.741173463118704,red,3,2,800,345,1020.83647796503,727.5,579.163522034968,727.5,1020.83647796503,727.5,800,345,0,0,0,0,0,0,6,0,4,NaN,NaN,NaN,horizontal,vertical,vertical,none,none,none
1a,15,100162,4,2,194,20,F,NA,variable,heterogeneous,4,absent,0.645619869232178,1,vertical,vertical,1,1.05881375513579,green,4,NaN,610.498069503264,429.371695378491,NaN,NaN,629.371695378491,789.501930496736,989.501930496736,770.628304621509,970.628304621509,410.498069503264,610.498069503264,429.371695378491,0,0,0,0,6,3,0,4,NaN,NaN,horizontal,horizontal,vertical,vertical,none,none
1a,15,100162,4,3,195,20,F,NA,variable,heterogeneous,3,absent,0.927945852279663,1,vertical,vertical,1,1.07057821039568,red,1,NaN,586.139005173917,738.882953928832,NaN,NaN,586.139005173917,738.882953928832,1027.20666366803,715.767577433584,786.654331158049,345.349468637584,0,0,0,0,0,0,4,6,0,NaN,NaN,NaN,vertical,vertical,vertical,none,none,none
1a,15,100162,4,4,196,20,F,NA,variable,heterogeneous,5,absent,0.904535055160522,0,horizontal,vertical,1,0.682351186819244,green,2,NaN,995.341332995339,763.910840470068,NaN,NaN,704.475318678942,836.431882914531,995.341332995339,763.910840470068,1016.25226451989,464.870587620533,738.309916622085,352.574589799621,545.621167183745,582.212099195248,0,0,6,4,5,6,5,NaN,horizontal,horizontal,horizontal,vertical,horizontal,none
1a,15,100162,4,5,197,20,F,NA,variable,heterogeneous,4,absent,1.00463104248047,1,horizontal,horizontal,1,0.694115642079136,green,3,NaN,970.628304621509,410.498069503264,NaN,NaN,629.371695378491,789.501930496736,989.501930496736,770.628304621509,970.628304621509,410.498069503264,610.498069503264,429.371695378491,0,0,0,0,0,5,4,6,NaN,NaN,vertical,vertical,horizontal,horizontal,none,none
1a,15,100162,4,6,198,20,F,NA,variable,heterogeneous,4,present,1.10496306419373,1,horizontal,horizontal,1,0.999991478836327,green,4,3,619.68777079743,419.68777079743,980.31222920257,419.68777079743,619.68777079743,780.31222920257,980.31222920257,780.31222920257,980.31222920257,419.68777079743,619.68777079743,419.68777079743,0,0,0,0,3,5,6,4,NaN,NaN,horizontal,horizontal,vertical,horizontal,none,none
1a,15,100162,4,7,199,20,F,NA,variable,heterogeneous,4,present,1.38255500793457,1,vertical,vertical,1,0.941169202536867,red,2,1,1054.96116226488,604.450363641507,795.549636358493,854.96116226488,795.549636358493,854.96116226488,1054.96116226488,604.450363641507,804.450363641507,345.03883773512,545.03883773512,595.549636358493,0,0,0,0,6,4,6,3,NaN,NaN,horizontal,vertical,horizontal,horizontal,none,none
1a,15,100162,4,8,200,20,F,NA,variable,heterogeneous,3,absent,0.817451000213623,1,vertical,vertical,1,0.952933657796759,green,3,NaN,599.057257830286,443.006323791957,NaN,NaN,764.510859255183,852.518357529101,1036.43188291453,504.475318678942,599.057257830286,443.006323791957,0,0,0,0,0,0,3,0,4,NaN,NaN,NaN,horizontal,vertical,vertical,none,none,none
1a,15,100162,4,9,201,20,F,NA,variable,heterogeneous,6,present,0.670312881469727,1,horizontal,horizontal,1,1.035284844616,red,4,6,773.345241866748,346.39691668109,593.700666434388,749.885239334581,826.654758133252,853.60308331891,1032.95409169886,703.717843984329,1006.29933356561,450.114760665419,773.345241866748,346.39691668109,567.045908301137,496.282156015671,593.700666434388,749.885239334581,3,5,5,4,6,0,vertical,horizontal,vertical,horizontal,vertical,vertical
1a,15,100162,4,10,202,20,F,NA,variable,heterogeneous,3,absent,0.616441011428833,1,vertical,vertical,1,1.035284844616,red,2,NaN,1013.86099482608,461.117046071168,NaN,NaN,813.345668841951,854.650531362416,1013.86099482608,461.117046071168,572.793336331966,484.232422566416,0,0,0,0,0,0,3,4,0,NaN,NaN,NaN,horizontal,vertical,vertical,none,none,none
1a,15,100162,4,11,203,20,F,NA,variable,heterogeneous,5,absent,0.82329797744751,1,vertical,vertical,1,0.705880097339028,red,2,NaN,1050.31493177915,551.343706178981,NaN,NaN,923.626453162816,823.028025320546,1050.31493177915,551.343706178981,831.076682568313,346.900731331463,568.891514305654,492.232343256122,626.090418184063,786.495193912888,0,0,3,4,0,0,6,NaN,vertical,vertical,horizontal,horizontal,vertical,none
1a,15,100162,4,12,204,20,F,NA,variable,heterogeneous,5,present,0.836127042770386,1,vertical,vertical,1,0.799995739418164,red,2,1,1025.15163617903,719.715248510402,755.719714694933,851.125977018113,755.719714694933,851.125977018113,1025.15163617903,719.715248510402,983.431649086356,422.862115532956,688.215357568785,370.807518193712,547.481642470899,635.489140744817,0,0,5,4,6,3,0,NaN,vertical,vertical,horizontal,horizontal,vertical,none
1a,15,100162,4,13,205,20,F,NA,variable,heterogeneous,5,absent,0.8111732006073,1,vertical,vertical,1,0.905875836757191,red,2,NaN,1054.84466088987,591.100628340862,NaN,NaN,887.215136548046,839.621618300407,1054.84466088987,591.100628340862,870.287525733335,354.878267535729,588.595418998464,457.40580961496,599.057257830286,756.993676208043,0,0,0,4,6,3,5,NaN,vertical,vertical,vertical,vertical,horizontal,none
1a,15,100162,4,14,206,20,F,NA,variable,heterogeneous,3,present,0.642242908477783,1,horizontal,horizontal,1,0.929404747276975,red,2,3,891.383827134052,361.936991243214,548.13947314824,639.890788585259,960.476699717708,798.172220171528,891.383827134052,361.936991243214,548.13947314824,639.890788585259,0,0,0,0,0,0,0,4,6,NaN,NaN,NaN,vertical,horizontal,vertical,none,none,none
1a,15,100162,4,15,207,20,F,NA,variable,heterogeneous,5,present,0.801426887512207,1,vertical,vertical,1,0.905875836757191,green,2,4,1050.31493177915,648.656293821019,626.090418184063,413.504806087112,831.076682568313,853.099268668537,1050.31493177915,648.656293821019,923.626453162816,376.971974679454,626.090418184063,413.504806087112,568.891514305654,707.767656743878,0,0,5,4,0,5,6,NaN,vertical,vertical,horizontal,vertical,vertical,none
1a,15,100162,4,16,208,20,F,NA,variable,heterogeneous,3,absent,0.862851858139038,1,horizontal,horizontal,1,0.647057821039568,green,3,NaN,696.282156015671,367.045908301137,NaN,NaN,650.114760665419,806.299333565612,1053.60308331891,626.654758133252,696.282156015671,367.045908301137,0,0,0,0,0,0,3,6,4,NaN,NaN,NaN,horizontal,horizontal,horizontal,none,none,none
1a,15,100162,4,17,209,20,F,NA,variable,heterogeneous,6,present,0.933810949325562,1,horizontal,horizontal,1,0.882346926237408,green,3,1,1050.31493177915,551.343706178981,716.980120613425,841.107236777826,716.980120613425,841.107236777826,967.295052392579,792.450942956807,1050.31493177915,551.343706178981,883.019879386575,358.892763222174,632.704947607421,407.549057043193,549.685068220846,648.656293821019,5,6,4,6,0,0,horizontal,vertical,horizontal,horizontal,vertical,vertical
1a,15,100162,4,18,210,20,F,NA,variable,heterogeneous,6,present,0.700349807739258,1,vertical,vertical,1,0.988227023576435,red,5,6,639.523300282292,401.827779828472,548.13947314824,639.890788585259,708.616172865948,838.063008756786,960.476699717708,798.172220171528,1051.86052685176,560.109211414741,891.383827134052,361.936991243214,639.523300282292,401.827779828472,548.13947314824,639.890788585259,5,6,5,3,4,0,vertical,horizontal,horizontal,horizontal,vertical,horizontal
1a,15,100162,4,19,211,20,F,NA,variable,heterogeneous,4,present,1.19856095314026,1,vertical,vertical,1,0.811760194678056,green,1,2,956.993676208043,800.942742169714,1000.94274216971,443.006323791957,956.993676208043,800.942742169714,1000.94274216971,443.006323791957,643.006323791957,399.057257830286,599.057257830286,756.993676208043,0,0,0,0,4,0,6,6,NaN,NaN,vertical,vertical,vertical,horizontal,none,none
1a,15,100162,4,20,212,20,F,NA,variable,heterogeneous,4,present,1.28495717048645,1,horizontal,horizontal,1,0.894111381497299,red,4,3,549.685068220846,648.656293821019,751.343706178981,349.685068220846,848.656293821019,850.314931779154,1050.31493177915,551.343706178981,751.343706178981,349.685068220846,549.685068220846,648.656293821019,0,0,0,0,0,3,3,4,NaN,NaN,horizontal,horizontal,vertical,horizontal,none,none
1a,15,100162,4,21,213,20,F,NA,variable,heterogeneous,3,absent,0.693292856216431,1,horizontal,horizontal,1,0.929404747276975,red,3,NaN,548.13947314824,639.890788585259,NaN,NaN,960.476699717708,798.172220171528,891.383827134052,361.936991243214,548.13947314824,639.890788585259,0,0,0,0,0,0,0,3,4,NaN,NaN,NaN,horizontal,vertical,horizontal,none,none,none
1a,15,100162,4,22,214,20,F,NA,variable,heterogeneous,3,absent,0.71638298034668,1,horizontal,horizontal,1,0.823524649937948,green,3,NaN,657.405809614959,388.595418998464,NaN,NaN,688.215357568785,829.192481806288,1054.37883281626,582.212099195248,657.405809614959,388.595418998464,0,0,0,0,0,0,3,6,4,NaN,NaN,NaN,horizontal,vertical,horizontal,none,none,none
1a,15,100162,4,23,215,20,F,NA,variable,heterogeneous,6,absent,0.940178871154785,1,horizontal,horizontal,1,0.870582470977515,green,1,NaN,786.654331158049,854.650531362416,NaN,NaN,786.654331158049,854.650531362416,1013.86099482608,738.882953928832,1027.20666366803,484.232422566416,813.345668841951,345.349468637584,586.139005173917,461.117046071168,572.793336331966,715.767577433584,4,0,5,0,6,3,horizontal,horizontal,vertical,horizontal,horizontal,vertical
1a,15,100162,4,24,216,20,F,NA,variable,heterogeneous,3,absent,0.780115842819214,1,horizontal,horizontal,1,1.0470492998759,red,2,NaN,907.767656743878,368.891514305654,NaN,NaN,946.261991269517,808.883771293693,907.767656743878,368.891514305654,545.970351986605,622.224714400653,0,0,0,0,0,0,0,4,3,NaN,NaN,NaN,vertical,horizontal,vertical,none,none,none
1a,15,100162,4,25,217,20,F,NA,variable,heterogeneous,3,present,0.745460033416748,1,horizontal,horizontal,1,1.07057821039568,red,1,3,800,855,579.163522034968,472.5,800,855,1020.83647796503,472.5,579.163522034968,472.5,0,0,0,0,0,0,4,0,5,NaN,NaN,NaN,horizontal,vertical,vertical,none,none,none
1a,15,100162,4,26,218,20,F,NA,variable,heterogeneous,4,present,0.758188009262085,1,vertical,vertical,1,0.882346926237408,green,2,1,1049.42763818712,546.982518841471,853.017481158529,849.42763818712,853.017481158529,849.42763818712,1049.42763818712,546.982518841471,746.982518841471,350.57236181288,550.57236181288,653.017481158529,0,0,0,0,6,4,6,0,NaN,NaN,horizontal,vertical,vertical,horizontal,none,none
1a,15,100162,4,27,219,20,F,NA,variable,heterogeneous,3,present,0.707836866378784,1,vertical,vertical,1,0.917640292017083,green,2,1,1020.83647796503,727.5,579.163522034968,727.5,579.163522034968,727.5,1020.83647796503,727.5,800,345,0,0,0,0,0,0,0,4,6,NaN,NaN,NaN,vertical,vertical,horizontal,none,none,none
1a,15,100162,4,28,220,20,F,NA,variable,heterogeneous,3,present,1.00592184066772,1,vertical,vertical,1,0.77646682889838,red,3,2,548.13947314824,639.890788585259,891.383827134052,361.936991243214,960.476699717708,798.172220171528,891.383827134052,361.936991243214,548.13947314824,639.890788585259,0,0,0,0,0,0,3,6,4,NaN,NaN,NaN,vertical,horizontal,vertical,none,none,none
1a,15,100162,4,29,221,20,F,NA,variable,heterogeneous,6,present,NaN,0,horizontal,none,0,0.941169202536867,green,2,1,1041.10723677783,683.019879386575,848.656293821019,850.314931779154,848.656293821019,850.314931779154,1041.10723677783,683.019879386575,992.450942956807,432.704947607421,751.343706178981,349.685068220846,558.892763222174,516.980120613425,607.549057043193,767.295052392579,3,4,6,0,5,5,vertical,horizontal,vertical,vertical,horizontal,vertical
1a,15,100162,4,30,222,20,F,NA,variable,heterogeneous,4,absent,0.876564025878906,1,horizontal,horizontal,1,0.964698113056651,green,2,NaN,1038.06300875679,691.383827134052,NaN,NaN,708.616172865948,838.063008756786,1038.06300875679,691.383827134052,891.383827134052,361.936991243214,561.936991243214,508.616172865948,0,0,0,0,6,4,3,5,NaN,NaN,horizontal,horizontal,horizontal,vertical,none,none
1a,15,100162,4,31,223,20,F,NA,variable,heterogeneous,3,present,0.710092067718506,1,horizontal,horizontal,1,1.01175593409622,green,2,1,1054.37883281626,617.787900804752,657.405809614959,811.404581001536,657.405809614959,811.404581001536,1054.37883281626,617.787900804752,688.215357568785,370.807518193712,0,0,0,0,0,0,3,4,3,NaN,NaN,NaN,horizontal,horizontal,horizontal,none,none,none
1a,15,100162,4,32,224,20,F,NA,variable,heterogeneous,4,absent,1.51855301856995,1,horizontal,horizontal,1,0.682351186819244,red,4,NaN,548.874022981887,555.719714694933,NaN,NaN,755.719714694933,851.125977018113,1051.12597701811,644.280285305067,844.280285305067,348.874022981887,548.874022981887,555.719714694933,0,0,0,0,3,6,0,4,NaN,NaN,horizontal,vertical,vertical,horizontal,none,none
1a,15,100162,4,33,225,20,F,NA,variable,heterogeneous,5,absent,1.03288507461548,1,horizontal,horizontal,1,0.988227023576435,red,4,NaN,576.971974679454,476.373546837184,NaN,NaN,907.767656743878,831.108485694346,1053.09926866854,568.923317431687,848.656293821019,349.685068220846,576.971974679454,476.373546837184,613.504806087112,773.909581815937,0,0,0,3,0,4,5,NaN,vertical,vertical,vertical,horizontal,horizontal,none
1a,15,100162,4,34,226,20,F,NA,variable,heterogeneous,5,present,1.31003904342651,1,horizontal,horizontal,1,1.02352038935611,green,5,2,546.900731331463,568.923317431687,986.495193912888,773.909581815937,692.232343256122,831.108485694346,986.495193912888,773.909581815937,1023.02802532055,476.373546837184,751.343706178981,349.685068220846,546.900731331463,568.923317431687,0,0,5,3,5,6,4,NaN,horizontal,vertical,vertical,vertical,horizontal,none
1a,15,100162,4,35,227,20,F,NA,variable,heterogeneous,4,absent,1.28807687759399,1,vertical,vertical,1,0.976462568316543,red,1,NaN,653.738008730483,808.883771293693,NaN,NaN,653.738008730483,808.883771293693,1008.88377129369,746.261991269517,946.261991269517,391.116228706307,591.116228706307,453.738008730483,0,0,0,0,4,6,0,6,NaN,NaN,vertical,horizontal,vertical,vertical,none,none
1a,15,100162,4,36,228,20,F,NA,variable,heterogeneous,4,absent,1.11880397796631,1,vertical,vertical,1,0.635293365779676,red,4,NaN,596.34794493794,753.462830903772,NaN,NaN,953.462830903772,803.65205506206,1003.65205506206,446.537169096228,646.537169096228,396.34794493794,596.34794493794,753.462830903772,0,0,0,0,3,0,3,4,NaN,NaN,horizontal,vertical,vertical,vertical,none,none
1a,15,100162,4,37,229,20,F,NA,variable,heterogeneous,3,present,0.809333086013794,1,vertical,vertical,1,0.811760194678056,green,3,2,607.549057043193,432.704947607421,1041.10723677783,516.980120613425,751.343706178981,850.314931779154,1041.10723677783,516.980120613425,607.549057043193,432.704947607421,0,0,0,0,0,0,0,6,4,NaN,NaN,NaN,vertical,horizontal,vertical,none,none,none
1a,15,100162,4,38,230,20,F,NA,variable,heterogeneous,6,present,1.13970899581909,1,vertical,vertical,1,0.682351186819244,green,2,3,1047.42541020038,661.690083377915,977.137884467044,416.568350913644,870.287525733335,845.121732464271,1047.42541020038,661.690083377915,977.137884467044,416.568350913644,729.712474266665,354.878267535729,552.574589799621,538.309916622085,622.862115532956,783.431649086356,3,4,5,5,0,0,vertical,vertical,horizontal,horizontal,vertical,horizontal
1a,15,100162,4,39,231,20,F,NA,variable,heterogeneous,3,absent,0.810263872146606,1,vertical,vertical,1,1.01175593409622,green,1,NaN,989.501930496736,770.628304621509,NaN,NaN,989.501930496736,770.628304621509,853.017481158529,350.57236181288,557.480588344736,678.799333565612,0,0,0,0,0,0,4,0,6,NaN,NaN,NaN,vertical,vertical,vertical,none,none,none
1a,15,100162,4,40,232,20,F,NA,variable,heterogeneous,5,present,0.69428014755249,1,horizontal,horizontal,1,0.764702373638488,red,3,5,1003.65205506206,446.537169096228,545.03883773512,604.450363641507,725.445215295702,843.857712770574,1008.88377129369,746.261991269517,1003.65205506206,446.537169096228,716.980120613425,358.892763222174,545.03883773512,604.450363641507,0,0,3,3,4,5,0,NaN,vertical,vertical,horizontal,vertical,horizontal,none
1a,15,100162,4,41,233,20,F,NA,variable,heterogeneous,4,present,0.608995914459229,1,horizontal,horizontal,1,0.611764455259892,red,3,1,680.284751489598,374.848363820974,919.715248510402,825.151636179026,919.715248510402,825.151636179026,1025.15163617903,480.284751489598,680.284751489598,374.848363820974,574.848363820974,719.715248510402,0,0,0,0,3,0,4,6,NaN,NaN,horizontal,horizontal,horizontal,horizontal,none,none
1a,15,100162,4,42,234,20,F,NA,variable,heterogeneous,6,present,0.710927963256836,1,horizontal,horizontal,1,0.694115642079136,red,5,2,619.68777079743,419.68777079743,980.31222920257,780.31222920257,734.001143498857,846.311085703712,980.31222920257,780.31222920257,1046.31108570371,534.001143498857,865.998856501143,353.688914296288,619.68777079743,419.68777079743,553.688914296288,665.998856501143,6,0,5,5,4,6,horizontal,horizontal,horizontal,vertical,horizontal,horizontal
1a,15,100162,4,43,235,20,F,NA,variable,heterogeneous,4,present,0.633280992507935,1,vertical,vertical,1,0.799995739418164,red,3,1,721.200666434388,357.480588344736,878.799333565612,842.519411655264,878.799333565612,842.519411655264,1042.51941165526,521.200666434388,721.200666434388,357.480588344736,557.480588344736,678.799333565612,0,0,0,0,0,6,4,3,NaN,NaN,vertical,horizontal,vertical,vertical,none,none
1a,15,100162,4,44,236,20,F,NA,variable,heterogeneous,6,present,1.37299704551697,1,vertical,vertical,1,0.752937918378596,red,2,1,1016.25226451989,735.129412379467,791.100628340862,854.844660889869,791.100628340862,854.844660889869,1016.25226451989,735.129412379467,1025.15163617903,480.284751489598,808.899371659138,345.155339110131,583.747735480111,464.870587620533,574.848363820974,719.715248510402,0,4,6,5,6,3,horizontal,vertical,vertical,horizontal,vertical,horizontal
1a,15,100162,4,45,237,20,F,NA,variable,heterogeneous,4,absent,0.729882001876831,1,vertical,vertical,1,1.05881375513579,green,3,NaN,696.282156015671,367.045908301137,NaN,NaN,903.717843984329,832.954091698863,1032.95409169886,496.282156015671,696.282156015671,367.045908301137,567.045908301137,703.717843984329,0,0,0,0,5,0,4,3,NaN,NaN,vertical,horizontal,vertical,horizontal,none,none
1a,15,100162,4,46,238,20,F,NA,variable,heterogeneous,5,present,0.869076013565063,1,vertical,vertical,1,1.02352038935611,red,4,1,601.827779828472,439.523300282291,865.998856501143,846.311085703712,865.998856501143,846.311085703712,1054.65053136242,613.345668841951,891.383827134052,361.936991243214,601.827779828472,439.523300282291,586.139005173917,738.882953928832,0,0,0,5,6,4,3,NaN,vertical,vertical,vertical,vertical,horizontal,none
1a,15,100162,4,47,239,20,F,NA,variable,heterogeneous,6,absent,1.22445821762085,1,vertical,vertical,1,1.09410712091546,red,2,NaN,1054.37883281626,617.787900804752,NaN,NaN,911.784642431215,829.192481806288,1054.37883281626,617.787900804752,942.594190385041,388.595418998464,688.215357568785,370.807518193712,545.621167183745,582.212099195248,657.405809614959,811.404581001536,0,4,5,6,5,0,vertical,vertical,horizontal,vertical,horizontal,vertical
1a,15,100162,4,48,240,20,F,NA,variable,heterogeneous,5,present,0.946954011917114,1,horizontal,horizontal,1,0.882346926237408,red,1,2,676.373546837184,823.028025320546,973.909581815937,786.495193912888,676.373546837184,823.028025320546,973.909581815937,786.495193912888,1031.10848569435,492.232343256122,768.923317431687,346.900731331463,549.685068220846,551.343706178981,0,0,4,3,5,6,0,NaN,horizontal,vertical,vertical,horizontal,vertical,none
1a,15,100162,4,49,241,20,F,NA,variable,heterogeneous,5,absent,1.70329999923706,0,vertical,horizontal,1,1.05881375513579,green,5,NaN,551.535633479765,657.362518857686,NaN,NaN,777.775285599347,854.029648013395,1034.72873763037,699.636437764765,967.295052392579,407.549057043193,668.665290897936,381.422338320961,551.535633479765,657.362518857686,0,0,3,5,5,3,4,NaN,horizontal,vertical,vertical,horizontal,vertical,none
1a,15,100162,4,50,242,20,F,NA,variable,heterogeneous,6,absent,1.50277900695801,1,horizontal,horizontal,1,1.07057821039568,red,3,NaN,980.31222920257,419.68777079743,NaN,NaN,865.998856501143,846.311085703712,1046.31108570371,665.998856501143,980.31222920257,419.68777079743,734.001143498857,353.688914296288,553.688914296288,534.001143498857,619.68777079743,780.31222920257,3,3,4,6,5,6,vertical,vertical,horizontal,vertical,vertical,vertical
1a,15,100162,4,51,243,20,F,NA,variable,heterogeneous,6,absent,NaN,0,vertical,none,0,0.77646682889838,green,1,NaN,777.775285599347,854.029648013395,NaN,NaN,777.775285599347,854.029648013395,1008.88377129369,746.261991269517,1031.10848569435,492.232343256122,822.224714400653,345.970351986605,591.116228706307,453.738008730483,568.891514305654,707.767656743878,4,5,0,6,6,3,vertical,horizontal,horizontal,horizontal,vertical,horizontal
1a,15,100162,4,52,244,20,F,NA,variable,heterogeneous,6,absent,NaN,0,horizontal,none,0,1.08234266565557,green,2,NaN,1054.65053136242,613.345668841951,NaN,NaN,915.767577433584,827.206663668034,1054.65053136242,613.345668841951,938.882953928832,386.139005173917,684.232422566416,372.793336331966,545.349468637584,586.654331158049,661.117046071168,813.860994826083,5,4,0,6,6,3,vertical,horizontal,vertical,horizontal,vertical,horizontal
1a,15,100162,4,53,245,20,F,NA,variable,heterogeneous,6,absent,1.72649598121643,1,vertical,vertical,1,0.788231284158272,green,5,NaN,583.747735480111,464.870587620533,NaN,NaN,791.100628340862,854.844660889869,1016.25226451989,735.129412379467,1025.15163617903,480.284751489598,808.899371659138,345.155339110131,583.747735480111,464.870587620533,574.848363820974,719.715248510402,3,5,5,3,4,0,horizontal,horizontal,vertical,vertical,vertical,horizontal
