experiment,subject,uniqueID,block,trial,trial_cumulative,age,gender,color_cond_blocking,color_history,shape_type,set_size,distractor,rt,acc,target_orient,response_key,response_made,iti,target_color,target_item,distractor_item,target_X,target_Y,distractor_X,distractor_Y,item1_X,item1_Y,item2_X,item2_Y,item3_X,item3_Y,item4_X,item4_Y,item5_X,item5_Y,item6_X,item6_Y,item1_shape,item2_shape,item3_shape,item4_shape,item5_shape,item6_shape,item1_line,item2_line,item3_line,item4_line,item5_line,item6_line
1a,16,100164,1,1,1,20,F,NA,variable,heterogeneous,5,absent,NaN,0,vertical,none,0,0.811759843826294,red,1,NaN,700.363562235235,834.728737630372,NaN,NaN,700.363562235235,834.728737630372,992.450942956807,767.295052392579,1018.57766167904,468.665290897936,742.637481142314,351.535633479765,545.970351986605,577.775285599347,0,0,4,3,0,0,6,NaN,vertical,horizontal,vertical,vertical,horizontal,none
1a,16,100164,1,2,2,20,F,NA,variable,heterogeneous,3,present,1.06364798545837,1,vertical,vertical,1,1.0705774307251,red,1,2,653.738008730483,808.883771293693,1054.0296480134,622.224714400653,653.738008730483,808.883771293693,1054.0296480134,622.224714400653,692.232343256122,368.891514305654,0,0,0,0,0,0,4,0,3,NaN,NaN,NaN,vertical,horizontal,horizontal,none,none,none
1a,16,100164,1,3,3,20,F,NA,variable,heterogeneous,6,absent,1.68639993667603,1,vertical,vertical,1,0.882346458435059,green,3,NaN,953.462830903772,396.34794493794,NaN,NaN,899.636437764765,834.728737630372,1053.09926866854,631.076682568313,953.462830903772,396.34794493794,700.363562235235,365.271262369628,546.900731331463,568.923317431687,646.537169096228,803.65205506206,0,3,4,5,5,0,vertical,horizontal,vertical,horizontal,vertical,vertical
1a,16,100164,1,4,4,20,F,NA,variable,heterogeneous,5,absent,NaN,0,horizontal,none,0,0.858817586898804,green,3,NaN,817.787900804752,345.621167183745,NaN,NaN,935.129412379467,816.252264519889,1047.42541020038,538.309916622085,817.787900804752,345.621167183745,563.568117085469,504.475318678942,636.089159529932,795.341332995339,0,0,5,0,4,5,0,NaN,vertical,vertical,horizontal,horizontal,horizontal,none
1a,16,100164,1,5,5,20,F,NA,variable,heterogeneous,6,present,NaN,0,horizontal,none,0,0.611764435768127,red,3,6,1050.31493177915,551.343706178981,549.685068220846,648.656293821019,716.980120613425,841.107236777826,967.295052392579,792.450942956807,1050.31493177915,551.343706178981,883.019879386575,358.892763222174,632.704947607421,407.549057043193,549.685068220846,648.656293821019,0,3,4,3,6,6,vertical,horizontal,horizontal,vertical,vertical,horizontal
1a,16,100164,1,6,6,20,F,NA,variable,heterogeneous,4,present,0.8508460521698,1,vertical,vertical,1,1.02351968765259,green,3,4,907.767656743878,368.891514305654,568.891514305654,492.232343256122,692.232343256122,831.108485694346,1031.10848569435,707.767656743878,907.767656743878,368.891514305654,568.891514305654,492.232343256122,0,0,0,0,3,0,4,6,NaN,NaN,horizontal,horizontal,vertical,vertical,none,none
1a,16,100164,1,7,7,20,F,NA,variable,heterogeneous,4,present,0.584660053253174,1,vertical,vertical,1,1.02351968765259,red,3,2,844.280285305067,348.874022981887,1051.12597701811,644.280285305067,755.719714694933,851.125977018113,1051.12597701811,644.280285305067,844.280285305067,348.874022981887,548.874022981887,555.719714694933,0,0,0,0,5,0,4,3,NaN,NaN,vertical,horizontal,vertical,vertical,none,none
1a,16,100164,1,8,8,20,F,NA,variable,heterogeneous,3,present,1.06212902069092,1,horizontal,horizontal,1,0.870582022666931,red,1,2,646.537169096228,803.65205506206,1053.09926866854,631.076682568313,646.537169096228,803.65205506206,1053.09926866854,631.076682568313,700.363562235235,365.271262369628,0,0,0,0,0,0,4,6,3,NaN,NaN,NaN,horizontal,vertical,vertical,none,none,none
1a,16,100164,1,9,9,20,F,NA,variable,heterogeneous,5,present,1.36484789848328,0,horizontal,vertical,1,0.882346458435059,red,2,3,1045.12173246427,670.287525733335,942.594190385041,388.595418998464,808.899371659138,854.844660889869,1045.12173246427,670.287525733335,942.594190385041,388.595418998464,643.006323791957,399.057257830286,560.378381699593,687.215136548046,0,0,3,4,5,0,6,NaN,horizontal,horizontal,horizontal,vertical,vertical,none
1a,16,100164,1,10,10,20,F,NA,variable,heterogeneous,5,absent,1.62080907821655,1,vertical,vertical,1,0.623528871536255,green,1,NaN,865.998856501143,846.311085703712,NaN,NaN,865.998856501143,846.311085703712,1054.65053136242,613.345668841951,891.383827134052,361.936991243214,601.827779828472,439.523300282291,586.139005173917,738.882953928832,0,0,4,0,3,5,6,NaN,vertical,horizontal,vertical,horizontal,vertical,none
1a,16,100164,1,11,11,20,F,NA,variable,heterogeneous,3,present,1.61428499221802,1,horizontal,horizontal,1,0.847053151130676,red,3,1,548.874022981887,555.719714694933,887.215136548046,839.621618300407,887.215136548046,839.621618300407,963.910840470068,404.658667004661,548.874022981887,555.719714694933,0,0,0,0,0,0,6,5,4,NaN,NaN,NaN,horizontal,vertical,horizontal,none,none,none
1a,16,100164,1,12,12,20,F,NA,variable,heterogeneous,5,present,NaN,0,horizontal,none,0,0.658822178840637,green,5,1,576.971974679454,723.626453162816,848.656293821019,850.314931779154,848.656293821019,850.314931779154,1053.09926866854,631.076682568313,907.767656743878,368.891514305654,613.504806087112,426.090418184063,576.971974679454,723.626453162816,0,0,3,5,6,6,4,NaN,horizontal,horizontal,vertical,vertical,horizontal,none
1a,16,100164,1,13,13,20,F,NA,variable,heterogeneous,4,present,NaN,0,horizontal,none,0,0.799995408058166,red,2,3,1031.10848569435,707.767656743878,907.767656743878,368.891514305654,692.232343256122,831.108485694346,1031.10848569435,707.767656743878,907.767656743878,368.891514305654,568.891514305654,492.232343256122,0,0,0,0,5,4,6,0,NaN,NaN,vertical,horizontal,vertical,horizontal,none,none
1a,16,100164,1,14,14,20,F,NA,variable,heterogeneous,4,absent,0.966933965682983,1,vertical,vertical,1,0.917639765739441,red,3,NaN,782.212099195248,345.621167183745,NaN,NaN,817.787900804752,854.378832816255,1054.37883281626,582.212099195248,782.212099195248,345.621167183745,545.621167183745,617.787900804752,0,0,0,0,6,0,4,5,NaN,NaN,vertical,vertical,vertical,horizontal,none,none
1a,16,100164,1,15,15,20,F,NA,variable,heterogeneous,6,present,1.84793591499329,0,horizontal,vertical,1,0.670586614608765,green,3,6,989.501930496736,429.371695378491,610.498069503264,770.628304621509,853.017481158529,849.42763818712,1042.51941165526,678.799333565612,989.501930496736,429.371695378491,746.982518841471,350.57236181288,557.480588344736,521.200666434388,610.498069503264,770.628304621509,3,5,4,5,3,0,vertical,horizontal,horizontal,horizontal,horizontal,horizontal
1a,16,100164,1,16,16,20,F,NA,variable,heterogeneous,4,present,1.29085612297058,1,horizontal,horizontal,1,0.682351050376892,red,2,4,1047.42541020038,661.690083377915,552.574589799621,538.309916622085,738.309916622085,847.425410200379,1047.42541020038,661.690083377915,861.690083377915,352.574589799621,552.574589799621,538.309916622085,0,0,0,0,3,4,0,6,NaN,NaN,vertical,horizontal,vertical,horizontal,none,none
1a,16,100164,1,17,17,20,F,NA,variable,heterogeneous,5,absent,1.23356509208679,1,horizontal,horizontal,1,1.03528412342072,green,4,NaN,632.704947607421,407.549057043193,NaN,NaN,822.224714400653,854.029648013395,1048.46436652023,657.362518857686,931.334709102064,381.422338320961,632.704947607421,407.549057043193,565.271262369628,699.636437764765,0,0,0,0,5,4,3,NaN,horizontal,vertical,horizontal,horizontal,horizontal,none
1a,16,100164,1,18,18,20,F,NA,variable,heterogeneous,4,present,1.12956213951111,0,vertical,horizontal,1,0.964697508811951,red,1,4,831.076682568313,853.099268668537,546.900731331463,631.076682568313,831.076682568313,853.099268668537,1053.09926866854,568.923317431687,768.923317431687,346.900731331463,546.900731331463,631.076682568313,0,0,0,0,4,5,3,0,NaN,NaN,vertical,vertical,vertical,vertical,none,none
1a,16,100164,1,19,19,20,F,NA,variable,heterogeneous,6,present,1.03023505210876,1,vertical,vertical,1,0.894110894203186,red,6,3,626.090418184063,786.495193912888,973.909581815937,413.504806087112,874.554784704298,843.857712770574,1048.46436652023,657.362518857686,973.909581815937,413.504806087112,725.445215295702,356.142287229426,551.535633479765,542.637481142314,626.090418184063,786.495193912888,3,5,6,3,0,4,vertical,vertical,vertical,horizontal,horizontal,vertical
1a,16,100164,1,20,20,20,F,NA,variable,heterogeneous,4,absent,1.01064705848694,1,vertical,vertical,1,0.776466536521912,green,4,NaN,546.39691668109,626.654758133252,NaN,NaN,826.654758133252,853.60308331891,1053.60308331891,573.345241866748,773.345241866748,346.39691668109,546.39691668109,626.654758133252,0,0,0,0,0,6,5,4,NaN,NaN,vertical,horizontal,horizontal,vertical,none,none
1a,16,100164,1,21,21,20,F,NA,variable,heterogeneous,3,absent,1.04023718833923,0,vertical,horizontal,1,1.05881299495697,red,1,NaN,616.568350913644,777.137884467044,NaN,NaN,616.568350913644,777.137884467044,1045.12173246427,670.287525733335,738.309916622085,352.574589799621,0,0,0,0,0,0,4,6,5,NaN,NaN,NaN,vertical,vertical,horizontal,none,none,none
1a,16,100164,1,22,22,20,F,NA,variable,heterogeneous,3,present,1.43620300292969,1,horizontal,horizontal,1,0.941168637275696,green,1,2,581.422338320961,731.334709102064,1023.02802532055,723.626453162816,581.422338320961,731.334709102064,1023.02802532055,723.626453162816,795.549636358493,345.03883773512,0,0,0,0,0,0,4,6,5,NaN,NaN,NaN,horizontal,vertical,horizontal,none,none,none
1a,16,100164,1,23,23,20,F,NA,variable,heterogeneous,3,absent,1.38227605819702,1,vertical,vertical,1,0.847053151130676,green,1,NaN,817.787900804752,854.378832816255,NaN,NaN,817.787900804752,854.378832816255,1011.40458100154,457.40580961496,570.807518193712,488.215357568785,0,0,0,0,0,0,4,3,0,NaN,NaN,NaN,vertical,horizontal,horizontal,none,none,none
1a,16,100164,1,24,24,20,F,NA,variable,heterogeneous,6,present,NaN,0,horizontal,none,0,0.870582022666931,red,2,1,970.628304621509,789.501930496736,721.200666434388,842.519411655264,721.200666434388,842.519411655264,970.628304621509,789.501930496736,1049.42763818712,546.982518841471,878.799333565612,357.480588344736,629.371695378491,410.498069503264,550.57236181288,653.017481158529,3,4,6,5,6,3,horizontal,horizontal,vertical,vertical,vertical,horizontal
1a,16,100164,1,25,25,20,F,NA,variable,heterogeneous,6,absent,1.28898310661316,1,vertical,vertical,1,0.670586614608765,red,2,NaN,1029.19248180629,711.784642431215,NaN,NaN,817.787900804752,854.378832816255,1029.19248180629,711.784642431215,1011.40458100154,457.40580961496,782.212099195248,345.621167183745,570.807518193712,488.215357568785,588.595418998464,742.594190385041,6,4,0,3,0,6,vertical,vertical,horizontal,horizontal,horizontal,vertical
1a,16,100164,1,26,26,20,F,NA,variable,heterogeneous,4,absent,1.3359169960022,1,horizontal,horizontal,1,0.835288715362549,green,4,NaN,567.045908301137,496.282156015671,NaN,NaN,696.282156015671,832.954091698863,1032.95409169886,703.717843984329,903.717843984329,367.045908301137,567.045908301137,496.282156015671,0,0,0,0,3,6,0,4,NaN,NaN,vertical,horizontal,vertical,horizontal,none,none
1a,16,100164,1,27,27,20,F,NA,variable,heterogeneous,5,absent,1.1395320892334,1,vertical,vertical,1,1.04704855918884,green,2,NaN,1046.31108570371,534.001143498857,NaN,NaN,938.882953928832,813.860994826083,1046.31108570371,534.001143498857,813.345668841951,345.349468637584,561.936991243214,508.616172865948,639.523300282292,798.172220171528,0,0,5,4,0,3,0,NaN,horizontal,vertical,horizontal,horizontal,horizontal,none
1a,16,100164,1,28,28,20,F,NA,variable,heterogeneous,5,present,1.21483206748962,1,vertical,vertical,1,1.02351968765259,red,5,1,581.422338320961,731.334709102064,857.362518857686,848.464366520235,857.362518857686,848.464366520235,1054.0296480134,622.224714400653,899.636437764765,365.271262369628,607.549057043193,432.704947607421,581.422338320961,731.334709102064,0,0,3,0,0,6,4,NaN,vertical,vertical,vertical,horizontal,vertical,none
1a,16,100164,1,29,29,20,F,NA,variable,heterogeneous,6,present,1.10519289970398,1,vertical,vertical,1,0.69411548614502,red,2,3,1054.37883281626,617.787900804752,942.594190385041,388.595418998464,911.784642431215,829.192481806288,1054.37883281626,617.787900804752,942.594190385041,388.595418998464,688.215357568785,370.807518193712,545.621167183745,582.212099195248,657.405809614959,811.404581001536,6,4,6,3,3,0,horizontal,vertical,horizontal,vertical,horizontal,horizontal
1a,16,100164,1,30,30,20,F,NA,variable,heterogeneous,6,absent,1.63653087615967,0,vertical,horizontal,1,0.847053151130676,green,3,NaN,931.334709102064,381.422338320961,NaN,NaN,923.626453162816,823.028025320546,1054.96116226488,604.450363641507,931.334709102064,381.422338320961,676.373546837184,376.971974679454,545.03883773512,595.549636358493,668.665290897936,818.577661679039,0,0,4,5,6,3,vertical,horizontal,vertical,horizontal,horizontal,horizontal
1a,16,100164,1,31,31,20,F,NA,variable,heterogeneous,3,absent,1.24179983139038,1,horizontal,horizontal,1,0.811759843826294,green,1,NaN,804.450363641507,854.96116226488,NaN,NaN,804.450363641507,854.96116226488,1018.57766167904,468.665290897936,576.971974679454,476.373546837184,0,0,0,0,0,0,4,5,0,NaN,NaN,NaN,horizontal,horizontal,horizontal,none,none,none
1a,16,100164,1,32,32,20,F,NA,variable,heterogeneous,5,present,1.4470489025116,1,vertical,vertical,1,0.611764435768127,green,3,4,800,345,557.480588344736,521.200666434388,949.885239334581,806.299333565612,1042.51941165526,521.200666434388,800,345,557.480588344736,521.200666434388,650.114760665419,806.299333565612,0,0,6,0,4,3,0,NaN,horizontal,vertical,vertical,horizontal,vertical,none
1a,16,100164,1,33,33,20,F,NA,variable,heterogeneous,6,absent,1.77742981910706,1,horizontal,horizontal,1,0.658822178840637,red,6,NaN,657.405809614959,811.404581001536,NaN,NaN,911.784642431215,829.192481806288,1054.37883281626,617.787900804752,942.594190385041,388.595418998464,688.215357568785,370.807518193712,545.621167183745,582.212099195248,657.405809614959,811.404581001536,3,5,0,5,0,4,horizontal,horizontal,vertical,horizontal,horizontal,horizontal
1a,16,100164,1,34,34,20,F,NA,variable,heterogeneous,3,present,NaN,0,vertical,none,0,0.858817586898804,green,1,2,721.200666434388,842.519411655264,1049.42763818712,546.982518841471,721.200666434388,842.519411655264,1049.42763818712,546.982518841471,629.371695378491,410.498069503264,0,0,0,0,0,0,4,3,5,NaN,NaN,NaN,vertical,horizontal,vertical,none,none,none
1a,16,100164,1,35,35,20,F,NA,variable,heterogeneous,3,absent,1.56155014038086,0,horizontal,vertical,1,0.741173229217529,green,1,NaN,804.450363641507,854.96116226488,NaN,NaN,804.450363641507,854.96116226488,1018.57766167904,468.665290897936,576.971974679454,476.373546837184,0,0,0,0,0,0,4,5,5,NaN,NaN,NaN,horizontal,horizontal,horizontal,none,none,none
1a,16,100164,1,36,36,20,F,NA,variable,heterogeneous,6,present,1.78129696846008,1,horizontal,horizontal,1,0.823524279594421,green,5,4,547.481642470899,564.510859255183,704.475318678942,363.568117085469,895.524681321058,836.431882914531,1052.5183575291,635.489140744817,956.993676208043,399.057257830286,704.475318678942,363.568117085469,547.481642470899,564.510859255183,643.006323791957,800.942742169714,3,5,6,0,4,0,vertical,vertical,horizontal,vertical,horizontal,vertical
1a,16,100164,1,37,37,20,F,NA,variable,heterogeneous,4,present,1.31479406356812,0,horizontal,vertical,1,0.870582022666931,green,2,4,1036.43188291453,695.524681321058,563.568117085469,504.475318678942,704.475318678942,836.431882914531,1036.43188291453,695.524681321058,895.524681321058,363.568117085469,563.568117085469,504.475318678942,0,0,0,0,6,4,5,0,NaN,NaN,vertical,horizontal,horizontal,horizontal,none,none
1a,16,100164,1,38,38,20,F,NA,variable,heterogeneous,4,absent,1.49255299568176,1,horizontal,horizontal,1,0.776466536521912,green,1,NaN,878.799333565612,842.519411655264,NaN,NaN,878.799333565612,842.519411655264,1042.51941165526,521.200666434388,721.200666434388,357.480588344736,557.480588344736,678.799333565612,0,0,0,0,4,5,6,6,NaN,NaN,horizontal,vertical,horizontal,horizontal,none,none
1a,16,100164,1,39,39,20,F,NA,variable,heterogeneous,4,absent,1.17489290237427,1,vertical,vertical,1,0.823524279594421,red,1,NaN,716.980120613425,841.107236777826,NaN,NaN,716.980120613425,841.107236777826,1041.10723677783,683.019879386575,883.019879386575,358.892763222174,558.892763222174,516.980120613425,0,0,0,0,4,3,5,0,NaN,NaN,vertical,horizontal,vertical,vertical,none,none
1a,16,100164,1,40,40,20,F,NA,variable,heterogeneous,5,present,NaN,0,vertical,none,0,1.0705774307251,red,2,5,1054.96116226488,604.450363641507,591.116228706307,746.261991269517,874.554784704298,843.857712770574,1054.96116226488,604.450363641507,883.019879386575,358.892763222174,596.34794493794,446.537169096228,591.116228706307,746.261991269517,0,0,3,4,6,0,6,NaN,horizontal,vertical,vertical,vertical,horizontal,none
1a,16,100164,1,41,41,20,F,NA,variable,heterogeneous,5,present,1.42635083198547,0,horizontal,vertical,1,0.705879921913147,red,5,1,622.862115532956,783.431649086356,919.715248510402,825.151636179026,919.715248510402,825.151636179026,1051.12597701811,555.719714694933,835.489140744817,347.4816424709,570.807518193712,488.215357568785,622.862115532956,783.431649086356,0,0,6,5,0,5,4,NaN,vertical,horizontal,vertical,horizontal,horizontal,none
1a,16,100164,1,42,42,20,F,NA,variable,heterogeneous,3,absent,1.44478988647461,0,horizontal,vertical,1,0.882346458435059,red,2,NaN,1036.43188291453,695.524681321058,NaN,NaN,599.057257830286,756.993676208043,1036.43188291453,695.524681321058,764.510859255183,347.4816424709,0,0,0,0,0,0,5,4,0,NaN,NaN,NaN,vertical,horizontal,horizontal,none,none,none
1a,16,100164,1,43,43,20,F,NA,variable,heterogeneous,4,absent,1.86381196975708,1,horizontal,horizontal,1,0.69411548614502,red,3,NaN,684.232422566416,372.793336331966,NaN,NaN,915.767577433584,827.206663668034,1027.20666366803,484.232422566416,684.232422566416,372.793336331966,572.793336331966,715.767577433584,0,0,0,0,6,3,4,3,NaN,NaN,vertical,vertical,horizontal,horizontal,none,none
1a,16,100164,1,44,44,20,F,NA,variable,heterogeneous,5,present,1.82294082641602,1,horizontal,horizontal,1,1.08234186649323,green,1,3,949.885239334581,806.299333565612,800,345,949.885239334581,806.299333565612,1042.51941165526,521.200666434388,800,345,557.480588344736,521.200666434388,650.114760665419,806.299333565612,0,0,4,6,6,5,3,NaN,horizontal,vertical,vertical,vertical,horizontal,none
1a,16,100164,1,45,45,20,F,NA,variable,heterogeneous,4,absent,NaN,0,horizontal,none,0,0.811759843826294,red,3,NaN,839.890788585259,348.13947314824,NaN,NaN,760.109211414741,851.86052685176,1051.86052685176,639.890788585259,839.890788585259,348.13947314824,548.13947314824,560.109211414741,0,0,0,0,6,0,4,3,NaN,NaN,horizontal,horizontal,horizontal,horizontal,none,none
1a,16,100164,1,46,46,20,F,NA,variable,heterogeneous,3,absent,0.857677936553955,1,vertical,vertical,1,0.882346458435059,green,3,NaN,558.892763222174,516.980120613425,NaN,NaN,848.656293821019,850.314931779154,992.450942956807,432.704947607421,558.892763222174,516.980120613425,0,0,0,0,0,0,0,0,4,NaN,NaN,NaN,horizontal,horizontal,vertical,none,none,none
1a,16,100164,1,47,47,20,F,NA,variable,heterogeneous,3,present,1.28036594390869,1,horizontal,horizontal,1,0.658822178840637,green,3,1,755.719714694933,348.874022981887,604.658667004661,763.910840470068,604.658667004661,763.910840470068,1039.62161830041,687.215136548046,755.719714694933,348.874022981887,0,0,0,0,0,0,6,5,4,NaN,NaN,NaN,horizontal,horizontal,horizontal,none,none,none
1a,16,100164,1,48,48,20,F,NA,variable,heterogeneous,3,present,0.723589897155762,1,vertical,vertical,1,0.682351050376892,green,1,3,813.345668841951,854.650531362416,572.793336331966,484.232422566416,813.345668841951,854.650531362416,1013.86099482608,461.117046071168,572.793336331966,484.232422566416,0,0,0,0,0,0,4,0,5,NaN,NaN,NaN,vertical,horizontal,horizontal,none,none,none
1a,16,100164,1,49,49,20,F,NA,variable,heterogeneous,5,absent,1.35077500343323,1,horizontal,horizontal,1,0.611764435768127,red,3,NaN,887.215136548046,360.378381699593,NaN,NaN,870.287525733335,845.121732464271,1054.84466088987,608.899371659138,887.215136548046,360.378381699593,599.057257830286,443.006323791957,588.595418998464,742.594190385041,0,0,0,3,4,6,5,NaN,horizontal,horizontal,horizontal,horizontal,vertical,none
1a,16,100164,1,50,50,20,F,NA,variable,heterogeneous,6,present,1.50644087791443,0,vertical,horizontal,1,1.03528412342072,green,3,5,1054.84466088987,591.100628340862,664.870587620533,383.747735480111,680.284751489598,825.151636179026,935.129412379467,816.252264519889,1054.84466088987,591.100628340862,919.715248510402,374.848363820974,664.870587620533,383.747735480111,545.155339110131,608.899371659138,0,6,4,3,0,5,horizontal,horizontal,vertical,vertical,vertical,horizontal
1a,16,100164,1,51,51,20,F,NA,variable,heterogeneous,4,present,0.92149019241333,0,vertical,horizontal,1,1.03528412342072,green,3,4,808.899371659138,345.155339110131,545.155339110131,591.100628340862,791.100628340862,854.844660889869,1054.84466088987,608.899371659138,808.899371659138,345.155339110131,545.155339110131,591.100628340862,0,0,0,0,3,6,4,3,NaN,NaN,horizontal,horizontal,vertical,vertical,none,none
1a,16,100164,1,52,52,20,F,NA,variable,heterogeneous,3,absent,1.88296985626221,1,horizontal,horizontal,1,0.941168637275696,red,3,NaN,545.970351986605,577.775285599347,NaN,NaN,907.767656743878,831.108485694346,946.261991269517,391.116228706307,545.970351986605,577.775285599347,0,0,0,0,0,0,5,5,4,NaN,NaN,NaN,vertical,horizontal,horizontal,none,none,none
1a,16,100164,1,53,53,20,F,NA,variable,heterogeneous,3,present,1.06232309341431,1,vertical,vertical,1,1.0705774307251,red,1,3,643.006323791957,800.942742169714,704.475318678942,363.568117085469,643.006323791957,800.942742169714,1052.5183575291,635.489140744817,704.475318678942,363.568117085469,0,0,0,0,0,0,4,6,3,NaN,NaN,NaN,vertical,vertical,vertical,none,none,none
1a,16,100164,1,54,54,20,F,NA,variable,heterogeneous,5,present,0.662009954452515,1,vertical,vertical,1,0.705879921913147,green,5,3,553.688914296288,665.998856501143,960.476699717708,401.827779828472,786.654331158049,854.650531362416,1038.06300875679,691.383827134052,960.476699717708,401.827779828472,661.117046071168,386.139005173917,553.688914296288,665.998856501143,0,0,3,5,0,0,4,NaN,vertical,horizontal,horizontal,vertical,vertical,none
1a,16,100164,1,55,55,20,F,NA,variable,heterogeneous,3,absent,1.05289483070374,1,vertical,vertical,1,1.08234186649323,red,1,NaN,755.719714694933,851.125977018113,NaN,NaN,755.719714694933,851.125977018113,1039.62161830041,512.784863451954,604.658667004661,436.089159529932,0,0,0,0,0,0,4,5,0,NaN,NaN,NaN,vertical,horizontal,horizontal,none,none,none
1a,16,100164,1,56,56,20,F,NA,variable,heterogeneous,4,present,1.72764086723328,0,horizontal,vertical,1,1.08234186649323,green,3,4,967.295052392579,407.549057043193,607.549057043193,432.704947607421,632.704947607421,792.450942956807,992.450942956807,767.295052392579,967.295052392579,407.549057043193,607.549057043193,432.704947607421,0,0,0,0,0,3,4,3,NaN,NaN,horizontal,horizontal,horizontal,horizontal,none,none
1a,16,100164,1,57,57,20,F,NA,variable,heterogeneous,6,absent,1.81357192993164,1,horizontal,horizontal,1,0.952933073043823,green,2,NaN,1027.20666366803,715.767577433584,NaN,NaN,813.345668841951,854.650531362416,1027.20666366803,715.767577433584,1013.86099482608,461.117046071168,786.654331158049,345.349468637584,572.793336331966,484.232422566416,586.139005173917,738.882953928832,0,4,6,0,5,3,horizontal,horizontal,horizontal,vertical,vertical,horizontal
1a,16,100164,1,58,58,20,F,NA,variable,heterogeneous,6,absent,1.73134803771973,1,vertical,vertical,1,1.05881299495697,red,2,NaN,953.462830903772,803.65205506206,NaN,NaN,700.363562235235,834.728737630372,953.462830903772,803.65205506206,1053.09926866854,568.923317431687,899.636437764765,365.271262369628,646.537169096228,396.34794493794,546.900731331463,631.076682568313,3,4,6,6,5,5,horizontal,vertical,horizontal,horizontal,vertical,vertical
1a,16,100164,1,59,59,20,F,NA,variable,heterogeneous,4,absent,1.71543598175049,1,vertical,vertical,1,0.658822178840637,green,1,NaN,848.656293821019,850.314931779154,NaN,NaN,848.656293821019,850.314931779154,1050.31493177915,551.343706178981,751.343706178981,349.685068220846,549.685068220846,648.656293821019,0,0,0,0,4,3,3,5,NaN,NaN,vertical,vertical,vertical,vertical,none,none
1a,16,100164,1,60,60,20,F,NA,variable,heterogeneous,6,absent,NaN,0,horizontal,none,0,0.752937664985657,red,6,NaN,572.793336331966,715.767577433584,NaN,NaN,786.654331158049,854.650531362416,1013.86099482608,738.882953928832,1027.20666366803,484.232422566416,813.345668841951,345.349468637584,586.139005173917,461.117046071168,572.793336331966,715.767577433584,5,3,0,5,3,4,horizontal,vertical,horizontal,vertical,vertical,horizontal
1a,16,100164,1,61,61,20,F,NA,variable,heterogeneous,5,absent,0.747990846633911,1,horizontal,horizontal,1,0.741173229217529,red,5,NaN,545.621167183745,582.212099195248,NaN,NaN,704.475318678942,836.431882914531,995.341332995339,763.910840470068,1016.25226451989,464.870587620533,738.309916622085,352.574589799621,545.621167183745,582.212099195248,0,0,0,3,6,6,4,NaN,horizontal,vertical,horizontal,vertical,horizontal,none
1a,16,100164,1,62,62,20,F,NA,variable,heterogeneous,6,absent,1.05004906654358,1,horizontal,horizontal,1,0.752937664985657,green,1,NaN,684.232422566416,827.206663668034,NaN,NaN,684.232422566416,827.206663668034,938.882953928832,813.860994826083,1054.65053136242,586.654331158049,915.767577433584,372.793336331966,661.117046071168,386.139005173917,545.349468637584,613.345668841951,4,6,6,3,5,3,horizontal,vertical,vertical,vertical,horizontal,horizontal
1a,16,100164,1,63,63,20,F,NA,variable,heterogeneous,5,absent,1.54564905166626,0,vertical,horizontal,1,0.717644357681274,red,4,NaN,692.232343256122,368.891514305654,NaN,NaN,751.343706178981,850.314931779154,1023.02802532055,723.626453162816,986.495193912888,426.090418184063,692.232343256122,368.891514305654,546.900731331463,631.076682568313,0,0,6,6,3,4,0,NaN,vertical,horizontal,horizontal,vertical,horizontal,none
1a,16,100164,1,64,64,20,F,NA,variable,heterogeneous,6,present,1.50369596481323,1,vertical,vertical,1,0.952933073043823,green,2,1,1013.86099482608,738.882953928832,786.654331158049,854.650531362416,786.654331158049,854.650531362416,1013.86099482608,738.882953928832,1027.20666366803,484.232422566416,813.345668841951,345.349468637584,586.139005173917,461.117046071168,572.793336331966,715.767577433584,5,4,6,6,0,3,horizontal,vertical,vertical,vertical,horizontal,vertical
1a,16,100164,2,1,65,20,F,NA,variable,heterogeneous,5,present,NaN,0,vertical,none,0,0.858817586898804,red,4,3,696.282156015671,367.045908301137,989.501930496736,429.371695378491,746.982518841471,849.42763818712,1020.83647796503,727.5,989.501930496736,429.371695378491,696.282156015671,367.045908301137,546.39691668109,626.654758133252,0,0,5,0,3,4,5,NaN,horizontal,vertical,vertical,vertical,horizontal,none
1a,16,100164,2,2,66,20,F,NA,variable,heterogeneous,3,absent,NaN,0,horizontal,none,0,0.964697508811951,red,1,NaN,967.295052392579,792.450942956807,NaN,NaN,967.295052392579,792.450942956807,883.019879386575,358.892763222174,549.685068220846,648.656293821019,0,0,0,0,0,0,4,3,0,NaN,NaN,NaN,horizontal,vertical,horizontal,none,none,none
1a,16,100164,2,3,67,20,F,NA,variable,heterogeneous,4,absent,NaN,0,horizontal,none,0,0.882346458435059,green,1,NaN,911.784642431215,829.192481806288,NaN,NaN,911.784642431215,829.192481806288,1029.19248180629,488.215357568785,688.215357568785,370.807518193712,570.807518193712,711.784642431215,0,0,0,0,4,3,5,0,NaN,NaN,horizontal,horizontal,vertical,horizontal,none,none
1a,16,100164,2,4,68,20,F,NA,variable,heterogeneous,4,absent,NaN,0,horizontal,none,0,0.69411548614502,red,3,NaN,696.282156015671,367.045908301137,NaN,NaN,903.717843984329,832.954091698863,1032.95409169886,496.282156015671,696.282156015671,367.045908301137,567.045908301137,703.717843984329,0,0,0,0,6,5,4,0,NaN,NaN,horizontal,vertical,horizontal,vertical,none,none
1a,16,100164,2,5,69,20,F,NA,variable,heterogeneous,5,absent,0.760654926300049,1,horizontal,horizontal,1,0.870582022666931,red,4,NaN,657.405809614959,388.595418998464,NaN,NaN,791.100628340862,854.844660889869,1039.62161830041,687.215136548046,956.993676208043,399.057257830286,657.405809614959,388.595418998464,554.878267535729,670.287525733335,0,0,0,6,5,4,3,NaN,horizontal,horizontal,vertical,horizontal,vertical,none
1a,16,100164,2,6,70,20,F,NA,variable,heterogeneous,5,absent,0.990350961685181,1,horizontal,horizontal,1,0.717644357681274,green,4,NaN,643.006323791957,399.057257830286,NaN,NaN,808.899371659138,854.844660889869,1045.12173246427,670.287525733335,942.594190385041,388.595418998464,643.006323791957,399.057257830286,560.378381699593,687.215136548046,0,0,3,5,6,4,3,NaN,horizontal,horizontal,vertical,horizontal,horizontal,none
1a,16,100164,2,7,71,20,F,NA,variable,heterogeneous,3,absent,0.704719066619873,1,horizontal,horizontal,1,0.917639765739441,green,2,NaN,839.890788585259,348.13947314824,NaN,NaN,998.172220171528,760.476699717708,839.890788585259,348.13947314824,561.936991243214,691.383827134052,0,0,0,0,0,0,5,4,3,NaN,NaN,NaN,vertical,horizontal,vertical,none,none,none
1a,16,100164,2,8,72,20,F,NA,variable,heterogeneous,4,present,0.611542224884033,1,horizontal,horizontal,1,0.623528871536255,green,3,2,865.998856501143,353.688914296288,1046.31108570371,665.998856501143,734.001143498857,846.311085703712,1046.31108570371,665.998856501143,865.998856501143,353.688914296288,553.688914296288,534.001143498857,0,0,0,0,5,6,4,0,NaN,NaN,vertical,horizontal,horizontal,vertical,none,none
1a,16,100164,2,9,73,20,F,NA,variable,heterogeneous,3,present,1.01950097084045,0,horizontal,vertical,1,0.776466536521912,red,1,3,895.524681321058,836.431882914531,547.481642470899,564.510859255183,895.524681321058,836.431882914531,956.993676208043,399.057257830286,547.481642470899,564.510859255183,0,0,0,0,0,0,4,5,3,NaN,NaN,NaN,horizontal,horizontal,vertical,none,none,none
1a,16,100164,2,10,74,20,F,NA,variable,heterogeneous,6,absent,0.736706018447876,1,vertical,vertical,1,1.03528412342072,red,4,NaN,822.224714400653,345.970351986605,NaN,NaN,777.775285599347,854.029648013395,1008.88377129369,746.261991269517,1031.10848569435,492.232343256122,822.224714400653,345.970351986605,591.116228706307,453.738008730483,568.891514305654,707.767656743878,3,3,5,4,6,0,vertical,horizontal,vertical,vertical,vertical,horizontal
1a,16,100164,2,11,75,20,F,NA,variable,heterogeneous,3,absent,0.722756147384644,1,horizontal,horizontal,1,0.952933073043823,red,2,NaN,942.594190385041,388.595418998464,NaN,NaN,911.784642431215,829.192481806288,942.594190385041,388.595418998464,545.621167183745,582.212099195248,0,0,0,0,0,0,5,4,0,NaN,NaN,NaN,vertical,horizontal,vertical,none,none,none
1a,16,100164,2,12,76,20,F,NA,variable,heterogeneous,4,absent,1.50390410423279,1,horizontal,horizontal,1,0.729408793449402,green,3,NaN,967.295052392579,407.549057043193,NaN,NaN,632.704947607421,792.450942956807,992.450942956807,767.295052392579,967.295052392579,407.549057043193,607.549057043193,432.704947607421,0,0,0,0,3,5,4,6,NaN,NaN,horizontal,horizontal,horizontal,horizontal,none,none
1a,16,100164,2,13,77,20,F,NA,variable,heterogeneous,6,present,0.689342021942139,1,vertical,vertical,1,0.764702100753784,red,4,3,915.767577433584,372.793336331966,1054.65053136242,586.654331158049,684.232422566416,827.206663668034,938.882953928832,813.860994826083,1054.65053136242,586.654331158049,915.767577433584,372.793336331966,661.117046071168,386.139005173917,545.349468637584,613.345668841951,3,6,3,4,5,6,vertical,vertical,vertical,vertical,vertical,vertical
1a,16,100164,2,14,78,20,F,NA,variable,heterogeneous,5,absent,1.80336594581604,1,horizontal,horizontal,1,0.799995408058166,red,1,NaN,721.200666434388,842.519411655264,NaN,NaN,721.200666434388,842.519411655264,1006.29933356561,749.885239334581,1006.29933356561,450.114760665419,721.200666434388,357.480588344736,545,600,0,0,4,3,0,3,0,NaN,horizontal,horizontal,horizontal,vertical,vertical,none
1a,16,100164,2,15,79,20,F,NA,variable,heterogeneous,4,present,0.842374086380005,1,horizontal,horizontal,1,0.941168637275696,red,3,1,782.212099195248,345.621167183745,817.787900804752,854.378832816255,817.787900804752,854.378832816255,1054.37883281626,582.212099195248,782.212099195248,345.621167183745,545.621167183745,617.787900804752,0,0,0,0,3,5,4,0,NaN,NaN,vertical,vertical,horizontal,vertical,none,none
1a,16,100164,2,16,80,20,F,NA,variable,heterogeneous,5,present,1.81743311882019,1,horizontal,horizontal,1,0.705879921913147,red,2,1,1052.5183575291,564.510859255183,911.784642431215,829.192481806288,911.784642431215,829.192481806288,1052.5183575291,564.510859255183,844.280285305067,348.874022981887,574.848363820974,480.284751489598,616.568350913644,777.137884467044,0,0,5,4,3,5,6,NaN,horizontal,horizontal,horizontal,horizontal,vertical,none
1a,16,100164,2,17,81,20,F,NA,variable,heterogeneous,3,absent,0.921953916549683,1,horizontal,horizontal,1,0.976461944580078,green,2,NaN,960.476699717708,401.827779828472,NaN,NaN,891.383827134052,838.063008756786,960.476699717708,401.827779828472,548.13947314824,560.109211414741,0,0,0,0,0,0,6,4,5,NaN,NaN,NaN,horizontal,horizontal,vertical,none,none,none
1a,16,100164,2,18,82,20,F,NA,variable,heterogeneous,3,present,0.719450950622559,0,vertical,horizontal,1,0.952933073043823,red,3,2,550.57236181288,653.017481158529,878.799333565612,357.480588344736,970.628304621509,789.501930496736,878.799333565612,357.480588344736,550.57236181288,653.017481158529,0,0,0,0,0,0,5,0,4,NaN,NaN,NaN,horizontal,vertical,vertical,none,none,none
1a,16,100164,2,19,83,20,F,NA,variable,heterogeneous,3,present,0.948906183242798,0,horizontal,vertical,1,0.752937664985657,green,3,1,591.116228706307,453.738008730483,777.775285599347,854.029648013395,777.775285599347,854.029648013395,1031.10848569435,492.232343256122,591.116228706307,453.738008730483,0,0,0,0,0,0,0,0,4,NaN,NaN,NaN,vertical,vertical,horizontal,none,none,none
1a,16,100164,2,20,84,20,F,NA,variable,heterogeneous,4,absent,0.797559022903442,1,vertical,vertical,1,0.670586614608765,red,1,NaN,696.282156015671,832.954091698863,NaN,NaN,696.282156015671,832.954091698863,1032.95409169886,703.717843984329,903.717843984329,367.045908301137,567.045908301137,496.282156015671,0,0,0,0,4,3,0,5,NaN,NaN,vertical,vertical,vertical,vertical,none,none
1a,16,100164,2,21,85,20,F,NA,variable,heterogeneous,6,absent,NaN,0,vertical,none,0,0.764702100753784,red,1,NaN,907.767656743878,831.108485694346,NaN,NaN,907.767656743878,831.108485694346,1054.0296480134,622.224714400653,946.261991269517,391.116228706307,692.232343256122,368.891514305654,545.970351986605,577.775285599347,653.738008730483,808.883771293693,4,6,5,3,5,0,vertical,horizontal,horizontal,horizontal,horizontal,vertical
1a,16,100164,2,22,86,20,F,NA,variable,heterogeneous,4,present,0.638101100921631,1,vertical,vertical,1,0.64705774307251,green,3,2,800,345,1055,600,800,855,1055,600,800,345,545,600,0,0,0,0,0,5,4,0,NaN,NaN,vertical,vertical,vertical,vertical,none,none
1a,16,100164,2,23,87,20,F,NA,variable,heterogeneous,4,present,1.01131319999695,1,vertical,vertical,1,0.611764435768127,red,4,2,548.874022981887,644.280285305067,1051.12597701811,555.719714694933,844.280285305067,851.125977018113,1051.12597701811,555.719714694933,755.719714694933,348.874022981887,548.874022981887,644.280285305067,0,0,0,0,5,0,3,4,NaN,NaN,vertical,vertical,vertical,vertical,none,none
1a,16,100164,2,24,88,20,F,NA,variable,heterogeneous,6,absent,0.806581974029541,1,horizontal,horizontal,1,0.941168637275696,red,6,NaN,563.568117085469,695.524681321058,NaN,NaN,764.510859255183,852.518357529101,1000.94274216971,756.993676208043,1036.43188291453,504.475318678942,835.489140744817,347.4816424709,599.057257830286,443.006323791957,563.568117085469,695.524681321058,5,0,6,6,0,4,horizontal,vertical,horizontal,horizontal,vertical,horizontal
1a,16,100164,2,25,89,20,F,NA,variable,heterogeneous,3,present,1.37326884269714,1,horizontal,horizontal,1,0.717644357681274,green,1,2,919.715248510402,825.151636179026,935.129412379467,383.747735480111,919.715248510402,825.151636179026,935.129412379467,383.747735480111,545.155339110131,591.100628340862,0,0,0,0,0,0,4,0,6,NaN,NaN,NaN,horizontal,horizontal,vertical,none,none,none
1a,16,100164,2,26,90,20,F,NA,variable,heterogeneous,5,absent,1.24623894691467,1,vertical,vertical,1,0.670586614608765,red,4,NaN,561.936991243214,508.616172865948,NaN,NaN,938.882953928832,813.860994826083,1046.31108570371,534.001143498857,813.345668841951,345.349468637584,561.936991243214,508.616172865948,639.523300282292,798.172220171528,0,0,0,5,0,4,3,NaN,vertical,vertical,horizontal,vertical,vertical,none
1a,16,100164,2,27,91,20,F,NA,variable,heterogeneous,5,absent,0.975268125534058,1,vertical,vertical,1,0.788230972290039,red,4,NaN,782.212099195248,345.621167183745,NaN,NaN,664.870587620533,816.252264519889,963.910840470068,795.341332995339,1036.43188291453,504.475318678942,782.212099195248,345.621167183745,552.574589799621,538.309916622085,0,0,3,0,6,4,3,NaN,vertical,horizontal,vertical,vertical,vertical,none
1a,16,100164,2,28,92,20,F,NA,variable,heterogeneous,5,present,1.15319800376892,1,horizontal,horizontal,1,0.705879921913147,green,3,2,870.287525733335,354.878267535729,1054.84466088987,591.100628340862,887.215136548046,839.621618300407,1054.84466088987,591.100628340862,870.287525733335,354.878267535729,588.595418998464,457.40580961496,599.057257830286,756.993676208043,0,0,3,5,4,0,3,NaN,horizontal,vertical,horizontal,horizontal,vertical,none
1a,16,100164,2,29,93,20,F,NA,variable,heterogeneous,5,absent,0.836030960083008,0,vertical,horizontal,1,0.976461944580078,green,4,NaN,561.936991243214,508.616172865948,NaN,NaN,938.882953928832,813.860994826083,1046.31108570371,534.001143498857,813.345668841951,345.349468637584,561.936991243214,508.616172865948,639.523300282292,798.172220171528,0,0,0,6,3,4,6,NaN,horizontal,vertical,horizontal,vertical,vertical,none
1a,16,100164,2,30,94,20,F,NA,variable,heterogeneous,5,present,1.65813994407654,1,horizontal,horizontal,1,0.858817586898804,red,4,5,643.006323791957,399.057257830286,560.378381699593,687.215136548046,808.899371659138,854.844660889869,1045.12173246427,670.287525733335,942.594190385041,388.595418998464,643.006323791957,399.057257830286,560.378381699593,687.215136548046,0,0,3,3,5,4,0,NaN,vertical,horizontal,horizontal,horizontal,horizontal,none
1a,16,100164,2,31,95,20,F,NA,variable,heterogeneous,3,present,1.23949098587036,1,horizontal,horizontal,1,0.988226380348206,red,2,3,1020.83647796503,727.5,800,345,579.163522034968,727.5,1020.83647796503,727.5,800,345,0,0,0,0,0,0,0,4,6,NaN,NaN,NaN,vertical,horizontal,horizontal,none,none,none
1a,16,100164,2,32,96,20,F,NA,variable,heterogeneous,6,present,0.930740833282471,1,horizontal,horizontal,1,0.917639765739441,red,4,5,755.719714694933,348.874022981887,560.378381699593,512.784863451954,844.280285305067,851.125977018113,1039.62161830041,687.215136548046,995.341332995339,436.089159529932,755.719714694933,348.874022981887,560.378381699593,512.784863451954,604.658667004661,763.910840470068,5,0,5,4,6,3,vertical,vertical,vertical,horizontal,horizontal,vertical
1a,16,100164,2,33,97,20,F,NA,variable,heterogeneous,5,absent,0.567041873931885,1,vertical,vertical,1,1.0705774307251,green,5,NaN,548.13947314824,560.109211414741,NaN,NaN,684.232422566416,827.206663668034,980.31222920257,780.31222920257,1027.20666366803,484.232422566416,760.109211414741,348.13947314824,548.13947314824,560.109211414741,0,0,3,6,3,5,4,NaN,vertical,horizontal,vertical,vertical,vertical,none
1a,16,100164,2,34,98,20,F,NA,variable,heterogeneous,6,absent,NaN,0,horizontal,none,0,0.717644357681274,red,2,NaN,927.5,820.836477965032,NaN,NaN,672.5,820.836477965032,927.5,820.836477965032,1055,600,927.5,379.163522034968,672.5,379.163522034968,545,600,6,4,0,0,5,3,horizontal,horizontal,horizontal,vertical,horizontal,horizontal
1a,16,100164,2,35,99,20,F,NA,variable,heterogeneous,4,present,1.43919396400452,1,vertical,vertical,1,0.894110894203186,green,1,4,795.549636358493,854.96116226488,545.03883773512,595.549636358493,795.549636358493,854.96116226488,1054.96116226488,604.450363641507,804.450363641507,345.03883773512,545.03883773512,595.549636358493,0,0,0,0,4,0,3,5,NaN,NaN,vertical,vertical,horizontal,vertical,none,none
1a,16,100164,2,36,100,20,F,NA,variable,heterogeneous,4,present,1.70556783676147,1,horizontal,horizontal,1,1.0705774307251,red,4,3,545.155339110131,608.899371659138,791.100628340862,345.155339110131,808.899371659138,854.844660889869,1054.84466088987,591.100628340862,791.100628340862,345.155339110131,545.155339110131,608.899371659138,0,0,0,0,3,0,5,4,NaN,NaN,vertical,vertical,vertical,horizontal,none,none
1a,16,100164,2,37,101,20,F,NA,variable,heterogeneous,3,present,1.09196591377258,1,vertical,vertical,1,0.799995408058166,red,3,2,676.373546837184,376.971974679454,1054.96116226488,604.450363641507,668.665290897936,818.577661679039,1054.96116226488,604.450363641507,676.373546837184,376.971974679454,0,0,0,0,0,0,3,0,4,NaN,NaN,NaN,vertical,vertical,vertical,none,none,none
1a,16,100164,2,38,102,20,F,NA,variable,heterogeneous,6,present,1.53528189659119,1,horizontal,horizontal,1,1.0705774307251,green,6,1,593.700666434388,749.885239334581,826.654758133252,853.60308331891,826.654758133252,853.60308331891,1032.95409169886,703.717843984329,1006.29933356561,450.114760665419,773.345241866748,346.39691668109,567.045908301137,496.282156015671,593.700666434388,749.885239334581,6,5,6,0,3,4,horizontal,horizontal,horizontal,vertical,vertical,horizontal
1a,16,100164,2,39,103,20,F,NA,variable,heterogeneous,6,absent,1.10150599479675,1,vertical,vertical,1,0.764702100753784,green,3,NaN,946.261991269517,391.116228706307,NaN,NaN,907.767656743878,831.108485694346,1054.0296480134,622.224714400653,946.261991269517,391.116228706307,692.232343256122,368.891514305654,545.970351986605,577.775285599347,653.738008730483,808.883771293693,5,6,4,6,0,0,vertical,horizontal,vertical,horizontal,horizontal,vertical
1a,16,100164,2,40,104,20,F,NA,variable,heterogeneous,6,present,0.844621896743774,1,vertical,vertical,1,0.847053151130676,red,3,4,963.910840470068,404.658667004661,712.784863451954,360.378381699593,887.215136548046,839.621618300407,1051.12597701811,644.280285305067,963.910840470068,404.658667004661,712.784863451954,360.378381699593,548.874022981887,555.719714694933,636.089159529932,795.341332995339,3,0,4,0,6,5,vertical,vertical,vertical,vertical,horizontal,horizontal
1a,16,100164,2,41,105,20,F,NA,variable,heterogeneous,6,present,1.65456891059875,1,vertical,vertical,1,1.04704855918884,green,5,6,545.155339110131,591.100628340862,664.870587620533,816.252264519889,919.715248510402,825.151636179026,1054.84466088987,608.899371659138,935.129412379467,383.747735480111,680.284751489598,374.848363820974,545.155339110131,591.100628340862,664.870587620533,816.252264519889,6,5,3,3,4,6,vertical,vertical,vertical,vertical,vertical,horizontal
1a,16,100164,2,42,106,20,F,NA,variable,heterogeneous,3,absent,0.796755075454712,1,vertical,vertical,1,0.847053151130676,green,2,NaN,953.462830903772,396.34794493794,NaN,NaN,899.636437764765,834.728737630372,953.462830903772,396.34794493794,546.900731331463,568.923317431687,0,0,0,0,0,0,6,4,3,NaN,NaN,NaN,horizontal,vertical,horizontal,none,none,none
1a,16,100164,2,43,107,20,F,NA,variable,heterogeneous,5,absent,NaN,0,horizontal,none,0,1.02351968765259,green,4,NaN,574.848363820974,480.284751489598,NaN,NaN,911.784642431215,829.192481806288,1052.5183575291,564.510859255183,844.280285305067,348.874022981887,574.848363820974,480.284751489598,616.568350913644,777.137884467044,0,0,3,0,3,4,0,NaN,vertical,vertical,horizontal,horizontal,vertical,none
1a,16,100164,2,44,108,20,F,NA,variable,heterogeneous,6,present,NaN,0,horizontal,none,0,0.870582022666931,green,6,3,632.704947607421,792.450942956807,967.295052392579,407.549057043193,883.019879386575,841.107236777826,1050.31493177915,648.656293821019,967.295052392579,407.549057043193,716.980120613425,358.892763222174,549.685068220846,551.343706178981,632.704947607421,792.450942956807,6,5,0,6,5,4,horizontal,horizontal,vertical,vertical,vertical,horizontal
1a,16,100164,2,45,109,20,F,NA,variable,heterogeneous,5,present,1.74614906311035,1,vertical,vertical,1,0.941168637275696,green,2,4,963.910840470068,795.341332995339,782.212099195248,345.621167183745,664.870587620533,816.252264519889,963.910840470068,795.341332995339,1036.43188291453,504.475318678942,782.212099195248,345.621167183745,552.574589799621,538.309916622085,0,0,5,4,3,5,6,NaN,vertical,vertical,horizontal,horizontal,vertical,none
1a,16,100164,2,46,110,20,F,NA,variable,heterogeneous,4,present,1.43276309967041,1,horizontal,horizontal,1,0.976461944580078,green,2,4,1053.09926866854,631.076682568313,546.900731331463,568.923317431687,768.923317431687,853.099268668537,1053.09926866854,631.076682568313,831.076682568313,346.900731331463,546.900731331463,568.923317431687,0,0,0,0,0,4,0,6,NaN,NaN,vertical,horizontal,horizontal,horizontal,none,none
1a,16,100164,2,47,111,20,F,NA,variable,heterogeneous,4,absent,0.983407020568848,1,vertical,vertical,1,1.09410630226135,green,4,NaN,604.658667004661,436.089159529932,NaN,NaN,636.089159529932,795.341332995339,995.341332995339,763.910840470068,963.910840470068,404.658667004661,604.658667004661,436.089159529932,0,0,0,0,6,3,6,4,NaN,NaN,horizontal,vertical,horizontal,vertical,none,none
1a,16,100164,2,48,112,20,F,NA,variable,heterogeneous,5,present,1.27985191345215,1,horizontal,horizontal,1,1.03528412342072,green,3,4,973.909581815937,413.504806087112,676.373546837184,376.971974679454,768.923317431687,853.099268668537,1031.10848569435,707.767656743878,973.909581815937,413.504806087112,676.373546837184,376.971974679454,549.685068220846,648.656293821019,0,0,0,5,4,0,6,NaN,vertical,vertical,horizontal,horizontal,vertical,none
1a,16,100164,2,49,113,20,F,NA,variable,heterogeneous,3,absent,0.680944919586182,1,vertical,vertical,1,0.964697508811951,green,2,NaN,935.129412379467,383.747735480111,NaN,NaN,919.715248510402,825.151636179026,935.129412379467,383.747735480111,545.155339110131,591.100628340862,0,0,0,0,0,0,3,4,6,NaN,NaN,NaN,vertical,vertical,horizontal,none,none,none
1a,16,100164,2,50,114,20,F,NA,variable,heterogeneous,6,present,1.30267596244812,1,horizontal,horizontal,1,0.988226380348206,red,4,2,746.982518841471,350.57236181288,1042.51941165526,678.799333565612,853.017481158529,849.42763818712,1042.51941165526,678.799333565612,989.501930496736,429.371695378491,746.982518841471,350.57236181288,557.480588344736,521.200666434388,610.498069503264,770.628304621509,5,3,6,4,0,5,horizontal,vertical,vertical,horizontal,vertical,horizontal
1a,16,100164,2,51,115,20,F,NA,variable,heterogeneous,6,absent,1.90621304512024,1,horizontal,horizontal,1,0.858817586898804,green,4,NaN,808.899371659138,345.155339110131,NaN,NaN,791.100628340862,854.844660889869,1016.25226451989,735.129412379467,1025.15163617903,480.284751489598,808.899371659138,345.155339110131,583.747735480111,464.870587620533,574.848363820974,719.715248510402,5,5,6,4,3,0,horizontal,vertical,horizontal,horizontal,horizontal,vertical
1a,16,100164,2,52,116,20,F,NA,variable,heterogeneous,6,present,0.798293113708496,1,vertical,vertical,1,1.09410630226135,green,3,6,1043.85771277057,525.445215295702,556.142287229426,674.554784704298,742.637481142314,848.464366520235,986.495193912888,773.909581815937,1043.85771277057,525.445215295702,857.362518857686,351.535633479765,613.504806087112,426.090418184063,556.142287229426,674.554784704298,3,5,4,0,6,3,horizontal,horizontal,vertical,horizontal,horizontal,vertical
1a,16,100164,2,53,117,20,F,NA,variable,heterogeneous,6,absent,0.764095067977905,1,horizontal,horizontal,1,0.882346458435059,green,4,NaN,716.980120613425,358.892763222174,NaN,NaN,883.019879386575,841.107236777826,1050.31493177915,648.656293821019,967.295052392579,407.549057043193,716.980120613425,358.892763222174,549.685068220846,551.343706178981,632.704947607421,792.450942956807,5,3,6,4,5,0,horizontal,horizontal,horizontal,horizontal,horizontal,horizontal
1a,16,100164,2,54,118,20,F,NA,variable,heterogeneous,4,absent,1.31043982505798,1,horizontal,horizontal,1,0.741173229217529,red,1,NaN,883.019879386575,841.107236777826,NaN,NaN,883.019879386575,841.107236777826,1041.10723677783,516.980120613425,716.980120613425,358.892763222174,558.892763222174,683.019879386575,0,0,0,0,4,3,5,0,NaN,NaN,horizontal,horizontal,vertical,vertical,none,none
1a,16,100164,2,55,119,20,F,NA,variable,heterogeneous,5,present,1.0351881980896,1,vertical,vertical,1,0.717644357681274,green,2,1,1038.06300875679,691.383827134052,786.654331158049,854.650531362416,786.654331158049,854.650531362416,1038.06300875679,691.383827134052,960.476699717708,401.827779828472,661.117046071168,386.139005173917,553.688914296288,665.998856501143,0,0,0,4,3,5,5,NaN,horizontal,vertical,horizontal,horizontal,horizontal,none
1a,16,100164,2,56,120,20,F,NA,variable,heterogeneous,4,present,1.16825890541077,0,vertical,horizontal,1,0.611764435768127,red,1,3,973.909581815937,786.495193912888,626.090418184063,413.504806087112,973.909581815937,786.495193912888,986.495193912888,426.090418184063,626.090418184063,413.504806087112,613.504806087112,773.909581815937,0,0,0,0,4,3,0,3,NaN,NaN,vertical,vertical,vertical,horizontal,none,none
1a,16,100164,2,57,121,20,F,NA,variable,heterogeneous,3,present,0.953572034835815,1,vertical,vertical,1,0.670586614608765,green,2,3,1041.10723677783,683.019879386575,751.343706178981,349.685068220846,607.549057043193,767.295052392579,1041.10723677783,683.019879386575,751.343706178981,349.685068220846,0,0,0,0,0,0,3,4,6,NaN,NaN,NaN,vertical,vertical,horizontal,none,none,none
1a,16,100164,2,58,122,20,F,NA,variable,heterogeneous,5,present,1.53508281707764,1,vertical,vertical,1,0.917639765739441,red,2,4,1054.96116226488,604.450363641507,596.34794493794,446.537169096228,874.554784704298,843.857712770574,1054.96116226488,604.450363641507,883.019879386575,358.892763222174,596.34794493794,446.537169096228,591.116228706307,746.261991269517,0,0,6,4,3,3,6,NaN,horizontal,vertical,vertical,horizontal,vertical,none
1a,16,100164,2,59,123,20,F,NA,variable,heterogeneous,3,absent,1.29039192199707,1,vertical,vertical,1,0.623528871536255,red,1,NaN,1020.83647796503,727.5,NaN,NaN,1020.83647796503,727.5,800,345,579.163522034968,727.5,0,0,0,0,0,0,4,0,3,NaN,NaN,NaN,vertical,vertical,vertical,none,none,none
1a,16,100164,2,60,124,20,F,NA,variable,heterogeneous,3,absent,0.759957075119019,1,vertical,vertical,1,0.788230972290039,red,1,NaN,1003.65205506206,753.462830903772,NaN,NaN,1003.65205506206,753.462830903772,831.076682568313,346.900731331463,565.271262369628,699.636437764765,0,0,0,0,0,0,4,0,5,NaN,NaN,NaN,vertical,vertical,horizontal,none,none,none
1a,16,100164,2,61,125,20,F,NA,variable,heterogeneous,4,absent,1.4523720741272,1,vertical,vertical,1,0.847053151130676,red,3,NaN,704.475318678942,363.568117085469,NaN,NaN,895.524681321058,836.431882914531,1036.43188291453,504.475318678942,704.475318678942,363.568117085469,563.568117085469,695.524681321058,0,0,0,0,6,6,4,0,NaN,NaN,horizontal,horizontal,vertical,vertical,none,none
1a,16,100164,2,62,126,20,F,NA,variable,heterogeneous,4,absent,1.49194693565369,1,vertical,vertical,1,0.917639765739441,green,4,NaN,552.574589799621,661.690083377915,NaN,NaN,861.690083377915,847.425410200379,1047.42541020038,538.309916622085,738.309916622085,352.574589799621,552.574589799621,661.690083377915,0,0,0,0,3,5,3,4,NaN,NaN,horizontal,vertical,vertical,vertical,none,none
1a,16,100164,2,63,127,20,F,NA,variable,heterogeneous,6,absent,1.27160596847534,1,vertical,vertical,1,0.69411548614502,green,5,NaN,545.349468637584,586.654331158049,NaN,NaN,915.767577433584,827.206663668034,1054.65053136242,613.345668841951,938.882953928832,386.139005173917,684.232422566416,372.793336331966,545.349468637584,586.654331158049,661.117046071168,813.860994826083,3,5,0,6,4,5,horizontal,horizontal,horizontal,horizontal,vertical,vertical
1a,16,100164,2,64,128,20,F,NA,variable,heterogeneous,3,present,0.928251981735229,1,vertical,vertical,1,0.741173229217529,green,1,2,899.636437764765,834.728737630372,953.462830903772,396.34794493794,899.636437764765,834.728737630372,953.462830903772,396.34794493794,546.900731331463,568.923317431687,0,0,0,0,0,0,4,3,6,NaN,NaN,NaN,vertical,horizontal,vertical,none,none,none
1a,16,100164,3,1,129,20,F,NA,variable,heterogeneous,4,absent,1.58843898773193,1,horizontal,horizontal,1,0.64705774307251,red,1,NaN,804.450363641507,854.96116226488,NaN,NaN,804.450363641507,854.96116226488,1054.96116226488,595.549636358493,795.549636358493,345.03883773512,545.03883773512,604.450363641507,0,0,0,0,4,5,0,5,NaN,NaN,horizontal,horizontal,horizontal,vertical,none,none
1a,16,100164,3,2,130,20,F,NA,variable,heterogeneous,3,present,1.77810287475586,0,horizontal,vertical,1,0.882346458435059,red,1,2,742.637481142314,848.464366520235,1043.85771277057,525.445215295702,742.637481142314,848.464366520235,1043.85771277057,525.445215295702,613.504806087112,426.090418184063,0,0,0,0,0,0,4,6,6,NaN,NaN,NaN,horizontal,vertical,horizontal,none,none,none
1a,16,100164,3,3,131,20,F,NA,variable,heterogeneous,4,present,1.17083692550659,1,horizontal,horizontal,1,0.835288715362549,green,2,1,1027.20666366803,715.767577433584,684.232422566416,827.206663668034,684.232422566416,827.206663668034,1027.20666366803,715.767577433584,915.767577433584,372.793336331966,572.793336331966,484.232422566416,0,0,0,0,3,4,6,6,NaN,NaN,horizontal,horizontal,horizontal,horizontal,none,none
1a,16,100164,3,4,132,20,F,NA,variable,heterogeneous,5,absent,0.781739950180054,0,horizontal,vertical,1,0.988226380348206,red,4,NaN,579.163522034968,472.5,NaN,NaN,903.717843984329,832.954091698863,1053.60308331891,573.345241866748,853.017481158529,350.57236181288,579.163522034968,472.5,610.498069503264,770.628304621509,0,0,3,0,5,4,6,NaN,horizontal,horizontal,vertical,horizontal,horizontal,none
1a,16,100164,3,5,133,20,F,NA,variable,heterogeneous,3,absent,0.991461038589478,1,vertical,vertical,1,1.08234186649323,red,2,NaN,1053.09926866854,568.923317431687,NaN,NaN,700.363562235235,834.728737630372,1053.09926866854,568.923317431687,646.537169096228,396.34794493794,0,0,0,0,0,0,0,4,5,NaN,NaN,NaN,horizontal,vertical,horizontal,none,none,none
1a,16,100164,3,6,134,20,F,NA,variable,heterogeneous,6,absent,0.832465887069702,0,vertical,horizontal,1,1.04704855918884,red,1,NaN,738.309916622085,847.425410200379,NaN,NaN,738.309916622085,847.425410200379,983.431649086356,777.137884467044,1045.12173246427,529.712474266665,861.690083377915,352.574589799621,616.568350913644,422.862115532956,554.878267535729,670.287525733335,4,5,3,6,0,6,vertical,horizontal,vertical,horizontal,vertical,horizontal
1a,16,100164,3,7,135,20,F,NA,variable,heterogeneous,6,present,1.17140316963196,1,horizontal,horizontal,1,0.905875329971313,red,5,2,547.481642470899,564.510859255183,1052.5183575291,635.489140744817,895.524681321058,836.431882914531,1052.5183575291,635.489140744817,956.993676208043,399.057257830286,704.475318678942,363.568117085469,547.481642470899,564.510859255183,643.006323791957,800.942742169714,0,6,6,3,4,0,horizontal,horizontal,vertical,vertical,horizontal,vertical
1a,16,100164,3,8,136,20,F,NA,variable,heterogeneous,4,absent,0.987982034683228,1,vertical,vertical,1,0.847053151130676,green,3,NaN,938.882953928832,386.139005173917,NaN,NaN,661.117046071168,813.860994826083,1013.86099482608,738.882953928832,938.882953928832,386.139005173917,586.139005173917,461.117046071168,0,0,0,0,0,5,4,6,NaN,NaN,vertical,horizontal,vertical,vertical,none,none
1a,16,100164,3,9,137,20,F,NA,variable,heterogeneous,5,absent,0.539743900299072,1,vertical,vertical,1,0.999990816116333,red,3,NaN,870.287525733335,354.878267535729,NaN,NaN,887.215136548046,839.621618300407,1054.84466088987,591.100628340862,870.287525733335,354.878267535729,588.595418998464,457.40580961496,599.057257830286,756.993676208043,0,0,0,6,4,0,3,NaN,horizontal,horizontal,vertical,vertical,vertical,none
1a,16,100164,3,10,138,20,F,NA,variable,heterogeneous,6,absent,NaN,0,horizontal,none,0,0.823524279594421,green,3,NaN,1020.83647796503,472.5,NaN,NaN,800,855,1020.83647796503,727.5,1020.83647796503,472.5,800,345,579.163522034968,472.5,579.163522034968,727.5,0,3,4,3,0,6,horizontal,vertical,horizontal,vertical,horizontal,horizontal
1a,16,100164,3,11,139,20,F,NA,variable,heterogeneous,3,present,1.3484480381012,1,horizontal,horizontal,1,0.64705774307251,red,3,2,626.090418184063,413.504806087112,1048.46436652023,542.637481142314,725.445215295702,843.857712770574,1048.46436652023,542.637481142314,626.090418184063,413.504806087112,0,0,0,0,0,0,5,6,4,NaN,NaN,NaN,vertical,vertical,horizontal,none,none,none
1a,16,100164,3,12,140,20,F,NA,variable,heterogeneous,3,absent,1.32112812995911,0,horizontal,vertical,1,0.882346458435059,red,2,NaN,853.017481158529,350.57236181288,NaN,NaN,989.501930496736,770.628304621509,853.017481158529,350.57236181288,557.480588344736,678.799333565612,0,0,0,0,0,0,3,4,5,NaN,NaN,NaN,horizontal,horizontal,vertical,none,none,none
1a,16,100164,3,13,141,20,F,NA,variable,heterogeneous,6,absent,0.669440984725952,1,vertical,vertical,1,0.682351050376892,green,4,NaN,791.100628340862,345.155339110131,NaN,NaN,808.899371659138,854.844660889869,1025.15163617903,719.715248510402,1016.25226451989,464.870587620533,791.100628340862,345.155339110131,574.848363820974,480.284751489598,583.747735480111,735.129412379467,6,0,3,4,3,5,horizontal,horizontal,horizontal,vertical,horizontal,horizontal
1a,16,100164,3,14,142,20,F,NA,variable,heterogeneous,6,present,NaN,0,vertical,none,0,1.05881299495697,green,1,3,844.280285305067,851.125977018113,995.341332995339,436.089159529932,844.280285305067,851.125977018113,1039.62161830041,687.215136548046,995.341332995339,436.089159529932,755.719714694933,348.874022981887,560.378381699593,512.784863451954,604.658667004661,763.910840470068,4,0,5,6,6,0,vertical,horizontal,horizontal,vertical,vertical,vertical
1a,16,100164,3,15,143,20,F,NA,variable,heterogeneous,3,present,0.869168043136597,1,vertical,vertical,1,1.03528412342072,green,2,1,1029.19248180629,711.784642431215,588.595418998464,742.594190385041,588.595418998464,742.594190385041,1029.19248180629,711.784642431215,782.212099195248,345.621167183745,0,0,0,0,0,0,5,4,3,NaN,NaN,NaN,vertical,vertical,vertical,none,none,none
1a,16,100164,3,16,144,20,F,NA,variable,heterogeneous,5,present,0.925706148147583,1,horizontal,horizontal,1,0.752937664985657,green,2,4,956.993676208043,800.942742169714,791.100628340862,345.155339110131,657.405809614959,811.404581001536,956.993676208043,800.942742169714,1039.62161830041,512.784863451954,791.100628340862,345.155339110131,554.878267535729,529.712474266665,0,0,3,4,6,0,6,NaN,horizontal,horizontal,horizontal,horizontal,horizontal,none
1a,16,100164,3,17,145,20,F,NA,variable,heterogeneous,6,absent,1.00949501991272,1,vertical,vertical,1,0.858817586898804,green,2,NaN,973.909581815937,786.495193912888,NaN,NaN,725.445215295702,843.857712770574,973.909581815937,786.495193912888,1048.46436652023,542.637481142314,874.554784704298,356.142287229426,626.090418184063,413.504806087112,551.535633479765,657.362518857686,0,4,3,5,6,6,horizontal,vertical,vertical,horizontal,horizontal,vertical
1a,16,100164,3,18,146,20,F,NA,variable,heterogeneous,5,absent,1.4737241268158,1,horizontal,horizontal,1,0.988226380348206,green,5,NaN,560.378381699593,687.215136548046,NaN,NaN,808.899371659138,854.844660889869,1045.12173246427,670.287525733335,942.594190385041,388.595418998464,643.006323791957,399.057257830286,560.378381699593,687.215136548046,0,0,6,5,3,0,4,NaN,horizontal,horizontal,horizontal,horizontal,horizontal,none
1a,16,100164,3,19,147,20,F,NA,variable,heterogeneous,4,present,1.61221313476562,1,horizontal,horizontal,1,0.635293307304382,red,1,2,887.215136548046,839.621618300407,1039.62161830041,512.784863451954,887.215136548046,839.621618300407,1039.62161830041,512.784863451954,712.784863451954,360.378381699593,560.378381699593,687.215136548046,0,0,0,0,4,0,5,6,NaN,NaN,horizontal,horizontal,vertical,horizontal,none,none
1a,16,100164,3,20,148,20,F,NA,variable,heterogeneous,4,present,0.7376708984375,1,horizontal,horizontal,1,0.658822178840637,red,1,3,817.787900804752,854.378832816255,782.212099195248,345.621167183745,817.787900804752,854.378832816255,1054.37883281626,582.212099195248,782.212099195248,345.621167183745,545.621167183745,617.787900804752,0,0,0,0,4,6,0,6,NaN,NaN,horizontal,horizontal,vertical,horizontal,none,none
1a,16,100164,3,21,149,20,F,NA,variable,heterogeneous,3,absent,0.655344009399414,1,vertical,vertical,1,0.941168637275696,red,2,NaN,1023.02802532055,723.626453162816,NaN,NaN,581.422338320961,731.334709102064,1023.02802532055,723.626453162816,795.549636358493,345.03883773512,0,0,0,0,0,0,3,4,0,NaN,NaN,NaN,vertical,vertical,vertical,none,none,none
1a,16,100164,3,22,150,20,F,NA,variable,heterogeneous,5,present,0.748737096786499,1,vertical,vertical,1,1.02351968765259,green,1,5,844.280285305067,851.125977018113,574.848363820974,719.715248510402,844.280285305067,851.125977018113,1052.5183575291,635.489140744817,911.784642431215,370.807518193712,616.568350913644,422.862115532956,574.848363820974,719.715248510402,0,0,4,0,5,3,6,NaN,vertical,horizontal,horizontal,horizontal,vertical,none
1a,16,100164,3,23,151,20,F,NA,variable,heterogeneous,6,present,1.15773510932922,1,horizontal,horizontal,1,0.870582022666931,green,6,4,545.349468637584,613.345668841951,915.767577433584,372.793336331966,684.232422566416,827.206663668034,938.882953928832,813.860994826083,1054.65053136242,586.654331158049,915.767577433584,372.793336331966,661.117046071168,386.139005173917,545.349468637584,613.345668841951,0,6,3,6,3,4,vertical,vertical,vertical,vertical,horizontal,horizontal
1a,16,100164,3,24,152,20,F,NA,variable,heterogeneous,3,absent,NaN,0,horizontal,none,0,1.05881299495697,green,3,NaN,545,600,NaN,NaN,927.5,820.836477965032,927.5,379.163522034968,545,600,0,0,0,0,0,0,5,3,4,NaN,NaN,NaN,horizontal,vertical,horizontal,none,none,none
1a,16,100164,3,25,153,20,F,NA,variable,heterogeneous,4,present,NaN,0,horizontal,none,0,0.635293307304382,green,4,2,545.349468637584,613.345668841951,1054.65053136242,586.654331158049,813.345668841951,854.650531362416,1054.65053136242,586.654331158049,786.654331158049,345.349468637584,545.349468637584,613.345668841951,0,0,0,0,5,6,3,4,NaN,NaN,horizontal,vertical,vertical,horizontal,none,none
1a,16,100164,3,26,154,20,F,NA,variable,heterogeneous,4,absent,NaN,0,horizontal,none,0,0.776466536521912,red,4,NaN,583.747735480111,464.870587620533,NaN,NaN,664.870587620533,816.252264519889,1016.25226451989,735.129412379467,935.129412379467,383.747735480111,583.747735480111,464.870587620533,0,0,0,0,5,3,3,4,NaN,NaN,horizontal,vertical,horizontal,horizontal,none,none
1a,16,100164,3,27,155,20,F,NA,variable,heterogeneous,6,present,1.01516580581665,1,horizontal,horizontal,1,0.999990816116333,red,6,4,604.658667004661,763.910840470068,755.719714694933,348.874022981887,844.280285305067,851.125977018113,1039.62161830041,687.215136548046,995.341332995339,436.089159529932,755.719714694933,348.874022981887,560.378381699593,512.784863451954,604.658667004661,763.910840470068,6,3,0,3,6,4,horizontal,horizontal,horizontal,vertical,vertical,horizontal
1a,16,100164,3,28,156,20,F,NA,variable,heterogeneous,3,present,1.33157396316528,1,horizontal,horizontal,1,0.788230972290039,green,3,1,553.688914296288,534.001143498857,865.998856501143,846.311085703712,865.998856501143,846.311085703712,980.31222920257,419.68777079743,553.688914296288,534.001143498857,0,0,0,0,0,0,5,0,4,NaN,NaN,NaN,horizontal,vertical,horizontal,none,none,none
1a,16,100164,3,29,157,20,F,NA,variable,heterogeneous,5,absent,1.31808304786682,1,vertical,vertical,1,0.976461944580078,green,3,NaN,1036.43188291453,504.475318678942,NaN,NaN,664.870587620533,816.252264519889,963.910840470068,795.341332995339,1036.43188291453,504.475318678942,782.212099195248,345.621167183745,552.574589799621,538.309916622085,0,0,5,3,4,6,0,NaN,vertical,vertical,vertical,vertical,horizontal,none
1a,16,100164,3,30,158,20,F,NA,variable,heterogeneous,4,absent,NaN,0,horizontal,none,0,0.682351050376892,green,2,NaN,983.431649086356,777.137884467044,NaN,NaN,622.862115532956,783.431649086356,983.431649086356,777.137884467044,977.137884467044,416.568350913644,616.568350913644,422.862115532956,0,0,0,0,3,4,0,5,NaN,NaN,horizontal,horizontal,horizontal,horizontal,none,none
1a,16,100164,3,31,159,20,F,NA,variable,heterogeneous,3,absent,1.43484497070312,1,vertical,vertical,1,0.611764435768127,green,1,NaN,657.405809614959,811.404581001536,NaN,NaN,657.405809614959,811.404581001536,1054.37883281626,617.787900804752,688.215357568785,370.807518193712,0,0,0,0,0,0,4,0,6,NaN,NaN,NaN,vertical,horizontal,vertical,none,none,none
1a,16,100164,3,32,160,20,F,NA,variable,heterogeneous,5,absent,1.55400991439819,1,horizontal,horizontal,1,0.705879921913147,green,4,NaN,712.784863451954,360.378381699593,NaN,NaN,729.712474266665,845.121732464271,1011.40458100154,742.594190385041,1000.94274216971,443.006323791957,712.784863451954,360.378381699593,545.155339110131,608.899371659138,0,0,5,3,3,4,0,NaN,vertical,vertical,horizontal,horizontal,vertical,none
1a,16,100164,3,33,161,20,F,NA,variable,heterogeneous,6,present,1.25146889686584,0,vertical,horizontal,1,0.705879921913147,red,6,3,599.057257830286,756.993676208043,1000.94274216971,443.006323791957,835.489140744817,852.518357529101,1036.43188291453,695.524681321058,1000.94274216971,443.006323791957,764.510859255183,347.4816424709,563.568117085469,504.475318678942,599.057257830286,756.993676208043,6,6,5,3,5,4,horizontal,horizontal,vertical,vertical,horizontal,vertical
1a,16,100164,3,34,162,20,F,NA,variable,heterogeneous,6,present,1.44159984588623,0,vertical,horizontal,1,0.64705774307251,green,3,4,1054.37883281626,582.212099195248,911.784642431215,370.807518193712,688.215357568785,829.192481806288,942.594190385041,811.404581001536,1054.37883281626,582.212099195248,911.784642431215,370.807518193712,657.405809614959,388.595418998464,545.621167183745,617.787900804752,3,6,4,0,5,5,horizontal,vertical,vertical,horizontal,horizontal,vertical
1a,16,100164,3,35,163,20,F,NA,variable,heterogeneous,3,absent,1.21391701698303,1,vertical,vertical,1,0.764702100753784,green,2,NaN,878.799333565612,357.480588344736,NaN,NaN,970.628304621509,789.501930496736,878.799333565612,357.480588344736,550.57236181288,653.017481158529,0,0,0,0,0,0,6,4,6,NaN,NaN,NaN,horizontal,vertical,horizontal,none,none,none
1a,16,100164,3,36,164,20,F,NA,variable,heterogeneous,5,present,1.54006600379944,1,horizontal,horizontal,1,0.882346458435059,green,2,3,1053.09926866854,631.076682568313,907.767656743878,368.891514305654,848.656293821019,850.314931779154,1053.09926866854,631.076682568313,907.767656743878,368.891514305654,613.504806087112,426.090418184063,576.971974679454,723.626453162816,0,0,5,4,3,0,6,NaN,horizontal,horizontal,horizontal,vertical,horizontal,none
1a,16,100164,3,37,165,20,F,NA,variable,heterogeneous,3,absent,1.4198169708252,0,horizontal,vertical,1,1.04704855918884,red,3,NaN,554.878267535729,529.712474266665,NaN,NaN,861.690083377915,847.425410200379,983.431649086356,422.862115532956,554.878267535729,529.712474266665,0,0,0,0,0,0,6,0,4,NaN,NaN,NaN,vertical,vertical,horizontal,none,none,none
1a,16,100164,3,38,166,20,F,NA,variable,heterogeneous,4,absent,0.995044946670532,0,horizontal,vertical,1,0.729408793449402,green,1,NaN,751.343706178981,850.314931779154,NaN,NaN,751.343706178981,850.314931779154,1050.31493177915,648.656293821019,848.656293821019,349.685068220846,549.685068220846,551.343706178981,0,0,0,0,4,6,0,5,NaN,NaN,horizontal,horizontal,horizontal,horizontal,none,none
1a,16,100164,3,39,167,20,F,NA,variable,heterogeneous,6,absent,1.53661394119263,1,horizontal,horizontal,1,1.08234186649323,green,4,NaN,804.450363641507,345.03883773512,NaN,NaN,795.549636358493,854.96116226488,1018.57766167904,731.334709102064,1023.02802532055,476.373546837184,804.450363641507,345.03883773512,581.422338320961,468.665290897936,576.971974679454,723.626453162816,0,3,0,4,5,3,horizontal,horizontal,vertical,horizontal,horizontal,vertical
1a,16,100164,3,40,168,20,F,NA,variable,heterogeneous,4,absent,1.11741590499878,1,vertical,vertical,1,0.894110894203186,red,3,NaN,661.117046071168,386.139005173917,NaN,NaN,938.882953928832,813.860994826083,1013.86099482608,461.117046071168,661.117046071168,386.139005173917,586.139005173917,738.882953928832,0,0,0,0,3,6,4,0,NaN,NaN,horizontal,horizontal,vertical,vertical,none,none
1a,16,100164,3,41,169,20,F,NA,variable,heterogeneous,4,present,0.878035068511963,1,vertical,vertical,1,0.69411548614502,red,4,1,607.549057043193,432.704947607421,632.704947607421,792.450942956807,632.704947607421,792.450942956807,992.450942956807,767.295052392579,967.295052392579,407.549057043193,607.549057043193,432.704947607421,0,0,0,0,3,0,6,4,NaN,NaN,horizontal,horizontal,horizontal,vertical,none,none
1a,16,100164,3,42,170,20,F,NA,variable,heterogeneous,3,absent,NaN,0,horizontal,none,0,0.941168637275696,green,3,NaN,704.475318678942,363.568117085469,NaN,NaN,643.006323791957,800.942742169714,1052.5183575291,635.489140744817,704.475318678942,363.568117085469,0,0,0,0,0,0,6,3,4,NaN,NaN,NaN,horizontal,horizontal,horizontal,none,none,none
1a,16,100164,3,43,171,20,F,NA,variable,heterogeneous,6,absent,NaN,0,horizontal,none,0,0.635293307304382,red,1,NaN,870.287525733335,845.121732464271,NaN,NaN,870.287525733335,845.121732464271,1047.42541020038,661.690083377915,977.137884467044,416.568350913644,729.712474266665,354.878267535729,552.574589799621,538.309916622085,622.862115532956,783.431649086356,4,0,3,3,6,6,horizontal,horizontal,horizontal,horizontal,vertical,horizontal
1a,16,100164,3,44,172,20,F,NA,variable,heterogeneous,6,present,1.05236315727234,1,vertical,vertical,1,0.623528871536255,red,1,5,700.363562235235,834.728737630372,646.537169096228,396.34794493794,700.363562235235,834.728737630372,953.462830903772,803.65205506206,1053.09926866854,568.923317431687,899.636437764765,365.271262369628,646.537169096228,396.34794493794,546.900731331463,631.076682568313,4,5,0,3,3,6,vertical,vertical,vertical,vertical,vertical,vertical
1a,16,100164,3,45,173,20,F,NA,variable,heterogeneous,5,present,1.92346811294556,1,horizontal,horizontal,1,0.69411548614502,red,1,3,786.654331158049,854.650531362416,960.476699717708,401.827779828472,786.654331158049,854.650531362416,1038.06300875679,691.383827134052,960.476699717708,401.827779828472,661.117046071168,386.139005173917,553.688914296288,665.998856501143,0,0,4,6,3,6,0,NaN,horizontal,horizontal,vertical,vertical,horizontal,none
1a,16,100164,3,46,174,20,F,NA,variable,heterogeneous,5,present,1.7875440120697,1,vertical,vertical,1,0.670586614608765,red,4,2,734.001143498857,353.688914296288,998.172220171528,760.476699717708,708.616172865948,838.063008756786,998.172220171528,760.476699717708,1013.86099482608,461.117046071168,734.001143498857,353.688914296288,545.349468637584,586.654331158049,0,0,6,5,5,4,3,NaN,horizontal,vertical,vertical,vertical,horizontal,none
1a,16,100164,3,47,175,20,F,NA,variable,heterogeneous,6,absent,NaN,0,horizontal,none,0,1.02351968765259,red,3,NaN,970.628304621509,410.498069503264,NaN,NaN,878.799333565612,842.519411655264,1049.42763818712,653.017481158529,970.628304621509,410.498069503264,721.200666434388,357.480588344736,550.57236181288,546.982518841471,629.371695378491,789.501930496736,3,3,4,0,0,6,horizontal,vertical,horizontal,vertical,vertical,horizontal
1a,16,100164,3,48,176,20,F,NA,variable,heterogeneous,5,absent,1.59754705429077,1,vertical,vertical,1,0.858817586898804,red,5,NaN,619.68777079743,780.31222920257,NaN,NaN,915.767577433584,827.206663668034,1051.86052685176,560.109211414741,839.890788585259,348.13947314824,572.793336331966,484.232422566416,619.68777079743,780.31222920257,0,0,5,6,0,5,4,NaN,horizontal,horizontal,horizontal,horizontal,vertical,none
1a,16,100164,3,49,177,20,F,NA,variable,heterogeneous,4,present,1.10647106170654,1,vertical,vertical,1,1.03528412342072,green,4,2,554.878267535729,670.287525733335,1045.12173246427,529.712474266665,870.287525733335,845.121732464271,1045.12173246427,529.712474266665,729.712474266665,354.878267535729,554.878267535729,670.287525733335,0,0,0,0,6,5,3,4,NaN,NaN,vertical,vertical,horizontal,vertical,none,none
1a,16,100164,3,50,178,20,F,NA,variable,heterogeneous,3,present,1.3129460811615,0,vertical,horizontal,1,1.01175525188446,green,3,2,657.405809614959,388.595418998464,1054.37883281626,582.212099195248,688.215357568785,829.192481806288,1054.37883281626,582.212099195248,657.405809614959,388.595418998464,0,0,0,0,0,0,3,0,4,NaN,NaN,NaN,vertical,vertical,vertical,none,none,none
1a,16,100164,3,51,179,20,F,NA,variable,heterogeneous,3,present,0.860754013061523,1,horizontal,horizontal,1,0.670586614608765,green,1,3,883.019879386575,841.107236777826,549.685068220846,551.343706178981,883.019879386575,841.107236777826,967.295052392579,407.549057043193,549.685068220846,551.343706178981,0,0,0,0,0,0,4,0,6,NaN,NaN,NaN,horizontal,vertical,horizontal,none,none,none
1a,16,100164,3,52,180,20,F,NA,variable,heterogeneous,4,absent,1.14408206939697,1,vertical,vertical,1,0.894110894203186,green,2,NaN,1053.60308331891,573.345241866748,NaN,NaN,826.654758133252,853.60308331891,1053.60308331891,573.345241866748,773.345241866748,346.39691668109,546.39691668109,626.654758133252,0,0,0,0,3,4,6,3,NaN,NaN,horizontal,vertical,vertical,horizontal,none,none
1a,16,100164,3,53,181,20,F,NA,variable,heterogeneous,5,present,1.54688501358032,0,horizontal,vertical,1,0.988226380348206,red,2,5,1045.12173246427,529.712474266665,643.006323791957,800.942742169714,942.594190385041,811.404581001536,1045.12173246427,529.712474266665,808.899371659138,345.155339110131,560.378381699593,512.784863451954,643.006323791957,800.942742169714,0,0,6,4,5,5,6,NaN,vertical,horizontal,horizontal,vertical,vertical,none
1a,16,100164,3,54,182,20,F,NA,variable,heterogeneous,5,present,0.752155065536499,1,vertical,vertical,1,0.905875329971313,red,3,1,835.489140744817,347.4816424709,919.715248510402,825.151636179026,919.715248510402,825.151636179026,1051.12597701811,555.719714694933,835.489140744817,347.4816424709,570.807518193712,488.215357568785,622.862115532956,783.431649086356,0,0,0,6,4,3,6,NaN,horizontal,horizontal,vertical,horizontal,vertical,none
1a,16,100164,3,55,183,20,F,NA,variable,heterogeneous,4,present,0.776830911636353,1,vertical,vertical,1,0.858817586898804,green,3,4,684.232422566416,372.793336331966,572.793336331966,715.767577433584,915.767577433584,827.206663668034,1027.20666366803,484.232422566416,684.232422566416,372.793336331966,572.793336331966,715.767577433584,0,0,0,0,0,0,4,5,NaN,NaN,horizontal,horizontal,vertical,horizontal,none,none
1a,16,100164,3,56,184,20,F,NA,variable,heterogeneous,6,absent,0.820991039276123,1,vertical,vertical,1,1.02351968765259,red,2,NaN,946.261991269517,808.883771293693,NaN,NaN,692.232343256122,831.108485694346,946.261991269517,808.883771293693,1054.0296480134,577.775285599347,907.767656743878,368.891514305654,653.738008730483,391.116228706307,545.970351986605,622.224714400653,0,4,5,3,6,3,vertical,vertical,vertical,horizontal,vertical,horizontal
1a,16,100164,3,57,185,20,F,NA,variable,heterogeneous,5,absent,1.09490180015564,1,horizontal,horizontal,1,0.870582022666931,red,2,NaN,956.993676208043,800.942742169714,NaN,NaN,657.405809614959,811.404581001536,956.993676208043,800.942742169714,1039.62161830041,512.784863451954,791.100628340862,345.155339110131,554.878267535729,529.712474266665,0,0,6,4,5,3,0,NaN,vertical,horizontal,horizontal,vertical,horizontal,none
1a,16,100164,3,58,186,20,F,NA,variable,heterogeneous,5,present,1.52920985221863,1,vertical,vertical,1,0.811759843826294,green,5,4,545.349468637584,586.654331158049,734.001143498857,353.688914296288,708.616172865948,838.063008756786,998.172220171528,760.476699717708,1013.86099482608,461.117046071168,734.001143498857,353.688914296288,545.349468637584,586.654331158049,0,0,3,0,5,6,4,NaN,vertical,vertical,vertical,horizontal,vertical,none
1a,16,100164,3,59,187,20,F,NA,variable,heterogeneous,3,present,0.71033787727356,1,vertical,vertical,1,0.894110894203186,red,1,2,977.137884467044,783.431649086356,870.287525733335,354.878267535729,977.137884467044,783.431649086356,870.287525733335,354.878267535729,552.574589799621,661.690083377915,0,0,0,0,0,0,4,0,5,NaN,NaN,NaN,vertical,vertical,vertical,none,none,none
1a,16,100164,3,60,188,20,F,NA,variable,heterogeneous,6,present,1.03390908241272,1,horizontal,horizontal,1,0.670586614608765,green,6,4,554.878267535729,670.287525733335,861.690083377915,352.574589799621,738.309916622085,847.425410200379,983.431649086356,777.137884467044,1045.12173246427,529.712474266665,861.690083377915,352.574589799621,616.568350913644,422.862115532956,554.878267535729,670.287525733335,3,5,5,0,6,4,horizontal,horizontal,horizontal,vertical,vertical,horizontal
1a,16,100164,3,61,189,20,F,NA,variable,heterogeneous,4,absent,1.9812490940094,1,vertical,vertical,1,0.929404201507568,red,3,NaN,960.476699717708,401.827779828472,NaN,NaN,639.523300282292,798.172220171528,998.172220171528,760.476699717708,960.476699717708,401.827779828472,601.827779828472,439.523300282291,0,0,0,0,5,5,4,3,NaN,NaN,horizontal,vertical,vertical,horizontal,none,none
1a,16,100164,3,62,190,20,F,NA,variable,heterogeneous,4,present,0.977998971939087,1,vertical,vertical,1,0.64705774307251,red,1,3,725.445215295702,843.857712770574,874.554784704298,356.142287229426,725.445215295702,843.857712770574,1043.85771277057,674.554784704298,874.554784704298,356.142287229426,556.142287229426,525.445215295702,0,0,0,0,4,6,3,0,NaN,NaN,vertical,horizontal,vertical,vertical,none,none
1a,16,100164,3,63,191,20,F,NA,variable,heterogeneous,3,present,NaN,0,vertical,none,0,0.811759843826294,red,2,1,1048.46436652023,542.637481142314,725.445215295702,843.857712770574,725.445215295702,843.857712770574,1048.46436652023,542.637481142314,626.090418184063,413.504806087112,0,0,0,0,0,0,3,4,5,NaN,NaN,NaN,vertical,vertical,vertical,none,none,none
1a,16,100164,3,64,192,20,F,NA,variable,heterogeneous,5,absent,1.55402398109436,0,vertical,horizontal,1,0.988226380348206,green,3,NaN,970.628304621509,410.498069503264,NaN,NaN,773.345241866748,853.60308331891,1032.95409169886,703.717843984329,970.628304621509,410.498069503264,672.5,379.163522034968,550.57236181288,653.017481158529,0,0,5,3,4,3,6,NaN,vertical,vertical,vertical,horizontal,vertical,none
1a,16,100164,4,1,193,20,F,NA,variable,heterogeneous,3,absent,0.912662029266357,1,vertical,vertical,1,0.964697508811951,red,3,NaN,734.001143498857,353.688914296288,NaN,NaN,619.68777079743,780.31222920257,1046.31108570371,665.998856501143,734.001143498857,353.688914296288,0,0,0,0,0,0,0,3,4,NaN,NaN,NaN,horizontal,vertical,vertical,none,none,none
1a,16,100164,4,2,194,20,F,NA,variable,heterogeneous,6,absent,1.51221990585327,1,horizontal,horizontal,1,0.658822178840637,green,5,NaN,548.13947314824,560.109211414741,NaN,NaN,891.383827134052,838.063008756786,1051.86052685176,639.890788585259,960.476699717708,401.827779828472,708.616172865948,361.936991243214,548.13947314824,560.109211414741,639.523300282292,798.172220171528,0,5,6,6,4,5,vertical,vertical,horizontal,vertical,horizontal,horizontal
1a,16,100164,4,3,195,20,F,NA,variable,heterogeneous,5,present,0.669925928115845,1,vertical,vertical,1,0.764702100753784,red,4,2,599.057257830286,443.006323791957,1054.84466088987,608.899371659138,870.287525733335,845.121732464271,1054.84466088987,608.899371659138,887.215136548046,360.378381699593,599.057257830286,443.006323791957,588.595418998464,742.594190385041,0,0,6,0,0,4,3,NaN,vertical,vertical,vertical,vertical,horizontal,none
1a,16,100164,4,4,196,20,F,NA,variable,heterogeneous,5,absent,0.937273025512695,1,vertical,vertical,1,1.09410630226135,green,3,NaN,899.636437764765,365.271262369628,NaN,NaN,857.362518857686,848.464366520235,1054.0296480134,622.224714400653,899.636437764765,365.271262369628,607.549057043193,432.704947607421,581.422338320961,731.334709102064,0,0,5,3,4,5,0,NaN,vertical,vertical,vertical,horizontal,vertical,none
1a,16,100164,4,5,197,20,F,NA,variable,heterogeneous,6,absent,0.616732120513916,1,vertical,vertical,1,0.835288715362549,green,4,NaN,870.287525733335,354.878267535729,NaN,NaN,729.712474266665,845.121732464271,977.137884467044,783.431649086356,1047.42541020038,538.309916622085,870.287525733335,354.878267535729,622.862115532956,416.568350913644,552.574589799621,661.690083377915,0,3,6,4,5,0,horizontal,horizontal,horizontal,vertical,vertical,horizontal
1a,16,100164,4,6,198,20,F,NA,variable,heterogeneous,3,present,0.674296855926514,1,horizontal,horizontal,1,1.04704855918884,green,3,2,712.784863451954,360.378381699593,1051.12597701811,644.280285305067,636.089159529932,795.341332995339,1051.12597701811,644.280285305067,712.784863451954,360.378381699593,0,0,0,0,0,0,0,3,4,NaN,NaN,NaN,horizontal,vertical,horizontal,none,none,none
1a,16,100164,4,7,199,20,F,NA,variable,heterogeneous,4,absent,0.746807098388672,1,vertical,vertical,1,0.941168637275696,red,1,NaN,848.656293821019,850.314931779154,NaN,NaN,848.656293821019,850.314931779154,1050.31493177915,551.343706178981,751.343706178981,349.685068220846,549.685068220846,648.656293821019,0,0,0,0,4,6,0,3,NaN,NaN,vertical,horizontal,horizontal,horizontal,none,none
1a,16,100164,4,8,200,20,F,NA,variable,heterogeneous,4,absent,0.770841121673584,1,vertical,vertical,1,0.64705774307251,green,4,NaN,548.874022981887,644.280285305067,NaN,NaN,844.280285305067,851.125977018113,1051.12597701811,555.719714694933,755.719714694933,348.874022981887,548.874022981887,644.280285305067,0,0,0,0,0,5,6,4,NaN,NaN,horizontal,horizontal,horizontal,vertical,none,none
1a,16,100164,4,9,201,20,F,NA,variable,heterogeneous,4,absent,1.39198899269104,1,horizontal,horizontal,1,1.08234186649323,green,2,NaN,1031.10848569435,707.767656743878,NaN,NaN,692.232343256122,831.108485694346,1031.10848569435,707.767656743878,907.767656743878,368.891514305654,568.891514305654,492.232343256122,0,0,0,0,0,4,0,3,NaN,NaN,vertical,horizontal,vertical,vertical,none,none
1a,16,100164,4,10,202,20,F,NA,variable,heterogeneous,3,present,0.849097967147827,1,horizontal,horizontal,1,0.64705774307251,green,2,1,1039.62161830041,687.215136548046,604.658667004661,763.910840470068,604.658667004661,763.910840470068,1039.62161830041,687.215136548046,755.719714694933,348.874022981887,0,0,0,0,0,0,3,4,0,NaN,NaN,NaN,vertical,horizontal,horizontal,none,none,none
1a,16,100164,4,11,203,20,F,NA,variable,heterogeneous,3,absent,NaN,0,horizontal,none,0,0.658822178840637,red,2,NaN,861.690083377915,352.574589799621,NaN,NaN,983.431649086356,777.137884467044,861.690083377915,352.574589799621,554.878267535729,670.287525733335,0,0,0,0,0,0,0,4,5,NaN,NaN,NaN,horizontal,horizontal,vertical,none,none,none
1a,16,100164,4,12,204,20,F,NA,variable,heterogeneous,5,present,0.00114607810974121,1,horizontal,horizontal,1,0.670586614608765,green,5,1,646.537169096228,803.65205506206,946.261991269517,808.883771293693,946.261991269517,808.883771293693,1043.85771277057,525.445215295702,804.450363641507,345.03883773512,558.892763222174,516.980120613425,646.537169096228,803.65205506206,0,0,0,0,5,3,4,NaN,vertical,vertical,horizontal,vertical,horizontal,none
1a,16,100164,4,13,205,20,F,NA,variable,heterogeneous,3,present,0.557320117950439,1,vertical,vertical,1,0.799995408058166,green,1,3,601.827779828472,760.476699717708,760.109211414741,348.13947314824,601.827779828472,760.476699717708,1038.06300875679,691.383827134052,760.109211414741,348.13947314824,0,0,0,0,0,0,4,5,3,NaN,NaN,NaN,vertical,vertical,horizontal,none,none,none
1a,16,100164,4,14,206,20,F,NA,variable,heterogeneous,3,absent,0.504127979278564,1,vertical,vertical,1,0.976461944580078,green,2,NaN,1034.72873763037,699.636437764765,NaN,NaN,596.34794493794,753.462830903772,1034.72873763037,699.636437764765,768.923317431687,346.900731331463,0,0,0,0,0,0,3,4,5,NaN,NaN,NaN,vertical,vertical,horizontal,none,none,none
1a,16,100164,4,15,207,20,F,NA,variable,heterogeneous,3,present,0.815693855285645,1,horizontal,horizontal,1,0.670586614608765,red,2,3,826.654758133252,346.39691668109,567.045908301137,703.717843984329,1006.29933356561,749.885239334581,826.654758133252,346.39691668109,567.045908301137,703.717843984329,0,0,0,0,0,0,0,4,3,NaN,NaN,NaN,vertical,horizontal,horizontal,none,none,none
1a,16,100164,4,16,208,20,F,NA,variable,heterogeneous,4,absent,0.796160936355591,0,horizontal,vertical,1,0.988226380348206,green,1,NaN,857.362518857686,848.464366520235,NaN,NaN,857.362518857686,848.464366520235,1048.46436652023,542.637481142314,742.637481142314,351.535633479765,551.535633479765,657.362518857686,0,0,0,0,4,6,5,0,NaN,NaN,horizontal,vertical,horizontal,vertical,none,none
1a,16,100164,4,17,209,20,F,NA,variable,heterogeneous,5,absent,NaN,0,horizontal,none,0,0.764702100753784,green,2,NaN,973.909581815937,786.495193912888,NaN,NaN,676.373546837184,823.028025320546,973.909581815937,786.495193912888,1031.10848569435,492.232343256122,768.923317431687,346.900731331463,549.685068220846,551.343706178981,0,0,6,4,0,3,0,NaN,horizontal,horizontal,vertical,horizontal,horizontal,none
1a,16,100164,4,18,210,20,F,NA,variable,heterogeneous,5,absent,0.686967134475708,1,vertical,vertical,1,0.964697508811951,green,3,NaN,1042.51941165526,521.200666434388,NaN,NaN,650.114760665419,806.299333565612,949.885239334581,806.299333565612,1042.51941165526,521.200666434388,800,345,557.480588344736,521.200666434388,0,0,5,0,4,6,3,NaN,horizontal,horizontal,vertical,vertical,vertical,none
1a,16,100164,4,19,211,20,F,NA,variable,heterogeneous,4,present,NaN,0,vertical,none,0,0.776466536521912,red,1,3,800,855,800,345,800,855,1055,600,800,345,545,600,0,0,0,0,4,5,0,6,NaN,NaN,vertical,vertical,vertical,horizontal,none,none
1a,16,100164,4,20,212,20,F,NA,variable,heterogeneous,5,present,0.901381969451904,1,vertical,vertical,1,1.02351968765259,green,4,5,560.378381699593,512.784863451954,643.006323791957,800.942742169714,942.594190385041,811.404581001536,1045.12173246427,529.712474266665,808.899371659138,345.155339110131,560.378381699593,512.784863451954,643.006323791957,800.942742169714,0,0,3,5,0,4,0,NaN,horizontal,horizontal,vertical,vertical,horizontal,none
1a,16,100164,4,21,213,20,F,NA,variable,heterogeneous,6,present,0.718662977218628,1,vertical,vertical,1,0.764702100753784,green,4,2,883.019879386575,358.892763222174,967.295052392579,792.450942956807,716.980120613425,841.107236777826,967.295052392579,792.450942956807,1050.31493177915,551.343706178981,883.019879386575,358.892763222174,632.704947607421,407.549057043193,549.685068220846,648.656293821019,3,0,0,4,6,5,vertical,horizontal,horizontal,vertical,vertical,horizontal
1a,16,100164,4,22,214,20,F,NA,variable,heterogeneous,4,present,NaN,0,horizontal,none,0,1.05881299495697,red,2,4,992.450942956807,432.704947607421,607.549057043193,767.295052392579,967.295052392579,792.450942956807,992.450942956807,432.704947607421,632.704947607421,407.549057043193,607.549057043193,767.295052392579,0,0,0,0,6,4,5,5,NaN,NaN,horizontal,horizontal,horizontal,horizontal,none,none
1a,16,100164,4,23,215,20,F,NA,variable,heterogeneous,4,present,NaN,0,horizontal,none,0,0.964697508811951,green,4,2,545,600,1055,600,800,855,1055,600,800,345,545,600,0,0,0,0,5,6,3,4,NaN,NaN,horizontal,vertical,horizontal,horizontal,none,none
1a,16,100164,4,24,216,20,F,NA,variable,heterogeneous,6,present,1.6228940486908,1,vertical,vertical,1,0.623528871536255,red,5,6,560.378381699593,512.784863451954,604.658667004661,763.910840470068,844.280285305067,851.125977018113,1039.62161830041,687.215136548046,995.341332995339,436.089159529932,755.719714694933,348.874022981887,560.378381699593,512.784863451954,604.658667004661,763.910840470068,3,5,0,6,4,6,horizontal,vertical,horizontal,horizontal,vertical,horizontal
1a,16,100164,4,25,217,20,F,NA,variable,heterogeneous,6,present,NaN,0,horizontal,none,0,0.941168637275696,green,3,6,1050.31493177915,551.343706178981,549.685068220846,648.656293821019,716.980120613425,841.107236777826,967.295052392579,792.450942956807,1050.31493177915,551.343706178981,883.019879386575,358.892763222174,632.704947607421,407.549057043193,549.685068220846,648.656293821019,0,6,4,5,5,0,horizontal,vertical,horizontal,vertical,vertical,horizontal
1a,16,100164,4,26,218,20,F,NA,variable,heterogeneous,4,absent,0.390511035919189,0,horizontal,vertical,1,0.788230972290039,red,3,NaN,911.784642431215,370.807518193712,NaN,NaN,688.215357568785,829.192481806288,1029.19248180629,711.784642431215,911.784642431215,370.807518193712,570.807518193712,488.215357568785,0,0,0,0,6,6,4,0,NaN,NaN,horizontal,vertical,horizontal,vertical,none,none
1a,16,100164,4,27,219,20,F,NA,variable,heterogeneous,4,absent,0.923313140869141,0,vertical,horizontal,1,1.03528412342072,red,2,NaN,980.31222920257,780.31222920257,NaN,NaN,619.68777079743,780.31222920257,980.31222920257,780.31222920257,980.31222920257,419.68777079743,619.68777079743,419.68777079743,0,0,0,0,3,4,0,5,NaN,NaN,vertical,vertical,horizontal,vertical,none,none
1a,16,100164,4,28,220,20,F,NA,variable,heterogeneous,3,present,0.547322034835815,1,horizontal,horizontal,1,0.870582022666931,red,1,3,601.827779828472,760.476699717708,760.109211414741,348.13947314824,601.827779828472,760.476699717708,1038.06300875679,691.383827134052,760.109211414741,348.13947314824,0,0,0,0,0,0,4,3,5,NaN,NaN,NaN,horizontal,vertical,vertical,none,none,none
1a,16,100164,4,29,221,20,F,NA,variable,heterogeneous,6,absent,1.0719051361084,1,horizontal,horizontal,1,1.08234186649323,red,3,NaN,1013.86099482608,461.117046071168,NaN,NaN,813.345668841951,854.650531362416,1027.20666366803,715.767577433584,1013.86099482608,461.117046071168,786.654331158049,345.349468637584,572.793336331966,484.232422566416,586.139005173917,738.882953928832,0,0,4,3,6,6,vertical,horizontal,horizontal,horizontal,horizontal,vertical
1a,16,100164,4,30,222,20,F,NA,variable,heterogeneous,3,present,NaN,0,vertical,none,0,0.870582022666931,red,3,2,558.892763222174,683.019879386575,848.656293821019,349.685068220846,992.450942956807,767.295052392579,848.656293821019,349.685068220846,558.892763222174,683.019879386575,0,0,0,0,0,0,0,6,4,NaN,NaN,NaN,horizontal,vertical,vertical,none,none,none
1a,16,100164,4,31,223,20,F,NA,variable,heterogeneous,5,present,NaN,0,horizontal,none,0,0.988226380348206,green,1,5,808.899371659138,854.844660889869,560.378381699593,687.215136548046,808.899371659138,854.844660889869,1045.12173246427,670.287525733335,942.594190385041,388.595418998464,643.006323791957,399.057257830286,560.378381699593,687.215136548046,0,0,4,3,6,0,5,NaN,horizontal,horizontal,vertical,vertical,horizontal,none
1a,16,100164,4,32,224,20,F,NA,variable,heterogeneous,6,absent,NaN,0,vertical,none,0,1.01175525188446,red,3,NaN,1018.57766167904,468.665290897936,NaN,NaN,804.450363641507,854.96116226488,1023.02802532055,723.626453162816,1018.57766167904,468.665290897936,795.549636358493,345.03883773512,576.971974679454,476.373546837184,581.422338320961,731.334709102064,0,0,4,3,6,5,vertical,horizontal,vertical,horizontal,vertical,vertical
1a,16,100164,4,33,225,20,F,NA,variable,heterogeneous,5,absent,0.319797992706299,0,vertical,horizontal,1,0.988226380348206,red,1,NaN,895.524681321058,836.431882914531,NaN,NaN,895.524681321058,836.431882914531,1054.37883281626,582.212099195248,861.690083377915,352.574589799621,583.747735480111,464.870587620533,604.658667004661,763.910840470068,0,0,4,0,6,3,5,NaN,vertical,horizontal,horizontal,horizontal,vertical,none
1a,16,100164,4,34,226,20,F,NA,variable,heterogeneous,6,present,0.346658945083618,0,horizontal,vertical,1,0.811759843826294,green,6,4,646.537169096228,803.65205506206,700.363562235235,365.271262369628,899.636437764765,834.728737630372,1053.09926866854,631.076682568313,953.462830903772,396.34794493794,700.363562235235,365.271262369628,546.900731331463,568.923317431687,646.537169096228,803.65205506206,0,6,5,3,6,4,horizontal,horizontal,vertical,horizontal,vertical,horizontal
1a,16,100164,4,35,227,20,F,NA,variable,heterogeneous,5,present,0.105296850204468,0,horizontal,vertical,1,0.976461944580078,red,5,4,572.793336331966,715.767577433584,619.68777079743,419.68777079743,839.890788585259,851.86052685176,1051.86052685176,639.890788585259,915.767577433584,372.793336331966,619.68777079743,419.68777079743,572.793336331966,715.767577433584,0,0,3,3,5,0,4,NaN,vertical,vertical,vertical,horizontal,horizontal,none
1a,16,100164,4,36,228,20,F,NA,variable,heterogeneous,5,absent,0.166553020477295,0,horizontal,vertical,1,0.941168637275696,red,5,NaN,601.827779828472,760.476699717708,NaN,NaN,891.383827134052,838.063008756786,1054.65053136242,586.654331158049,865.998856501143,353.688914296288,586.139005173917,461.117046071168,601.827779828472,760.476699717708,0,0,3,5,0,6,4,NaN,vertical,vertical,horizontal,vertical,horizontal,none
1a,16,100164,4,37,229,20,F,NA,variable,heterogeneous,4,present,0.258738040924072,0,vertical,horizontal,1,0.835288715362549,red,4,2,610.498069503264,770.628304621509,989.501930496736,429.371695378491,970.628304621509,789.501930496736,989.501930496736,429.371695378491,629.371695378491,410.498069503264,610.498069503264,770.628304621509,0,0,0,0,3,3,0,4,NaN,NaN,horizontal,horizontal,vertical,vertical,none,none
1a,16,100164,4,38,230,20,F,NA,variable,heterogeneous,4,present,0.348140954971313,1,vertical,vertical,1,0.6,green,2,1,1023.02802532055,476.373546837184,923.626453162816,823.028025320546,923.626453162816,823.028025320546,1023.02802532055,476.373546837184,676.373546837184,376.971974679454,576.971974679454,723.626453162816,0,0,0,0,0,4,5,6,NaN,NaN,vertical,vertical,vertical,vertical,none,none
1a,16,100164,4,39,231,20,F,NA,variable,heterogeneous,6,absent,0.382601976394653,1,horizontal,horizontal,1,0.764702100753784,green,5,NaN,572.793336331966,484.232422566416,NaN,NaN,813.345668841951,854.650531362416,1027.20666366803,715.767577433584,1013.86099482608,461.117046071168,786.654331158049,345.349468637584,572.793336331966,484.232422566416,586.139005173917,738.882953928832,6,3,0,0,4,6,horizontal,vertical,horizontal,horizontal,horizontal,vertical
1a,16,100164,4,40,232,20,F,NA,variable,heterogeneous,4,present,0.517555952072144,1,horizontal,horizontal,1,0.964697508811951,green,3,1,891.383827134052,361.936991243214,708.616172865948,838.063008756786,708.616172865948,838.063008756786,1038.06300875679,691.383827134052,891.383827134052,361.936991243214,561.936991243214,508.616172865948,0,0,0,0,6,0,4,6,NaN,NaN,horizontal,horizontal,horizontal,vertical,none,none
1a,16,100164,4,41,233,20,F,NA,variable,heterogeneous,3,absent,1.59823417663574,1,horizontal,horizontal,1,1.09410630226135,green,3,NaN,549.685068220846,648.656293821019,NaN,NaN,967.295052392579,792.450942956807,883.019879386575,358.892763222174,549.685068220846,648.656293821019,0,0,0,0,0,0,3,6,4,NaN,NaN,NaN,horizontal,horizontal,horizontal,none,none,none
1a,16,100164,4,42,234,20,F,NA,variable,heterogeneous,6,present,NaN,0,horizontal,none,0,0.847053151130676,red,4,6,923.626453162816,376.971974679454,545.03883773512,604.450363641507,676.373546837184,823.028025320546,931.334709102064,818.577661679039,1054.96116226488,595.549636358493,923.626453162816,376.971974679454,668.665290897936,381.422338320961,545.03883773512,604.450363641507,6,5,6,4,3,3,vertical,horizontal,vertical,horizontal,vertical,horizontal
1a,16,100164,4,43,235,20,F,NA,variable,heterogeneous,6,absent,0.204874992370605,0,horizontal,vertical,1,0.870582022666931,red,3,NaN,998.172220171528,439.523300282291,NaN,NaN,839.890788585259,851.86052685176,1038.06300875679,691.383827134052,998.172220171528,439.523300282291,760.109211414741,348.13947314824,561.936991243214,508.616172865948,601.827779828472,760.476699717708,3,6,4,0,5,3,horizontal,horizontal,horizontal,horizontal,vertical,horizontal
1a,16,100164,4,44,236,20,F,NA,variable,heterogeneous,5,absent,NaN,0,vertical,none,0,0.905875329971313,red,1,NaN,831.076682568313,853.099268668537,NaN,NaN,831.076682568313,853.099268668537,1050.31493177915,648.656293821019,923.626453162816,376.971974679454,626.090418184063,413.504806087112,568.891514305654,707.767656743878,0,0,4,3,5,6,0,NaN,vertical,horizontal,horizontal,vertical,vertical,none
1a,16,100164,4,45,237,20,F,NA,variable,heterogeneous,3,absent,NaN,0,vertical,none,0,0.776466536521912,red,1,NaN,791.100628340862,854.844660889869,NaN,NaN,791.100628340862,854.844660889869,1025.15163617903,480.284751489598,583.747735480111,464.870587620533,0,0,0,0,0,0,4,5,0,NaN,NaN,NaN,vertical,vertical,horizontal,none,none,none
1a,16,100164,4,46,238,20,F,NA,variable,heterogeneous,4,present,NaN,0,vertical,none,0,0.882346458435059,green,2,3,1036.43188291453,504.475318678942,704.475318678942,363.568117085469,895.524681321058,836.431882914531,1036.43188291453,504.475318678942,704.475318678942,363.568117085469,563.568117085469,695.524681321058,0,0,0,0,5,4,0,0,NaN,NaN,horizontal,vertical,vertical,vertical,none,none
1a,16,100164,4,47,239,20,F,NA,variable,heterogeneous,4,absent,0.710081815719604,1,vertical,vertical,1,1.03528412342072,green,1,NaN,970.628304621509,789.501930496736,NaN,NaN,970.628304621509,789.501930496736,989.501930496736,429.371695378491,629.371695378491,410.498069503264,610.498069503264,770.628304621509,0,0,0,0,4,6,5,6,NaN,NaN,vertical,horizontal,vertical,horizontal,none,none
1a,16,100164,4,48,240,20,F,NA,variable,heterogeneous,5,present,0.782101154327393,0,horizontal,vertical,1,1.08234186649323,red,2,4,1052.5183575291,564.510859255183,574.848363820974,480.284751489598,911.784642431215,829.192481806288,1052.5183575291,564.510859255183,844.280285305067,348.874022981887,574.848363820974,480.284751489598,616.568350913644,777.137884467044,0,0,0,4,6,5,6,NaN,horizontal,horizontal,horizontal,vertical,vertical,none
1a,16,100164,4,49,241,20,F,NA,variable,heterogeneous,6,absent,0.909945011138916,1,vertical,vertical,1,0.811759843826294,green,6,NaN,545.621167183745,617.787900804752,NaN,NaN,688.215357568785,829.192481806288,942.594190385041,811.404581001536,1054.37883281626,582.212099195248,911.784642431215,370.807518193712,657.405809614959,388.595418998464,545.621167183745,617.787900804752,0,6,0,3,3,4,vertical,horizontal,horizontal,vertical,vertical,vertical
1a,16,100164,4,50,242,20,F,NA,variable,heterogeneous,4,absent,0.886682033538818,0,horizontal,vertical,1,0.705879921913147,red,3,NaN,782.212099195248,345.621167183745,NaN,NaN,817.787900804752,854.378832816255,1054.37883281626,582.212099195248,782.212099195248,345.621167183745,545.621167183745,617.787900804752,0,0,0,0,5,6,4,0,NaN,NaN,horizontal,vertical,horizontal,horizontal,none,none
1a,16,100164,4,51,243,20,F,NA,variable,heterogeneous,6,absent,0.365295171737671,0,vertical,horizontal,1,1.03528412342072,red,6,NaN,668.665290897936,818.577661679039,NaN,NaN,923.626453162816,823.028025320546,1054.96116226488,604.450363641507,931.334709102064,381.422338320961,676.373546837184,376.971974679454,545.03883773512,595.549636358493,668.665290897936,818.577661679039,5,6,3,5,6,4,vertical,horizontal,horizontal,vertical,horizontal,vertical
1a,16,100164,4,52,244,20,F,NA,variable,heterogeneous,6,present,NaN,0,horizontal,none,0,0.764702100753784,red,6,3,619.68777079743,780.31222920257,980.31222920257,419.68777079743,865.998856501143,846.311085703712,1046.31108570371,665.998856501143,980.31222920257,419.68777079743,734.001143498857,353.688914296288,553.688914296288,534.001143498857,619.68777079743,780.31222920257,0,6,3,5,3,4,vertical,horizontal,horizontal,horizontal,horizontal,horizontal
1a,16,100164,4,53,245,20,F,NA,variable,heterogeneous,3,absent,NaN,0,vertical,none,0,0.870582022666931,green,1,NaN,967.295052392579,792.450942956807,NaN,NaN,967.295052392579,792.450942956807,883.019879386575,358.892763222174,549.685068220846,648.656293821019,0,0,0,0,0,0,4,0,0,NaN,NaN,NaN,vertical,horizontal,horizontal,none,none,none
1a,16,100164,4,54,246,20,F,NA,variable,heterogeneous,5,absent,0.549919128417969,0,horizontal,vertical,1,0.788230972290039,green,2,NaN,1050.31493177915,551.343706178981,NaN,NaN,923.626453162816,823.028025320546,1050.31493177915,551.343706178981,831.076682568313,346.900731331463,568.891514305654,492.232343256122,626.090418184063,786.495193912888,0,0,0,4,5,3,0,NaN,horizontal,horizontal,vertical,horizontal,horizontal,none
