experiment,subject,uniqueID,block,trial,trial_cumulative,age,gender,color_cond_blocking,color_history,shape_type,set_size,distractor,rt,acc,target_orient,response_key,response_made,iti,target_color,target_item,distractor_item,target_X,target_Y,distractor_X,distractor_Y,item1_X,item1_Y,item2_X,item2_Y,item3_X,item3_Y,item4_X,item4_Y,item5_X,item5_Y,item6_X,item6_Y,item1_shape,item2_shape,item3_shape,item4_shape,item5_shape,item6_shape,item1_line,item2_line,item3_line,item4_line,item5_line,item6_line
1a,17,100169,1,1,1,22,F,NA,variable,heterogeneous,6,absent,NaN,0,horizontal,none,0,0.647057437896729,red,4,NaN,887.215136548046,360.378381699593,NaN,NaN,712.784863451954,839.621618300407,963.910840470068,795.341332995339,1051.12597701811,555.719714694933,887.215136548046,360.378381699593,636.089159529932,404.658667004661,548.874022981887,644.280285305067,3,0,3,4,5,6,vertical,horizontal,vertical,horizontal,vertical,vertical
1a,17,100169,1,2,2,22,F,NA,variable,heterogeneous,4,present,NaN,0,vertical,none,0,1.04704566001892,red,3,2,729.712474266665,354.878267535729,1045.12173246427,529.712474266665,870.287525733335,845.121732464271,1045.12173246427,529.712474266665,729.712474266665,354.878267535729,554.878267535729,670.287525733335,0,0,0,0,6,3,4,0,NaN,NaN,horizontal,horizontal,vertical,vertical,none,none
1a,17,100169,1,3,3,22,F,NA,variable,heterogeneous,6,present,NaN,0,horizontal,none,0,0.9294020652771,red,2,4,1051.12597701811,644.280285305067,712.784863451954,360.378381699593,887.215136548046,839.621618300407,1051.12597701811,644.280285305067,963.910840470068,404.658667004661,712.784863451954,360.378381699593,548.874022981887,555.719714694933,636.089159529932,795.341332995339,0,4,6,3,5,3,vertical,horizontal,horizontal,vertical,horizontal,vertical
1a,17,100169,1,4,4,22,F,NA,variable,heterogeneous,4,absent,1.68900609016418,1,horizontal,horizontal,1,0.717643594741821,green,2,NaN,1000.94274216971,443.006323791957,NaN,NaN,956.993676208043,800.942742169714,1000.94274216971,443.006323791957,643.006323791957,399.057257830286,599.057257830286,756.993676208043,0,0,0,0,3,4,0,3,NaN,NaN,vertical,horizontal,vertical,horizontal,none,none
1a,17,100169,1,5,5,22,F,NA,variable,heterogeneous,5,present,1.67491888999939,1,horizontal,horizontal,1,0.999988222122192,red,3,4,907.767656743878,368.891514305654,613.504806087112,426.090418184063,848.656293821019,850.314931779154,1053.09926866854,631.076682568313,907.767656743878,368.891514305654,613.504806087112,426.090418184063,576.971974679454,723.626453162816,0,0,3,0,4,0,3,NaN,horizontal,vertical,horizontal,horizontal,vertical,none
1a,17,100169,1,6,6,22,F,NA,variable,heterogeneous,5,present,NaN,0,horizontal,none,0,0.847051548957825,red,5,4,545.03883773512,595.549636358493,725.445215295702,356.142287229426,716.980120613425,841.107236777826,1003.65205506206,753.462830903772,1008.88377129369,453.738008730483,725.445215295702,356.142287229426,545.03883773512,595.549636358493,0,0,6,0,5,6,4,NaN,horizontal,horizontal,vertical,vertical,horizontal,none
1a,17,100169,1,7,7,22,F,NA,variable,heterogeneous,5,absent,1.13164377212524,1,horizontal,horizontal,1,0.705879235267639,red,5,NaN,550.57236181288,546.982518841471,NaN,NaN,672.5,820.836477965032,970.628304621509,789.501930496736,1032.95409169886,496.282156015671,773.345241866748,346.39691668109,550.57236181288,546.982518841471,0,0,0,3,6,3,4,NaN,vertical,horizontal,vertical,vertical,horizontal,none
1a,17,100169,1,8,8,22,F,NA,variable,heterogeneous,3,present,1.60251903533936,1,vertical,vertical,1,0.98822386264801,red,1,2,915.767577433584,827.206663668034,938.882953928832,386.139005173917,915.767577433584,827.206663668034,938.882953928832,386.139005173917,545.349468637584,586.654331158049,0,0,0,0,0,0,4,5,0,NaN,NaN,NaN,vertical,horizontal,horizontal,none,none,none
1a,17,100169,1,9,9,22,F,NA,variable,heterogeneous,6,present,NaN,0,horizontal,none,0,0.694114875793457,green,4,1,734.001143498857,353.688914296288,865.998856501143,846.311085703712,865.998856501143,846.311085703712,1046.31108570371,665.998856501143,980.31222920257,419.68777079743,734.001143498857,353.688914296288,553.688914296288,534.001143498857,619.68777079743,780.31222920257,6,0,5,4,3,5,horizontal,horizontal,vertical,horizontal,horizontal,horizontal
1a,17,100169,1,10,10,22,F,NA,variable,heterogeneous,5,present,1.29078102111816,1,horizontal,horizontal,1,0.705879235267639,green,1,3,650.114760665419,806.299333565612,1042.51941165526,521.200666434388,650.114760665419,806.299333565612,949.885239334581,806.299333565612,1042.51941165526,521.200666434388,800,345,557.480588344736,521.200666434388,0,0,4,5,0,5,3,NaN,horizontal,vertical,horizontal,vertical,horizontal,none
1a,17,100169,1,11,11,22,F,NA,variable,heterogeneous,4,absent,1.52177810668945,1,vertical,vertical,1,1.0588100194931,green,1,NaN,657.405809614959,811.404581001536,NaN,NaN,657.405809614959,811.404581001536,1011.40458100154,742.594190385041,942.594190385041,388.595418998464,588.595418998464,457.40580961496,0,0,0,0,4,6,5,0,NaN,NaN,vertical,vertical,vertical,horizontal,none,none
1a,17,100169,1,12,12,22,F,NA,variable,heterogeneous,5,absent,1.8011839389801,0,horizontal,vertical,1,0.623528718948364,green,1,NaN,844.280285305067,851.125977018113,NaN,NaN,844.280285305067,851.125977018113,1052.5183575291,635.489140744817,911.784642431215,370.807518193712,616.568350913644,422.862115532956,574.848363820974,719.715248510402,0,0,4,6,3,6,3,NaN,horizontal,vertical,vertical,horizontal,vertical,none
1a,17,100169,1,13,13,22,F,NA,variable,heterogeneous,6,present,1.44909501075745,1,horizontal,horizontal,1,1.01175258159637,red,5,1,643.006323791957,399.057257830286,704.475318678942,836.431882914531,704.475318678942,836.431882914531,956.993676208043,800.942742169714,1052.5183575291,564.510859255183,895.524681321058,363.568117085469,643.006323791957,399.057257830286,547.481642470899,635.489140744817,0,5,6,0,4,6,horizontal,vertical,vertical,horizontal,horizontal,vertical
1a,17,100169,1,14,14,22,F,NA,variable,heterogeneous,4,absent,1.43992590904236,1,horizontal,horizontal,1,1.04704566001892,green,4,NaN,552.574589799621,661.690083377915,NaN,NaN,861.690083377915,847.425410200379,1047.42541020038,538.309916622085,738.309916622085,352.574589799621,552.574589799621,661.690083377915,0,0,0,0,5,0,5,4,NaN,NaN,vertical,vertical,vertical,horizontal,none,none
1a,17,100169,1,15,15,22,F,NA,variable,heterogeneous,4,present,1.30472993850708,0,vertical,horizontal,1,0.6,green,3,2,661.117046071168,386.139005173917,1013.86099482608,461.117046071168,938.882953928832,813.860994826083,1013.86099482608,461.117046071168,661.117046071168,386.139005173917,586.139005173917,738.882953928832,0,0,0,0,3,6,4,0,NaN,NaN,horizontal,vertical,vertical,vertical,none,none
1a,17,100169,1,16,16,22,F,NA,variable,heterogeneous,6,absent,1.15271806716919,0,vertical,horizontal,1,0.682350516319275,red,4,NaN,895.524681321058,363.568117085469,NaN,NaN,704.475318678942,836.431882914531,956.993676208043,800.942742169714,1052.5183575291,564.510859255183,895.524681321058,363.568117085469,643.006323791957,399.057257830286,547.481642470899,635.489140744817,6,0,5,4,3,5,vertical,horizontal,vertical,vertical,vertical,vertical
1a,17,100169,1,17,17,22,F,NA,variable,heterogeneous,3,present,1.20251893997192,1,horizontal,horizontal,1,0.729407954216003,green,3,1,574.848363820974,719.715248510402,1016.25226451989,735.129412379467,1016.25226451989,735.129412379467,808.899371659138,345.155339110131,574.848363820974,719.715248510402,0,0,0,0,0,0,5,3,4,NaN,NaN,NaN,horizontal,horizontal,horizontal,none,none,none
1a,17,100169,1,18,18,22,F,NA,variable,heterogeneous,5,absent,1.36263203620911,1,horizontal,horizontal,1,0.788229751586914,green,2,NaN,1008.88377129369,746.261991269517,NaN,NaN,725.445215295702,843.857712770574,1008.88377129369,746.261991269517,1003.65205506206,446.537169096228,716.980120613425,358.892763222174,545.03883773512,604.450363641507,0,0,3,4,5,6,0,NaN,vertical,horizontal,horizontal,horizontal,vertical,none
1a,17,100169,1,19,19,22,F,NA,variable,heterogeneous,4,absent,0.955103158950806,1,vertical,vertical,1,1.0588100194931,red,2,NaN,1049.42763818712,653.017481158529,NaN,NaN,746.982518841471,849.42763818712,1049.42763818712,653.017481158529,853.017481158529,350.57236181288,550.57236181288,546.982518841471,0,0,0,0,3,4,5,5,NaN,NaN,vertical,vertical,vertical,vertical,none,none
1a,17,100169,1,20,20,22,F,NA,variable,heterogeneous,5,present,1.6261248588562,1,vertical,vertical,1,0.788229751586914,green,5,2,593.700666434388,749.885239334581,1055,600,878.799333565612,842.519411655264,1055,600,878.799333565612,357.480588344736,593.700666434388,450.114760665419,593.700666434388,749.885239334581,0,0,0,0,5,3,4,NaN,vertical,horizontal,vertical,horizontal,vertical,none
1a,17,100169,1,21,21,22,F,NA,variable,heterogeneous,5,absent,0.838842153549194,1,horizontal,horizontal,1,0.999988222122192,red,5,NaN,610.498069503264,770.628304621509,NaN,NaN,903.717843984329,832.954091698863,1053.60308331891,573.345241866748,853.017481158529,350.57236181288,579.163522034968,472.5,610.498069503264,770.628304621509,0,0,6,3,0,3,4,NaN,horizontal,vertical,horizontal,vertical,horizontal,none
1a,17,100169,1,22,22,22,F,NA,variable,heterogeneous,6,absent,1.18192291259766,0,horizontal,vertical,1,0.905873346328735,red,4,NaN,907.767656743878,368.891514305654,NaN,NaN,692.232343256122,831.108485694346,946.261991269517,808.883771293693,1054.0296480134,577.775285599347,907.767656743878,368.891514305654,653.738008730483,391.116228706307,545.970351986605,622.224714400653,5,3,0,4,6,0,vertical,horizontal,vertical,horizontal,horizontal,horizontal
1a,17,100169,1,23,23,22,F,NA,variable,heterogeneous,3,present,1.38962006568909,1,vertical,vertical,1,0.98822386264801,green,2,3,800,345,579.163522034968,727.5,1020.83647796503,727.5,800,345,579.163522034968,727.5,0,0,0,0,0,0,5,4,3,NaN,NaN,NaN,horizontal,vertical,horizontal,none,none,none
1a,17,100169,1,24,24,22,F,NA,variable,heterogeneous,5,absent,NaN,0,vertical,none,0,0.799994111061096,green,4,NaN,680.284751489598,374.848363820974,NaN,NaN,764.510859255183,852.518357529101,1029.19248180629,711.784642431215,977.137884467044,416.568350913644,680.284751489598,374.848363820974,548.874022981887,644.280285305067,0,0,0,6,3,4,3,NaN,horizontal,vertical,horizontal,vertical,horizontal,none
1a,17,100169,1,25,25,22,F,NA,variable,heterogeneous,3,present,1.15954780578613,1,vertical,vertical,1,0.882344627380371,red,2,1,1050.31493177915,648.656293821019,632.704947607421,792.450942956807,632.704947607421,792.450942956807,1050.31493177915,648.656293821019,716.980120613425,358.892763222174,0,0,0,0,0,0,0,4,5,NaN,NaN,NaN,vertical,vertical,horizontal,none,none,none
1a,17,100169,1,26,26,22,F,NA,variable,heterogeneous,5,absent,NaN,0,vertical,none,0,0.670586156845093,green,2,NaN,1042.51941165526,521.200666434388,NaN,NaN,949.885239334581,806.299333565612,1042.51941165526,521.200666434388,800,345,557.480588344736,521.200666434388,650.114760665419,806.299333565612,0,0,5,4,3,6,0,NaN,horizontal,vertical,horizontal,vertical,horizontal,none
1a,17,100169,1,27,27,22,F,NA,variable,heterogeneous,4,present,1.12045288085938,1,vertical,vertical,1,0.999988222122192,red,3,1,800,345,800,855,800,855,1055,600,800,345,545,600,0,0,0,0,0,5,4,0,NaN,NaN,vertical,horizontal,vertical,horizontal,none,none
1a,17,100169,1,28,28,22,F,NA,variable,heterogeneous,5,absent,1.29000210762024,1,vertical,vertical,1,0.741172313690186,red,4,NaN,680.284751489598,374.848363820974,NaN,NaN,764.510859255183,852.518357529101,1029.19248180629,711.784642431215,977.137884467044,416.568350913644,680.284751489598,374.848363820974,548.874022981887,644.280285305067,0,0,6,6,5,4,3,NaN,vertical,vertical,vertical,vertical,vertical,none
1a,17,100169,1,29,29,22,F,NA,variable,heterogeneous,3,absent,0.765342950820923,1,horizontal,horizontal,1,1.07057437896729,red,3,NaN,692.232343256122,368.891514305654,NaN,NaN,653.738008730483,808.883771293693,1054.0296480134,622.224714400653,692.232343256122,368.891514305654,0,0,0,0,0,0,0,0,4,NaN,NaN,NaN,horizontal,vertical,horizontal,none,none,none
1a,17,100169,1,30,30,22,F,NA,variable,heterogeneous,4,absent,0.832827091217041,1,horizontal,horizontal,1,1.01175258159637,red,3,NaN,844.280285305067,348.874022981887,NaN,NaN,755.719714694933,851.125977018113,1051.12597701811,644.280285305067,844.280285305067,348.874022981887,548.874022981887,555.719714694933,0,0,0,0,0,6,4,0,NaN,NaN,horizontal,horizontal,horizontal,horizontal,none,none
1a,17,100169,1,31,31,22,F,NA,variable,heterogeneous,6,absent,1.78583121299744,1,horizontal,horizontal,1,0.98822386264801,green,1,NaN,861.690083377915,847.425410200379,NaN,NaN,861.690083377915,847.425410200379,1045.12173246427,670.287525733335,983.431649086356,422.862115532956,738.309916622085,352.574589799621,554.878267535729,529.712474266665,616.568350913644,777.137884467044,4,3,0,5,3,5,horizontal,vertical,vertical,vertical,horizontal,horizontal
1a,17,100169,1,32,32,22,F,NA,variable,heterogeneous,6,present,1.16724395751953,1,vertical,vertical,1,0.694114875793457,red,5,4,581.422338320961,468.665290897936,804.450363641507,345.03883773512,795.549636358493,854.96116226488,1018.57766167904,731.334709102064,1023.02802532055,476.373546837184,804.450363641507,345.03883773512,581.422338320961,468.665290897936,576.971974679454,723.626453162816,0,5,3,6,4,5,horizontal,vertical,vertical,horizontal,vertical,horizontal
1a,17,100169,1,33,33,22,F,NA,variable,heterogeneous,3,present,1.13774991035461,1,horizontal,horizontal,1,0.941166424751282,red,2,3,1032.95409169886,703.717843984329,773.345241866748,346.39691668109,593.700666434388,749.885239334581,1032.95409169886,703.717843984329,773.345241866748,346.39691668109,0,0,0,0,0,0,0,4,5,NaN,NaN,NaN,horizontal,horizontal,horizontal,none,none,none
1a,17,100169,1,34,34,22,F,NA,variable,heterogeneous,6,present,0.742630004882812,1,horizontal,horizontal,1,0.894108986854553,green,5,4,613.504806087112,426.090418184063,857.362518857686,351.535633479765,742.637481142314,848.464366520235,986.495193912888,773.909581815937,1043.85771277057,525.445215295702,857.362518857686,351.535633479765,613.504806087112,426.090418184063,556.142287229426,674.554784704298,3,5,6,5,4,0,horizontal,vertical,horizontal,vertical,horizontal,horizontal
1a,17,100169,1,35,35,22,F,NA,variable,heterogeneous,3,absent,0.980177879333496,1,vertical,vertical,1,0.9294020652771,red,2,NaN,1053.09926866854,631.076682568313,NaN,NaN,646.537169096228,803.65205506206,1053.09926866854,631.076682568313,700.363562235235,365.271262369628,0,0,0,0,0,0,3,4,6,NaN,NaN,NaN,horizontal,vertical,vertical,none,none,none
1a,17,100169,1,36,36,22,F,NA,variable,heterogeneous,4,present,1.63833498954773,1,horizontal,horizontal,1,0.729407954216003,green,4,2,574.848363820974,719.715248510402,1025.15163617903,480.284751489598,919.715248510402,825.151636179026,1025.15163617903,480.284751489598,680.284751489598,374.848363820974,574.848363820974,719.715248510402,0,0,0,0,5,6,5,4,NaN,NaN,horizontal,vertical,vertical,horizontal,none,none
1a,17,100169,1,37,37,22,F,NA,variable,heterogeneous,4,present,1.76350402832031,1,horizontal,horizontal,1,0.98822386264801,red,3,2,919.715248510402,374.848363820974,1025.15163617903,719.715248510402,680.284751489598,825.151636179026,1025.15163617903,719.715248510402,919.715248510402,374.848363820974,574.848363820974,480.284751489598,0,0,0,0,6,0,4,3,NaN,NaN,horizontal,horizontal,horizontal,horizontal,none,none
1a,17,100169,1,38,38,22,F,NA,variable,heterogeneous,3,absent,1.1275429725647,1,horizontal,horizontal,1,0.635293078422546,green,2,NaN,1052.5183575291,635.489140744817,NaN,NaN,643.006323791957,800.942742169714,1052.5183575291,635.489140744817,704.475318678942,363.568117085469,0,0,0,0,0,0,0,4,6,NaN,NaN,NaN,horizontal,horizontal,horizontal,none,none,none
1a,17,100169,1,39,39,22,F,NA,variable,heterogeneous,4,present,0.856558084487915,1,horizontal,horizontal,1,0.917637705802917,green,3,4,915.767577433584,372.793336331966,572.793336331966,484.232422566416,684.232422566416,827.206663668034,1027.20666366803,715.767577433584,915.767577433584,372.793336331966,572.793336331966,484.232422566416,0,0,0,0,3,6,4,0,NaN,NaN,horizontal,vertical,horizontal,horizontal,none,none
1a,17,100169,1,40,40,22,F,NA,variable,heterogeneous,6,present,1.35631489753723,1,vertical,vertical,1,0.729407954216003,red,2,4,1053.60308331891,626.654758133252,696.282156015671,367.045908301137,903.717843984329,832.954091698863,1053.60308331891,626.654758133252,949.885239334581,393.700666434388,696.282156015671,367.045908301137,546.39691668109,573.345241866748,650.114760665419,806.299333565612,5,4,0,3,6,3,vertical,vertical,horizontal,horizontal,horizontal,horizontal
1a,17,100169,1,41,41,22,F,NA,variable,heterogeneous,3,absent,1.04199504852295,1,vertical,vertical,1,0.917637705802917,green,2,NaN,1054.96116226488,595.549636358493,NaN,NaN,676.373546837184,823.028025320546,1054.96116226488,595.549636358493,668.665290897936,381.422338320961,0,0,0,0,0,0,5,4,5,NaN,NaN,NaN,horizontal,vertical,vertical,none,none,none
1a,17,100169,1,42,42,22,F,NA,variable,heterogeneous,5,present,1.22038197517395,1,vertical,vertical,1,0.670586156845093,red,5,4,553.688914296288,665.998856501143,661.117046071168,386.139005173917,786.654331158049,854.650531362416,1038.06300875679,691.383827134052,960.476699717708,401.827779828472,661.117046071168,386.139005173917,553.688914296288,665.998856501143,0,0,5,6,3,0,4,NaN,vertical,vertical,horizontal,vertical,vertical,none
1a,17,100169,1,43,43,22,F,NA,variable,heterogeneous,5,present,1.01149988174438,1,horizontal,horizontal,1,0.9294020652771,green,5,2,557.480588344736,678.799333565612,1042.51941165526,678.799333565612,800,855,1042.51941165526,678.799333565612,949.885239334581,393.700666434388,650.114760665419,393.700666434388,557.480588344736,678.799333565612,0,0,5,6,0,0,4,NaN,horizontal,vertical,vertical,horizontal,horizontal,none
1a,17,100169,1,44,44,22,F,NA,variable,heterogeneous,3,absent,1.24083590507507,1,vertical,vertical,1,1.03528130054474,green,1,NaN,844.280285305067,851.125977018113,NaN,NaN,844.280285305067,851.125977018113,995.341332995339,436.089159529932,560.378381699593,512.784863451954,0,0,0,0,0,0,4,3,5,NaN,NaN,NaN,vertical,vertical,horizontal,none,none,none
1a,17,100169,1,45,45,22,F,NA,variable,heterogeneous,6,present,1.43087220191956,1,vertical,vertical,1,0.858815908432007,green,1,5,891.383827134052,838.063008756786,548.13947314824,560.109211414741,891.383827134052,838.063008756786,1051.86052685176,639.890788585259,960.476699717708,401.827779828472,708.616172865948,361.936991243214,548.13947314824,560.109211414741,639.523300282292,798.172220171528,4,6,3,6,5,5,vertical,vertical,vertical,vertical,horizontal,horizontal
1a,17,100169,1,46,46,22,F,NA,variable,heterogeneous,4,absent,1.53361392021179,1,horizontal,horizontal,1,0.894108986854553,red,1,NaN,800,855,NaN,NaN,800,855,1055,600,800,345,545,600,0,0,0,0,4,0,3,6,NaN,NaN,horizontal,horizontal,vertical,horizontal,none,none
1a,17,100169,1,47,47,22,F,NA,variable,heterogeneous,6,absent,1.99190497398376,1,horizontal,horizontal,1,0.976459503173828,green,5,NaN,604.658667004661,436.089159529932,NaN,NaN,755.719714694933,851.125977018113,995.341332995339,763.910840470068,1039.62161830041,512.784863451954,844.280285305067,348.874022981887,604.658667004661,436.089159529932,560.378381699593,687.215136548046,3,3,0,6,4,6,horizontal,vertical,vertical,horizontal,horizontal,horizontal
1a,17,100169,1,48,48,22,F,NA,variable,heterogeneous,4,absent,1.15289878845215,1,vertical,vertical,1,1.04704566001892,green,2,NaN,1032.95409169886,703.717843984329,NaN,NaN,696.282156015671,832.954091698863,1032.95409169886,703.717843984329,903.717843984329,367.045908301137,567.045908301137,496.282156015671,0,0,0,0,6,4,5,0,NaN,NaN,horizontal,vertical,vertical,horizontal,none,none
1a,17,100169,1,49,49,22,F,NA,variable,heterogeneous,3,absent,1.75256490707397,1,horizontal,horizontal,1,0.811758470535278,green,2,NaN,960.476699717708,401.827779828472,NaN,NaN,891.383827134052,838.063008756786,960.476699717708,401.827779828472,548.13947314824,560.109211414741,0,0,0,0,0,0,6,4,5,NaN,NaN,NaN,horizontal,horizontal,vertical,none,none,none
1a,17,100169,1,50,50,22,F,NA,variable,heterogeneous,5,absent,0.828879117965698,1,vertical,vertical,1,0.847051548957825,red,4,NaN,646.537169096228,396.34794493794,NaN,NaN,804.450363641507,854.96116226488,1043.85771277057,674.554784704298,946.261991269517,391.116228706307,646.537169096228,396.34794493794,558.892763222174,683.019879386575,0,0,3,5,6,4,5,NaN,vertical,horizontal,vertical,vertical,vertical,none
1a,17,100169,1,51,51,22,F,NA,variable,heterogeneous,6,present,1.27725195884705,0,vertical,horizontal,1,0.788229751586914,green,1,5,919.715248510402,825.151636179026,545.155339110131,591.100628340862,919.715248510402,825.151636179026,1054.84466088987,608.899371659138,935.129412379467,383.747735480111,680.284751489598,374.848363820974,545.155339110131,591.100628340862,664.870587620533,816.252264519889,4,6,5,6,0,3,vertical,vertical,horizontal,horizontal,vertical,vertical
1a,17,100169,1,52,52,22,F,NA,variable,heterogeneous,3,present,0.960511922836304,1,vertical,vertical,1,0.682350516319275,green,3,2,554.878267535729,670.287525733335,861.690083377915,352.574589799621,983.431649086356,777.137884467044,861.690083377915,352.574589799621,554.878267535729,670.287525733335,0,0,0,0,0,0,5,5,4,NaN,NaN,NaN,horizontal,horizontal,vertical,none,none,none
1a,17,100169,1,53,53,22,F,NA,variable,heterogeneous,5,present,0.85181188583374,1,vertical,vertical,1,0.799994111061096,green,2,5,1032.95409169886,703.717843984329,550.57236181288,653.017481158529,773.345241866748,853.60308331891,1032.95409169886,703.717843984329,970.628304621509,410.498069503264,672.5,379.163522034968,550.57236181288,653.017481158529,0,0,6,4,6,3,0,NaN,horizontal,vertical,horizontal,horizontal,horizontal,none
1a,17,100169,1,54,54,22,F,NA,variable,heterogeneous,6,absent,1.43260812759399,1,vertical,vertical,1,0.976459503173828,red,3,NaN,942.594190385041,388.595418998464,NaN,NaN,911.784642431215,829.192481806288,1054.37883281626,617.787900804752,942.594190385041,388.595418998464,688.215357568785,370.807518193712,545.621167183745,582.212099195248,657.405809614959,811.404581001536,5,3,4,5,0,6,vertical,horizontal,vertical,horizontal,vertical,horizontal
1a,17,100169,1,55,55,22,F,NA,variable,heterogeneous,4,present,1.24249792098999,1,horizontal,horizontal,1,0.658821797370911,red,2,3,983.431649086356,422.862115532956,622.862115532956,416.568350913644,977.137884467044,783.431649086356,983.431649086356,422.862115532956,622.862115532956,416.568350913644,616.568350913644,777.137884467044,0,0,0,0,3,4,6,3,NaN,NaN,horizontal,horizontal,horizontal,horizontal,none,none
1a,17,100169,1,56,56,22,F,NA,variable,heterogeneous,3,present,1.23183917999268,1,horizontal,horizontal,1,0.611764359474182,red,3,1,545.03883773512,604.450363641507,931.334709102064,818.577661679039,931.334709102064,818.577661679039,923.626453162816,376.971974679454,545.03883773512,604.450363641507,0,0,0,0,0,0,6,5,4,NaN,NaN,NaN,vertical,vertical,horizontal,none,none,none
1a,17,100169,1,57,57,22,F,NA,variable,heterogeneous,3,present,1.17525696754456,1,horizontal,horizontal,1,0.941166424751282,green,3,2,725.445215295702,356.142287229426,1048.46436652023,657.362518857686,626.090418184063,786.495193912888,1048.46436652023,657.362518857686,725.445215295702,356.142287229426,0,0,0,0,0,0,0,6,4,NaN,NaN,NaN,horizontal,horizontal,horizontal,none,none,none
1a,17,100169,1,58,58,22,F,NA,variable,heterogeneous,5,present,1.24452495574951,1,vertical,vertical,1,1.07057437896729,red,2,3,1053.09926866854,568.923317431687,848.656293821019,349.685068220846,907.767656743878,831.108485694346,1053.09926866854,568.923317431687,848.656293821019,349.685068220846,576.971974679454,476.373546837184,613.504806087112,773.909581815937,0,0,0,4,5,6,5,NaN,vertical,vertical,vertical,vertical,horizontal,none
1a,17,100169,1,59,59,22,F,NA,variable,heterogeneous,3,absent,1.75593113899231,1,horizontal,horizontal,1,0.9294020652771,red,1,NaN,684.232422566416,827.206663668034,NaN,NaN,684.232422566416,827.206663668034,1054.65053136242,586.654331158049,661.117046071168,386.139005173917,0,0,0,0,0,0,4,6,5,NaN,NaN,NaN,horizontal,horizontal,vertical,none,none,none
1a,17,100169,1,60,60,22,F,NA,variable,heterogeneous,4,absent,0.957927227020264,1,vertical,vertical,1,0.9294020652771,red,2,NaN,989.501930496736,429.371695378491,NaN,NaN,970.628304621509,789.501930496736,989.501930496736,429.371695378491,629.371695378491,410.498069503264,610.498069503264,770.628304621509,0,0,0,0,6,4,6,3,NaN,NaN,vertical,vertical,horizontal,horizontal,none,none
1a,17,100169,1,61,61,22,F,NA,variable,heterogeneous,3,absent,1.17917704582214,1,vertical,vertical,1,0.894108986854553,red,1,NaN,629.371695378491,789.501930496736,NaN,NaN,629.371695378491,789.501930496736,1049.42763818712,653.017481158529,721.200666434388,357.480588344736,0,0,0,0,0,0,4,3,0,NaN,NaN,NaN,vertical,vertical,horizontal,none,none,none
1a,17,100169,1,62,62,22,F,NA,variable,heterogeneous,6,absent,1.86426305770874,1,vertical,vertical,1,1.07057437896729,green,6,NaN,650.114760665419,806.299333565612,NaN,NaN,903.717843984329,832.954091698863,1053.60308331891,626.654758133252,949.885239334581,393.700666434388,696.282156015671,367.045908301137,546.39691668109,573.345241866748,650.114760665419,806.299333565612,3,3,5,5,0,4,horizontal,vertical,vertical,vertical,horizontal,vertical
1a,17,100169,1,63,63,22,F,NA,variable,heterogeneous,6,absent,1.40470600128174,1,vertical,vertical,1,0.941166424751282,green,3,NaN,973.909581815937,413.504806087112,NaN,NaN,874.554784704298,843.857712770574,1048.46436652023,657.362518857686,973.909581815937,413.504806087112,725.445215295702,356.142287229426,551.535633479765,542.637481142314,626.090418184063,786.495193912888,0,0,4,5,5,6,horizontal,vertical,vertical,vertical,horizontal,vertical
1a,17,100169,1,64,64,22,F,NA,variable,heterogeneous,4,present,1.11158514022827,1,vertical,vertical,1,0.9294020652771,green,2,4,1038.06300875679,508.616172865948,561.936991243214,691.383827134052,891.383827134052,838.063008756786,1038.06300875679,508.616172865948,708.616172865948,361.936991243214,561.936991243214,691.383827134052,0,0,0,0,0,4,3,0,NaN,NaN,vertical,vertical,vertical,vertical,none,none
1a,17,100169,2,1,65,22,F,NA,variable,heterogeneous,3,absent,1.44771003723145,1,horizontal,horizontal,1,0.635293078422546,red,2,NaN,1008.88377129369,453.738008730483,NaN,NaN,822.224714400653,854.029648013395,1008.88377129369,453.738008730483,568.891514305654,492.232343256122,0,0,0,0,0,0,3,4,5,NaN,NaN,NaN,vertical,horizontal,horizontal,none,none,none
1a,17,100169,2,2,66,22,F,NA,variable,heterogeneous,3,absent,1.08291101455688,1,horizontal,horizontal,1,0.705879235267639,green,1,NaN,616.568350913644,777.137884467044,NaN,NaN,616.568350913644,777.137884467044,1045.12173246427,670.287525733335,738.309916622085,352.574589799621,0,0,0,0,0,0,4,6,0,NaN,NaN,NaN,horizontal,vertical,vertical,none,none,none
1a,17,100169,2,3,67,22,F,NA,variable,heterogeneous,5,present,1.01720595359802,1,horizontal,horizontal,1,0.811758470535278,red,4,1,734.001143498857,353.688914296288,708.616172865948,838.063008756786,708.616172865948,838.063008756786,998.172220171528,760.476699717708,1013.86099482608,461.117046071168,734.001143498857,353.688914296288,545.349468637584,586.654331158049,0,0,0,3,5,4,6,NaN,vertical,horizontal,vertical,horizontal,vertical,none
1a,17,100169,2,4,68,22,F,NA,variable,heterogeneous,6,present,1.88453102111816,1,horizontal,horizontal,1,0.941166424751282,red,2,1,1011.40458100154,742.594190385041,782.212099195248,854.378832816255,782.212099195248,854.378832816255,1011.40458100154,742.594190385041,1029.19248180629,488.215357568785,817.787900804752,345.621167183745,588.595418998464,457.40580961496,570.807518193712,711.784642431215,3,4,3,6,5,5,horizontal,horizontal,vertical,vertical,horizontal,vertical
1a,17,100169,2,5,69,22,F,NA,variable,heterogeneous,4,present,1.05858397483826,1,horizontal,horizontal,1,0.611764359474182,red,4,2,593.700666434388,450.114760665419,1006.29933356561,749.885239334581,650.114760665419,806.299333565612,1006.29933356561,749.885239334581,949.885239334581,393.700666434388,593.700666434388,450.114760665419,0,0,0,0,6,0,5,4,NaN,NaN,vertical,horizontal,vertical,horizontal,none,none
1a,17,100169,2,6,70,22,F,NA,variable,heterogeneous,5,absent,1.33622217178345,1,horizontal,horizontal,1,0.811758470535278,red,5,NaN,604.658667004661,763.910840470068,NaN,NaN,895.524681321058,836.431882914531,1054.37883281626,582.212099195248,861.690083377915,352.574589799621,583.747735480111,464.870587620533,604.658667004661,763.910840470068,0,0,0,0,5,5,4,NaN,horizontal,vertical,vertical,vertical,horizontal,none
1a,17,100169,2,7,71,22,F,NA,variable,heterogeneous,4,absent,1.02098703384399,1,vertical,vertical,1,0.694114875793457,green,2,NaN,1027.20666366803,715.767577433584,NaN,NaN,684.232422566416,827.206663668034,1027.20666366803,715.767577433584,915.767577433584,372.793336331966,572.793336331966,484.232422566416,0,0,0,0,3,4,3,5,NaN,NaN,vertical,vertical,horizontal,vertical,none,none
1a,17,100169,2,8,72,22,F,NA,variable,heterogeneous,3,absent,1.05782294273376,1,vertical,vertical,1,0.811758470535278,red,2,NaN,983.431649086356,422.862115532956,NaN,NaN,861.690083377915,847.425410200379,983.431649086356,422.862115532956,554.878267535729,529.712474266665,0,0,0,0,0,0,5,4,6,NaN,NaN,NaN,vertical,vertical,vertical,none,none,none
1a,17,100169,2,9,73,22,F,NA,variable,heterogeneous,4,present,1.38210988044739,1,horizontal,horizontal,1,0.941166424751282,red,1,4,751.343706178981,850.314931779154,549.685068220846,551.343706178981,751.343706178981,850.314931779154,1050.31493177915,648.656293821019,848.656293821019,349.685068220846,549.685068220846,551.343706178981,0,0,0,0,4,5,0,3,NaN,NaN,horizontal,vertical,vertical,vertical,none,none
1a,17,100169,2,10,74,22,F,NA,variable,heterogeneous,5,present,0.815633058547974,1,horizontal,horizontal,1,0.882344627380371,green,4,5,607.549057043193,432.704947607421,581.422338320961,731.334709102064,857.362518857686,848.464366520235,1054.0296480134,622.224714400653,899.636437764765,365.271262369628,607.549057043193,432.704947607421,581.422338320961,731.334709102064,0,0,6,0,5,4,0,NaN,horizontal,vertical,horizontal,horizontal,vertical,none
1a,17,100169,2,11,75,22,F,NA,variable,heterogeneous,5,present,0.947978973388672,1,horizontal,horizontal,1,1.01175258159637,green,2,5,1054.96116226488,604.450363641507,591.116228706307,746.261991269517,874.554784704298,843.857712770574,1054.96116226488,604.450363641507,883.019879386575,358.892763222174,596.34794493794,446.537169096228,591.116228706307,746.261991269517,0,0,6,4,0,5,3,NaN,horizontal,horizontal,vertical,vertical,vertical,none
1a,17,100169,2,12,76,22,F,NA,variable,heterogeneous,3,present,0.641025066375732,1,vertical,vertical,1,1.08233873844147,red,2,1,983.431649086356,422.862115532956,861.690083377915,847.425410200379,861.690083377915,847.425410200379,983.431649086356,422.862115532956,554.878267535729,529.712474266665,0,0,0,0,0,0,0,4,0,NaN,NaN,NaN,vertical,vertical,horizontal,none,none,none
1a,17,100169,2,13,77,22,F,NA,variable,heterogeneous,6,absent,1.63745594024658,1,vertical,vertical,1,0.964695143699646,red,4,NaN,822.224714400653,345.970351986605,NaN,NaN,777.775285599347,854.029648013395,1008.88377129369,746.261991269517,1031.10848569435,492.232343256122,822.224714400653,345.970351986605,591.116228706307,453.738008730483,568.891514305654,707.767656743878,0,6,3,4,5,6,vertical,horizontal,horizontal,vertical,vertical,vertical
1a,17,100169,2,14,78,22,F,NA,variable,heterogeneous,6,present,1.03684902191162,1,vertical,vertical,1,0.729407954216003,red,4,6,773.345241866748,346.39691668109,593.700666434388,749.885239334581,826.654758133252,853.60308331891,1032.95409169886,703.717843984329,1006.29933356561,450.114760665419,773.345241866748,346.39691668109,567.045908301137,496.282156015671,593.700666434388,749.885239334581,3,3,5,4,6,5,vertical,vertical,vertical,vertical,horizontal,vertical
1a,17,100169,2,15,79,22,F,NA,variable,heterogeneous,6,present,1.5300281047821,1,vertical,vertical,1,0.811758470535278,green,1,5,721.200666434388,842.519411655264,629.371695378491,410.498069503264,721.200666434388,842.519411655264,970.628304621509,789.501930496736,1049.42763818712,546.982518841471,878.799333565612,357.480588344736,629.371695378491,410.498069503264,550.57236181288,653.017481158529,4,0,5,0,5,6,vertical,horizontal,horizontal,vertical,horizontal,vertical
1a,17,100169,2,16,80,22,F,NA,variable,heterogeneous,4,present,1.83396887779236,1,vertical,vertical,1,0.658821797370911,red,2,1,995.341332995339,763.910840470068,636.089159529932,795.341332995339,636.089159529932,795.341332995339,995.341332995339,763.910840470068,963.910840470068,404.658667004661,604.658667004661,436.089159529932,0,0,0,0,5,4,5,3,NaN,NaN,horizontal,vertical,vertical,vertical,none,none
1a,17,100169,2,17,81,22,F,NA,variable,heterogeneous,3,present,0.841708183288574,1,horizontal,horizontal,1,0.729407954216003,green,2,3,949.885239334581,393.700666434388,546.39691668109,573.345241866748,903.717843984329,832.954091698863,949.885239334581,393.700666434388,546.39691668109,573.345241866748,0,0,0,0,0,0,6,4,3,NaN,NaN,NaN,horizontal,horizontal,vertical,none,none,none
1a,17,100169,2,18,82,22,F,NA,variable,heterogeneous,6,absent,NaN,0,horizontal,none,0,0.976459503173828,red,3,NaN,935.129412379467,383.747735480111,NaN,NaN,919.715248510402,825.151636179026,1054.84466088987,608.899371659138,935.129412379467,383.747735480111,680.284751489598,374.848363820974,545.155339110131,591.100628340862,664.870587620533,816.252264519889,5,3,4,3,6,6,vertical,vertical,horizontal,vertical,horizontal,horizontal
1a,17,100169,2,19,83,22,F,NA,variable,heterogeneous,6,absent,1.60973906517029,1,horizontal,horizontal,1,0.76470103263855,red,1,NaN,848.656293821019,850.314931779154,NaN,NaN,848.656293821019,850.314931779154,1041.10723677783,683.019879386575,992.450942956807,432.704947607421,751.343706178981,349.685068220846,558.892763222174,516.980120613425,607.549057043193,767.295052392579,4,0,6,5,6,5,horizontal,horizontal,horizontal,vertical,vertical,vertical
1a,17,100169,2,20,84,22,F,NA,variable,heterogeneous,5,present,1.10612893104553,1,vertical,vertical,1,0.611764359474182,red,5,1,545.621167183745,617.787900804752,738.309916622085,847.425410200379,738.309916622085,847.425410200379,1016.25226451989,735.129412379467,995.341332995339,436.089159529932,704.475318678942,363.568117085469,545.621167183745,617.787900804752,0,0,3,0,0,6,4,NaN,horizontal,vertical,horizontal,horizontal,vertical,none
1a,17,100169,2,21,85,22,F,NA,variable,heterogeneous,3,absent,1.12707781791687,1,vertical,vertical,1,0.917637705802917,red,2,NaN,844.280285305067,348.874022981887,NaN,NaN,995.341332995339,763.910840470068,844.280285305067,348.874022981887,560.378381699593,687.215136548046,0,0,0,0,0,0,3,4,3,NaN,NaN,NaN,vertical,vertical,horizontal,none,none,none
1a,17,100169,2,22,86,22,F,NA,variable,heterogeneous,3,present,0.960409879684448,1,vertical,vertical,1,0.741172313690186,green,2,3,1042.51941165526,678.799333565612,746.982518841471,350.57236181288,610.498069503264,770.628304621509,1042.51941165526,678.799333565612,746.982518841471,350.57236181288,0,0,0,0,0,0,6,4,3,NaN,NaN,NaN,horizontal,vertical,horizontal,none,none,none
1a,17,100169,2,23,87,22,F,NA,variable,heterogeneous,3,absent,0.921857833862305,1,vertical,vertical,1,0.705879235267639,green,2,NaN,970.628304621509,410.498069503264,NaN,NaN,878.799333565612,842.519411655264,970.628304621509,410.498069503264,550.57236181288,546.982518841471,0,0,0,0,0,0,5,4,3,NaN,NaN,NaN,vertical,vertical,vertical,none,none,none
1a,17,100169,2,24,88,22,F,NA,variable,heterogeneous,5,absent,0.842046976089478,1,vertical,vertical,1,0.870580267906189,green,2,NaN,1025.15163617903,719.715248510402,NaN,NaN,755.719714694933,851.125977018113,1025.15163617903,719.715248510402,983.431649086356,422.862115532956,688.215357568785,370.807518193712,547.481642470899,635.489140744817,0,0,3,4,5,0,0,NaN,horizontal,vertical,horizontal,horizontal,vertical,none
1a,17,100169,2,25,89,22,F,NA,variable,heterogeneous,6,absent,NaN,0,horizontal,none,0,0.752936673164368,green,4,NaN,692.232343256122,368.891514305654,NaN,NaN,907.767656743878,831.108485694346,1054.0296480134,622.224714400653,946.261991269517,391.116228706307,692.232343256122,368.891514305654,545.970351986605,577.775285599347,653.738008730483,808.883771293693,3,5,6,4,6,0,vertical,vertical,horizontal,horizontal,horizontal,vertical
1a,17,100169,2,26,90,22,F,NA,variable,heterogeneous,5,absent,1.12833619117737,1,horizontal,horizontal,1,1.09410309791565,green,5,NaN,550.57236181288,653.017481158529,NaN,NaN,773.345241866748,853.60308331891,1032.95409169886,703.717843984329,970.628304621509,410.498069503264,672.5,379.163522034968,550.57236181288,653.017481158529,0,0,6,5,5,3,4,NaN,horizontal,horizontal,vertical,vertical,horizontal,none
1a,17,100169,2,27,91,22,F,NA,variable,heterogeneous,5,present,1.29806804656982,1,vertical,vertical,1,0.752936673164368,green,4,1,619.68777079743,419.68777079743,839.890788585259,851.86052685176,839.890788585259,851.86052685176,1051.86052685176,639.890788585259,915.767577433584,372.793336331966,619.68777079743,419.68777079743,572.793336331966,715.767577433584,0,0,0,6,6,4,0,NaN,vertical,vertical,vertical,vertical,horizontal,none
1a,17,100169,2,28,92,22,F,NA,variable,heterogeneous,3,present,1.17240309715271,1,horizontal,horizontal,1,0.811758470535278,green,2,1,977.137884467044,416.568350913644,870.287525733335,845.121732464271,870.287525733335,845.121732464271,977.137884467044,416.568350913644,552.574589799621,538.309916622085,0,0,0,0,0,0,5,4,5,NaN,NaN,NaN,vertical,horizontal,horizontal,none,none,none
1a,17,100169,2,29,93,22,F,NA,variable,heterogeneous,6,present,NaN,0,horizontal,none,0,0.635293078422546,red,1,5,755.719714694933,851.125977018113,604.658667004661,436.089159529932,755.719714694933,851.125977018113,995.341332995339,763.910840470068,1039.62161830041,512.784863451954,844.280285305067,348.874022981887,604.658667004661,436.089159529932,560.378381699593,687.215136548046,4,3,0,5,5,6,horizontal,vertical,horizontal,vertical,horizontal,horizontal
1a,17,100169,2,30,94,22,F,NA,variable,heterogeneous,4,absent,1.31074595451355,1,horizontal,horizontal,1,0.694114875793457,green,1,NaN,708.616172865948,838.063008756786,NaN,NaN,708.616172865948,838.063008756786,1038.06300875679,691.383827134052,891.383827134052,361.936991243214,561.936991243214,508.616172865948,0,0,0,0,4,5,6,0,NaN,NaN,horizontal,horizontal,horizontal,horizontal,none,none
1a,17,100169,2,31,95,22,F,NA,variable,heterogeneous,6,absent,1.48024296760559,1,horizontal,horizontal,1,0.752936673164368,green,3,NaN,1029.19248180629,488.215357568785,NaN,NaN,782.212099195248,854.378832816255,1011.40458100154,742.594190385041,1029.19248180629,488.215357568785,817.787900804752,345.621167183745,588.595418998464,457.40580961496,570.807518193712,711.784642431215,0,3,4,5,6,5,vertical,horizontal,horizontal,horizontal,horizontal,horizontal
1a,17,100169,2,32,96,22,F,NA,variable,heterogeneous,4,absent,1.35235500335693,1,vertical,vertical,1,0.917637705802917,green,2,NaN,983.431649086356,777.137884467044,NaN,NaN,622.862115532956,783.431649086356,983.431649086356,777.137884467044,977.137884467044,416.568350913644,616.568350913644,422.862115532956,0,0,0,0,5,4,6,3,NaN,NaN,horizontal,vertical,horizontal,horizontal,none,none
1a,17,100169,2,33,97,22,F,NA,variable,heterogeneous,4,absent,1.42818903923035,1,vertical,vertical,1,1.02351694107056,red,1,NaN,953.462830903772,803.65205506206,NaN,NaN,953.462830903772,803.65205506206,1003.65205506206,446.537169096228,646.537169096228,396.34794493794,596.34794493794,753.462830903772,0,0,0,0,4,0,3,5,NaN,NaN,vertical,vertical,horizontal,horizontal,none,none
1a,17,100169,2,34,98,22,F,NA,variable,heterogeneous,6,absent,1.8395140171051,1,vertical,vertical,1,0.9294020652771,red,5,NaN,557.480588344736,521.200666434388,NaN,NaN,853.017481158529,849.42763818712,1042.51941165526,678.799333565612,989.501930496736,429.371695378491,746.982518841471,350.57236181288,557.480588344736,521.200666434388,610.498069503264,770.628304621509,6,0,5,3,4,0,horizontal,horizontal,vertical,horizontal,vertical,vertical
1a,17,100169,2,35,99,22,F,NA,variable,heterogeneous,6,present,1.2824330329895,1,vertical,vertical,1,1.09410309791565,green,2,5,1025.15163617903,719.715248510402,574.848363820974,480.284751489598,808.899371659138,854.844660889869,1025.15163617903,719.715248510402,1016.25226451989,464.870587620533,791.100628340862,345.155339110131,574.848363820974,480.284751489598,583.747735480111,735.129412379467,5,4,6,3,0,3,vertical,vertical,horizontal,horizontal,horizontal,horizontal
1a,17,100169,2,36,100,22,F,NA,variable,heterogeneous,3,absent,0.896480083465576,1,vertical,vertical,1,0.811758470535278,green,2,NaN,1046.31108570371,534.001143498857,NaN,NaN,734.001143498857,846.311085703712,1046.31108570371,534.001143498857,619.68777079743,419.68777079743,0,0,0,0,0,0,3,4,0,NaN,NaN,NaN,horizontal,vertical,horizontal,none,none,none
1a,17,100169,2,37,101,22,F,NA,variable,heterogeneous,4,present,1.70458793640137,1,vertical,vertical,1,1.09410309791565,green,3,1,870.287525733335,354.878267535729,729.712474266665,845.121732464271,729.712474266665,845.121732464271,1045.12173246427,670.287525733335,870.287525733335,354.878267535729,554.878267535729,529.712474266665,0,0,0,0,0,5,4,6,NaN,NaN,vertical,vertical,vertical,vertical,none,none
1a,17,100169,2,38,102,22,F,NA,variable,heterogeneous,4,present,1.25671291351318,0,horizontal,vertical,1,1.08233873844147,green,4,1,596.34794493794,753.462830903772,953.462830903772,803.65205506206,953.462830903772,803.65205506206,1003.65205506206,446.537169096228,646.537169096228,396.34794493794,596.34794493794,753.462830903772,0,0,0,0,5,6,0,4,NaN,NaN,horizontal,vertical,vertical,horizontal,none,none
1a,17,100169,2,39,103,22,F,NA,variable,heterogeneous,5,absent,0.9690101146698,1,horizontal,horizontal,1,0.964695143699646,green,1,NaN,786.654331158049,854.650531362416,NaN,NaN,786.654331158049,854.650531362416,1038.06300875679,691.383827134052,960.476699717708,401.827779828472,661.117046071168,386.139005173917,553.688914296288,665.998856501143,0,0,4,0,6,0,3,NaN,horizontal,horizontal,horizontal,vertical,horizontal,none
1a,17,100169,2,40,104,22,F,NA,variable,heterogeneous,4,absent,1.689120054245,1,vertical,vertical,1,0.623528718948364,red,3,NaN,813.345668841951,345.349468637584,NaN,NaN,786.654331158049,854.650531362416,1054.65053136242,613.345668841951,813.345668841951,345.349468637584,545.349468637584,586.654331158049,0,0,0,0,5,5,4,3,NaN,NaN,vertical,horizontal,vertical,vertical,none,none
1a,17,100169,2,41,105,22,F,NA,variable,heterogeneous,5,absent,0.970417022705078,1,vertical,vertical,1,0.976459503173828,red,1,NaN,874.554784704298,843.857712770574,NaN,NaN,874.554784704298,843.857712770574,1054.96116226488,604.450363641507,883.019879386575,358.892763222174,596.34794493794,446.537169096228,591.116228706307,746.261991269517,0,0,4,5,6,3,6,NaN,vertical,vertical,vertical,horizontal,vertical,none
1a,17,100169,2,42,106,22,F,NA,variable,heterogeneous,3,present,1.33074998855591,1,horizontal,horizontal,1,0.82352283000946,red,3,2,552.574589799621,661.690083377915,870.287525733335,354.878267535729,977.137884467044,783.431649086356,870.287525733335,354.878267535729,552.574589799621,661.690083377915,0,0,0,0,0,0,5,5,4,NaN,NaN,NaN,horizontal,vertical,horizontal,none,none,none
1a,17,100169,2,43,107,22,F,NA,variable,heterogeneous,6,present,0.902892112731934,1,vertical,vertical,1,1.07057437896729,red,3,2,1020.83647796503,472.5,1020.83647796503,727.5,800,855,1020.83647796503,727.5,1020.83647796503,472.5,800,345,579.163522034968,472.5,579.163522034968,727.5,3,6,4,3,5,0,horizontal,horizontal,vertical,vertical,vertical,vertical
1a,17,100169,2,44,108,22,F,NA,variable,heterogeneous,3,present,1.05072522163391,1,horizontal,horizontal,1,1.08233873844147,red,1,2,616.568350913644,777.137884467044,1045.12173246427,670.287525733335,616.568350913644,777.137884467044,1045.12173246427,670.287525733335,738.309916622085,352.574589799621,0,0,0,0,0,0,4,3,0,NaN,NaN,NaN,horizontal,vertical,horizontal,none,none,none
1a,17,100169,2,45,109,22,F,NA,variable,heterogeneous,5,present,1.30852079391479,1,vertical,vertical,1,1.03528130054474,green,2,5,1054.37883281626,617.787900804752,583.747735480111,735.129412379467,861.690083377915,847.425410200379,1054.37883281626,617.787900804752,895.524681321058,363.568117085469,604.658667004661,436.089159529932,583.747735480111,735.129412379467,0,0,6,4,0,3,6,NaN,horizontal,vertical,vertical,vertical,horizontal,none
1a,17,100169,2,46,110,22,F,NA,variable,heterogeneous,5,present,1.04985094070435,1,horizontal,horizontal,1,0.741172313690186,red,5,1,586.139005173917,738.882953928832,865.998856501143,846.311085703712,865.998856501143,846.311085703712,1054.65053136242,613.345668841951,891.383827134052,361.936991243214,601.827779828472,439.523300282291,586.139005173917,738.882953928832,0,0,3,6,5,0,4,NaN,horizontal,vertical,vertical,vertical,horizontal,none
1a,17,100169,2,47,111,22,F,NA,variable,heterogeneous,4,present,0.956029176712036,1,horizontal,horizontal,1,1.0588100194931,green,1,4,942.594190385041,811.404581001536,588.595418998464,742.594190385041,942.594190385041,811.404581001536,1011.40458100154,457.40580961496,657.405809614959,388.595418998464,588.595418998464,742.594190385041,0,0,0,0,4,6,3,0,NaN,NaN,horizontal,vertical,horizontal,horizontal,none,none
1a,17,100169,2,48,112,22,F,NA,variable,heterogeneous,3,present,1.17266297340393,1,vertical,vertical,1,1.0588100194931,green,2,3,844.280285305067,348.874022981887,560.378381699593,687.215136548046,995.341332995339,763.910840470068,844.280285305067,348.874022981887,560.378381699593,687.215136548046,0,0,0,0,0,0,3,4,3,NaN,NaN,NaN,horizontal,vertical,vertical,none,none,none
1a,17,100169,2,49,113,22,F,NA,variable,heterogeneous,3,absent,1.17753314971924,1,horizontal,horizontal,1,0.858815908432007,green,2,NaN,1027.20666366803,484.232422566416,NaN,NaN,786.654331158049,854.650531362416,1027.20666366803,484.232422566416,586.139005173917,461.117046071168,0,0,0,0,0,0,5,4,6,NaN,NaN,NaN,vertical,horizontal,horizontal,none,none,none
1a,17,100169,2,50,114,22,F,NA,variable,heterogeneous,6,present,1.15028190612793,1,horizontal,horizontal,1,0.847051548957825,green,3,4,1054.37883281626,582.212099195248,911.784642431215,370.807518193712,688.215357568785,829.192481806288,942.594190385041,811.404581001536,1054.37883281626,582.212099195248,911.784642431215,370.807518193712,657.405809614959,388.595418998464,545.621167183745,617.787900804752,0,3,4,5,6,3,horizontal,vertical,horizontal,horizontal,horizontal,vertical
1a,17,100169,2,51,115,22,F,NA,variable,heterogeneous,4,absent,1.99905610084534,1,horizontal,horizontal,1,1.09410309791565,red,3,NaN,874.554784704298,356.142287229426,NaN,NaN,725.445215295702,843.857712770574,1043.85771277057,674.554784704298,874.554784704298,356.142287229426,556.142287229426,525.445215295702,0,0,0,0,5,5,4,6,NaN,NaN,horizontal,vertical,horizontal,horizontal,none,none
1a,17,100169,2,52,116,22,F,NA,variable,heterogeneous,5,present,1.62982797622681,1,vertical,vertical,1,0.917637705802917,red,2,1,992.450942956807,767.295052392579,700.363562235235,834.728737630372,700.363562235235,834.728737630372,992.450942956807,767.295052392579,1018.57766167904,468.665290897936,742.637481142314,351.535633479765,545.970351986605,577.775285599347,0,0,6,4,3,5,0,NaN,vertical,vertical,vertical,vertical,vertical,none
1a,17,100169,2,53,117,22,F,NA,variable,heterogeneous,5,absent,1.03192400932312,1,vertical,vertical,1,0.858815908432007,red,4,NaN,700.363562235235,365.271262369628,NaN,NaN,742.637481142314,848.464366520235,1018.57766167904,731.334709102064,992.450942956807,432.704947607421,700.363562235235,365.271262369628,545.970351986605,622.224714400653,0,0,3,6,0,4,0,NaN,vertical,horizontal,horizontal,vertical,horizontal,none
1a,17,100169,2,54,118,22,F,NA,variable,heterogeneous,3,absent,1.05350303649902,1,horizontal,horizontal,1,0.847051548957825,red,1,NaN,593.700666434388,749.885239334581,NaN,NaN,593.700666434388,749.885239334581,1032.95409169886,703.717843984329,773.345241866748,346.39691668109,0,0,0,0,0,0,4,0,3,NaN,NaN,NaN,horizontal,vertical,vertical,none,none,none
1a,17,100169,2,55,119,22,F,NA,variable,heterogeneous,4,present,1.12545585632324,1,vertical,vertical,1,0.941166424751282,green,4,3,604.658667004661,763.910840470068,636.089159529932,404.658667004661,963.910840470068,795.341332995339,995.341332995339,436.089159529932,636.089159529932,404.658667004661,604.658667004661,763.910840470068,0,0,0,0,3,5,0,4,NaN,NaN,horizontal,horizontal,vertical,vertical,none,none
1a,17,100169,2,56,120,22,F,NA,variable,heterogeneous,6,present,NaN,0,horizontal,none,0,0.9294020652771,green,1,5,865.998856501143,846.311085703712,553.688914296288,534.001143498857,865.998856501143,846.311085703712,1046.31108570371,665.998856501143,980.31222920257,419.68777079743,734.001143498857,353.688914296288,553.688914296288,534.001143498857,619.68777079743,780.31222920257,4,0,3,3,5,6,horizontal,horizontal,horizontal,horizontal,horizontal,vertical
1a,17,100169,2,57,121,22,F,NA,variable,heterogeneous,4,present,1.17270302772522,1,vertical,vertical,1,0.882344627380371,red,1,4,729.712474266665,845.121732464271,554.878267535729,529.712474266665,729.712474266665,845.121732464271,1045.12173246427,670.287525733335,870.287525733335,354.878267535729,554.878267535729,529.712474266665,0,0,0,0,4,0,3,3,NaN,NaN,vertical,horizontal,horizontal,vertical,none,none
1a,17,100169,2,58,122,22,F,NA,variable,heterogeneous,6,absent,1.1378960609436,1,vertical,vertical,1,1.08233873844147,green,5,NaN,572.793336331966,484.232422566416,NaN,NaN,813.345668841951,854.650531362416,1027.20666366803,715.767577433584,1013.86099482608,461.117046071168,786.654331158049,345.349468637584,572.793336331966,484.232422566416,586.139005173917,738.882953928832,0,6,5,6,4,0,vertical,horizontal,vertical,vertical,vertical,vertical
1a,17,100169,2,59,123,22,F,NA,variable,heterogeneous,4,absent,1.78312015533447,1,horizontal,horizontal,1,0.917637705802917,green,3,NaN,704.475318678942,363.568117085469,NaN,NaN,895.524681321058,836.431882914531,1036.43188291453,504.475318678942,704.475318678942,363.568117085469,563.568117085469,695.524681321058,0,0,0,0,5,3,4,0,NaN,NaN,vertical,horizontal,horizontal,vertical,none,none
1a,17,100169,2,60,124,22,F,NA,variable,heterogeneous,3,present,1.30354690551758,1,vertical,vertical,1,0.835287189483643,red,2,1,1052.5183575291,564.510859255183,704.475318678942,836.431882914531,704.475318678942,836.431882914531,1052.5183575291,564.510859255183,643.006323791957,399.057257830286,0,0,0,0,0,0,5,4,3,NaN,NaN,NaN,vertical,vertical,vertical,none,none,none
1a,17,100169,2,61,125,22,F,NA,variable,heterogeneous,6,absent,1.55778098106384,1,vertical,vertical,1,0.6,green,2,NaN,1020.83647796503,727.5,NaN,NaN,800,855,1020.83647796503,727.5,1020.83647796503,472.5,800,345,579.163522034968,472.5,579.163522034968,727.5,5,4,6,3,5,3,vertical,vertical,vertical,horizontal,horizontal,horizontal
1a,17,100169,2,62,126,22,F,NA,variable,heterogeneous,5,absent,1.41011309623718,1,vertical,vertical,1,1.04704566001892,green,3,NaN,1016.25226451989,464.870587620533,NaN,NaN,704.475318678942,836.431882914531,995.341332995339,763.910840470068,1016.25226451989,464.870587620533,738.309916622085,352.574589799621,545.621167183745,582.212099195248,0,0,5,6,4,0,6,NaN,vertical,vertical,vertical,vertical,vertical,none
1a,17,100169,2,63,127,22,F,NA,variable,heterogeneous,4,absent,1.56683993339539,1,horizontal,horizontal,1,0.623528718948364,red,1,NaN,668.665290897936,818.577661679039,NaN,NaN,668.665290897936,818.577661679039,1018.57766167904,731.334709102064,931.334709102064,381.422338320961,581.422338320961,468.665290897936,0,0,0,0,4,6,5,3,NaN,NaN,horizontal,vertical,vertical,horizontal,none,none
1a,17,100169,2,64,128,22,F,NA,variable,heterogeneous,5,absent,1.17524790763855,1,horizontal,horizontal,1,0.847051548957825,red,4,NaN,586.139005173917,461.117046071168,NaN,NaN,891.383827134052,838.063008756786,1054.65053136242,586.654331158049,865.998856501143,353.688914296288,586.139005173917,461.117046071168,601.827779828472,760.476699717708,0,0,0,6,0,4,5,NaN,horizontal,vertical,vertical,horizontal,vertical,none
1a,17,100169,3,1,129,22,F,NA,variable,heterogeneous,5,present,1.11371111869812,1,vertical,vertical,1,0.694114875793457,red,2,1,956.993676208043,800.942742169714,657.405809614959,811.404581001536,657.405809614959,811.404581001536,956.993676208043,800.942742169714,1039.62161830041,512.784863451954,791.100628340862,345.155339110131,554.878267535729,529.712474266665,0,0,6,4,0,5,3,NaN,vertical,vertical,horizontal,vertical,horizontal,none
1a,17,100169,3,2,130,22,F,NA,variable,heterogeneous,3,absent,0.792683839797974,1,vertical,vertical,1,1.03528130054474,red,1,NaN,883.019879386575,841.107236777826,NaN,NaN,883.019879386575,841.107236777826,967.295052392579,407.549057043193,549.685068220846,551.343706178981,0,0,0,0,0,0,4,6,3,NaN,NaN,NaN,vertical,horizontal,horizontal,none,none,none
1a,17,100169,3,3,131,22,F,NA,variable,heterogeneous,3,absent,0.695499181747437,1,horizontal,horizontal,1,0.9294020652771,green,2,NaN,870.287525733335,354.878267535729,NaN,NaN,977.137884467044,783.431649086356,870.287525733335,354.878267535729,552.574589799621,661.690083377915,0,0,0,0,0,0,0,4,3,NaN,NaN,NaN,vertical,horizontal,horizontal,none,none,none
1a,17,100169,3,4,132,22,F,NA,variable,heterogeneous,3,absent,1.03351807594299,1,vertical,vertical,1,1.01175258159637,red,2,NaN,919.715248510402,374.848363820974,NaN,NaN,935.129412379467,816.252264519889,919.715248510402,374.848363820974,545.155339110131,608.899371659138,0,0,0,0,0,0,5,4,3,NaN,NaN,NaN,horizontal,vertical,horizontal,none,none,none
1a,17,100169,3,5,133,22,F,NA,variable,heterogeneous,5,present,1.3567202091217,1,horizontal,horizontal,1,0.694114875793457,green,2,1,1054.37883281626,617.787900804752,861.690083377915,847.425410200379,861.690083377915,847.425410200379,1054.37883281626,617.787900804752,895.524681321058,363.568117085469,604.658667004661,436.089159529932,583.747735480111,735.129412379467,0,0,5,4,5,3,6,NaN,horizontal,horizontal,horizontal,horizontal,horizontal,none
1a,17,100169,3,6,134,22,F,NA,variable,heterogeneous,3,absent,1.31438088417053,1,horizontal,horizontal,1,0.917637705802917,red,1,NaN,967.295052392579,792.450942956807,NaN,NaN,967.295052392579,792.450942956807,883.019879386575,358.892763222174,549.685068220846,648.656293821019,0,0,0,0,0,0,4,6,5,NaN,NaN,NaN,horizontal,vertical,vertical,none,none,none
1a,17,100169,3,7,135,22,F,NA,variable,heterogeneous,4,absent,0.783623933792114,1,horizontal,horizontal,1,0.941166424751282,green,4,NaN,593.700666434388,450.114760665419,NaN,NaN,650.114760665419,806.299333565612,1006.29933356561,749.885239334581,949.885239334581,393.700666434388,593.700666434388,450.114760665419,0,0,0,0,3,0,0,4,NaN,NaN,vertical,vertical,horizontal,horizontal,none,none
1a,17,100169,3,8,136,22,F,NA,variable,heterogeneous,6,present,0.935333967208862,1,vertical,vertical,1,1.01175258159637,red,4,5,795.549636358493,345.03883773512,576.971974679454,476.373546837184,804.450363641507,854.96116226488,1023.02802532055,723.626453162816,1018.57766167904,468.665290897936,795.549636358493,345.03883773512,576.971974679454,476.373546837184,581.422338320961,731.334709102064,5,3,5,4,6,6,horizontal,horizontal,horizontal,vertical,horizontal,horizontal
1a,17,100169,3,9,137,22,F,NA,variable,heterogeneous,5,absent,1.49281883239746,1,horizontal,horizontal,1,0.917637705802917,red,1,NaN,865.998856501143,846.311085703712,NaN,NaN,865.998856501143,846.311085703712,1054.65053136242,613.345668841951,891.383827134052,361.936991243214,601.827779828472,439.523300282291,586.139005173917,738.882953928832,0,0,4,6,3,3,5,NaN,horizontal,horizontal,vertical,vertical,horizontal,none
1a,17,100169,3,10,138,22,F,NA,variable,heterogeneous,4,present,1.12444305419922,1,vertical,vertical,1,1.07057437896729,red,1,3,927.5,820.836477965032,672.5,379.163522034968,927.5,820.836477965032,1020.83647796503,472.5,672.5,379.163522034968,579.163522034968,727.5,0,0,0,0,4,5,0,6,NaN,NaN,vertical,vertical,vertical,horizontal,none,none
1a,17,100169,3,11,139,22,F,NA,variable,heterogeneous,6,absent,1.77135396003723,1,horizontal,horizontal,1,0.623528718948364,red,3,NaN,983.431649086356,422.862115532956,NaN,NaN,861.690083377915,847.425410200379,1045.12173246427,670.287525733335,983.431649086356,422.862115532956,738.309916622085,352.574589799621,554.878267535729,529.712474266665,616.568350913644,777.137884467044,0,3,4,0,5,6,vertical,vertical,horizontal,vertical,vertical,horizontal
1a,17,100169,3,12,140,22,F,NA,variable,heterogeneous,5,absent,0.966420888900757,1,vertical,vertical,1,0.964695143699646,red,3,NaN,1036.43188291453,504.475318678942,NaN,NaN,664.870587620533,816.252264519889,963.910840470068,795.341332995339,1036.43188291453,504.475318678942,782.212099195248,345.621167183745,552.574589799621,538.309916622085,0,0,3,6,4,5,3,NaN,vertical,vertical,vertical,vertical,horizontal,none
1a,17,100169,3,13,141,22,F,NA,variable,heterogeneous,3,absent,1.05864906311035,1,horizontal,horizontal,1,0.835287189483643,red,1,NaN,721.200666434388,842.519411655264,NaN,NaN,721.200666434388,842.519411655264,1049.42763818712,546.982518841471,629.371695378491,410.498069503264,0,0,0,0,0,0,4,5,0,NaN,NaN,NaN,horizontal,horizontal,vertical,none,none,none
1a,17,100169,3,14,142,22,F,NA,variable,heterogeneous,6,present,1.19510006904602,1,horizontal,horizontal,1,0.752936673164368,green,4,3,729.712474266665,354.878267535729,977.137884467044,416.568350913644,870.287525733335,845.121732464271,1047.42541020038,661.690083377915,977.137884467044,416.568350913644,729.712474266665,354.878267535729,552.574589799621,538.309916622085,622.862115532956,783.431649086356,0,0,3,4,3,6,vertical,horizontal,vertical,horizontal,vertical,vertical
1a,17,100169,3,15,143,22,F,NA,variable,heterogeneous,6,absent,1.450758934021,1,vertical,vertical,1,0.776465392112732,green,4,NaN,817.787900804752,345.621167183745,NaN,NaN,782.212099195248,854.378832816255,1011.40458100154,742.594190385041,1029.19248180629,488.215357568785,817.787900804752,345.621167183745,588.595418998464,457.40580961496,570.807518193712,711.784642431215,0,3,6,4,6,0,horizontal,horizontal,horizontal,vertical,vertical,vertical
1a,17,100169,3,16,144,22,F,NA,variable,heterogeneous,5,present,1.88037014007568,1,vertical,vertical,1,0.82352283000946,green,4,3,725.445215295702,356.142287229426,1008.88377129369,453.738008730483,716.980120613425,841.107236777826,1003.65205506206,753.462830903772,1008.88377129369,453.738008730483,725.445215295702,356.142287229426,545.03883773512,595.549636358493,0,0,5,0,6,4,5,NaN,vertical,horizontal,vertical,vertical,vertical,none
1a,17,100169,3,17,145,22,F,NA,variable,heterogeneous,3,absent,1.65837907791138,1,horizontal,horizontal,1,0.611764359474182,green,1,NaN,804.450363641507,854.96116226488,NaN,NaN,804.450363641507,854.96116226488,1018.57766167904,468.665290897936,576.971974679454,476.373546837184,0,0,0,0,0,0,4,5,6,NaN,NaN,NaN,horizontal,vertical,vertical,none,none,none
1a,17,100169,3,18,146,22,F,NA,variable,heterogeneous,3,present,1.48802709579468,1,horizontal,horizontal,1,0.811758470535278,red,3,2,567.045908301137,703.717843984329,826.654758133252,346.39691668109,1006.29933356561,749.885239334581,826.654758133252,346.39691668109,567.045908301137,703.717843984329,0,0,0,0,0,0,0,3,4,NaN,NaN,NaN,horizontal,vertical,horizontal,none,none,none
1a,17,100169,3,19,147,22,F,NA,variable,heterogeneous,4,absent,1.31243205070496,1,horizontal,horizontal,1,0.9294020652771,green,1,NaN,622.862115532956,783.431649086356,NaN,NaN,622.862115532956,783.431649086356,983.431649086356,777.137884467044,977.137884467044,416.568350913644,616.568350913644,422.862115532956,0,0,0,0,4,6,0,3,NaN,NaN,horizontal,horizontal,vertical,horizontal,none,none
1a,17,100169,3,20,148,22,F,NA,variable,heterogeneous,6,absent,1.98966789245605,1,vertical,vertical,1,0.941166424751282,green,4,NaN,870.287525733335,354.878267535729,NaN,NaN,729.712474266665,845.121732464271,977.137884467044,783.431649086356,1047.42541020038,538.309916622085,870.287525733335,354.878267535729,622.862115532956,416.568350913644,552.574589799621,661.690083377915,6,3,3,4,0,5,horizontal,vertical,vertical,vertical,horizontal,vertical
1a,17,100169,3,21,149,22,F,NA,variable,heterogeneous,6,present,1.18234181404114,1,vertical,vertical,1,0.623528718948364,red,3,4,1027.20666366803,484.232422566416,813.345668841951,345.349468637584,786.654331158049,854.650531362416,1013.86099482608,738.882953928832,1027.20666366803,484.232422566416,813.345668841951,345.349468637584,586.139005173917,461.117046071168,572.793336331966,715.767577433584,0,3,4,6,5,6,horizontal,horizontal,vertical,horizontal,vertical,vertical
1a,17,100169,3,22,150,22,F,NA,variable,heterogeneous,4,absent,1.01990103721619,1,vertical,vertical,1,0.694114875793457,red,3,NaN,786.654331158049,345.349468637584,NaN,NaN,813.345668841951,854.650531362416,1054.65053136242,586.654331158049,786.654331158049,345.349468637584,545.349468637584,613.345668841951,0,0,0,0,6,5,4,6,NaN,NaN,vertical,horizontal,vertical,horizontal,none,none
1a,17,100169,3,23,151,22,F,NA,variable,heterogeneous,4,absent,0.985144138336182,0,horizontal,vertical,1,1.03528130054474,red,2,NaN,1053.09926866854,631.076682568313,NaN,NaN,768.923317431687,853.099268668537,1053.09926866854,631.076682568313,831.076682568313,346.900731331463,546.900731331463,568.923317431687,0,0,0,0,0,4,0,6,NaN,NaN,vertical,horizontal,horizontal,vertical,none,none
1a,17,100169,3,24,152,22,F,NA,variable,heterogeneous,4,absent,1.11037707328796,1,horizontal,horizontal,1,0.670586156845093,red,2,NaN,1018.57766167904,468.665290897936,NaN,NaN,931.334709102064,818.577661679039,1018.57766167904,468.665290897936,668.665290897936,381.422338320961,581.422338320961,731.334709102064,0,0,0,0,0,4,5,5,NaN,NaN,horizontal,horizontal,vertical,horizontal,none,none
1a,17,100169,3,25,153,22,F,NA,variable,heterogeneous,3,present,0.862354040145874,1,vertical,vertical,1,0.882344627380371,red,3,1,613.504806087112,426.090418184063,742.637481142314,848.464366520235,742.637481142314,848.464366520235,1043.85771277057,525.445215295702,613.504806087112,426.090418184063,0,0,0,0,0,0,5,3,4,NaN,NaN,NaN,vertical,horizontal,vertical,none,none,none
1a,17,100169,3,26,154,22,F,NA,variable,heterogeneous,4,present,1.21832513809204,1,vertical,vertical,1,0.717643594741821,green,1,3,826.654758133252,853.60308331891,773.345241866748,346.39691668109,826.654758133252,853.60308331891,1053.60308331891,573.345241866748,773.345241866748,346.39691668109,546.39691668109,626.654758133252,0,0,0,0,4,3,6,0,NaN,NaN,vertical,horizontal,vertical,horizontal,none,none
1a,17,100169,3,27,155,22,F,NA,variable,heterogeneous,5,present,0.659629106521606,1,horizontal,horizontal,1,0.847051548957825,green,5,4,557.480588344736,521.200666434388,800,345,650.114760665419,806.299333565612,949.885239334581,806.299333565612,1042.51941165526,521.200666434388,800,345,557.480588344736,521.200666434388,0,0,0,5,3,6,4,NaN,horizontal,vertical,horizontal,vertical,horizontal,none
1a,17,100169,3,28,156,22,F,NA,variable,heterogeneous,4,absent,0.947092056274414,1,vertical,vertical,1,0.705879235267639,green,1,NaN,626.090418184063,786.495193912888,NaN,NaN,626.090418184063,786.495193912888,986.495193912888,773.909581815937,973.909581815937,413.504806087112,613.504806087112,426.090418184063,0,0,0,0,4,6,0,6,NaN,NaN,vertical,vertical,vertical,horizontal,none,none
1a,17,100169,3,29,157,22,F,NA,variable,heterogeneous,3,present,0.909086942672729,0,horizontal,vertical,1,0.741172313690186,green,2,1,1054.37883281626,617.787900804752,657.405809614959,811.404581001536,657.405809614959,811.404581001536,1054.37883281626,617.787900804752,688.215357568785,370.807518193712,0,0,0,0,0,0,5,4,3,NaN,NaN,NaN,vertical,horizontal,vertical,none,none,none
1a,17,100169,3,30,158,22,F,NA,variable,heterogeneous,4,present,1.1260199546814,1,vertical,vertical,1,0.729407954216003,green,1,3,977.137884467044,783.431649086356,622.862115532956,416.568350913644,977.137884467044,783.431649086356,983.431649086356,422.862115532956,622.862115532956,416.568350913644,616.568350913644,777.137884467044,0,0,0,0,4,6,3,5,NaN,NaN,vertical,horizontal,horizontal,horizontal,none,none
1a,17,100169,3,31,159,22,F,NA,variable,heterogeneous,4,present,0.600913047790527,1,horizontal,horizontal,1,0.611764359474182,green,4,3,547.481642470899,635.489140744817,764.510859255183,347.4816424709,835.489140744817,852.518357529101,1052.5183575291,564.510859255183,764.510859255183,347.4816424709,547.481642470899,635.489140744817,0,0,0,0,6,3,0,4,NaN,NaN,horizontal,horizontal,vertical,horizontal,none,none
1a,17,100169,3,32,160,22,F,NA,variable,heterogeneous,4,present,1.36611890792847,1,vertical,vertical,1,1.04704566001892,red,4,2,604.658667004661,436.089159529932,995.341332995339,763.910840470068,636.089159529932,795.341332995339,995.341332995339,763.910840470068,963.910840470068,404.658667004661,604.658667004661,436.089159529932,0,0,0,0,3,5,5,4,NaN,NaN,horizontal,vertical,vertical,vertical,none,none
1a,17,100169,3,33,161,22,F,NA,variable,heterogeneous,6,absent,1.88334512710571,1,horizontal,horizontal,1,1.08233873844147,green,1,NaN,835.489140744817,852.518357529101,NaN,NaN,835.489140744817,852.518357529101,1036.43188291453,695.524681321058,1000.94274216971,443.006323791957,764.510859255183,347.4816424709,563.568117085469,504.475318678942,599.057257830286,756.993676208043,4,5,6,0,6,0,horizontal,horizontal,vertical,horizontal,vertical,vertical
1a,17,100169,3,34,162,22,F,NA,variable,heterogeneous,5,present,NaN,0,vertical,none,0,0.670586156845093,red,2,3,1054.96116226488,595.549636358493,874.554784704298,356.142287229426,883.019879386575,841.107236777826,1054.96116226488,595.549636358493,874.554784704298,356.142287229426,591.116228706307,453.738008730483,596.34794493794,753.462830903772,0,0,0,4,6,5,3,NaN,vertical,vertical,horizontal,horizontal,vertical,none
1a,17,100169,3,35,163,22,F,NA,variable,heterogeneous,5,absent,1.10236501693726,1,vertical,vertical,1,0.964695143699646,red,5,NaN,588.595418998464,742.594190385041,NaN,NaN,870.287525733335,845.121732464271,1054.84466088987,608.899371659138,887.215136548046,360.378381699593,599.057257830286,443.006323791957,588.595418998464,742.594190385041,0,0,6,0,5,6,4,NaN,horizontal,horizontal,horizontal,vertical,vertical,none
1a,17,100169,3,36,164,22,F,NA,variable,heterogeneous,3,present,0.746596813201904,1,vertical,vertical,1,0.905873346328735,green,1,2,629.371695378491,789.501930496736,1049.42763818712,653.017481158529,629.371695378491,789.501930496736,1049.42763818712,653.017481158529,721.200666434388,357.480588344736,0,0,0,0,0,0,4,0,6,NaN,NaN,NaN,vertical,vertical,horizontal,none,none,none
1a,17,100169,3,37,165,22,F,NA,variable,heterogeneous,5,present,1.55419707298279,1,vertical,vertical,1,0.82352283000946,green,4,2,708.616172865948,361.936991243214,1013.86099482608,738.882953928832,734.001143498857,846.311085703712,1013.86099482608,738.882953928832,998.172220171528,439.523300282291,708.616172865948,361.936991243214,545.349468637584,613.345668841951,0,0,0,5,6,4,3,NaN,horizontal,vertical,horizontal,vertical,vertical,none
1a,17,100169,3,38,166,22,F,NA,variable,heterogeneous,6,present,1.07035994529724,1,vertical,vertical,1,0.847051548957825,green,2,5,1046.31108570371,665.998856501143,553.688914296288,534.001143498857,865.998856501143,846.311085703712,1046.31108570371,665.998856501143,980.31222920257,419.68777079743,734.001143498857,353.688914296288,553.688914296288,534.001143498857,619.68777079743,780.31222920257,3,4,5,0,6,0,vertical,vertical,vertical,horizontal,horizontal,vertical
1a,17,100169,3,39,167,22,F,NA,variable,heterogeneous,4,present,1.36366891860962,1,horizontal,horizontal,1,0.976459503173828,red,4,2,553.688914296288,665.998856501143,1046.31108570371,534.001143498857,865.998856501143,846.311085703712,1046.31108570371,534.001143498857,734.001143498857,353.688914296288,553.688914296288,665.998856501143,0,0,0,0,6,5,6,4,NaN,NaN,vertical,vertical,vertical,horizontal,none,none
1a,17,100169,3,40,168,22,F,NA,variable,heterogeneous,4,present,1.18780398368835,1,horizontal,horizontal,1,1.02351694107056,red,2,4,1046.31108570371,534.001143498857,553.688914296288,665.998856501143,865.998856501143,846.311085703712,1046.31108570371,534.001143498857,734.001143498857,353.688914296288,553.688914296288,665.998856501143,0,0,0,0,0,4,5,3,NaN,NaN,horizontal,horizontal,vertical,vertical,none,none
1a,17,100169,3,41,169,22,F,NA,variable,heterogeneous,3,present,0.80885910987854,1,horizontal,horizontal,1,0.858815908432007,red,3,2,567.045908301137,496.282156015671,1006.29933356561,450.114760665419,826.654758133252,853.60308331891,1006.29933356561,450.114760665419,567.045908301137,496.282156015671,0,0,0,0,0,0,5,0,4,NaN,NaN,NaN,horizontal,vertical,horizontal,none,none,none
1a,17,100169,3,42,170,22,F,NA,variable,heterogeneous,6,absent,0.945036172866821,1,horizontal,horizontal,1,0.98822386264801,green,2,NaN,1055,600,NaN,NaN,927.5,820.836477965032,1055,600,927.5,379.163522034968,672.5,379.163522034968,545,600,672.5,820.836477965032,5,4,0,3,0,6,horizontal,horizontal,vertical,horizontal,vertical,vertical
1a,17,100169,3,43,171,22,F,NA,variable,heterogeneous,4,present,0.707267045974731,1,horizontal,horizontal,1,0.76470103263855,green,2,4,1049.42763818712,546.982518841471,550.57236181288,653.017481158529,853.017481158529,849.42763818712,1049.42763818712,546.982518841471,746.982518841471,350.57236181288,550.57236181288,653.017481158529,0,0,0,0,6,4,5,3,NaN,NaN,vertical,horizontal,vertical,horizontal,none,none
1a,17,100169,3,44,172,22,F,NA,variable,heterogeneous,6,absent,1.04853415489197,1,vertical,vertical,1,0.741172313690186,red,2,NaN,1006.29933356561,749.885239334581,NaN,NaN,773.345241866748,853.60308331891,1006.29933356561,749.885239334581,1032.95409169886,496.282156015671,826.654758133252,346.39691668109,593.700666434388,450.114760665419,567.045908301137,703.717843984329,6,4,6,0,5,3,vertical,vertical,horizontal,vertical,horizontal,vertical
1a,17,100169,3,45,173,22,F,NA,variable,heterogeneous,3,present,1.10138702392578,1,horizontal,horizontal,1,0.776465392112732,green,2,3,903.717843984329,367.045908301137,546.39691668109,626.654758133252,949.885239334581,806.299333565612,903.717843984329,367.045908301137,546.39691668109,626.654758133252,0,0,0,0,0,0,3,4,0,NaN,NaN,NaN,vertical,horizontal,vertical,none,none,none
1a,17,100169,3,46,174,22,F,NA,variable,heterogeneous,3,present,0.699609994888306,1,vertical,vertical,1,0.999988222122192,green,2,3,911.784642431215,370.807518193712,545.621167183745,617.787900804752,942.594190385041,811.404581001536,911.784642431215,370.807518193712,545.621167183745,617.787900804752,0,0,0,0,0,0,6,4,3,NaN,NaN,NaN,horizontal,vertical,vertical,none,none,none
1a,17,100169,3,47,175,22,F,NA,variable,heterogeneous,5,absent,1.28524303436279,1,vertical,vertical,1,0.788229751586914,green,5,NaN,629.371695378491,789.501930496736,NaN,NaN,927.5,820.836477965032,1049.42763818712,546.982518841471,826.654758133252,346.39691668109,567.045908301137,496.282156015671,629.371695378491,789.501930496736,0,0,5,3,3,6,4,NaN,horizontal,vertical,vertical,horizontal,vertical,none
1a,17,100169,3,48,176,22,F,NA,variable,heterogeneous,5,absent,1.45989012718201,1,horizontal,horizontal,1,0.835287189483643,red,5,NaN,545.621167183745,582.212099195248,NaN,NaN,704.475318678942,836.431882914531,995.341332995339,763.910840470068,1016.25226451989,464.870587620533,738.309916622085,352.574589799621,545.621167183745,582.212099195248,0,0,0,6,3,3,4,NaN,vertical,horizontal,vertical,horizontal,horizontal,none
1a,17,100169,3,49,177,22,F,NA,variable,heterogeneous,3,absent,0.942763805389404,1,vertical,vertical,1,0.670586156845093,green,3,NaN,629.371695378491,410.498069503264,NaN,NaN,721.200666434388,842.519411655264,1049.42763818712,546.982518841471,629.371695378491,410.498069503264,0,0,0,0,0,0,3,0,4,NaN,NaN,NaN,vertical,vertical,vertical,none,none,none
1a,17,100169,3,50,178,22,F,NA,variable,heterogeneous,5,present,1.35609006881714,1,horizontal,horizontal,1,0.705879235267639,red,2,3,1041.10723677783,683.019879386575,953.462830903772,396.34794493794,795.549636358493,854.96116226488,1041.10723677783,683.019879386575,953.462830903772,396.34794493794,653.738008730483,391.116228706307,556.142287229426,674.554784704298,0,0,5,4,3,5,0,NaN,horizontal,horizontal,horizontal,vertical,horizontal,none
1a,17,100169,3,51,179,22,F,NA,variable,heterogeneous,6,absent,1.32071304321289,1,horizontal,horizontal,1,0.870580267906189,red,3,NaN,953.462830903772,396.34794493794,NaN,NaN,899.636437764765,834.728737630372,1053.09926866854,631.076682568313,953.462830903772,396.34794493794,700.363562235235,365.271262369628,546.900731331463,568.923317431687,646.537169096228,803.65205506206,6,3,4,0,3,5,horizontal,horizontal,horizontal,vertical,vertical,horizontal
1a,17,100169,3,52,180,22,F,NA,variable,heterogeneous,6,absent,1.10242486000061,1,vertical,vertical,1,0.752936673164368,red,4,NaN,760.109211414741,348.13947314824,NaN,NaN,839.890788585259,851.86052685176,1038.06300875679,691.383827134052,998.172220171528,439.523300282291,760.109211414741,348.13947314824,561.936991243214,508.616172865948,601.827779828472,760.476699717708,0,0,3,4,5,5,horizontal,vertical,horizontal,vertical,horizontal,horizontal
1a,17,100169,3,53,181,22,F,NA,variable,heterogeneous,5,absent,0.929751873016357,1,horizontal,horizontal,1,1.0588100194931,green,4,NaN,708.616172865948,361.936991243214,NaN,NaN,734.001143498857,846.311085703712,1013.86099482608,738.882953928832,998.172220171528,439.523300282291,708.616172865948,361.936991243214,545.349468637584,613.345668841951,0,0,5,3,6,4,3,NaN,horizontal,vertical,horizontal,horizontal,horizontal,none
1a,17,100169,3,54,182,22,F,NA,variable,heterogeneous,3,present,1.11860799789429,1,vertical,vertical,1,0.694114875793457,red,3,2,552.574589799621,661.690083377915,870.287525733335,354.878267535729,977.137884467044,783.431649086356,870.287525733335,354.878267535729,552.574589799621,661.690083377915,0,0,0,0,0,0,3,6,4,NaN,NaN,NaN,horizontal,horizontal,vertical,none,none,none
1a,17,100169,3,55,183,22,F,NA,variable,heterogeneous,5,absent,NaN,0,horizontal,none,0,1.09410309791565,green,2,NaN,970.628304621509,789.501930496736,NaN,NaN,672.5,820.836477965032,970.628304621509,789.501930496736,1032.95409169886,496.282156015671,773.345241866748,346.39691668109,550.57236181288,546.982518841471,0,0,5,4,0,3,3,NaN,vertical,horizontal,vertical,horizontal,vertical,none
1a,17,100169,3,56,184,22,F,NA,variable,heterogeneous,6,present,1.09975910186768,1,horizontal,horizontal,1,1.02351694107056,green,6,3,548.874022981887,644.280285305067,1051.12597701811,555.719714694933,712.784863451954,839.621618300407,963.910840470068,795.341332995339,1051.12597701811,555.719714694933,887.215136548046,360.378381699593,636.089159529932,404.658667004661,548.874022981887,644.280285305067,5,0,5,3,3,4,horizontal,vertical,vertical,vertical,vertical,horizontal
1a,17,100169,3,57,185,22,F,NA,variable,heterogeneous,3,absent,1.10491991043091,1,vertical,vertical,1,0.952930784225464,green,3,NaN,751.343706178981,349.685068220846,NaN,NaN,607.549057043193,767.295052392579,1041.10723677783,683.019879386575,751.343706178981,349.685068220846,0,0,0,0,0,0,5,6,4,NaN,NaN,NaN,horizontal,horizontal,vertical,none,none,none
1a,17,100169,3,58,186,22,F,NA,variable,heterogeneous,4,absent,1.38876390457153,1,vertical,vertical,1,1.07057437896729,green,1,NaN,716.980120613425,841.107236777826,NaN,NaN,716.980120613425,841.107236777826,1041.10723677783,683.019879386575,883.019879386575,358.892763222174,558.892763222174,516.980120613425,0,0,0,0,4,0,0,5,NaN,NaN,vertical,vertical,vertical,horizontal,none,none
1a,17,100169,3,59,187,22,F,NA,variable,heterogeneous,5,present,1.45256090164185,1,horizontal,horizontal,1,0.999988222122192,red,1,5,831.076682568313,853.099268668537,568.891514305654,707.767656743878,831.076682568313,853.099268668537,1050.31493177915,648.656293821019,923.626453162816,376.971974679454,626.090418184063,413.504806087112,568.891514305654,707.767656743878,0,0,4,0,6,3,5,NaN,horizontal,vertical,vertical,vertical,horizontal,none
1a,17,100169,3,60,188,22,F,NA,variable,heterogeneous,6,present,NaN,0,vertical,none,0,1.08233873844147,green,2,4,946.261991269517,808.883771293693,907.767656743878,368.891514305654,692.232343256122,831.108485694346,946.261991269517,808.883771293693,1054.0296480134,577.775285599347,907.767656743878,368.891514305654,653.738008730483,391.116228706307,545.970351986605,622.224714400653,5,4,3,6,5,6,vertical,vertical,vertical,vertical,horizontal,vertical
1a,17,100169,3,61,189,22,F,NA,variable,heterogeneous,4,absent,0.993576049804688,1,vertical,vertical,1,0.882344627380371,red,3,NaN,700.363562235235,365.271262369628,NaN,NaN,899.636437764765,834.728737630372,1034.72873763037,500.363562235235,700.363562235235,365.271262369628,565.271262369628,699.636437764765,0,0,0,0,5,6,4,3,NaN,NaN,vertical,vertical,vertical,vertical,none,none
1a,17,100169,3,62,190,22,F,NA,variable,heterogeneous,5,absent,0.867024898529053,1,vertical,vertical,1,0.870580267906189,green,3,NaN,844.280285305067,348.874022981887,NaN,NaN,911.784642431215,829.192481806288,1052.5183575291,564.510859255183,844.280285305067,348.874022981887,574.848363820974,480.284751489598,616.568350913644,777.137884467044,0,0,6,5,4,6,5,NaN,vertical,vertical,vertical,vertical,vertical,none
1a,17,100169,3,63,191,22,F,NA,variable,heterogeneous,6,present,1.07100200653076,1,horizontal,horizontal,1,0.917637705802917,red,5,3,613.504806087112,426.090418184063,1043.85771277057,525.445215295702,742.637481142314,848.464366520235,986.495193912888,773.909581815937,1043.85771277057,525.445215295702,857.362518857686,351.535633479765,613.504806087112,426.090418184063,556.142287229426,674.554784704298,0,5,5,6,4,0,vertical,vertical,vertical,horizontal,horizontal,vertical
1a,17,100169,3,64,192,22,F,NA,variable,heterogeneous,6,present,1.17435002326965,1,horizontal,horizontal,1,0.894108986854553,red,1,6,688.215357568785,829.192481806288,545.621167183745,617.787900804752,688.215357568785,829.192481806288,942.594190385041,811.404581001536,1054.37883281626,582.212099195248,911.784642431215,370.807518193712,657.405809614959,388.595418998464,545.621167183745,617.787900804752,4,3,6,0,0,5,horizontal,vertical,horizontal,horizontal,horizontal,vertical
1a,17,100169,4,1,193,22,F,NA,variable,heterogeneous,6,absent,1.19396495819092,1,vertical,vertical,1,0.905873346328735,red,4,NaN,751.343706178981,349.685068220846,NaN,NaN,848.656293821019,850.314931779154,1041.10723677783,683.019879386575,992.450942956807,432.704947607421,751.343706178981,349.685068220846,558.892763222174,516.980120613425,607.549057043193,767.295052392579,6,3,5,4,5,0,horizontal,vertical,vertical,vertical,vertical,vertical
1a,17,100169,4,2,194,22,F,NA,variable,heterogeneous,5,present,0.850767135620117,1,horizontal,horizontal,1,0.623528718948364,red,4,5,668.665290897936,381.422338320961,551.535633479765,657.362518857686,777.775285599347,854.029648013395,1034.72873763037,699.636437764765,967.295052392579,407.549057043193,668.665290897936,381.422338320961,551.535633479765,657.362518857686,0,0,5,0,0,4,3,NaN,vertical,horizontal,horizontal,horizontal,horizontal,none
1a,17,100169,4,3,195,22,F,NA,variable,heterogeneous,5,absent,0.991753101348877,0,vertical,horizontal,1,0.776465392112732,red,5,NaN,604.658667004661,763.910840470068,NaN,NaN,895.524681321058,836.431882914531,1054.37883281626,582.212099195248,861.690083377915,352.574589799621,583.747735480111,464.870587620533,604.658667004661,763.910840470068,0,0,3,6,5,5,4,NaN,horizontal,horizontal,horizontal,vertical,vertical,none
1a,17,100169,4,4,196,22,F,NA,variable,heterogeneous,5,absent,1.82781505584717,0,horizontal,vertical,1,0.811758470535278,red,2,NaN,956.993676208043,800.942742169714,NaN,NaN,657.405809614959,811.404581001536,956.993676208043,800.942742169714,1039.62161830041,512.784863451954,791.100628340862,345.155339110131,554.878267535729,529.712474266665,0,0,3,4,6,3,5,NaN,vertical,horizontal,horizontal,vertical,vertical,none
1a,17,100169,4,5,197,22,F,NA,variable,heterogeneous,5,absent,1.77710604667664,1,horizontal,horizontal,1,0.623528718948364,green,2,NaN,1054.65053136242,613.345668841951,NaN,NaN,865.998856501143,846.311085703712,1054.65053136242,613.345668841951,891.383827134052,361.936991243214,601.827779828472,439.523300282291,586.139005173917,738.882953928832,0,0,3,4,5,6,3,NaN,vertical,horizontal,vertical,horizontal,vertical,none
1a,17,100169,4,6,198,22,F,NA,variable,heterogeneous,5,present,1.53798508644104,1,horizontal,horizontal,1,1.0588100194931,red,3,4,923.626453162816,376.971974679454,626.090418184063,413.504806087112,831.076682568313,853.099268668537,1050.31493177915,648.656293821019,923.626453162816,376.971974679454,626.090418184063,413.504806087112,568.891514305654,707.767656743878,0,0,6,3,4,6,0,NaN,horizontal,horizontal,horizontal,horizontal,horizontal,none
1a,17,100169,4,7,199,22,F,NA,variable,heterogeneous,3,absent,0.573925018310547,1,horizontal,horizontal,1,0.647057437896729,green,3,NaN,661.117046071168,386.139005173917,NaN,NaN,684.232422566416,827.206663668034,1054.65053136242,586.654331158049,661.117046071168,386.139005173917,0,0,0,0,0,0,5,3,4,NaN,NaN,NaN,horizontal,horizontal,horizontal,none,none,none
1a,17,100169,4,8,200,22,F,NA,variable,heterogeneous,4,present,0.859170913696289,1,vertical,vertical,1,0.882344627380371,green,1,3,657.405809614959,811.404581001536,942.594190385041,388.595418998464,657.405809614959,811.404581001536,1011.40458100154,742.594190385041,942.594190385041,388.595418998464,588.595418998464,457.40580961496,0,0,0,0,4,6,0,3,NaN,NaN,vertical,horizontal,horizontal,vertical,none,none
1a,17,100169,4,9,201,22,F,NA,variable,heterogeneous,6,absent,NaN,0,horizontal,none,0,0.905873346328735,red,1,NaN,861.690083377915,847.425410200379,NaN,NaN,861.690083377915,847.425410200379,1045.12173246427,670.287525733335,983.431649086356,422.862115532956,738.309916622085,352.574589799621,554.878267535729,529.712474266665,616.568350913644,777.137884467044,4,0,3,5,5,6,horizontal,vertical,horizontal,vertical,horizontal,vertical
1a,17,100169,4,10,202,22,F,NA,variable,heterogeneous,6,present,0.90569281578064,1,horizontal,horizontal,1,0.741172313690186,red,4,2,672.5,379.163522034968,1055,600,927.5,820.836477965032,1055,600,927.5,379.163522034968,672.5,379.163522034968,545,600,672.5,820.836477965032,0,6,3,4,5,6,vertical,vertical,vertical,horizontal,vertical,vertical
1a,17,100169,4,11,203,22,F,NA,variable,heterogeneous,3,absent,0.780847072601318,1,horizontal,horizontal,1,0.647057437896729,red,1,NaN,746.982518841471,849.42763818712,NaN,NaN,746.982518841471,849.42763818712,1042.51941165526,521.200666434388,610.498069503264,429.371695378491,0,0,0,0,0,0,4,0,6,NaN,NaN,NaN,horizontal,horizontal,vertical,none,none,none
1a,17,100169,4,12,204,22,F,NA,variable,heterogeneous,4,absent,0.995591878890991,1,vertical,vertical,1,0.941166424751282,red,2,NaN,1054.37883281626,582.212099195248,NaN,NaN,817.787900804752,854.378832816255,1054.37883281626,582.212099195248,782.212099195248,345.621167183745,545.621167183745,617.787900804752,0,0,0,0,3,4,0,3,NaN,NaN,horizontal,vertical,vertical,vertical,none,none
1a,17,100169,4,13,205,22,F,NA,variable,heterogeneous,3,absent,1.02092909812927,1,vertical,vertical,1,0.670586156845093,red,3,NaN,773.345241866748,346.39691668109,NaN,NaN,593.700666434388,749.885239334581,1032.95409169886,703.717843984329,773.345241866748,346.39691668109,0,0,0,0,0,0,3,3,4,NaN,NaN,NaN,vertical,horizontal,vertical,none,none,none
1a,17,100169,4,14,206,22,F,NA,variable,heterogeneous,6,present,1.00648283958435,1,vertical,vertical,1,0.847051548957825,green,6,5,664.870587620533,816.252264519889,545.155339110131,591.100628340862,919.715248510402,825.151636179026,1054.84466088987,608.899371659138,935.129412379467,383.747735480111,680.284751489598,374.848363820974,545.155339110131,591.100628340862,664.870587620533,816.252264519889,3,6,0,6,5,4,vertical,vertical,vertical,horizontal,horizontal,vertical
1a,17,100169,4,15,207,22,F,NA,variable,heterogeneous,3,present,0.880767107009888,1,vertical,vertical,1,0.905873346328735,red,1,3,661.117046071168,813.860994826083,684.232422566416,372.793336331966,661.117046071168,813.860994826083,1054.65053136242,613.345668841951,684.232422566416,372.793336331966,0,0,0,0,0,0,4,6,0,NaN,NaN,NaN,vertical,vertical,horizontal,none,none,none
1a,17,100169,4,16,208,22,F,NA,variable,heterogeneous,3,absent,1.3014760017395,0,horizontal,vertical,1,0.952930784225464,red,1,NaN,956.993676208043,800.942742169714,NaN,NaN,956.993676208043,800.942742169714,895.524681321058,363.568117085469,547.481642470899,635.489140744817,0,0,0,0,0,0,4,6,3,NaN,NaN,NaN,horizontal,vertical,horizontal,none,none,none
1a,17,100169,4,17,209,22,F,NA,variable,heterogeneous,5,present,1.23987817764282,1,vertical,vertical,1,0.811758470535278,red,1,5,738.309916622085,847.425410200379,545.621167183745,617.787900804752,738.309916622085,847.425410200379,1016.25226451989,735.129412379467,995.341332995339,436.089159529932,704.475318678942,363.568117085469,545.621167183745,617.787900804752,0,0,4,6,3,5,0,NaN,vertical,vertical,horizontal,vertical,vertical,none
1a,17,100169,4,18,210,22,F,NA,variable,heterogeneous,6,present,0.889956951141357,1,vertical,vertical,1,0.847051548957825,red,6,4,563.568117085469,695.524681321058,835.489140744817,347.4816424709,764.510859255183,852.518357529101,1000.94274216971,756.993676208043,1036.43188291453,504.475318678942,835.489140744817,347.4816424709,599.057257830286,443.006323791957,563.568117085469,695.524681321058,5,6,3,6,0,4,vertical,vertical,horizontal,vertical,horizontal,vertical
1a,17,100169,4,19,211,22,F,NA,variable,heterogeneous,4,present,0.628308057785034,0,horizontal,vertical,1,0.623528718948364,red,4,2,552.574589799621,661.690083377915,1047.42541020038,538.309916622085,861.690083377915,847.425410200379,1047.42541020038,538.309916622085,738.309916622085,352.574589799621,552.574589799621,661.690083377915,0,0,0,0,5,6,0,4,NaN,NaN,horizontal,horizontal,vertical,horizontal,none,none
1a,17,100169,4,20,212,22,F,NA,variable,heterogeneous,6,absent,0.950707912445068,1,vertical,vertical,1,1.08233873844147,red,2,NaN,1038.06300875679,691.383827134052,NaN,NaN,839.890788585259,851.86052685176,1038.06300875679,691.383827134052,998.172220171528,439.523300282291,760.109211414741,348.13947314824,561.936991243214,508.616172865948,601.827779828472,760.476699717708,3,4,5,3,0,6,horizontal,vertical,horizontal,horizontal,horizontal,horizontal
1a,17,100169,4,21,213,22,F,NA,variable,heterogeneous,5,absent,0.743795871734619,1,horizontal,horizontal,1,0.694114875793457,green,5,NaN,601.827779828472,760.476699717708,NaN,NaN,891.383827134052,838.063008756786,1054.65053136242,586.654331158049,865.998856501143,353.688914296288,586.139005173917,461.117046071168,601.827779828472,760.476699717708,0,0,6,5,3,3,4,NaN,vertical,vertical,horizontal,vertical,horizontal,none
1a,17,100169,4,22,214,22,F,NA,variable,heterogeneous,4,present,0.560594081878662,1,horizontal,horizontal,1,0.894108986854553,green,4,1,604.658667004661,763.910840470068,963.910840470068,795.341332995339,963.910840470068,795.341332995339,995.341332995339,436.089159529932,636.089159529932,404.658667004661,604.658667004661,763.910840470068,0,0,0,0,6,0,5,4,NaN,NaN,horizontal,horizontal,horizontal,horizontal,none,none
1a,17,100169,4,23,215,22,F,NA,variable,heterogeneous,4,absent,0.960196018218994,1,horizontal,horizontal,1,1.01175258159637,green,3,NaN,636.089159529932,404.658667004661,NaN,NaN,963.910840470068,795.341332995339,995.341332995339,436.089159529932,636.089159529932,404.658667004661,604.658667004661,763.910840470068,0,0,0,0,3,3,4,0,NaN,NaN,vertical,vertical,horizontal,vertical,none,none
1a,17,100169,4,24,216,22,F,NA,variable,heterogeneous,3,present,1.01245903968811,1,horizontal,horizontal,1,1.04704566001892,red,3,1,550.57236181288,653.017481158529,970.628304621509,789.501930496736,970.628304621509,789.501930496736,878.799333565612,357.480588344736,550.57236181288,653.017481158529,0,0,0,0,0,0,3,0,4,NaN,NaN,NaN,horizontal,horizontal,horizontal,none,none,none
1a,17,100169,4,25,217,22,F,NA,variable,heterogeneous,4,absent,1.38142204284668,1,vertical,vertical,1,0.623528718948364,green,1,NaN,865.998856501143,846.311085703712,NaN,NaN,865.998856501143,846.311085703712,1046.31108570371,534.001143498857,734.001143498857,353.688914296288,553.688914296288,665.998856501143,0,0,0,0,4,0,3,5,NaN,NaN,vertical,horizontal,vertical,vertical,none,none
1a,17,100169,4,26,218,22,F,NA,variable,heterogeneous,5,present,1.06754994392395,1,vertical,vertical,1,0.917637705802917,red,1,2,861.690083377915,847.425410200379,1054.37883281626,617.787900804752,861.690083377915,847.425410200379,1054.37883281626,617.787900804752,895.524681321058,363.568117085469,604.658667004661,436.089159529932,583.747735480111,735.129412379467,0,0,4,6,3,0,0,NaN,vertical,vertical,vertical,horizontal,vertical,none
1a,17,100169,4,27,219,22,F,NA,variable,heterogeneous,6,absent,1.28739309310913,1,vertical,vertical,1,0.717643594741821,green,1,NaN,891.383827134052,838.063008756786,NaN,NaN,891.383827134052,838.063008756786,1051.86052685176,639.890788585259,960.476699717708,401.827779828472,708.616172865948,361.936991243214,548.13947314824,560.109211414741,639.523300282292,798.172220171528,4,0,5,6,3,3,vertical,vertical,horizontal,vertical,horizontal,vertical
1a,17,100169,4,28,220,22,F,NA,variable,heterogeneous,6,absent,1.00641798973083,1,horizontal,horizontal,1,0.858815908432007,green,5,NaN,548.13947314824,560.109211414741,NaN,NaN,891.383827134052,838.063008756786,1051.86052685176,639.890788585259,960.476699717708,401.827779828472,708.616172865948,361.936991243214,548.13947314824,560.109211414741,639.523300282292,798.172220171528,0,3,6,6,4,0,horizontal,horizontal,vertical,vertical,horizontal,vertical
1a,17,100169,4,29,221,22,F,NA,variable,heterogeneous,5,absent,1.49356079101562,1,vertical,vertical,1,0.741172313690186,green,4,NaN,688.215357568785,370.807518193712,NaN,NaN,755.719714694933,851.125977018113,1025.15163617903,719.715248510402,983.431649086356,422.862115532956,688.215357568785,370.807518193712,547.481642470899,635.489140744817,0,0,0,5,6,4,3,NaN,vertical,vertical,horizontal,vertical,vertical,none
1a,17,100169,4,30,222,22,F,NA,variable,heterogeneous,5,absent,1.46622896194458,1,horizontal,horizontal,1,0.729407954216003,red,2,NaN,1054.0296480134,622.224714400653,NaN,NaN,857.362518857686,848.464366520235,1054.0296480134,622.224714400653,899.636437764765,365.271262369628,607.549057043193,432.704947607421,581.422338320961,731.334709102064,0,0,6,4,0,5,5,NaN,horizontal,horizontal,vertical,horizontal,vertical,none
1a,17,100169,4,31,223,22,F,NA,variable,heterogeneous,3,present,0.74888014793396,1,vertical,vertical,1,0.647057437896729,green,2,1,1051.12597701811,644.280285305067,636.089159529932,795.341332995339,636.089159529932,795.341332995339,1051.12597701811,644.280285305067,712.784863451954,360.378381699593,0,0,0,0,0,0,6,4,0,NaN,NaN,NaN,horizontal,vertical,vertical,none,none,none
1a,17,100169,4,32,224,22,F,NA,variable,heterogeneous,5,absent,1.01556897163391,1,vertical,vertical,1,0.788229751586914,red,5,NaN,552.574589799621,661.690083377915,NaN,NaN,782.212099195248,854.378832816255,1036.43188291453,695.524681321058,963.910840470068,404.658667004661,664.870587620533,383.747735480111,552.574589799621,661.690083377915,0,0,3,0,5,5,4,NaN,horizontal,horizontal,horizontal,vertical,vertical,none
1a,17,100169,4,33,225,22,F,NA,variable,heterogeneous,4,absent,1.89698719978333,1,vertical,vertical,1,0.847051548957825,green,3,NaN,773.345241866748,346.39691668109,NaN,NaN,826.654758133252,853.60308331891,1053.60308331891,573.345241866748,773.345241866748,346.39691668109,546.39691668109,626.654758133252,0,0,0,0,5,5,4,6,NaN,NaN,vertical,vertical,vertical,vertical,none,none
1a,17,100169,4,34,226,22,F,NA,variable,heterogeneous,3,present,1.79278802871704,1,horizontal,horizontal,1,0.670586156845093,green,3,2,619.68777079743,419.68777079743,1046.31108570371,534.001143498857,734.001143498857,846.311085703712,1046.31108570371,534.001143498857,619.68777079743,419.68777079743,0,0,0,0,0,0,6,3,4,NaN,NaN,NaN,horizontal,vertical,horizontal,none,none,none
1a,17,100169,4,35,227,22,F,NA,variable,heterogeneous,4,absent,1.07044100761414,1,vertical,vertical,1,0.882344627380371,red,3,NaN,664.870587620533,383.747735480111,NaN,NaN,935.129412379467,816.252264519889,1016.25226451989,464.870587620533,664.870587620533,383.747735480111,583.747735480111,735.129412379467,0,0,0,0,0,6,4,3,NaN,NaN,vertical,vertical,vertical,horizontal,none,none
1a,17,100169,4,36,228,22,F,NA,variable,heterogeneous,6,absent,1.04651188850403,1,horizontal,horizontal,1,0.717643594741821,red,3,NaN,949.885239334581,393.700666434388,NaN,NaN,903.717843984329,832.954091698863,1053.60308331891,626.654758133252,949.885239334581,393.700666434388,696.282156015671,367.045908301137,546.39691668109,573.345241866748,650.114760665419,806.299333565612,0,5,4,3,0,5,horizontal,vertical,horizontal,horizontal,vertical,horizontal
1a,17,100169,4,37,229,22,F,NA,variable,heterogeneous,4,absent,0.985426187515259,1,horizontal,horizontal,1,0.905873346328735,red,3,NaN,729.712474266665,354.878267535729,NaN,NaN,870.287525733335,845.121732464271,1045.12173246427,529.712474266665,729.712474266665,354.878267535729,554.878267535729,670.287525733335,0,0,0,0,5,6,4,3,NaN,NaN,vertical,horizontal,horizontal,vertical,none,none
1a,17,100169,4,38,230,22,F,NA,variable,heterogeneous,5,present,1.23224782943726,1,horizontal,horizontal,1,0.941166424751282,green,5,1,550.57236181288,653.017481158529,773.345241866748,853.60308331891,773.345241866748,853.60308331891,1032.95409169886,703.717843984329,970.628304621509,410.498069503264,672.5,379.163522034968,550.57236181288,653.017481158529,0,0,6,0,5,3,4,NaN,vertical,vertical,horizontal,horizontal,horizontal,none
1a,17,100169,4,39,231,22,F,NA,variable,heterogeneous,4,present,1.02383708953857,1,vertical,vertical,1,0.941166424751282,red,3,2,738.309916622085,352.574589799621,1047.42541020038,538.309916622085,861.690083377915,847.425410200379,1047.42541020038,538.309916622085,738.309916622085,352.574589799621,552.574589799621,661.690083377915,0,0,0,0,5,6,4,3,NaN,NaN,horizontal,vertical,vertical,vertical,none,none
1a,17,100169,4,40,232,22,F,NA,variable,heterogeneous,4,absent,1.72088313102722,1,horizontal,horizontal,1,0.611764359474182,green,4,NaN,545.03883773512,595.549636358493,NaN,NaN,795.549636358493,854.96116226488,1054.96116226488,604.450363641507,804.450363641507,345.03883773512,545.03883773512,595.549636358493,0,0,0,0,5,3,6,4,NaN,NaN,vertical,vertical,vertical,horizontal,none,none
1a,17,100169,4,41,233,22,F,NA,variable,heterogeneous,4,present,1.04467988014221,1,horizontal,horizontal,1,0.658821797370911,red,3,4,938.882953928832,386.139005173917,586.139005173917,461.117046071168,661.117046071168,813.860994826083,1013.86099482608,738.882953928832,938.882953928832,386.139005173917,586.139005173917,461.117046071168,0,0,0,0,0,5,4,6,NaN,NaN,horizontal,vertical,horizontal,vertical,none,none
1a,17,100169,4,42,234,22,F,NA,variable,heterogeneous,3,present,0.790930986404419,1,horizontal,horizontal,1,1.07057437896729,red,3,1,657.405809614959,388.595418998464,688.215357568785,829.192481806288,688.215357568785,829.192481806288,1054.37883281626,582.212099195248,657.405809614959,388.595418998464,0,0,0,0,0,0,5,0,4,NaN,NaN,NaN,vertical,horizontal,horizontal,none,none,none
1a,17,100169,4,43,235,22,F,NA,variable,heterogeneous,6,present,0.606849908828735,1,horizontal,horizontal,1,0.776465392112732,green,5,1,657.405809614959,388.595418998464,688.215357568785,829.192481806288,688.215357568785,829.192481806288,942.594190385041,811.404581001536,1054.37883281626,582.212099195248,911.784642431215,370.807518193712,657.405809614959,388.595418998464,545.621167183745,617.787900804752,3,3,6,5,4,6,horizontal,vertical,horizontal,horizontal,horizontal,horizontal
1a,17,100169,4,44,236,22,F,NA,variable,heterogeneous,4,present,0.516654014587402,1,horizontal,horizontal,1,0.694114875793457,green,3,4,716.980120613425,358.892763222174,558.892763222174,683.019879386575,883.019879386575,841.107236777826,1041.10723677783,516.980120613425,716.980120613425,358.892763222174,558.892763222174,683.019879386575,0,0,0,0,5,0,4,0,NaN,NaN,vertical,horizontal,horizontal,horizontal,none,none
1a,17,100169,4,45,237,22,F,NA,variable,heterogeneous,3,absent,0.661180019378662,1,vertical,vertical,1,0.894108986854553,red,3,NaN,619.68777079743,419.68777079743,NaN,NaN,734.001143498857,846.311085703712,1046.31108570371,534.001143498857,619.68777079743,419.68777079743,0,0,0,0,0,0,5,5,4,NaN,NaN,NaN,vertical,vertical,vertical,none,none,none
1a,17,100169,4,46,238,22,F,NA,variable,heterogeneous,6,absent,0.585195064544678,1,vertical,vertical,1,0.917637705802917,green,4,NaN,755.719714694933,348.874022981887,NaN,NaN,844.280285305067,851.125977018113,1039.62161830041,687.215136548046,995.341332995339,436.089159529932,755.719714694933,348.874022981887,560.378381699593,512.784863451954,604.658667004661,763.910840470068,6,3,3,4,0,0,horizontal,vertical,vertical,vertical,vertical,horizontal
1a,17,100169,4,47,239,22,F,NA,variable,heterogeneous,3,present,0.764370918273926,1,vertical,vertical,1,0.976459503173828,red,3,2,549.685068220846,551.343706178981,967.295052392579,407.549057043193,883.019879386575,841.107236777826,967.295052392579,407.549057043193,549.685068220846,551.343706178981,0,0,0,0,0,0,3,3,4,NaN,NaN,NaN,vertical,vertical,vertical,none,none,none
1a,17,100169,4,48,240,22,F,NA,variable,heterogeneous,6,present,1.26693487167358,0,horizontal,vertical,1,0.752936673164368,red,6,4,576.971974679454,723.626453162816,804.450363641507,345.03883773512,795.549636358493,854.96116226488,1018.57766167904,731.334709102064,1023.02802532055,476.373546837184,804.450363641507,345.03883773512,581.422338320961,468.665290897936,576.971974679454,723.626453162816,0,0,5,5,6,4,vertical,horizontal,horizontal,horizontal,vertical,horizontal
1a,17,100169,4,49,241,22,F,NA,variable,heterogeneous,4,present,1.53602385520935,1,vertical,vertical,1,0.788229751586914,green,1,3,804.450363641507,854.96116226488,795.549636358493,345.03883773512,804.450363641507,854.96116226488,1054.96116226488,595.549636358493,795.549636358493,345.03883773512,545.03883773512,604.450363641507,0,0,0,0,4,5,0,5,NaN,NaN,vertical,vertical,horizontal,vertical,none,none
1a,17,100169,4,50,242,22,F,NA,variable,heterogeneous,6,present,1.07543516159058,1,vertical,vertical,1,1.02351694107056,red,5,3,554.878267535729,529.712474266665,983.431649086356,422.862115532956,861.690083377915,847.425410200379,1045.12173246427,670.287525733335,983.431649086356,422.862115532956,738.309916622085,352.574589799621,554.878267535729,529.712474266665,616.568350913644,777.137884467044,6,5,5,6,4,0,horizontal,horizontal,horizontal,vertical,vertical,horizontal
1a,17,100169,4,51,243,22,F,NA,variable,heterogeneous,4,present,1.64770913124084,1,vertical,vertical,1,0.9294020652771,red,3,1,822.224714400653,345.970351986605,777.775285599347,854.029648013395,777.775285599347,854.029648013395,1054.0296480134,622.224714400653,822.224714400653,345.970351986605,545.970351986605,577.775285599347,0,0,0,0,0,3,4,3,NaN,NaN,horizontal,horizontal,vertical,horizontal,none,none
1a,17,100169,4,52,244,22,F,NA,variable,heterogeneous,6,absent,1.93516302108765,1,horizontal,horizontal,1,0.917637705802917,green,6,NaN,619.68777079743,780.31222920257,NaN,NaN,865.998856501143,846.311085703712,1046.31108570371,665.998856501143,980.31222920257,419.68777079743,734.001143498857,353.688914296288,553.688914296288,534.001143498857,619.68777079743,780.31222920257,0,3,3,6,6,4,vertical,vertical,vertical,vertical,vertical,horizontal
1a,17,100169,4,53,245,22,F,NA,variable,heterogeneous,3,absent,1.58311796188354,1,vertical,vertical,1,1.03528130054474,green,1,NaN,989.501930496736,770.628304621509,NaN,NaN,989.501930496736,770.628304621509,853.017481158529,350.57236181288,557.480588344736,678.799333565612,0,0,0,0,0,0,4,6,5,NaN,NaN,NaN,vertical,vertical,vertical,none,none,none
