experiment,subject,uniqueID,block,trial,trial_cumulative,age,gender,color_cond_blocking,color_history,shape_type,set_size,distractor,rt,acc,target_orient,response_key,response_made,iti,target_color,target_item,distractor_item,target_X,target_Y,distractor_X,distractor_Y,item1_X,item1_Y,item2_X,item2_Y,item3_X,item3_Y,item4_X,item4_Y,item5_X,item5_Y,item6_X,item6_Y,item1_shape,item2_shape,item3_shape,item4_shape,item5_shape,item6_shape,item1_line,item2_line,item3_line,item4_line,item5_line,item6_line
1a,18,100170,1,1,1,22,M,NA,variable,heterogeneous,3,present,1.47541689872742,0,vertical,horizontal,1,0.988231026498895,green,1,2,716.980120613425,841.107236777826,1050.31493177915,551.343706178981,716.980120613425,841.107236777826,1050.31493177915,551.343706178981,632.704947607421,407.549057043193,0,0,0,0,0,0,4,5,0,NaN,NaN,NaN,vertical,horizontal,horizontal,none,none,none
1a,18,100170,1,2,2,22,M,NA,variable,heterogeneous,4,absent,NaN,0,horizontal,none,0,0.788233224969161,green,1,NaN,646.537169096228,803.65205506206,NaN,NaN,646.537169096228,803.65205506206,1003.65205506206,753.462830903772,953.462830903772,396.34794493794,596.34794493794,446.537169096228,0,0,0,0,4,5,3,6,NaN,NaN,horizontal,vertical,vertical,horizontal,none,none
1a,18,100170,1,3,3,22,M,NA,variable,heterogeneous,6,present,NaN,0,vertical,none,0,0.705881189045153,green,4,2,903.717843984329,367.045908301137,949.885239334581,806.299333565612,696.282156015671,832.954091698863,949.885239334581,806.299333565612,1053.60308331891,573.345241866748,903.717843984329,367.045908301137,650.114760665419,393.700666434388,546.39691668109,626.654758133252,6,3,5,4,6,0,vertical,horizontal,vertical,vertical,vertical,vertical
1a,18,100170,1,4,4,22,M,NA,variable,heterogeneous,5,present,1.95712304115295,1,horizontal,horizontal,1,1.09411221554405,red,4,1,760.109211414741,348.13947314824,684.232422566416,827.206663668034,684.232422566416,827.206663668034,980.31222920257,780.31222920257,1027.20666366803,484.232422566416,760.109211414741,348.13947314824,548.13947314824,560.109211414741,0,0,0,6,5,4,3,NaN,horizontal,horizontal,vertical,horizontal,vertical,none
1a,18,100170,1,5,5,22,M,NA,variable,heterogeneous,3,present,1.46637201309204,1,vertical,vertical,1,0.894114414014314,red,2,1,853.017481158529,350.57236181288,989.501930496736,770.628304621509,989.501930496736,770.628304621509,853.017481158529,350.57236181288,557.480588344736,678.799333565612,0,0,0,0,0,0,5,4,3,NaN,NaN,NaN,horizontal,vertical,vertical,none,none,none
1a,18,100170,1,6,6,22,M,NA,variable,heterogeneous,5,absent,1.4850640296936,1,vertical,vertical,1,0.670587459363435,green,2,NaN,1023.02802532055,723.626453162816,NaN,NaN,751.343706178981,850.314931779154,1023.02802532055,723.626453162816,986.495193912888,426.090418184063,692.232343256122,368.891514305654,546.900731331463,631.076682568313,0,0,3,4,0,3,6,NaN,vertical,vertical,horizontal,vertical,horizontal,none
1a,18,100170,1,7,7,22,M,NA,variable,heterogeneous,4,absent,1.79083895683289,1,horizontal,horizontal,1,0.999995603059467,red,4,NaN,591.116228706307,453.738008730483,NaN,NaN,653.738008730483,808.883771293693,1008.88377129369,746.261991269517,946.261991269517,391.116228706307,591.116228706307,453.738008730483,0,0,0,0,3,5,0,4,NaN,NaN,horizontal,horizontal,horizontal,horizontal,none,none
1a,18,100170,1,8,8,22,M,NA,variable,heterogeneous,5,absent,1.57214403152466,1,vertical,vertical,1,1.05881848586233,red,3,NaN,853.017481158529,350.57236181288,NaN,NaN,903.717843984329,832.954091698863,1053.60308331891,573.345241866748,853.017481158529,350.57236181288,579.163522034968,472.5,610.498069503264,770.628304621509,0,0,6,3,4,5,5,NaN,vertical,vertical,vertical,horizontal,horizontal,none
1a,18,100170,1,9,9,22,M,NA,variable,heterogeneous,3,present,1.37656617164612,1,vertical,vertical,1,0.635293729681718,red,2,1,831.076682568313,346.900731331463,1003.65205506206,753.462830903772,1003.65205506206,753.462830903772,831.076682568313,346.900731331463,565.271262369628,699.636437764765,0,0,0,0,0,0,5,4,0,NaN,NaN,NaN,horizontal,vertical,horizontal,none,none,none
1a,18,100170,1,10,10,22,M,NA,variable,heterogeneous,4,absent,1.51829504966736,0,horizontal,vertical,1,1.09411221554405,green,4,NaN,599.057257830286,443.006323791957,NaN,NaN,643.006323791957,800.942742169714,1000.94274216971,756.993676208043,956.993676208043,399.057257830286,599.057257830286,443.006323791957,0,0,0,0,0,3,5,4,NaN,NaN,horizontal,vertical,vertical,horizontal,none,none
1a,18,100170,1,11,11,22,M,NA,variable,heterogeneous,4,present,1.46496987342834,1,horizontal,horizontal,1,0.811762378090306,red,2,4,1041.10723677783,516.980120613425,558.892763222174,683.019879386575,883.019879386575,841.107236777826,1041.10723677783,516.980120613425,716.980120613425,358.892763222174,558.892763222174,683.019879386575,0,0,0,0,0,4,5,5,NaN,NaN,vertical,horizontal,vertical,horizontal,none,none
1a,18,100170,1,12,12,22,M,NA,variable,heterogeneous,4,absent,0.97845721244812,1,vertical,vertical,1,0.6,red,1,NaN,684.232422566416,827.206663668034,NaN,NaN,684.232422566416,827.206663668034,1027.20666366803,715.767577433584,915.767577433584,372.793336331966,572.793336331966,484.232422566416,0,0,0,0,4,5,0,6,NaN,NaN,vertical,vertical,vertical,vertical,none,none
1a,18,100170,1,13,13,22,M,NA,variable,heterogeneous,6,present,1.84567403793335,1,vertical,vertical,1,0.976466449938322,red,2,5,967.295052392579,792.450942956807,632.704947607421,407.549057043193,716.980120613425,841.107236777826,967.295052392579,792.450942956807,1050.31493177915,551.343706178981,883.019879386575,358.892763222174,632.704947607421,407.549057043193,549.685068220846,648.656293821019,3,4,5,0,6,3,horizontal,vertical,horizontal,vertical,horizontal,vertical
1a,18,100170,1,14,14,22,M,NA,variable,heterogeneous,3,present,1.10285902023315,1,horizontal,horizontal,1,1.01176017962004,red,1,3,935.129412379467,816.252264519889,545.155339110131,608.899371659138,935.129412379467,816.252264519889,919.715248510402,374.848363820974,545.155339110131,608.899371659138,0,0,0,0,0,0,4,5,3,NaN,NaN,NaN,horizontal,horizontal,horizontal,none,none,none
1a,18,100170,1,15,15,22,M,NA,variable,heterogeneous,3,present,1.31731104850769,1,horizontal,horizontal,1,0.999995603059467,green,2,3,1045.12173246427,670.287525733335,738.309916622085,352.574589799621,616.568350913644,777.137884467044,1045.12173246427,670.287525733335,738.309916622085,352.574589799621,0,0,0,0,0,0,3,4,5,NaN,NaN,NaN,horizontal,horizontal,vertical,none,none,none
1a,18,100170,1,16,16,22,M,NA,variable,heterogeneous,4,present,NaN,0,vertical,none,0,1.09411221554405,red,4,2,574.848363820974,719.715248510402,1025.15163617903,480.284751489598,919.715248510402,825.151636179026,1025.15163617903,480.284751489598,680.284751489598,374.848363820974,574.848363820974,719.715248510402,0,0,0,0,3,6,0,4,NaN,NaN,vertical,vertical,horizontal,vertical,none,none
1a,18,100170,1,17,17,22,M,NA,variable,heterogeneous,3,absent,1.19328689575195,1,horizontal,horizontal,1,0.952937296817177,red,3,NaN,786.654331158049,345.349468637584,NaN,NaN,586.139005173917,738.882953928832,1027.20666366803,715.767577433584,786.654331158049,345.349468637584,0,0,0,0,0,0,3,6,4,NaN,NaN,NaN,horizontal,horizontal,horizontal,none,none,none
1a,18,100170,1,18,18,22,M,NA,variable,heterogeneous,5,absent,1.46398401260376,1,vertical,vertical,1,0.929408143696032,green,2,NaN,1023.02802532055,723.626453162816,NaN,NaN,751.343706178981,850.314931779154,1023.02802532055,723.626453162816,986.495193912888,426.090418184063,692.232343256122,368.891514305654,546.900731331463,631.076682568313,0,0,0,4,6,5,6,NaN,horizontal,vertical,vertical,horizontal,horizontal,none
1a,18,100170,1,19,19,22,M,NA,variable,heterogeneous,3,absent,1.0511748790741,1,horizontal,horizontal,1,0.894114414014314,green,1,NaN,696.282156015671,832.954091698863,NaN,NaN,696.282156015671,832.954091698863,1053.60308331891,573.345241866748,650.114760665419,393.700666434388,0,0,0,0,0,0,4,5,6,NaN,NaN,NaN,horizontal,vertical,vertical,none,none,none
1a,18,100170,1,20,20,22,M,NA,variable,heterogeneous,3,absent,1.35008001327515,0,horizontal,vertical,1,0.882349837453742,green,3,NaN,547.481642470899,635.489140744817,NaN,NaN,956.993676208043,800.942742169714,895.524681321058,363.568117085469,547.481642470899,635.489140744817,0,0,0,0,0,0,0,3,4,NaN,NaN,NaN,vertical,vertical,horizontal,none,none,none
1a,18,100170,1,21,21,22,M,NA,variable,heterogeneous,6,absent,1.44515895843506,0,horizontal,vertical,1,0.999995603059467,red,3,NaN,1039.62161830041,512.784863451954,NaN,NaN,755.719714694933,851.125977018113,995.341332995339,763.910840470068,1039.62161830041,512.784863451954,844.280285305067,348.874022981887,604.658667004661,436.089159529932,560.378381699593,687.215136548046,3,5,4,0,6,3,vertical,horizontal,horizontal,vertical,vertical,vertical
1a,18,100170,1,22,22,22,M,NA,variable,heterogeneous,4,absent,1.28087997436523,1,vertical,vertical,1,0.941172720256605,red,3,NaN,657.405809614959,388.595418998464,NaN,NaN,942.594190385041,811.404581001536,1011.40458100154,457.40580961496,657.405809614959,388.595418998464,588.595418998464,742.594190385041,0,0,0,0,5,6,4,3,NaN,NaN,horizontal,vertical,vertical,vertical,none,none
1a,18,100170,1,23,23,22,M,NA,variable,heterogeneous,5,present,1.52147603034973,1,horizontal,horizontal,1,0.929408143696032,green,3,2,853.017481158529,350.57236181288,1053.60308331891,573.345241866748,903.717843984329,832.954091698863,1053.60308331891,573.345241866748,853.017481158529,350.57236181288,579.163522034968,472.5,610.498069503264,770.628304621509,0,0,3,5,4,6,5,NaN,vertical,vertical,horizontal,vertical,vertical,none
1a,18,100170,1,24,24,22,M,NA,variable,heterogeneous,5,absent,0.993127107620239,1,horizontal,horizontal,1,0.64705830624229,green,3,NaN,960.476699717708,401.827779828472,NaN,NaN,786.654331158049,854.650531362416,1038.06300875679,691.383827134052,960.476699717708,401.827779828472,661.117046071168,386.139005173917,553.688914296288,665.998856501143,0,0,5,6,4,0,5,NaN,horizontal,horizontal,horizontal,horizontal,horizontal,none
1a,18,100170,1,25,25,22,M,NA,variable,heterogeneous,4,absent,1.88142085075378,1,horizontal,horizontal,1,0.623529153121145,red,3,NaN,626.090418184063,413.504806087112,NaN,NaN,973.909581815937,786.495193912888,986.495193912888,426.090418184063,626.090418184063,413.504806087112,613.504806087112,773.909581815937,0,0,0,0,3,0,4,3,NaN,NaN,horizontal,vertical,horizontal,horizontal,none,none
1a,18,100170,1,26,26,22,M,NA,variable,heterogeneous,4,absent,1.49241399765015,1,vertical,vertical,1,0.847056107772024,green,4,NaN,552.574589799621,661.690083377915,NaN,NaN,861.690083377915,847.425410200379,1047.42541020038,538.309916622085,738.309916622085,352.574589799621,552.574589799621,661.690083377915,0,0,0,0,3,6,0,4,NaN,NaN,horizontal,vertical,horizontal,vertical,none,none
1a,18,100170,1,27,27,22,M,NA,variable,heterogeneous,5,absent,NaN,0,horizontal,none,0,1.01176017962004,red,2,NaN,998.172220171528,760.476699717708,NaN,NaN,708.616172865948,838.063008756786,998.172220171528,760.476699717708,1013.86099482608,461.117046071168,734.001143498857,353.688914296288,545.349468637584,586.654331158049,0,0,3,4,6,0,6,NaN,vertical,horizontal,horizontal,vertical,horizontal,none
1a,18,100170,1,28,28,22,M,NA,variable,heterogeneous,6,present,NaN,0,horizontal,none,0,0.870585260893169,green,3,2,1023.02802532055,476.373546837184,1018.57766167904,731.334709102064,795.549636358493,854.96116226488,1018.57766167904,731.334709102064,1023.02802532055,476.373546837184,804.450363641507,345.03883773512,581.422338320961,468.665290897936,576.971974679454,723.626453162816,3,6,4,6,5,0,vertical,vertical,horizontal,horizontal,vertical,horizontal
1a,18,100170,1,29,29,22,M,NA,variable,heterogeneous,3,absent,1.81733798980713,0,horizontal,vertical,1,0.835291531211451,red,2,NaN,1047.42541020038,538.309916622085,NaN,NaN,729.712474266665,845.121732464271,1047.42541020038,538.309916622085,622.862115532956,416.568350913644,0,0,0,0,0,0,5,4,3,NaN,NaN,NaN,horizontal,horizontal,vertical,none,none,none
1a,18,100170,1,30,30,22,M,NA,variable,heterogeneous,6,absent,1.99367117881775,0,horizontal,vertical,1,0.799997801529734,green,5,NaN,549.685068220846,551.343706178981,NaN,NaN,883.019879386575,841.107236777826,1050.31493177915,648.656293821019,967.295052392579,407.549057043193,716.980120613425,358.892763222174,549.685068220846,551.343706178981,632.704947607421,792.450942956807,3,0,5,6,4,6,vertical,vertical,horizontal,vertical,horizontal,horizontal
1a,18,100170,1,31,31,22,M,NA,variable,heterogeneous,4,present,1.79609203338623,1,horizontal,horizontal,1,0.917643567135459,green,1,2,672.5,820.836477965032,1020.83647796503,727.5,672.5,820.836477965032,1020.83647796503,727.5,927.5,379.163522034968,579.163522034968,472.5,0,0,0,0,4,5,6,0,NaN,NaN,horizontal,horizontal,horizontal,vertical,none,none
1a,18,100170,1,32,32,22,M,NA,variable,heterogeneous,3,present,1.19329500198364,1,horizontal,horizontal,1,0.658822882802863,green,1,2,977.137884467044,783.431649086356,870.287525733335,354.878267535729,977.137884467044,783.431649086356,870.287525733335,354.878267535729,552.574589799621,661.690083377915,0,0,0,0,0,0,4,6,5,NaN,NaN,NaN,horizontal,vertical,horizontal,none,none,none
1a,18,100170,1,33,33,22,M,NA,variable,heterogeneous,6,absent,1.53701686859131,1,vertical,vertical,1,0.776468648408589,red,2,NaN,938.882953928832,813.860994826083,NaN,NaN,684.232422566416,827.206663668034,938.882953928832,813.860994826083,1054.65053136242,586.654331158049,915.767577433584,372.793336331966,661.117046071168,386.139005173917,545.349468637584,613.345668841951,0,4,5,5,0,3,horizontal,vertical,horizontal,vertical,vertical,vertical
1a,18,100170,1,34,34,22,M,NA,variable,heterogeneous,5,absent,NaN,0,horizontal,none,0,0.658822882802863,green,2,NaN,953.462830903772,803.65205506206,NaN,NaN,653.738008730483,808.883771293693,953.462830903772,803.65205506206,1041.10723677783,516.980120613425,795.549636358493,345.03883773512,556.142287229426,525.445215295702,0,0,6,4,5,3,5,NaN,vertical,horizontal,vertical,vertical,horizontal,none
1a,18,100170,1,35,35,22,M,NA,variable,heterogeneous,5,absent,1.5772430896759,0,vertical,horizontal,1,1.01176017962004,red,3,NaN,992.450942956807,432.704947607421,NaN,NaN,742.637481142314,848.464366520235,1018.57766167904,731.334709102064,992.450942956807,432.704947607421,700.363562235235,365.271262369628,545.970351986605,622.224714400653,0,0,3,6,4,0,3,NaN,horizontal,horizontal,vertical,horizontal,vertical,none
1a,18,100170,1,36,36,22,M,NA,variable,heterogeneous,6,absent,1.9715301990509,1,vertical,vertical,1,0.705881189045153,green,1,NaN,817.787900804752,854.378832816255,NaN,NaN,817.787900804752,854.378832816255,1029.19248180629,711.784642431215,1011.40458100154,457.40580961496,782.212099195248,345.621167183745,570.807518193712,488.215357568785,588.595418998464,742.594190385041,4,0,3,3,6,6,vertical,horizontal,vertical,horizontal,vertical,horizontal
1a,18,100170,1,37,37,22,M,NA,variable,heterogeneous,6,present,1.12911891937256,1,horizontal,horizontal,1,0.705881189045153,red,3,6,1025.15163617903,480.284751489598,574.848363820974,719.715248510402,791.100628340862,854.844660889869,1016.25226451989,735.129412379467,1025.15163617903,480.284751489598,808.899371659138,345.155339110131,583.747735480111,464.870587620533,574.848363820974,719.715248510402,6,5,4,0,0,3,vertical,horizontal,horizontal,horizontal,vertical,vertical
1a,18,100170,1,38,38,22,M,NA,variable,heterogeneous,4,present,1.96453404426575,1,vertical,vertical,1,0.823526954650879,green,4,2,546.900731331463,631.076682568313,1053.09926866854,568.923317431687,831.076682568313,853.099268668537,1053.09926866854,568.923317431687,768.923317431687,346.900731331463,546.900731331463,631.076682568313,0,0,0,0,6,5,6,4,NaN,NaN,horizontal,vertical,horizontal,vertical,none,none
1a,18,100170,1,39,39,22,M,NA,variable,heterogeneous,6,present,0.829233169555664,1,vertical,vertical,1,0.870585260893169,red,5,4,567.045908301137,496.282156015671,773.345241866748,346.39691668109,826.654758133252,853.60308331891,1032.95409169886,703.717843984329,1006.29933356561,450.114760665419,773.345241866748,346.39691668109,567.045908301137,496.282156015671,593.700666434388,749.885239334581,5,0,6,0,4,5,horizontal,vertical,horizontal,horizontal,vertical,vertical
1a,18,100170,1,40,40,22,M,NA,variable,heterogeneous,5,present,0.727757930755615,1,vertical,vertical,1,0.882349837453742,green,3,2,1000.94274216971,443.006323791957,1011.40458100154,742.594190385041,729.712474266665,845.121732464271,1011.40458100154,742.594190385041,1000.94274216971,443.006323791957,712.784863451954,360.378381699593,545.155339110131,608.899371659138,0,0,3,0,4,6,6,NaN,horizontal,horizontal,vertical,vertical,horizontal,none
1a,18,100170,1,41,41,22,M,NA,variable,heterogeneous,3,present,1.47549796104431,1,horizontal,horizontal,1,0.858820684332597,red,1,3,887.215136548046,839.621618300407,548.874022981887,555.719714694933,887.215136548046,839.621618300407,963.910840470068,404.658667004661,548.874022981887,555.719714694933,0,0,0,0,0,0,4,5,0,NaN,NaN,NaN,horizontal,horizontal,horizontal,none,none,none
1a,18,100170,1,42,42,22,M,NA,variable,heterogeneous,6,absent,1.37305784225464,1,horizontal,horizontal,1,0.988231026498895,red,2,NaN,960.476699717708,798.172220171528,NaN,NaN,708.616172865948,838.063008756786,960.476699717708,798.172220171528,1051.86052685176,560.109211414741,891.383827134052,361.936991243214,639.523300282292,401.827779828472,548.13947314824,639.890788585259,6,4,3,5,6,0,horizontal,horizontal,vertical,horizontal,horizontal,vertical
1a,18,100170,1,43,43,22,M,NA,variable,heterogeneous,4,present,1.77486491203308,1,horizontal,horizontal,1,0.717645765605726,red,4,1,554.878267535729,670.287525733335,870.287525733335,845.121732464271,870.287525733335,845.121732464271,1045.12173246427,529.712474266665,729.712474266665,354.878267535729,554.878267535729,670.287525733335,0,0,0,0,6,3,6,4,NaN,NaN,horizontal,horizontal,horizontal,horizontal,none,none
1a,18,100170,1,44,44,22,M,NA,variable,heterogeneous,4,absent,1.306391954422,1,vertical,vertical,1,0.788233224969161,green,4,NaN,596.34794493794,753.462830903772,NaN,NaN,953.462830903772,803.65205506206,1003.65205506206,446.537169096228,646.537169096228,396.34794493794,596.34794493794,753.462830903772,0,0,0,0,6,3,5,4,NaN,NaN,horizontal,vertical,horizontal,vertical,none,none
1a,18,100170,1,45,45,22,M,NA,variable,heterogeneous,4,present,0.999482870101929,1,vertical,vertical,1,0.941172720256605,green,1,4,646.537169096228,803.65205506206,596.34794493794,446.537169096228,646.537169096228,803.65205506206,1003.65205506206,753.462830903772,953.462830903772,396.34794493794,596.34794493794,446.537169096228,0,0,0,0,4,3,6,5,NaN,NaN,vertical,horizontal,vertical,horizontal,none,none
1a,18,100170,1,46,46,22,M,NA,variable,heterogeneous,6,absent,1.64788508415222,1,horizontal,horizontal,1,0.611764576560573,green,6,NaN,622.862115532956,783.431649086356,NaN,NaN,870.287525733335,845.121732464271,1047.42541020038,661.690083377915,977.137884467044,416.568350913644,729.712474266665,354.878267535729,552.574589799621,538.309916622085,622.862115532956,783.431649086356,6,5,3,5,0,4,vertical,vertical,vertical,horizontal,horizontal,horizontal
1a,18,100170,1,47,47,22,M,NA,variable,heterogeneous,4,present,1.57786893844604,0,vertical,horizontal,1,0.635293729681718,red,1,4,931.334709102064,818.577661679039,581.422338320961,731.334709102064,931.334709102064,818.577661679039,1018.57766167904,468.665290897936,668.665290897936,381.422338320961,581.422338320961,731.334709102064,0,0,0,0,4,0,5,6,NaN,NaN,vertical,vertical,vertical,vertical,none,none
1a,18,100170,1,48,48,22,M,NA,variable,heterogeneous,5,present,1.83104991912842,0,vertical,horizontal,1,1.0705830624229,red,1,3,870.287525733335,845.121732464271,887.215136548046,360.378381699593,870.287525733335,845.121732464271,1054.84466088987,608.899371659138,887.215136548046,360.378381699593,599.057257830286,443.006323791957,588.595418998464,742.594190385041,0,0,4,5,0,5,3,NaN,vertical,vertical,vertical,horizontal,vertical,none
1a,18,100170,1,49,49,22,M,NA,variable,heterogeneous,6,present,NaN,0,horizontal,none,0,0.917643567135459,green,3,4,1054.65053136242,586.654331158049,915.767577433584,372.793336331966,684.232422566416,827.206663668034,938.882953928832,813.860994826083,1054.65053136242,586.654331158049,915.767577433584,372.793336331966,661.117046071168,386.139005173917,545.349468637584,613.345668841951,0,3,4,6,5,6,vertical,vertical,horizontal,vertical,horizontal,vertical
1a,18,100170,1,50,50,22,M,NA,variable,heterogeneous,6,absent,1.43505311012268,1,vertical,vertical,1,0.623529153121145,red,6,NaN,552.574589799621,661.690083377915,NaN,NaN,729.712474266665,845.121732464271,977.137884467044,783.431649086356,1047.42541020038,538.309916622085,870.287525733335,354.878267535729,622.862115532956,416.568350913644,552.574589799621,661.690083377915,3,0,6,5,3,4,vertical,vertical,horizontal,vertical,horizontal,vertical
1a,18,100170,1,51,51,22,M,NA,variable,heterogeneous,6,present,NaN,0,horizontal,none,0,0.952937296817177,red,6,1,622.862115532956,783.431649086356,870.287525733335,845.121732464271,870.287525733335,845.121732464271,1047.42541020038,661.690083377915,977.137884467044,416.568350913644,729.712474266665,354.878267535729,552.574589799621,538.309916622085,622.862115532956,783.431649086356,5,6,3,0,3,4,horizontal,vertical,horizontal,horizontal,horizontal,horizontal
1a,18,100170,1,52,52,22,M,NA,variable,heterogeneous,4,present,1.99646282196045,1,horizontal,horizontal,1,0.658822882802863,green,3,2,839.890788585259,348.13947314824,1051.86052685176,639.890788585259,760.109211414741,851.86052685176,1051.86052685176,639.890788585259,839.890788585259,348.13947314824,548.13947314824,560.109211414741,0,0,0,0,5,6,4,0,NaN,NaN,horizontal,vertical,horizontal,horizontal,none,none
1a,18,100170,1,53,53,22,M,NA,variable,heterogeneous,3,absent,1.41145300865173,1,vertical,vertical,1,0.952937296817177,green,2,NaN,1000.94274216971,443.006323791957,NaN,NaN,835.489140744817,852.518357529101,1000.94274216971,443.006323791957,563.568117085469,504.475318678942,0,0,0,0,0,0,3,4,5,NaN,NaN,NaN,horizontal,vertical,horizontal,none,none,none
1a,18,100170,1,54,54,22,M,NA,variable,heterogeneous,3,absent,1.0378589630127,1,vertical,vertical,1,0.694116612484581,green,1,NaN,1011.40458100154,742.594190385041,NaN,NaN,1011.40458100154,742.594190385041,817.787900804752,345.621167183745,570.807518193712,711.784642431215,0,0,0,0,0,0,4,5,6,NaN,NaN,NaN,vertical,vertical,vertical,none,none,none
1a,18,100170,1,55,55,22,M,NA,variable,heterogeneous,5,present,NaN,0,horizontal,none,0,1.02352475618061,red,5,4,632.704947607421,792.450942956807,565.271262369628,500.363562235235,931.334709102064,818.577661679039,1048.46436652023,542.637481142314,822.224714400653,345.970351986605,565.271262369628,500.363562235235,632.704947607421,792.450942956807,0,0,6,6,3,0,4,NaN,vertical,vertical,horizontal,vertical,horizontal,none
1a,18,100170,1,56,56,22,M,NA,variable,heterogeneous,5,absent,1.32555794715881,1,horizontal,horizontal,1,0.894114414014314,red,1,NaN,911.784642431215,829.192481806288,NaN,NaN,911.784642431215,829.192481806288,1052.5183575291,564.510859255183,844.280285305067,348.874022981887,574.848363820974,480.284751489598,616.568350913644,777.137884467044,0,0,4,0,3,0,6,NaN,horizontal,vertical,horizontal,horizontal,vertical,none
1a,18,100170,1,57,57,22,M,NA,variable,heterogeneous,5,present,1.92165398597717,1,vertical,vertical,1,1.08234763898348,red,1,4,927.5,820.836477965032,567.045908301137,496.282156015671,927.5,820.836477965032,1049.42763818712,546.982518841471,826.654758133252,346.39691668109,567.045908301137,496.282156015671,629.371695378491,789.501930496736,0,0,4,0,5,6,3,NaN,vertical,vertical,horizontal,vertical,vertical,none
1a,18,100170,1,58,58,22,M,NA,variable,heterogeneous,3,absent,1.19048714637756,1,vertical,vertical,1,0.705881189045153,red,3,NaN,791.100628340862,345.155339110131,NaN,NaN,583.747735480111,735.129412379467,1025.15163617903,719.715248510402,791.100628340862,345.155339110131,0,0,0,0,0,0,0,5,4,NaN,NaN,NaN,vertical,horizontal,vertical,none,none,none
1a,18,100170,1,59,59,22,M,NA,variable,heterogeneous,6,absent,NaN,0,vertical,none,0,0.917643567135459,green,6,NaN,599.057257830286,756.993676208043,NaN,NaN,835.489140744817,852.518357529101,1036.43188291453,695.524681321058,1000.94274216971,443.006323791957,764.510859255183,347.4816424709,563.568117085469,504.475318678942,599.057257830286,756.993676208043,5,3,6,5,6,4,horizontal,vertical,vertical,vertical,vertical,vertical
1a,18,100170,1,60,60,22,M,NA,variable,heterogeneous,5,present,1.53392004966736,1,horizontal,horizontal,1,0.64705830624229,green,1,5,817.787900804752,854.378832816255,563.568117085469,695.524681321058,817.787900804752,854.378832816255,1047.42541020038,661.690083377915,935.129412379467,383.747735480111,636.089159529932,404.658667004661,563.568117085469,695.524681321058,0,0,4,6,6,5,5,NaN,horizontal,vertical,vertical,horizontal,vertical,none
1a,18,100170,1,61,61,22,M,NA,variable,heterogeneous,6,present,1.53509902954102,1,vertical,vertical,1,0.905878990574887,green,5,1,572.793336331966,484.232422566416,813.345668841951,854.650531362416,813.345668841951,854.650531362416,1027.20666366803,715.767577433584,1013.86099482608,461.117046071168,786.654331158049,345.349468637584,572.793336331966,484.232422566416,586.139005173917,738.882953928832,0,0,5,3,4,6,vertical,vertical,horizontal,horizontal,vertical,horizontal
1a,18,100170,1,62,62,22,M,NA,variable,heterogeneous,3,absent,1.5841429233551,1,vertical,vertical,1,0.905878990574887,red,1,NaN,942.594190385041,811.404581001536,NaN,NaN,942.594190385041,811.404581001536,911.784642431215,370.807518193712,545.621167183745,617.787900804752,0,0,0,0,0,0,4,6,6,NaN,NaN,NaN,vertical,vertical,horizontal,none,none,none
1a,18,100170,1,63,63,22,M,NA,variable,heterogeneous,3,present,1.48721504211426,1,vertical,vertical,1,0.764704071848016,green,3,2,786.654331158049,345.349468637584,1027.20666366803,715.767577433584,586.139005173917,738.882953928832,1027.20666366803,715.767577433584,786.654331158049,345.349468637584,0,0,0,0,0,0,0,5,4,NaN,NaN,NaN,vertical,horizontal,vertical,none,none,none
1a,18,100170,1,64,64,22,M,NA,variable,heterogeneous,5,present,NaN,0,vertical,none,0,0.776468648408589,green,5,2,616.568350913644,777.137884467044,1052.5183575291,564.510859255183,911.784642431215,829.192481806288,1052.5183575291,564.510859255183,844.280285305067,348.874022981887,574.848363820974,480.284751489598,616.568350913644,777.137884467044,0,0,3,6,0,5,4,NaN,vertical,vertical,horizontal,vertical,vertical,none
1a,18,100170,2,1,65,22,M,NA,variable,heterogeneous,6,absent,1.37255096435547,0,vertical,horizontal,1,0.635293729681718,red,1,NaN,853.017481158529,849.42763818712,NaN,NaN,853.017481158529,849.42763818712,1042.51941165526,678.799333565612,989.501930496736,429.371695378491,746.982518841471,350.57236181288,557.480588344736,521.200666434388,610.498069503264,770.628304621509,4,5,0,5,0,3,vertical,horizontal,vertical,horizontal,horizontal,horizontal
1a,18,100170,2,2,66,22,M,NA,variable,heterogeneous,3,present,1.36739611625671,1,horizontal,horizontal,1,0.96470187337775,red,1,2,795.549636358493,854.96116226488,1023.02802532055,476.373546837184,795.549636358493,854.96116226488,1023.02802532055,476.373546837184,581.422338320961,468.665290897936,0,0,0,0,0,0,4,6,0,NaN,NaN,NaN,horizontal,vertical,horizontal,none,none,none
1a,18,100170,2,3,67,22,M,NA,variable,heterogeneous,5,absent,1.15609097480774,1,vertical,vertical,1,0.658822882802863,red,2,NaN,956.993676208043,800.942742169714,NaN,NaN,657.405809614959,811.404581001536,956.993676208043,800.942742169714,1039.62161830041,512.784863451954,791.100628340862,345.155339110131,554.878267535729,529.712474266665,0,0,5,4,0,6,3,NaN,horizontal,vertical,horizontal,horizontal,horizontal,none
1a,18,100170,2,4,68,22,M,NA,variable,heterogeneous,4,present,1.415363073349,1,horizontal,horizontal,1,0.799997801529734,red,1,2,782.212099195248,854.378832816255,1054.37883281626,617.787900804752,782.212099195248,854.378832816255,1054.37883281626,617.787900804752,817.787900804752,345.621167183745,545.621167183745,582.212099195248,0,0,0,0,4,0,3,0,NaN,NaN,horizontal,vertical,horizontal,vertical,none,none
1a,18,100170,2,5,69,22,M,NA,variable,heterogeneous,3,present,1.58625888824463,1,vertical,vertical,1,0.917643567135459,red,2,3,1046.31108570371,665.998856501143,734.001143498857,353.688914296288,619.68777079743,780.31222920257,1046.31108570371,665.998856501143,734.001143498857,353.688914296288,0,0,0,0,0,0,5,4,3,NaN,NaN,NaN,horizontal,vertical,horizontal,none,none,none
1a,18,100170,2,6,70,22,M,NA,variable,heterogeneous,4,present,1.30905914306641,1,horizontal,horizontal,1,0.752939495287443,red,3,1,923.626453162816,376.971974679454,676.373546837184,823.028025320546,676.373546837184,823.028025320546,1023.02802532055,723.626453162816,923.626453162816,376.971974679454,576.971974679454,476.373546837184,0,0,0,0,6,0,4,0,NaN,NaN,horizontal,vertical,horizontal,vertical,none,none
1a,18,100170,2,7,71,22,M,NA,variable,heterogeneous,3,absent,1.20096707344055,1,horizontal,horizontal,1,0.870585260893169,green,1,NaN,1018.57766167904,731.334709102064,NaN,NaN,1018.57766167904,731.334709102064,804.450363641507,345.03883773512,576.971974679454,723.626453162816,0,0,0,0,0,0,4,0,6,NaN,NaN,NaN,horizontal,vertical,vertical,none,none,none
1a,18,100170,2,8,72,22,M,NA,variable,heterogeneous,4,present,1.43444585800171,1,vertical,vertical,1,0.858820684332597,red,1,3,919.715248510402,825.151636179026,680.284751489598,374.848363820974,919.715248510402,825.151636179026,1025.15163617903,480.284751489598,680.284751489598,374.848363820974,574.848363820974,719.715248510402,0,0,0,0,4,0,3,5,NaN,NaN,vertical,horizontal,vertical,vertical,none,none
1a,18,100170,2,9,73,22,M,NA,variable,heterogeneous,3,absent,1.26646900177002,1,horizontal,horizontal,1,0.752939495287443,green,1,NaN,844.280285305067,851.125977018113,NaN,NaN,844.280285305067,851.125977018113,995.341332995339,436.089159529932,560.378381699593,512.784863451954,0,0,0,0,0,0,4,5,0,NaN,NaN,NaN,horizontal,vertical,vertical,none,none,none
1a,18,100170,2,10,74,22,M,NA,variable,heterogeneous,3,present,1.07330894470215,1,vertical,vertical,1,0.682352035924008,red,2,1,1036.43188291453,504.475318678942,764.510859255183,852.518357529101,764.510859255183,852.518357529101,1036.43188291453,504.475318678942,599.057257830286,443.006323791957,0,0,0,0,0,0,5,4,6,NaN,NaN,NaN,horizontal,vertical,horizontal,none,none,none
1a,18,100170,2,11,75,22,M,NA,variable,heterogeneous,3,present,0.954483032226562,1,vertical,vertical,1,0.764704071848016,green,1,2,738.309916622085,847.425410200379,1045.12173246427,529.712474266665,738.309916622085,847.425410200379,1045.12173246427,529.712474266665,616.568350913644,422.862115532956,0,0,0,0,0,0,4,6,5,NaN,NaN,NaN,vertical,horizontal,vertical,none,none,none
1a,18,100170,2,12,76,22,M,NA,variable,heterogeneous,4,absent,1.61941599845886,1,horizontal,horizontal,1,0.882349837453742,green,4,NaN,551.535633479765,542.637481142314,NaN,NaN,742.637481142314,848.464366520235,1048.46436652023,657.362518857686,857.362518857686,351.535633479765,551.535633479765,542.637481142314,0,0,0,0,5,6,0,4,NaN,NaN,horizontal,vertical,horizontal,horizontal,none,none
1a,18,100170,2,13,77,22,M,NA,variable,heterogeneous,4,absent,1.36874794960022,1,vertical,vertical,1,0.835291531211451,red,4,NaN,599.057257830286,756.993676208043,NaN,NaN,956.993676208043,800.942742169714,1000.94274216971,443.006323791957,643.006323791957,399.057257830286,599.057257830286,756.993676208043,0,0,0,0,3,6,5,4,NaN,NaN,vertical,horizontal,vertical,vertical,none,none
1a,18,100170,2,14,78,22,M,NA,variable,heterogeneous,3,present,1.21771502494812,1,horizontal,horizontal,1,0.870585260893169,red,1,2,581.422338320961,731.334709102064,1023.02802532055,723.626453162816,581.422338320961,731.334709102064,1023.02802532055,723.626453162816,795.549636358493,345.03883773512,0,0,0,0,0,0,4,0,3,NaN,NaN,NaN,horizontal,horizontal,horizontal,none,none,none
1a,18,100170,2,15,79,22,M,NA,variable,heterogeneous,6,present,NaN,0,horizontal,none,0,0.929408143696032,red,6,4,668.665290897936,818.577661679039,676.373546837184,376.971974679454,923.626453162816,823.028025320546,1054.96116226488,604.450363641507,931.334709102064,381.422338320961,676.373546837184,376.971974679454,545.03883773512,595.549636358493,668.665290897936,818.577661679039,5,0,0,3,6,4,horizontal,vertical,vertical,vertical,horizontal,horizontal
1a,18,100170,2,16,80,22,M,NA,variable,heterogeneous,6,absent,1.79742503166199,1,horizontal,horizontal,1,0.823526954650879,red,2,NaN,1043.85771277057,674.554784704298,NaN,NaN,857.362518857686,848.464366520235,1043.85771277057,674.554784704298,986.495193912888,426.090418184063,742.637481142314,351.535633479765,556.142287229426,525.445215295702,613.504806087112,773.909581815937,5,4,3,5,3,0,vertical,horizontal,horizontal,horizontal,vertical,horizontal
1a,18,100170,2,17,81,22,M,NA,variable,heterogeneous,4,absent,NaN,0,vertical,none,0,0.788233224969161,red,3,NaN,622.862115532956,416.568350913644,NaN,NaN,977.137884467044,783.431649086356,983.431649086356,422.862115532956,622.862115532956,416.568350913644,616.568350913644,777.137884467044,0,0,0,0,6,3,4,6,NaN,NaN,vertical,horizontal,vertical,horizontal,none,none
1a,18,100170,2,18,82,22,M,NA,variable,heterogeneous,4,present,1.23664402961731,1,vertical,vertical,1,0.952937296817177,green,2,3,1053.60308331891,573.345241866748,773.345241866748,346.39691668109,826.654758133252,853.60308331891,1053.60308331891,573.345241866748,773.345241866748,346.39691668109,546.39691668109,626.654758133252,0,0,0,0,6,4,6,3,NaN,NaN,vertical,vertical,horizontal,vertical,none,none
1a,18,100170,2,19,83,22,M,NA,variable,heterogeneous,5,present,1.16712093353271,1,vertical,vertical,1,0.870585260893169,green,4,5,601.827779828472,439.523300282291,586.139005173917,738.882953928832,865.998856501143,846.311085703712,1054.65053136242,613.345668841951,891.383827134052,361.936991243214,601.827779828472,439.523300282291,586.139005173917,738.882953928832,0,0,5,5,0,4,3,NaN,horizontal,vertical,horizontal,vertical,horizontal,none
1a,18,100170,2,20,84,22,M,NA,variable,heterogeneous,6,absent,1.24800610542297,1,vertical,vertical,1,0.870585260893169,green,3,NaN,986.495193912888,426.090418184063,NaN,NaN,857.362518857686,848.464366520235,1043.85771277057,674.554784704298,986.495193912888,426.090418184063,742.637481142314,351.535633479765,556.142287229426,525.445215295702,613.504806087112,773.909581815937,6,3,4,3,0,6,vertical,vertical,vertical,vertical,horizontal,horizontal
1a,18,100170,2,21,85,22,M,NA,variable,heterogeneous,3,absent,1.03484797477722,1,vertical,vertical,1,1.08234763898348,green,3,NaN,586.139005173917,461.117046071168,NaN,NaN,786.654331158049,854.650531362416,1027.20666366803,484.232422566416,586.139005173917,461.117046071168,0,0,0,0,0,0,5,0,4,NaN,NaN,NaN,vertical,vertical,vertical,none,none,none
1a,18,100170,2,22,86,22,M,NA,variable,heterogeneous,6,present,1.31681799888611,1,vertical,vertical,1,0.847056107772024,red,2,6,938.882953928832,813.860994826083,545.349468637584,613.345668841951,684.232422566416,827.206663668034,938.882953928832,813.860994826083,1054.65053136242,586.654331158049,915.767577433584,372.793336331966,661.117046071168,386.139005173917,545.349468637584,613.345668841951,0,4,6,5,6,3,horizontal,vertical,vertical,vertical,vertical,vertical
1a,18,100170,2,23,87,22,M,NA,variable,heterogeneous,4,absent,1.56054782867432,1,horizontal,horizontal,1,0.858820684332597,red,4,NaN,558.892763222174,683.019879386575,NaN,NaN,883.019879386575,841.107236777826,1041.10723677783,516.980120613425,716.980120613425,358.892763222174,558.892763222174,683.019879386575,0,0,0,0,6,3,6,4,NaN,NaN,horizontal,horizontal,vertical,horizontal,none,none
1a,18,100170,2,24,88,22,M,NA,variable,heterogeneous,5,present,NaN,0,vertical,none,0,1.04705390930176,red,3,4,903.717843984329,367.045908301137,610.498069503264,429.371695378491,853.017481158529,849.42763818712,1053.60308331891,626.654758133252,903.717843984329,367.045908301137,610.498069503264,429.371695378491,579.163522034968,727.5,0,0,3,3,4,6,5,NaN,vertical,horizontal,vertical,horizontal,vertical,none
1a,18,100170,2,25,89,22,M,NA,variable,heterogeneous,6,present,1.57102704048157,1,vertical,vertical,1,1.09411221554405,green,4,3,808.899371659138,345.155339110131,1025.15163617903,480.284751489598,791.100628340862,854.844660889869,1016.25226451989,735.129412379467,1025.15163617903,480.284751489598,808.899371659138,345.155339110131,583.747735480111,464.870587620533,574.848363820974,719.715248510402,5,0,3,4,6,5,horizontal,horizontal,vertical,vertical,vertical,horizontal
1a,18,100170,2,26,90,22,M,NA,variable,heterogeneous,3,absent,0.949132919311523,1,vertical,vertical,1,0.917643567135459,green,2,NaN,865.998856501143,353.688914296288,NaN,NaN,980.31222920257,780.31222920257,865.998856501143,353.688914296288,553.688914296288,665.998856501143,0,0,0,0,0,0,5,4,6,NaN,NaN,NaN,vertical,vertical,horizontal,none,none,none
1a,18,100170,2,27,91,22,M,NA,variable,heterogeneous,6,absent,NaN,0,vertical,none,0,0.835291531211451,red,3,NaN,1043.85771277057,525.445215295702,NaN,NaN,742.637481142314,848.464366520235,986.495193912888,773.909581815937,1043.85771277057,525.445215295702,857.362518857686,351.535633479765,613.504806087112,426.090418184063,556.142287229426,674.554784704298,6,0,4,3,3,6,vertical,vertical,vertical,vertical,horizontal,horizontal
1a,18,100170,2,28,92,22,M,NA,variable,heterogeneous,6,present,1.52134895324707,1,horizontal,horizontal,1,0.811762378090306,green,5,4,572.793336331966,484.232422566416,786.654331158049,345.349468637584,813.345668841951,854.650531362416,1027.20666366803,715.767577433584,1013.86099482608,461.117046071168,786.654331158049,345.349468637584,572.793336331966,484.232422566416,586.139005173917,738.882953928832,0,0,3,3,4,6,vertical,horizontal,horizontal,vertical,horizontal,vertical
1a,18,100170,2,29,93,22,M,NA,variable,heterogeneous,5,present,1.27231287956238,1,horizontal,horizontal,1,0.623529153121145,green,4,3,782.212099195248,345.621167183745,1036.43188291453,504.475318678942,664.870587620533,816.252264519889,963.910840470068,795.341332995339,1036.43188291453,504.475318678942,782.212099195248,345.621167183745,552.574589799621,538.309916622085,0,0,3,5,3,4,6,NaN,vertical,horizontal,horizontal,horizontal,vertical,none
1a,18,100170,2,30,94,22,M,NA,variable,heterogeneous,5,absent,NaN,0,horizontal,none,0,0.858820684332597,green,2,NaN,1008.88377129369,746.261991269517,NaN,NaN,725.445215295702,843.857712770574,1008.88377129369,746.261991269517,1003.65205506206,446.537169096228,716.980120613425,358.892763222174,545.03883773512,604.450363641507,0,0,5,4,5,0,6,NaN,vertical,horizontal,vertical,horizontal,horizontal,none
1a,18,100170,2,31,95,22,M,NA,variable,heterogeneous,6,present,1.43225407600403,1,vertical,vertical,1,1.04705390930176,green,6,3,558.892763222174,683.019879386575,1041.10723677783,516.980120613425,751.343706178981,850.314931779154,992.450942956807,767.295052392579,1041.10723677783,516.980120613425,848.656293821019,349.685068220846,607.549057043193,432.704947607421,558.892763222174,683.019879386575,0,6,0,5,6,4,vertical,horizontal,vertical,vertical,horizontal,vertical
1a,18,100170,2,32,96,22,M,NA,variable,heterogeneous,4,present,1.47798991203308,1,vertical,vertical,1,0.64705830624229,red,2,1,1034.72873763037,699.636437764765,700.363562235235,834.728737630372,700.363562235235,834.728737630372,1034.72873763037,699.636437764765,899.636437764765,365.271262369628,565.271262369628,500.363562235235,0,0,0,0,5,4,0,5,NaN,NaN,horizontal,vertical,horizontal,horizontal,none,none
1a,18,100170,2,33,97,22,M,NA,variable,heterogeneous,6,absent,1.85979509353638,1,horizontal,horizontal,1,0.6,green,6,NaN,610.498069503264,770.628304621509,NaN,NaN,853.017481158529,849.42763818712,1042.51941165526,678.799333565612,989.501930496736,429.371695378491,746.982518841471,350.57236181288,557.480588344736,521.200666434388,610.498069503264,770.628304621509,6,0,6,3,5,4,vertical,horizontal,vertical,vertical,vertical,horizontal
1a,18,100170,2,34,98,22,M,NA,variable,heterogeneous,4,absent,NaN,0,horizontal,none,0,0.6,green,1,NaN,664.870587620533,816.252264519889,NaN,NaN,664.870587620533,816.252264519889,1016.25226451989,735.129412379467,935.129412379467,383.747735480111,583.747735480111,464.870587620533,0,0,0,0,4,0,6,6,NaN,NaN,horizontal,vertical,horizontal,horizontal,none,none
1a,18,100170,2,35,99,22,M,NA,variable,heterogeneous,5,absent,NaN,0,vertical,none,0,0.623529153121145,red,3,NaN,1000.94274216971,443.006323791957,NaN,NaN,729.712474266665,845.121732464271,1011.40458100154,742.594190385041,1000.94274216971,443.006323791957,712.784863451954,360.378381699593,545.155339110131,608.899371659138,0,0,0,3,4,6,3,NaN,horizontal,horizontal,vertical,horizontal,horizontal,none
1a,18,100170,2,36,100,22,M,NA,variable,heterogeneous,6,absent,1.33888411521912,1,horizontal,horizontal,1,0.635293729681718,red,3,NaN,927.5,379.163522034968,NaN,NaN,927.5,820.836477965032,1055,600,927.5,379.163522034968,672.5,379.163522034968,545,600,672.5,820.836477965032,5,6,4,0,3,6,vertical,horizontal,horizontal,horizontal,horizontal,vertical
1a,18,100170,2,37,101,22,M,NA,variable,heterogeneous,3,present,1.29943585395813,0,horizontal,vertical,1,0.682352035924008,green,2,1,822.224714400653,345.970351986605,1008.88377129369,746.261991269517,1008.88377129369,746.261991269517,822.224714400653,345.970351986605,568.891514305654,707.767656743878,0,0,0,0,0,0,6,4,3,NaN,NaN,NaN,vertical,horizontal,horizontal,none,none,none
1a,18,100170,2,38,102,22,M,NA,variable,heterogeneous,5,present,1.37773394584656,0,horizontal,vertical,1,0.6,red,1,3,721.200666434388,842.519411655264,1006.29933356561,450.114760665419,721.200666434388,842.519411655264,1006.29933356561,749.885239334581,1006.29933356561,450.114760665419,721.200666434388,357.480588344736,545,600,0,0,4,3,6,5,3,NaN,horizontal,horizontal,horizontal,vertical,horizontal,none
1a,18,100170,2,39,103,22,M,NA,variable,heterogeneous,5,present,1.27243900299072,1,vertical,vertical,1,0.941172720256605,green,3,5,1011.40458100154,457.40580961496,545.155339110131,591.100628340862,712.784863451954,839.621618300407,1000.94274216971,756.993676208043,1011.40458100154,457.40580961496,729.712474266665,354.878267535729,545.155339110131,591.100628340862,0,0,5,0,4,3,0,NaN,vertical,horizontal,vertical,horizontal,vertical,none
1a,18,100170,2,40,104,22,M,NA,variable,heterogeneous,5,absent,1.6572380065918,1,horizontal,horizontal,1,0.764704071848016,red,5,NaN,593.700666434388,749.885239334581,NaN,NaN,878.799333565612,842.519411655264,1055,600,878.799333565612,357.480588344736,593.700666434388,450.114760665419,593.700666434388,749.885239334581,0,0,3,6,0,3,4,NaN,horizontal,vertical,horizontal,vertical,horizontal,none
1a,18,100170,2,41,105,22,M,NA,variable,heterogeneous,4,absent,1.82339215278625,1,vertical,vertical,1,0.835291531211451,green,4,NaN,591.116228706307,746.261991269517,NaN,NaN,946.261991269517,808.883771293693,1008.88377129369,453.738008730483,653.738008730483,391.116228706307,591.116228706307,746.261991269517,0,0,0,0,5,6,3,4,NaN,NaN,vertical,vertical,horizontal,vertical,none,none
1a,18,100170,2,42,106,22,M,NA,variable,heterogeneous,3,absent,1.70444393157959,1,horizontal,horizontal,1,0.811762378090306,red,2,NaN,931.334709102064,381.422338320961,NaN,NaN,923.626453162816,823.028025320546,931.334709102064,381.422338320961,545.03883773512,595.549636358493,0,0,0,0,0,0,5,4,0,NaN,NaN,NaN,horizontal,horizontal,vertical,none,none,none
1a,18,100170,2,43,107,22,M,NA,variable,heterogeneous,3,absent,1.0266330242157,1,vertical,vertical,1,0.799997801529734,red,3,NaN,558.892763222174,516.980120613425,NaN,NaN,848.656293821019,850.314931779154,992.450942956807,432.704947607421,558.892763222174,516.980120613425,0,0,0,0,0,0,6,3,4,NaN,NaN,NaN,horizontal,vertical,vertical,none,none,none
1a,18,100170,2,44,108,22,M,NA,variable,heterogeneous,3,present,1.02664613723755,1,horizontal,horizontal,1,0.96470187337775,green,1,3,700.363562235235,834.728737630372,646.537169096228,396.34794493794,700.363562235235,834.728737630372,1053.09926866854,568.923317431687,646.537169096228,396.34794493794,0,0,0,0,0,0,4,5,3,NaN,NaN,NaN,horizontal,vertical,horizontal,none,none,none
1a,18,100170,2,45,109,22,M,NA,variable,heterogeneous,5,present,NaN,0,vertical,none,0,0.905878990574887,red,3,4,942.594190385041,388.595418998464,643.006323791957,399.057257830286,808.899371659138,854.844660889869,1045.12173246427,670.287525733335,942.594190385041,388.595418998464,643.006323791957,399.057257830286,560.378381699593,687.215136548046,0,0,5,0,4,0,3,NaN,vertical,horizontal,vertical,horizontal,horizontal,none
1a,18,100170,2,46,110,22,M,NA,variable,heterogeneous,3,absent,1.40288686752319,1,horizontal,horizontal,1,0.64705830624229,red,2,NaN,1000.94274216971,443.006323791957,NaN,NaN,835.489140744817,852.518357529101,1000.94274216971,443.006323791957,563.568117085469,504.475318678942,0,0,0,0,0,0,6,4,5,NaN,NaN,NaN,horizontal,horizontal,horizontal,none,none,none
1a,18,100170,2,47,111,22,M,NA,variable,heterogeneous,6,absent,0.952579975128174,1,vertical,vertical,1,1.0705830624229,green,3,NaN,1006.29933356561,450.114760665419,NaN,NaN,826.654758133252,853.60308331891,1032.95409169886,703.717843984329,1006.29933356561,450.114760665419,773.345241866748,346.39691668109,567.045908301137,496.282156015671,593.700666434388,749.885239334581,0,5,4,0,3,3,vertical,vertical,vertical,vertical,horizontal,horizontal
1a,18,100170,2,48,112,22,M,NA,variable,heterogeneous,6,present,1.43734216690063,0,horizontal,vertical,1,0.870585260893169,red,6,2,613.504806087112,773.909581815937,1043.85771277057,674.554784704298,857.362518857686,848.464366520235,1043.85771277057,674.554784704298,986.495193912888,426.090418184063,742.637481142314,351.535633479765,556.142287229426,525.445215295702,613.504806087112,773.909581815937,5,5,6,3,6,4,vertical,horizontal,horizontal,vertical,horizontal,horizontal
1a,18,100170,2,49,113,22,M,NA,variable,heterogeneous,6,present,1.50678181648254,1,horizontal,horizontal,1,0.611764576560573,green,1,4,800,855,800,345,800,855,1020.83647796503,727.5,1020.83647796503,472.5,800,345,579.163522034968,472.5,579.163522034968,727.5,4,3,3,5,5,0,horizontal,horizontal,vertical,horizontal,horizontal,horizontal
1a,18,100170,2,50,114,22,M,NA,variable,heterogeneous,3,absent,1.38471984863281,1,vertical,vertical,1,0.988231026498895,red,3,NaN,576.971974679454,476.373546837184,NaN,NaN,804.450363641507,854.96116226488,1018.57766167904,468.665290897936,576.971974679454,476.373546837184,0,0,0,0,0,0,6,5,4,NaN,NaN,NaN,horizontal,horizontal,vertical,none,none,none
1a,18,100170,2,51,115,22,M,NA,variable,heterogeneous,5,absent,NaN,0,horizontal,none,0,0.741174918726871,red,2,NaN,1011.40458100154,742.594190385041,NaN,NaN,729.712474266665,845.121732464271,1011.40458100154,742.594190385041,1000.94274216971,443.006323791957,712.784863451954,360.378381699593,545.155339110131,608.899371659138,0,0,0,4,6,6,0,NaN,vertical,horizontal,vertical,vertical,horizontal,none
1a,18,100170,2,52,116,22,M,NA,variable,heterogeneous,4,absent,1.64361906051636,0,vertical,horizontal,1,0.799997801529734,green,3,NaN,970.628304621509,410.498069503264,NaN,NaN,629.371695378491,789.501930496736,989.501930496736,770.628304621509,970.628304621509,410.498069503264,610.498069503264,429.371695378491,0,0,0,0,5,6,4,3,NaN,NaN,horizontal,horizontal,vertical,horizontal,none,none
1a,18,100170,2,53,117,22,M,NA,variable,heterogeneous,6,absent,1.47524309158325,0,horizontal,vertical,1,0.729410342166298,green,6,NaN,548.13947314824,639.890788585259,NaN,NaN,708.616172865948,838.063008756786,960.476699717708,798.172220171528,1051.86052685176,560.109211414741,891.383827134052,361.936991243214,639.523300282292,401.827779828472,548.13947314824,639.890788585259,6,6,0,3,5,4,horizontal,horizontal,vertical,vertical,horizontal,horizontal
1a,18,100170,2,54,118,22,M,NA,variable,heterogeneous,4,present,1.60798597335815,0,horizontal,vertical,1,0.752939495287443,green,2,4,995.341332995339,763.910840470068,604.658667004661,436.089159529932,636.089159529932,795.341332995339,995.341332995339,763.910840470068,963.910840470068,404.658667004661,604.658667004661,436.089159529932,0,0,0,0,5,4,6,3,NaN,NaN,vertical,horizontal,horizontal,vertical,none,none
1a,18,100170,2,55,119,22,M,NA,variable,heterogeneous,5,present,1.85598301887512,0,horizontal,vertical,1,0.988231026498895,red,5,2,574.848363820974,719.715248510402,1052.5183575291,635.489140744817,844.280285305067,851.125977018113,1052.5183575291,635.489140744817,911.784642431215,370.807518193712,616.568350913644,422.862115532956,574.848363820974,719.715248510402,0,0,6,6,3,5,4,NaN,horizontal,horizontal,vertical,horizontal,horizontal,none
1a,18,100170,2,56,120,22,M,NA,variable,heterogeneous,5,absent,1.93135404586792,1,vertical,vertical,1,0.705881189045153,green,2,NaN,1048.46436652023,542.637481142314,NaN,NaN,931.334709102064,818.577661679039,1048.46436652023,542.637481142314,822.224714400653,345.970351986605,565.271262369628,500.363562235235,632.704947607421,792.450942956807,0,0,6,4,6,3,0,NaN,vertical,vertical,horizontal,vertical,horizontal,none
1a,18,100170,2,57,121,22,M,NA,variable,heterogeneous,6,present,1.29023289680481,1,vertical,vertical,1,0.811762378090306,red,1,4,870.287525733335,845.121732464271,729.712474266665,354.878267535729,870.287525733335,845.121732464271,1047.42541020038,661.690083377915,977.137884467044,416.568350913644,729.712474266665,354.878267535729,552.574589799621,538.309916622085,622.862115532956,783.431649086356,4,5,5,6,0,3,vertical,horizontal,horizontal,horizontal,vertical,horizontal
1a,18,100170,2,58,122,22,M,NA,variable,heterogeneous,4,absent,1.94420313835144,1,horizontal,horizontal,1,0.788233224969161,red,3,NaN,831.076682568313,346.900731331463,NaN,NaN,768.923317431687,853.099268668537,1053.09926866854,631.076682568313,831.076682568313,346.900731331463,546.900731331463,568.923317431687,0,0,0,0,6,3,4,5,NaN,NaN,horizontal,vertical,horizontal,vertical,none,none
1a,18,100170,2,59,123,22,M,NA,variable,heterogeneous,5,absent,1.32520699501038,1,horizontal,horizontal,1,0.905878990574887,green,1,NaN,804.450363641507,854.96116226488,NaN,NaN,804.450363641507,854.96116226488,1043.85771277057,674.554784704298,946.261991269517,391.116228706307,646.537169096228,396.34794493794,558.892763222174,683.019879386575,0,0,4,5,3,5,6,NaN,horizontal,horizontal,vertical,vertical,vertical,none
1a,18,100170,2,60,124,22,M,NA,variable,heterogeneous,5,absent,NaN,0,vertical,none,0,0.611764576560573,green,4,NaN,700.363562235235,365.271262369628,NaN,NaN,742.637481142314,848.464366520235,1018.57766167904,731.334709102064,992.450942956807,432.704947607421,700.363562235235,365.271262369628,545.970351986605,622.224714400653,0,0,6,3,3,4,5,NaN,vertical,horizontal,vertical,vertical,horizontal,none
1a,18,100170,2,61,125,22,M,NA,variable,heterogeneous,4,present,1.9262421131134,1,vertical,vertical,1,0.694116612484581,green,4,3,545.349468637584,613.345668841951,786.654331158049,345.349468637584,813.345668841951,854.650531362416,1054.65053136242,586.654331158049,786.654331158049,345.349468637584,545.349468637584,613.345668841951,0,0,0,0,3,6,5,4,NaN,NaN,vertical,vertical,horizontal,vertical,none,none
1a,18,100170,2,62,126,22,M,NA,variable,heterogeneous,5,present,1.92669987678528,1,horizontal,horizontal,1,0.694116612484581,green,1,2,931.334709102064,818.577661679039,1048.46436652023,542.637481142314,931.334709102064,818.577661679039,1048.46436652023,542.637481142314,822.224714400653,345.970351986605,565.271262369628,500.363562235235,632.704947607421,792.450942956807,0,0,4,5,6,5,3,NaN,horizontal,vertical,horizontal,horizontal,vertical,none
1a,18,100170,2,63,127,22,M,NA,variable,heterogeneous,3,present,NaN,0,vertical,none,0,0.776468648408589,green,2,3,949.885239334581,393.700666434388,546.39691668109,573.345241866748,903.717843984329,832.954091698863,949.885239334581,393.700666434388,546.39691668109,573.345241866748,0,0,0,0,0,0,3,4,0,NaN,NaN,NaN,vertical,vertical,horizontal,none,none,none
1a,18,100170,2,64,128,22,M,NA,variable,heterogeneous,4,present,NaN,0,horizontal,none,0,0.799997801529734,green,3,1,639.523300282292,401.827779828472,960.476699717708,798.172220171528,960.476699717708,798.172220171528,998.172220171528,439.523300282291,639.523300282292,401.827779828472,601.827779828472,760.476699717708,0,0,0,0,6,0,4,3,NaN,NaN,vertical,horizontal,horizontal,horizontal,none,none
1a,18,100170,3,1,129,22,M,NA,variable,heterogeneous,5,present,1.42561507225037,1,vertical,vertical,1,1.08234763898348,red,1,4,874.554784704298,843.857712770574,596.34794493794,446.537169096228,874.554784704298,843.857712770574,1054.96116226488,604.450363641507,883.019879386575,358.892763222174,596.34794493794,446.537169096228,591.116228706307,746.261991269517,0,0,4,5,6,5,3,NaN,vertical,horizontal,vertical,horizontal,horizontal,none
1a,18,100170,3,2,130,22,M,NA,variable,heterogeneous,3,present,1.48132991790771,1,horizontal,horizontal,1,0.941172720256605,green,1,2,746.982518841471,849.42763818712,1042.51941165526,521.200666434388,746.982518841471,849.42763818712,1042.51941165526,521.200666434388,610.498069503264,429.371695378491,0,0,0,0,0,0,4,6,5,NaN,NaN,NaN,horizontal,vertical,horizontal,none,none,none
1a,18,100170,3,3,131,22,M,NA,variable,heterogeneous,4,present,0.824463129043579,1,vertical,vertical,1,0.858820684332597,red,3,2,835.489140744817,347.4816424709,1052.5183575291,635.489140744817,764.510859255183,852.518357529101,1052.5183575291,635.489140744817,835.489140744817,347.4816424709,547.481642470899,564.510859255183,0,0,0,0,0,6,4,0,NaN,NaN,vertical,vertical,vertical,vertical,none,none
1a,18,100170,3,4,132,22,M,NA,variable,heterogeneous,5,absent,1.27056694030762,1,horizontal,horizontal,1,1.0705830624229,green,3,NaN,1000.94274216971,443.006323791957,NaN,NaN,729.712474266665,845.121732464271,1011.40458100154,742.594190385041,1000.94274216971,443.006323791957,712.784863451954,360.378381699593,545.155339110131,608.899371659138,0,0,0,3,4,5,0,NaN,horizontal,horizontal,horizontal,vertical,vertical,none
1a,18,100170,3,5,133,22,M,NA,variable,heterogeneous,5,absent,1.75239205360413,1,vertical,vertical,1,0.811762378090306,red,3,NaN,915.767577433584,372.793336331966,NaN,NaN,839.890788585259,851.86052685176,1051.86052685176,639.890788585259,915.767577433584,372.793336331966,619.68777079743,419.68777079743,572.793336331966,715.767577433584,0,0,5,3,4,0,6,NaN,vertical,vertical,vertical,horizontal,vertical,none
1a,18,100170,3,6,134,22,M,NA,variable,heterogeneous,3,present,0.916801929473877,1,vertical,vertical,1,0.847056107772024,green,3,2,755.719714694933,348.874022981887,1039.62161830041,687.215136548046,604.658667004661,763.910840470068,1039.62161830041,687.215136548046,755.719714694933,348.874022981887,0,0,0,0,0,0,0,6,4,NaN,NaN,NaN,vertical,vertical,vertical,none,none,none
1a,18,100170,3,7,135,22,M,NA,variable,heterogeneous,3,present,1.00576591491699,1,horizontal,horizontal,1,0.917643567135459,red,3,1,708.616172865948,361.936991243214,639.523300282292,798.172220171528,639.523300282292,798.172220171528,1051.86052685176,639.890788585259,708.616172865948,361.936991243214,0,0,0,0,0,0,0,3,4,NaN,NaN,NaN,horizontal,horizontal,horizontal,none,none,none
1a,18,100170,3,8,136,22,M,NA,variable,heterogeneous,3,absent,1.11114811897278,1,horizontal,horizontal,1,0.658822882802863,green,2,NaN,826.654758133252,346.39691668109,NaN,NaN,1006.29933356561,749.885239334581,826.654758133252,346.39691668109,567.045908301137,703.717843984329,0,0,0,0,0,0,6,4,3,NaN,NaN,NaN,horizontal,horizontal,horizontal,none,none,none
1a,18,100170,3,9,137,22,M,NA,variable,heterogeneous,3,absent,0.811417818069458,1,vertical,vertical,1,0.894114414014314,red,3,NaN,557.480588344736,678.799333565612,NaN,NaN,989.501930496736,770.628304621509,853.017481158529,350.57236181288,557.480588344736,678.799333565612,0,0,0,0,0,0,0,5,4,NaN,NaN,NaN,vertical,vertical,vertical,none,none,none
1a,18,100170,3,10,138,22,M,NA,variable,heterogeneous,3,present,1.25196695327759,1,vertical,vertical,1,0.799997801529734,green,2,3,1046.31108570371,534.001143498857,619.68777079743,419.68777079743,734.001143498857,846.311085703712,1046.31108570371,534.001143498857,619.68777079743,419.68777079743,0,0,0,0,0,0,0,4,5,NaN,NaN,NaN,vertical,vertical,horizontal,none,none,none
1a,18,100170,3,11,139,22,M,NA,variable,heterogeneous,4,absent,1.3423638343811,1,vertical,vertical,1,0.858820684332597,red,1,NaN,795.549636358493,854.96116226488,NaN,NaN,795.549636358493,854.96116226488,1054.96116226488,604.450363641507,804.450363641507,345.03883773512,545.03883773512,595.549636358493,0,0,0,0,4,6,3,0,NaN,NaN,vertical,horizontal,vertical,horizontal,none,none
1a,18,100170,3,12,140,22,M,NA,variable,heterogeneous,5,absent,0.886345863342285,1,vertical,vertical,1,0.847056107772024,green,5,NaN,549.685068220846,648.656293821019,NaN,NaN,768.923317431687,853.099268668537,1031.10848569435,707.767656743878,973.909581815937,413.504806087112,676.373546837184,376.971974679454,549.685068220846,648.656293821019,0,0,3,6,3,5,4,NaN,vertical,horizontal,horizontal,horizontal,vertical,none
1a,18,100170,3,13,141,22,M,NA,variable,heterogeneous,4,present,1.80126905441284,1,horizontal,horizontal,1,0.847056107772024,green,3,1,907.767656743878,368.891514305654,692.232343256122,831.108485694346,692.232343256122,831.108485694346,1031.10848569435,707.767656743878,907.767656743878,368.891514305654,568.891514305654,492.232343256122,0,0,0,0,5,3,4,6,NaN,NaN,vertical,horizontal,horizontal,horizontal,none,none
1a,18,100170,3,14,142,22,M,NA,variable,heterogeneous,5,absent,1.61748600006104,1,vertical,vertical,1,1.01176017962004,red,2,NaN,998.172220171528,760.476699717708,NaN,NaN,708.616172865948,838.063008756786,998.172220171528,760.476699717708,1013.86099482608,461.117046071168,734.001143498857,353.688914296288,545.349468637584,586.654331158049,0,0,6,4,5,0,3,NaN,vertical,vertical,vertical,horizontal,horizontal,none
1a,18,100170,3,15,143,22,M,NA,variable,heterogeneous,4,absent,1.52096796035767,1,vertical,vertical,1,0.729410342166298,green,2,NaN,1020.83647796503,472.5,NaN,NaN,927.5,820.836477965032,1020.83647796503,472.5,672.5,379.163522034968,579.163522034968,727.5,0,0,0,0,0,4,6,6,NaN,NaN,vertical,vertical,horizontal,vertical,none,none
1a,18,100170,3,16,144,22,M,NA,variable,heterogeneous,3,present,1.37646293640137,1,vertical,vertical,1,1.04705390930176,red,3,1,553.688914296288,665.998856501143,980.31222920257,780.31222920257,980.31222920257,780.31222920257,865.998856501143,353.688914296288,553.688914296288,665.998856501143,0,0,0,0,0,0,5,0,4,NaN,NaN,NaN,vertical,horizontal,vertical,none,none,none
1a,18,100170,3,17,145,22,M,NA,variable,heterogeneous,6,present,1.69267511367798,0,vertical,horizontal,1,0.823526954650879,red,6,2,629.371695378491,789.501930496736,1049.42763818712,653.017481158529,878.799333565612,842.519411655264,1049.42763818712,653.017481158529,970.628304621509,410.498069503264,721.200666434388,357.480588344736,550.57236181288,546.982518841471,629.371695378491,789.501930496736,0,3,5,5,6,4,horizontal,horizontal,horizontal,horizontal,vertical,vertical
1a,18,100170,3,18,146,22,M,NA,variable,heterogeneous,6,present,1.41930413246155,1,horizontal,horizontal,1,0.823526954650879,red,3,1,1027.20666366803,484.232422566416,786.654331158049,854.650531362416,786.654331158049,854.650531362416,1013.86099482608,738.882953928832,1027.20666366803,484.232422566416,813.345668841951,345.349468637584,586.139005173917,461.117046071168,572.793336331966,715.767577433584,3,5,4,6,3,0,horizontal,vertical,horizontal,horizontal,horizontal,horizontal
1a,18,100170,3,19,147,22,M,NA,variable,heterogeneous,5,absent,1.85328197479248,1,vertical,vertical,1,0.670587459363435,green,5,NaN,550.57236181288,653.017481158529,NaN,NaN,773.345241866748,853.60308331891,1032.95409169886,703.717843984329,970.628304621509,410.498069503264,672.5,379.163522034968,550.57236181288,653.017481158529,0,0,6,5,0,3,4,NaN,vertical,horizontal,vertical,horizontal,vertical,none
1a,18,100170,3,20,148,22,M,NA,variable,heterogeneous,6,absent,1.54697012901306,1,horizontal,horizontal,1,0.623529153121145,green,4,NaN,861.690083377915,352.574589799621,NaN,NaN,738.309916622085,847.425410200379,983.431649086356,777.137884467044,1045.12173246427,529.712474266665,861.690083377915,352.574589799621,616.568350913644,422.862115532956,554.878267535729,670.287525733335,5,0,0,4,6,6,vertical,horizontal,horizontal,horizontal,vertical,horizontal
1a,18,100170,3,21,149,22,M,NA,variable,heterogeneous,3,absent,1.12159180641174,1,vertical,vertical,1,0.776468648408589,red,1,NaN,822.224714400653,854.029648013395,NaN,NaN,822.224714400653,854.029648013395,1008.88377129369,453.738008730483,568.891514305654,492.232343256122,0,0,0,0,0,0,4,0,6,NaN,NaN,NaN,vertical,horizontal,horizontal,none,none,none
1a,18,100170,3,22,150,22,M,NA,variable,heterogeneous,6,absent,1.85382008552551,0,vertical,horizontal,1,0.682352035924008,red,5,NaN,579.163522034968,472.5,NaN,NaN,800,855,1020.83647796503,727.5,1020.83647796503,472.5,800,345,579.163522034968,472.5,579.163522034968,727.5,6,3,5,3,4,0,horizontal,vertical,horizontal,vertical,vertical,horizontal
1a,18,100170,3,23,151,22,M,NA,variable,heterogeneous,5,present,NaN,0,horizontal,none,0,1.04705390930176,red,1,2,813.345668841951,854.650531362416,1046.31108570371,665.998856501143,813.345668841951,854.650531362416,1046.31108570371,665.998856501143,938.882953928832,386.139005173917,639.523300282292,401.827779828472,561.936991243214,691.383827134052,0,0,4,6,0,3,5,NaN,horizontal,horizontal,vertical,vertical,vertical,none
1a,18,100170,3,24,152,22,M,NA,variable,heterogeneous,6,present,NaN,0,vertical,none,0,1.05881848586233,red,5,6,596.34794493794,446.537169096228,565.271262369628,699.636437764765,768.923317431687,853.099268668537,1003.65205506206,753.462830903772,1034.72873763037,500.363562235235,831.076682568313,346.900731331463,596.34794493794,446.537169096228,565.271262369628,699.636437764765,5,0,3,5,4,6,horizontal,horizontal,vertical,vertical,vertical,horizontal
1a,18,100170,3,25,153,22,M,NA,variable,heterogeneous,5,present,NaN,0,horizontal,none,0,0.823526954650879,green,4,3,716.980120613425,358.892763222174,1003.65205506206,446.537169096228,725.445215295702,843.857712770574,1008.88377129369,746.261991269517,1003.65205506206,446.537169096228,716.980120613425,358.892763222174,545.03883773512,604.450363641507,0,0,5,3,3,4,6,NaN,horizontal,vertical,horizontal,horizontal,horizontal,none
1a,18,100170,3,26,154,22,M,NA,variable,heterogeneous,5,present,NaN,0,horizontal,none,0,0.999995603059467,red,1,4,835.489140744817,852.518357529101,622.862115532956,416.568350913644,835.489140744817,852.518357529101,1051.12597701811,644.280285305067,919.715248510402,374.848363820974,622.862115532956,416.568350913644,570.807518193712,711.784642431215,0,0,4,5,0,0,6,NaN,horizontal,vertical,vertical,horizontal,vertical,none
1a,18,100170,3,27,155,22,M,NA,variable,heterogeneous,3,absent,1.25833606719971,1,horizontal,horizontal,1,0.776468648408589,green,2,NaN,1034.72873763037,699.636437764765,NaN,NaN,596.34794493794,753.462830903772,1034.72873763037,699.636437764765,768.923317431687,346.900731331463,0,0,0,0,0,0,5,4,0,NaN,NaN,NaN,horizontal,horizontal,horizontal,none,none,none
1a,18,100170,3,28,156,22,M,NA,variable,heterogeneous,4,present,1.2032790184021,1,horizontal,horizontal,1,0.976466449938322,red,1,3,688.215357568785,829.192481806288,911.784642431215,370.807518193712,688.215357568785,829.192481806288,1029.19248180629,711.784642431215,911.784642431215,370.807518193712,570.807518193712,488.215357568785,0,0,0,0,4,3,6,5,NaN,NaN,horizontal,vertical,horizontal,horizontal,none,none
1a,18,100170,3,29,157,22,M,NA,variable,heterogeneous,4,absent,1.42912101745605,1,horizontal,horizontal,1,0.882349837453742,red,1,NaN,746.982518841471,849.42763818712,NaN,NaN,746.982518841471,849.42763818712,1049.42763818712,653.017481158529,853.017481158529,350.57236181288,550.57236181288,546.982518841471,0,0,0,0,4,6,3,0,NaN,NaN,horizontal,vertical,vertical,vertical,none,none
1a,18,100170,3,30,158,22,M,NA,variable,heterogeneous,4,absent,1.17694497108459,1,horizontal,horizontal,1,0.752939495287443,green,3,NaN,664.870587620533,383.747735480111,NaN,NaN,935.129412379467,816.252264519889,1016.25226451989,464.870587620533,664.870587620533,383.747735480111,583.747735480111,735.129412379467,0,0,0,0,0,5,4,3,NaN,NaN,vertical,vertical,horizontal,vertical,none,none
1a,18,100170,3,31,159,22,M,NA,variable,heterogeneous,4,absent,1.59211993217468,1,vertical,vertical,1,0.764704071848016,green,3,NaN,716.980120613425,358.892763222174,NaN,NaN,883.019879386575,841.107236777826,1041.10723677783,516.980120613425,716.980120613425,358.892763222174,558.892763222174,683.019879386575,0,0,0,0,5,6,4,0,NaN,NaN,horizontal,vertical,vertical,vertical,none,none
1a,18,100170,3,32,160,22,M,NA,variable,heterogeneous,4,present,1.45658397674561,1,vertical,vertical,1,0.823526954650879,green,2,4,1050.31493177915,551.343706178981,549.685068220846,648.656293821019,848.656293821019,850.314931779154,1050.31493177915,551.343706178981,751.343706178981,349.685068220846,549.685068220846,648.656293821019,0,0,0,0,3,4,0,5,NaN,NaN,vertical,vertical,vertical,vertical,none,none
1a,18,100170,3,33,161,22,M,NA,variable,heterogeneous,5,absent,NaN,0,horizontal,none,0,1.09411221554405,green,2,NaN,1031.10848569435,707.767656743878,NaN,NaN,768.923317431687,853.099268668537,1031.10848569435,707.767656743878,973.909581815937,413.504806087112,676.373546837184,376.971974679454,549.685068220846,648.656293821019,0,0,3,4,3,0,6,NaN,horizontal,horizontal,vertical,horizontal,vertical,none
1a,18,100170,3,34,162,22,M,NA,variable,heterogeneous,6,absent,1.31790208816528,1,vertical,vertical,1,1.09411221554405,red,3,NaN,1025.15163617903,480.284751489598,NaN,NaN,791.100628340862,854.844660889869,1016.25226451989,735.129412379467,1025.15163617903,480.284751489598,808.899371659138,345.155339110131,583.747735480111,464.870587620533,574.848363820974,719.715248510402,5,0,4,5,3,6,vertical,horizontal,vertical,vertical,vertical,vertical
1a,18,100170,3,35,163,22,M,NA,variable,heterogeneous,5,present,0.718899965286255,1,vertical,vertical,1,0.917643567135459,green,2,3,1045.12173246427,529.712474266665,808.899371659138,345.155339110131,942.594190385041,811.404581001536,1045.12173246427,529.712474266665,808.899371659138,345.155339110131,560.378381699593,512.784863451954,643.006323791957,800.942742169714,0,0,5,4,0,0,5,NaN,vertical,vertical,horizontal,horizontal,vertical,none
1a,18,100170,3,36,164,22,M,NA,variable,heterogeneous,3,absent,0.947880983352661,1,vertical,vertical,1,0.929408143696032,green,1,NaN,946.261991269517,808.883771293693,NaN,NaN,946.261991269517,808.883771293693,907.767656743878,368.891514305654,545.970351986605,622.224714400653,0,0,0,0,0,0,4,6,5,NaN,NaN,NaN,vertical,vertical,vertical,none,none,none
1a,18,100170,3,37,165,22,M,NA,variable,heterogeneous,5,present,0.966842889785767,1,vertical,vertical,1,0.788233224969161,red,2,3,1053.60308331891,626.654758133252,903.717843984329,367.045908301137,853.017481158529,849.42763818712,1053.60308331891,626.654758133252,903.717843984329,367.045908301137,610.498069503264,429.371695378491,579.163522034968,727.5,0,0,0,4,5,5,3,NaN,vertical,vertical,horizontal,horizontal,horizontal,none
1a,18,100170,3,38,166,22,M,NA,variable,heterogeneous,3,present,1.33732795715332,1,horizontal,horizontal,1,0.941172720256605,red,3,2,632.704947607421,407.549057043193,1050.31493177915,551.343706178981,716.980120613425,841.107236777826,1050.31493177915,551.343706178981,632.704947607421,407.549057043193,0,0,0,0,0,0,3,3,4,NaN,NaN,NaN,vertical,vertical,horizontal,none,none,none
1a,18,100170,3,39,167,22,M,NA,variable,heterogeneous,6,present,1.87375903129578,1,vertical,vertical,1,1.08234763898348,green,5,2,561.936991243214,508.616172865948,1038.06300875679,691.383827134052,839.890788585259,851.86052685176,1038.06300875679,691.383827134052,998.172220171528,439.523300282291,760.109211414741,348.13947314824,561.936991243214,508.616172865948,601.827779828472,760.476699717708,0,5,6,5,4,3,vertical,horizontal,horizontal,vertical,vertical,horizontal
1a,18,100170,3,40,168,22,M,NA,variable,heterogeneous,5,present,1.67418718338013,1,horizontal,horizontal,1,0.941172720256605,green,2,3,1025.15163617903,719.715248510402,983.431649086356,422.862115532956,755.719714694933,851.125977018113,1025.15163617903,719.715248510402,983.431649086356,422.862115532956,688.215357568785,370.807518193712,547.481642470899,635.489140744817,0,0,0,4,5,3,6,NaN,horizontal,horizontal,vertical,vertical,vertical,none
1a,18,100170,3,41,169,22,M,NA,variable,heterogeneous,4,present,1.08094906806946,1,vertical,vertical,1,0.847056107772024,green,3,4,619.68777079743,419.68777079743,619.68777079743,780.31222920257,980.31222920257,780.31222920257,980.31222920257,419.68777079743,619.68777079743,419.68777079743,619.68777079743,780.31222920257,0,0,0,0,0,5,4,5,NaN,NaN,vertical,horizontal,vertical,vertical,none,none
1a,18,100170,3,42,170,22,M,NA,variable,heterogeneous,4,absent,0.792060852050781,1,vertical,vertical,1,0.858820684332597,red,3,NaN,636.089159529932,404.658667004661,NaN,NaN,963.910840470068,795.341332995339,995.341332995339,436.089159529932,636.089159529932,404.658667004661,604.658667004661,763.910840470068,0,0,0,0,6,3,4,6,NaN,NaN,vertical,vertical,vertical,vertical,none,none
1a,18,100170,3,43,171,22,M,NA,variable,heterogeneous,6,present,1.73605608940125,1,horizontal,horizontal,1,0.799997801529734,red,2,6,1006.29933356561,749.885239334581,567.045908301137,703.717843984329,773.345241866748,853.60308331891,1006.29933356561,749.885239334581,1032.95409169886,496.282156015671,826.654758133252,346.39691668109,593.700666434388,450.114760665419,567.045908301137,703.717843984329,0,4,5,6,3,3,horizontal,horizontal,vertical,vertical,vertical,horizontal
1a,18,100170,3,44,172,22,M,NA,variable,heterogeneous,6,present,1.53419494628906,0,horizontal,vertical,1,0.764704071848016,green,2,4,1008.88377129369,746.261991269517,822.224714400653,345.970351986605,777.775285599347,854.029648013395,1008.88377129369,746.261991269517,1031.10848569435,492.232343256122,822.224714400653,345.970351986605,591.116228706307,453.738008730483,568.891514305654,707.767656743878,6,4,0,6,5,0,vertical,horizontal,horizontal,horizontal,vertical,horizontal
1a,18,100170,3,45,173,22,M,NA,variable,heterogeneous,5,absent,NaN,0,horizontal,none,0,0.929408143696032,red,1,NaN,817.787900804752,854.378832816255,NaN,NaN,817.787900804752,854.378832816255,1047.42541020038,661.690083377915,935.129412379467,383.747735480111,636.089159529932,404.658667004661,563.568117085469,695.524681321058,0,0,4,3,5,0,5,NaN,horizontal,vertical,horizontal,horizontal,horizontal,none
1a,18,100170,3,46,174,22,M,NA,variable,heterogeneous,3,present,1.52817416191101,1,vertical,vertical,1,0.611764576560573,red,2,1,1020.83647796503,472.5,800,855,800,855,1020.83647796503,472.5,579.163522034968,472.5,0,0,0,0,0,0,5,4,0,NaN,NaN,NaN,horizontal,vertical,vertical,none,none,none
1a,18,100170,3,47,175,22,M,NA,variable,heterogeneous,3,absent,1.06362009048462,1,vertical,vertical,1,1.03528933274119,green,3,NaN,545.155339110131,591.100628340862,NaN,NaN,919.715248510402,825.151636179026,935.129412379467,383.747735480111,545.155339110131,591.100628340862,0,0,0,0,0,0,3,3,4,NaN,NaN,NaN,horizontal,vertical,vertical,none,none,none
1a,18,100170,3,48,176,22,M,NA,variable,heterogeneous,4,present,1.35387396812439,1,horizontal,horizontal,1,0.623529153121145,green,3,1,626.090418184063,413.504806087112,973.909581815937,786.495193912888,973.909581815937,786.495193912888,986.495193912888,426.090418184063,626.090418184063,413.504806087112,613.504806087112,773.909581815937,0,0,0,0,5,0,4,3,NaN,NaN,vertical,vertical,horizontal,horizontal,none,none
1a,18,100170,3,49,177,22,M,NA,variable,heterogeneous,4,present,1.30621600151062,0,horizontal,vertical,1,0.858820684332597,red,2,4,1023.02802532055,723.626453162816,576.971974679454,476.373546837184,676.373546837184,823.028025320546,1023.02802532055,723.626453162816,923.626453162816,376.971974679454,576.971974679454,476.373546837184,0,0,0,0,0,4,3,6,NaN,NaN,vertical,horizontal,vertical,horizontal,none,none
1a,18,100170,3,50,178,22,M,NA,variable,heterogeneous,6,absent,NaN,0,horizontal,none,0,0.776468648408589,red,2,NaN,1049.42763818712,653.017481158529,NaN,NaN,878.799333565612,842.519411655264,1049.42763818712,653.017481158529,970.628304621509,410.498069503264,721.200666434388,357.480588344736,550.57236181288,546.982518841471,629.371695378491,789.501930496736,5,4,0,6,0,6,horizontal,horizontal,vertical,vertical,vertical,horizontal
1a,18,100170,3,51,179,22,M,NA,variable,heterogeneous,3,absent,1.45978903770447,1,horizontal,horizontal,1,0.764704071848016,red,1,NaN,607.549057043193,767.295052392579,NaN,NaN,607.549057043193,767.295052392579,1041.10723677783,683.019879386575,751.343706178981,349.685068220846,0,0,0,0,0,0,4,0,6,NaN,NaN,NaN,horizontal,horizontal,vertical,none,none,none
1a,18,100170,3,52,180,22,M,NA,variable,heterogeneous,6,absent,1.36611485481262,1,horizontal,horizontal,1,0.847056107772024,green,6,NaN,545.03883773512,604.450363641507,NaN,NaN,676.373546837184,823.028025320546,931.334709102064,818.577661679039,1054.96116226488,595.549636358493,923.626453162816,376.971974679454,668.665290897936,381.422338320961,545.03883773512,604.450363641507,0,3,6,0,5,4,horizontal,horizontal,horizontal,vertical,vertical,horizontal
1a,18,100170,3,53,181,22,M,NA,variable,heterogeneous,6,absent,0.796616077423096,1,vertical,vertical,1,0.952937296817177,green,5,NaN,668.665290897936,381.422338320961,NaN,NaN,676.373546837184,823.028025320546,931.334709102064,818.577661679039,1054.96116226488,595.549636358493,923.626453162816,376.971974679454,668.665290897936,381.422338320961,545.03883773512,604.450363641507,5,5,0,0,4,6,horizontal,horizontal,vertical,horizontal,vertical,vertical
1a,18,100170,3,54,182,22,M,NA,variable,heterogeneous,6,present,1.09462285041809,1,vertical,vertical,1,0.694116612484581,green,5,4,581.422338320961,468.665290897936,804.450363641507,345.03883773512,795.549636358493,854.96116226488,1018.57766167904,731.334709102064,1023.02802532055,476.373546837184,804.450363641507,345.03883773512,581.422338320961,468.665290897936,576.971974679454,723.626453162816,3,6,0,5,4,3,horizontal,horizontal,horizontal,horizontal,vertical,vertical
1a,18,100170,3,55,183,22,M,NA,variable,heterogeneous,6,absent,NaN,0,vertical,none,0,0.976466449938322,green,1,NaN,742.637481142314,848.464366520235,NaN,NaN,742.637481142314,848.464366520235,986.495193912888,773.909581815937,1043.85771277057,525.445215295702,857.362518857686,351.535633479765,613.504806087112,426.090418184063,556.142287229426,674.554784704298,4,0,3,6,5,5,vertical,vertical,vertical,horizontal,vertical,vertical
1a,18,100170,3,56,184,22,M,NA,variable,heterogeneous,6,present,1.81501817703247,1,horizontal,horizontal,1,0.929408143696032,green,3,2,1042.51941165526,521.200666434388,989.501930496736,770.628304621509,746.982518841471,849.42763818712,989.501930496736,770.628304621509,1042.51941165526,521.200666434388,853.017481158529,350.57236181288,610.498069503264,429.371695378491,557.480588344736,678.799333565612,0,5,4,3,0,6,horizontal,vertical,horizontal,horizontal,vertical,horizontal
1a,18,100170,3,57,185,22,M,NA,variable,heterogeneous,4,present,1.37520289421082,1,vertical,vertical,1,0.776468648408589,red,1,3,808.899371659138,854.844660889869,791.100628340862,345.155339110131,808.899371659138,854.844660889869,1054.84466088987,591.100628340862,791.100628340862,345.155339110131,545.155339110131,608.899371659138,0,0,0,0,4,0,0,3,NaN,NaN,vertical,vertical,vertical,vertical,none,none
1a,18,100170,3,58,186,22,M,NA,variable,heterogeneous,5,absent,1.57755994796753,1,horizontal,horizontal,1,0.729410342166298,red,3,NaN,865.998856501143,353.688914296288,NaN,NaN,891.383827134052,838.063008756786,1054.65053136242,586.654331158049,865.998856501143,353.688914296288,586.139005173917,461.117046071168,601.827779828472,760.476699717708,0,0,6,5,4,5,3,NaN,horizontal,vertical,horizontal,vertical,horizontal,none
1a,18,100170,3,59,187,22,M,NA,variable,heterogeneous,4,absent,1.578125,1,horizontal,horizontal,1,0.635293729681718,green,3,NaN,680.284751489598,374.848363820974,NaN,NaN,919.715248510402,825.151636179026,1025.15163617903,480.284751489598,680.284751489598,374.848363820974,574.848363820974,719.715248510402,0,0,0,0,3,0,4,6,NaN,NaN,horizontal,horizontal,horizontal,vertical,none,none
1a,18,100170,3,60,188,22,M,NA,variable,heterogeneous,3,present,1.13579297065735,1,horizontal,horizontal,1,1.09411221554405,green,1,2,777.775285599347,854.029648013395,1031.10848569435,492.232343256122,777.775285599347,854.029648013395,1031.10848569435,492.232343256122,591.116228706307,453.738008730483,0,0,0,0,0,0,4,3,0,NaN,NaN,NaN,horizontal,vertical,horizontal,none,none,none
1a,18,100170,3,61,189,22,M,NA,variable,heterogeneous,6,absent,1.26194500923157,1,horizontal,horizontal,1,0.764704071848016,red,5,NaN,650.114760665419,393.700666434388,NaN,NaN,696.282156015671,832.954091698863,949.885239334581,806.299333565612,1053.60308331891,573.345241866748,903.717843984329,367.045908301137,650.114760665419,393.700666434388,546.39691668109,626.654758133252,3,0,5,0,4,5,horizontal,horizontal,vertical,horizontal,horizontal,horizontal
1a,18,100170,3,62,190,22,M,NA,variable,heterogeneous,4,absent,0.862521886825562,1,horizontal,horizontal,1,0.952937296817177,red,3,NaN,831.076682568313,346.900731331463,NaN,NaN,768.923317431687,853.099268668537,1053.09926866854,631.076682568313,831.076682568313,346.900731331463,546.900731331463,568.923317431687,0,0,0,0,6,5,4,0,NaN,NaN,horizontal,horizontal,horizontal,vertical,none,none
1a,18,100170,3,63,191,22,M,NA,variable,heterogeneous,3,absent,1.35603904724121,1,horizontal,horizontal,1,0.811762378090306,red,2,NaN,1018.57766167904,468.665290897936,NaN,NaN,804.450363641507,854.96116226488,1018.57766167904,468.665290897936,576.971974679454,476.373546837184,0,0,0,0,0,0,0,4,5,NaN,NaN,NaN,vertical,horizontal,horizontal,none,none,none
1a,18,100170,3,64,192,22,M,NA,variable,heterogeneous,5,present,1.79981017112732,1,vertical,vertical,1,0.623529153121145,green,3,4,865.998856501143,353.688914296288,586.139005173917,461.117046071168,891.383827134052,838.063008756786,1054.65053136242,586.654331158049,865.998856501143,353.688914296288,586.139005173917,461.117046071168,601.827779828472,760.476699717708,0,0,3,0,4,0,5,NaN,horizontal,horizontal,vertical,vertical,vertical,none
1a,18,100170,4,1,193,22,M,NA,variable,heterogeneous,5,absent,1.47874402999878,1,vertical,vertical,1,0.941172720256605,red,3,NaN,808.899371659138,345.155339110131,NaN,NaN,942.594190385041,811.404581001536,1045.12173246427,529.712474266665,808.899371659138,345.155339110131,560.378381699593,512.784863451954,643.006323791957,800.942742169714,0,0,3,0,4,3,6,NaN,vertical,vertical,vertical,vertical,vertical,none
1a,18,100170,4,2,194,22,M,NA,variable,heterogeneous,4,absent,1.19258904457092,1,vertical,vertical,1,1.01176017962004,red,3,NaN,804.450363641507,345.03883773512,NaN,NaN,795.549636358493,854.96116226488,1054.96116226488,604.450363641507,804.450363641507,345.03883773512,545.03883773512,595.549636358493,0,0,0,0,0,5,4,0,NaN,NaN,vertical,horizontal,vertical,horizontal,none,none
1a,18,100170,4,3,195,22,M,NA,variable,heterogeneous,5,absent,1.2806658744812,1,horizontal,horizontal,1,0.999995603059467,green,3,NaN,1034.72873763037,500.363562235235,NaN,NaN,668.665290897936,818.577661679039,967.295052392579,792.450942956807,1034.72873763037,500.363562235235,777.775285599347,345.970351986605,551.535633479765,542.637481142314,0,0,0,6,4,5,3,NaN,horizontal,horizontal,horizontal,vertical,vertical,none
1a,18,100170,4,4,196,22,M,NA,variable,heterogeneous,3,present,0.960133790969849,1,vertical,vertical,1,0.894114414014314,green,1,2,653.738008730483,808.883771293693,1054.0296480134,622.224714400653,653.738008730483,808.883771293693,1054.0296480134,622.224714400653,692.232343256122,368.891514305654,0,0,0,0,0,0,4,5,6,NaN,NaN,NaN,vertical,vertical,horizontal,none,none,none
1a,18,100170,4,5,197,22,M,NA,variable,heterogeneous,3,present,1.19417691230774,1,horizontal,horizontal,1,0.929408143696032,red,2,3,953.462830903772,396.34794493794,546.900731331463,568.923317431687,899.636437764765,834.728737630372,953.462830903772,396.34794493794,546.900731331463,568.923317431687,0,0,0,0,0,0,5,4,0,NaN,NaN,NaN,horizontal,horizontal,horizontal,none,none,none
1a,18,100170,4,6,198,22,M,NA,variable,heterogeneous,4,absent,1.00403881072998,1,vertical,vertical,1,0.894114414014314,red,4,NaN,565.271262369628,500.363562235235,NaN,NaN,700.363562235235,834.728737630372,1034.72873763037,699.636437764765,899.636437764765,365.271262369628,565.271262369628,500.363562235235,0,0,0,0,3,0,5,4,NaN,NaN,vertical,vertical,vertical,vertical,none,none
1a,18,100170,4,7,199,22,M,NA,variable,heterogeneous,6,present,1.39748191833496,1,vertical,vertical,1,1.05881848586233,red,4,1,700.363562235235,365.271262369628,899.636437764765,834.728737630372,899.636437764765,834.728737630372,1053.09926866854,631.076682568313,953.462830903772,396.34794493794,700.363562235235,365.271262369628,546.900731331463,568.923317431687,646.537169096228,803.65205506206,6,0,6,4,5,0,vertical,horizontal,horizontal,vertical,horizontal,horizontal
1a,18,100170,4,8,200,22,M,NA,variable,heterogeneous,5,absent,1.28024291992188,1,vertical,vertical,1,0.941172720256605,green,5,NaN,545.03883773512,604.450363641507,NaN,NaN,725.445215295702,843.857712770574,1008.88377129369,746.261991269517,1003.65205506206,446.537169096228,716.980120613425,358.892763222174,545.03883773512,604.450363641507,0,0,5,0,3,3,4,NaN,vertical,horizontal,vertical,vertical,vertical,none
1a,18,100170,4,9,201,22,M,NA,variable,heterogeneous,5,present,1.91416215896606,1,horizontal,horizontal,1,1.01176017962004,red,3,4,899.636437764765,365.271262369628,607.549057043193,432.704947607421,857.362518857686,848.464366520235,1054.0296480134,622.224714400653,899.636437764765,365.271262369628,607.549057043193,432.704947607421,581.422338320961,731.334709102064,0,0,5,6,4,6,0,NaN,horizontal,vertical,horizontal,horizontal,vertical,none
1a,18,100170,4,10,202,22,M,NA,variable,heterogeneous,4,present,0.826897859573364,1,vertical,vertical,1,0.705881189045153,red,4,1,591.116228706307,453.738008730483,653.738008730483,808.883771293693,653.738008730483,808.883771293693,1008.88377129369,746.261991269517,946.261991269517,391.116228706307,591.116228706307,453.738008730483,0,0,0,0,5,6,6,4,NaN,NaN,vertical,horizontal,horizontal,vertical,none,none
1a,18,100170,4,11,203,22,M,NA,variable,heterogeneous,3,absent,0.791935920715332,1,vertical,vertical,1,1.02352475618061,green,1,NaN,891.383827134052,838.063008756786,NaN,NaN,891.383827134052,838.063008756786,960.476699717708,401.827779828472,548.13947314824,560.109211414741,0,0,0,0,0,0,4,6,0,NaN,NaN,NaN,vertical,vertical,horizontal,none,none,none
1a,18,100170,4,12,204,22,M,NA,variable,heterogeneous,3,absent,0.997451066970825,1,horizontal,horizontal,1,0.882349837453742,red,1,NaN,782.212099195248,854.378832816255,NaN,NaN,782.212099195248,854.378832816255,1029.19248180629,488.215357568785,588.595418998464,457.40580961496,0,0,0,0,0,0,4,6,3,NaN,NaN,NaN,horizontal,horizontal,vertical,none,none,none
1a,18,100170,4,13,205,22,M,NA,variable,heterogeneous,4,present,0.825819969177246,1,horizontal,horizontal,1,0.611764576560573,red,4,3,619.68777079743,780.31222920257,619.68777079743,419.68777079743,980.31222920257,780.31222920257,980.31222920257,419.68777079743,619.68777079743,419.68777079743,619.68777079743,780.31222920257,0,0,0,0,0,3,5,4,NaN,NaN,horizontal,horizontal,vertical,horizontal,none,none
1a,18,100170,4,14,206,22,M,NA,variable,heterogeneous,3,present,0.81325888633728,1,horizontal,horizontal,1,0.729410342166298,red,3,1,751.343706178981,349.685068220846,607.549057043193,767.295052392579,607.549057043193,767.295052392579,1041.10723677783,683.019879386575,751.343706178981,349.685068220846,0,0,0,0,0,0,5,0,4,NaN,NaN,NaN,vertical,horizontal,horizontal,none,none,none
1a,18,100170,4,15,207,22,M,NA,variable,heterogeneous,6,absent,NaN,0,horizontal,none,0,0.941172720256605,red,1,NaN,704.475318678942,836.431882914531,NaN,NaN,704.475318678942,836.431882914531,956.993676208043,800.942742169714,1052.5183575291,564.510859255183,895.524681321058,363.568117085469,643.006323791957,399.057257830286,547.481642470899,635.489140744817,4,0,5,0,3,5,horizontal,vertical,vertical,horizontal,horizontal,vertical
1a,18,100170,4,16,208,22,M,NA,variable,heterogeneous,6,present,1.9860098361969,1,vertical,vertical,1,0.858820684332597,green,2,4,960.476699717708,798.172220171528,891.383827134052,361.936991243214,708.616172865948,838.063008756786,960.476699717708,798.172220171528,1051.86052685176,560.109211414741,891.383827134052,361.936991243214,639.523300282292,401.827779828472,548.13947314824,639.890788585259,6,4,0,5,3,3,horizontal,vertical,vertical,horizontal,horizontal,vertical
1a,18,100170,4,17,209,22,M,NA,variable,heterogeneous,4,absent,1.02649998664856,1,horizontal,horizontal,1,1.03528933274119,green,3,NaN,629.371695378491,410.498069503264,NaN,NaN,970.628304621509,789.501930496736,989.501930496736,429.371695378491,629.371695378491,410.498069503264,610.498069503264,770.628304621509,0,0,0,0,3,6,4,3,NaN,NaN,horizontal,horizontal,horizontal,horizontal,none,none
1a,18,100170,4,18,210,22,M,NA,variable,heterogeneous,4,absent,0.648169040679932,1,vertical,vertical,1,0.847056107772024,green,1,NaN,813.345668841951,854.650531362416,NaN,NaN,813.345668841951,854.650531362416,1054.65053136242,586.654331158049,786.654331158049,345.349468637584,545.349468637584,613.345668841951,0,0,0,0,4,0,5,6,NaN,NaN,vertical,vertical,vertical,vertical,none,none
1a,18,100170,4,19,211,22,M,NA,variable,heterogeneous,5,absent,1.28626799583435,1,vertical,vertical,1,0.847056107772024,red,5,NaN,554.878267535729,529.712474266665,NaN,NaN,657.405809614959,811.404581001536,956.993676208043,800.942742169714,1039.62161830041,512.784863451954,791.100628340862,345.155339110131,554.878267535729,529.712474266665,0,0,0,5,5,3,4,NaN,horizontal,horizontal,vertical,vertical,vertical,none
1a,18,100170,4,20,212,22,M,NA,variable,heterogeneous,6,present,1.51127004623413,1,horizontal,horizontal,1,0.752939495287443,red,6,1,636.089159529932,795.341332995339,887.215136548046,839.621618300407,887.215136548046,839.621618300407,1051.12597701811,644.280285305067,963.910840470068,404.658667004661,712.784863451954,360.378381699593,548.874022981887,555.719714694933,636.089159529932,795.341332995339,0,6,5,3,3,4,vertical,horizontal,vertical,horizontal,horizontal,horizontal
1a,18,100170,4,21,213,22,M,NA,variable,heterogeneous,3,present,1.66295289993286,1,vertical,vertical,1,0.858820684332597,green,3,2,572.793336331966,484.232422566416,1013.86099482608,461.117046071168,813.345668841951,854.650531362416,1013.86099482608,461.117046071168,572.793336331966,484.232422566416,0,0,0,0,0,0,0,6,4,NaN,NaN,NaN,horizontal,horizontal,vertical,none,none,none
1a,18,100170,4,22,214,22,M,NA,variable,heterogeneous,6,present,NaN,0,horizontal,none,0,1.09411221554405,green,6,3,572.793336331966,715.767577433584,1027.20666366803,484.232422566416,786.654331158049,854.650531362416,1013.86099482608,738.882953928832,1027.20666366803,484.232422566416,813.345668841951,345.349468637584,586.139005173917,461.117046071168,572.793336331966,715.767577433584,3,6,3,6,0,4,horizontal,vertical,horizontal,horizontal,horizontal,horizontal
1a,18,100170,4,23,215,22,M,NA,variable,heterogeneous,4,present,0.947838068008423,1,vertical,vertical,1,0.658822882802863,green,4,2,599.057257830286,756.993676208043,1000.94274216971,443.006323791957,956.993676208043,800.942742169714,1000.94274216971,443.006323791957,643.006323791957,399.057257830286,599.057257830286,756.993676208043,0,0,0,0,0,3,5,4,NaN,NaN,horizontal,horizontal,vertical,vertical,none,none
1a,18,100170,4,24,216,22,M,NA,variable,heterogeneous,5,present,1.77300906181335,1,horizontal,horizontal,1,0.717645765605726,red,3,4,826.654758133252,346.39691668109,567.045908301137,496.282156015671,927.5,820.836477965032,1049.42763818712,546.982518841471,826.654758133252,346.39691668109,567.045908301137,496.282156015671,629.371695378491,789.501930496736,0,0,5,0,4,3,6,NaN,horizontal,vertical,horizontal,vertical,vertical,none
1a,18,100170,4,25,217,22,M,NA,variable,heterogeneous,5,absent,1.33400201797485,1,horizontal,horizontal,1,0.870585260893169,green,5,NaN,550.57236181288,546.982518841471,NaN,NaN,672.5,820.836477965032,970.628304621509,789.501930496736,1032.95409169886,496.282156015671,773.345241866748,346.39691668109,550.57236181288,546.982518841471,0,0,5,6,3,0,4,NaN,vertical,vertical,horizontal,horizontal,horizontal,none
1a,18,100170,4,26,218,22,M,NA,variable,heterogeneous,6,absent,1.89271783828735,1,horizontal,horizontal,1,0.788233224969161,red,1,NaN,804.450363641507,854.96116226488,NaN,NaN,804.450363641507,854.96116226488,1023.02802532055,723.626453162816,1018.57766167904,468.665290897936,795.549636358493,345.03883773512,576.971974679454,476.373546837184,581.422338320961,731.334709102064,4,0,5,6,5,6,horizontal,horizontal,horizontal,vertical,vertical,horizontal
1a,18,100170,4,27,219,22,M,NA,variable,heterogeneous,6,absent,NaN,0,vertical,none,0,0.752939495287443,red,4,NaN,899.636437764765,365.271262369628,NaN,NaN,700.363562235235,834.728737630372,953.462830903772,803.65205506206,1053.09926866854,568.923317431687,899.636437764765,365.271262369628,646.537169096228,396.34794493794,546.900731331463,631.076682568313,0,0,6,4,3,6,horizontal,horizontal,horizontal,vertical,horizontal,vertical
1a,18,100170,4,28,220,22,M,NA,variable,heterogeneous,6,absent,1.91147804260254,1,horizontal,horizontal,1,0.670587459363435,green,3,NaN,1049.42763818712,546.982518841471,NaN,NaN,721.200666434388,842.519411655264,970.628304621509,789.501930496736,1049.42763818712,546.982518841471,878.799333565612,357.480588344736,629.371695378491,410.498069503264,550.57236181288,653.017481158529,5,6,4,0,3,3,horizontal,vertical,horizontal,vertical,horizontal,vertical
1a,18,100170,4,29,221,22,M,NA,variable,heterogeneous,5,absent,1.59073901176453,1,vertical,vertical,1,0.835291531211451,green,1,NaN,853.017481158529,849.42763818712,NaN,NaN,853.017481158529,849.42763818712,1053.60308331891,626.654758133252,903.717843984329,367.045908301137,610.498069503264,429.371695378491,579.163522034968,727.5,0,0,4,3,5,0,6,NaN,vertical,vertical,vertical,vertical,horizontal,none
1a,18,100170,4,30,222,22,M,NA,variable,heterogeneous,5,present,NaN,0,vertical,none,0,0.835291531211451,green,4,2,557.480588344736,521.200666434388,1042.51941165526,521.200666434388,949.885239334581,806.299333565612,1042.51941165526,521.200666434388,800,345,557.480588344736,521.200666434388,650.114760665419,806.299333565612,0,0,5,5,0,4,3,NaN,vertical,horizontal,horizontal,vertical,vertical,none
1a,18,100170,4,31,223,22,M,NA,variable,heterogeneous,4,present,1.25716090202332,1,horizontal,horizontal,1,1.0705830624229,green,1,2,919.715248510402,825.151636179026,1025.15163617903,480.284751489598,919.715248510402,825.151636179026,1025.15163617903,480.284751489598,680.284751489598,374.848363820974,574.848363820974,719.715248510402,0,0,0,0,4,6,5,3,NaN,NaN,horizontal,vertical,horizontal,horizontal,none,none
1a,18,100170,4,32,224,22,M,NA,variable,heterogeneous,4,present,NaN,0,horizontal,none,0,1.05881848586233,red,4,3,565.271262369628,699.636437764765,700.363562235235,365.271262369628,899.636437764765,834.728737630372,1034.72873763037,500.363562235235,700.363562235235,365.271262369628,565.271262369628,699.636437764765,0,0,0,0,3,5,5,4,NaN,NaN,vertical,horizontal,horizontal,horizontal,none,none
1a,18,100170,4,33,225,22,M,NA,variable,heterogeneous,4,present,1.45550298690796,1,vertical,vertical,1,0.976466449938322,red,3,1,907.767656743878,368.891514305654,692.232343256122,831.108485694346,692.232343256122,831.108485694346,1031.10848569435,707.767656743878,907.767656743878,368.891514305654,568.891514305654,492.232343256122,0,0,0,0,3,5,4,6,NaN,NaN,horizontal,vertical,vertical,horizontal,none,none
1a,18,100170,4,34,226,22,M,NA,variable,heterogeneous,5,present,1.21015286445618,1,vertical,vertical,1,0.882349837453742,red,2,1,1043.85771277057,525.445215295702,946.261991269517,808.883771293693,946.261991269517,808.883771293693,1043.85771277057,525.445215295702,804.450363641507,345.03883773512,558.892763222174,516.980120613425,646.537169096228,803.65205506206,0,0,5,4,6,0,3,NaN,horizontal,vertical,horizontal,vertical,vertical,none
1a,18,100170,4,35,227,22,M,NA,variable,heterogeneous,6,present,1.96896290779114,1,horizontal,horizontal,1,0.717645765605726,red,3,6,986.495193912888,426.090418184063,613.504806087112,773.909581815937,857.362518857686,848.464366520235,1043.85771277057,674.554784704298,986.495193912888,426.090418184063,742.637481142314,351.535633479765,556.142287229426,525.445215295702,613.504806087112,773.909581815937,6,0,4,5,3,5,vertical,horizontal,horizontal,horizontal,vertical,vertical
1a,18,100170,4,36,228,22,M,NA,variable,heterogeneous,5,absent,1.67160415649414,1,horizontal,horizontal,1,0.752939495287443,red,2,NaN,983.431649086356,777.137884467044,NaN,NaN,688.215357568785,829.192481806288,983.431649086356,777.137884467044,1025.15163617903,480.284751489598,755.719714694933,348.874022981887,547.481642470899,564.510859255183,0,0,0,4,5,6,5,NaN,vertical,horizontal,horizontal,horizontal,horizontal,none
1a,18,100170,4,37,229,22,M,NA,variable,heterogeneous,4,present,1.98822999000549,0,horizontal,vertical,1,0.752939495287443,green,2,4,986.495193912888,426.090418184063,613.504806087112,773.909581815937,973.909581815937,786.495193912888,986.495193912888,426.090418184063,626.090418184063,413.504806087112,613.504806087112,773.909581815937,0,0,0,0,0,4,6,6,NaN,NaN,horizontal,horizontal,horizontal,horizontal,none,none
1a,18,100170,4,38,230,22,M,NA,variable,heterogeneous,5,present,1.31386518478394,1,vertical,vertical,1,0.882349837453742,red,4,3,568.891514305654,492.232343256122,831.076682568313,346.900731331463,923.626453162816,823.028025320546,1050.31493177915,551.343706178981,831.076682568313,346.900731331463,568.891514305654,492.232343256122,626.090418184063,786.495193912888,0,0,3,6,3,4,6,NaN,horizontal,horizontal,vertical,vertical,vertical,none
1a,18,100170,4,39,231,22,M,NA,variable,heterogeneous,4,absent,1.46455502510071,1,horizontal,horizontal,1,0.611764576560573,green,1,NaN,938.882953928832,813.860994826083,NaN,NaN,938.882953928832,813.860994826083,1013.86099482608,461.117046071168,661.117046071168,386.139005173917,586.139005173917,738.882953928832,0,0,0,0,4,3,0,5,NaN,NaN,horizontal,horizontal,vertical,horizontal,none,none
1a,18,100170,4,40,232,22,M,NA,variable,heterogeneous,6,absent,1.85370421409607,1,vertical,vertical,1,0.988231026498895,red,3,NaN,1013.86099482608,461.117046071168,NaN,NaN,813.345668841951,854.650531362416,1027.20666366803,715.767577433584,1013.86099482608,461.117046071168,786.654331158049,345.349468637584,572.793336331966,484.232422566416,586.139005173917,738.882953928832,0,5,4,6,6,5,horizontal,vertical,vertical,vertical,horizontal,horizontal
1a,18,100170,4,41,233,22,M,NA,variable,heterogeneous,3,present,1.51264810562134,1,vertical,vertical,1,0.882349837453742,red,1,2,1003.65205506206,753.462830903772,831.076682568313,346.900731331463,1003.65205506206,753.462830903772,831.076682568313,346.900731331463,565.271262369628,699.636437764765,0,0,0,0,0,0,4,3,5,NaN,NaN,NaN,vertical,vertical,horizontal,none,none,none
1a,18,100170,4,42,234,22,M,NA,variable,heterogeneous,4,absent,1.83322215080261,1,vertical,vertical,1,0.705881189045153,green,3,NaN,907.767656743878,368.891514305654,NaN,NaN,692.232343256122,831.108485694346,1031.10848569435,707.767656743878,907.767656743878,368.891514305654,568.891514305654,492.232343256122,0,0,0,0,5,0,4,6,NaN,NaN,vertical,vertical,vertical,horizontal,none,none
1a,18,100170,4,43,235,22,M,NA,variable,heterogeneous,6,present,1.19152092933655,1,vertical,vertical,1,0.870585260893169,green,4,2,848.656293821019,349.685068220846,992.450942956807,767.295052392579,751.343706178981,850.314931779154,992.450942956807,767.295052392579,1041.10723677783,516.980120613425,848.656293821019,349.685068220846,607.549057043193,432.704947607421,558.892763222174,683.019879386575,3,6,3,4,5,5,vertical,vertical,horizontal,vertical,vertical,horizontal
1a,18,100170,4,44,236,22,M,NA,variable,heterogeneous,3,absent,1.22900295257568,1,vertical,vertical,1,1.08234763898348,red,1,NaN,601.827779828472,760.476699717708,NaN,NaN,601.827779828472,760.476699717708,1038.06300875679,691.383827134052,760.109211414741,348.13947314824,0,0,0,0,0,0,4,6,0,NaN,NaN,NaN,vertical,horizontal,horizontal,none,none,none
1a,18,100170,4,45,237,22,M,NA,variable,heterogeneous,3,absent,1.58555483818054,1,vertical,vertical,1,0.6,green,1,NaN,601.827779828472,760.476699717708,NaN,NaN,601.827779828472,760.476699717708,1038.06300875679,691.383827134052,760.109211414741,348.13947314824,0,0,0,0,0,0,4,5,6,NaN,NaN,NaN,vertical,vertical,vertical,none,none,none
1a,18,100170,4,46,238,22,M,NA,variable,heterogeneous,5,present,1.18374586105347,1,vertical,vertical,1,0.717645765605726,green,5,1,556.142287229426,525.445215295702,653.738008730483,808.883771293693,653.738008730483,808.883771293693,953.462830903772,803.65205506206,1041.10723677783,516.980120613425,795.549636358493,345.03883773512,556.142287229426,525.445215295702,0,0,6,3,6,0,4,NaN,horizontal,horizontal,vertical,horizontal,vertical,none
1a,18,100170,4,47,239,22,M,NA,variable,heterogeneous,5,absent,1.84448289871216,0,horizontal,vertical,1,0.64705830624229,red,2,NaN,1051.12597701811,555.719714694933,NaN,NaN,919.715248510402,825.151636179026,1051.12597701811,555.719714694933,835.489140744817,347.4816424709,570.807518193712,488.215357568785,622.862115532956,783.431649086356,0,0,3,4,6,6,5,NaN,vertical,horizontal,vertical,horizontal,horizontal,none
1a,18,100170,4,48,240,22,M,NA,variable,heterogeneous,4,absent,1.42584609985352,1,horizontal,horizontal,1,0.811762378090306,red,1,NaN,626.090418184063,786.495193912888,NaN,NaN,626.090418184063,786.495193912888,986.495193912888,773.909581815937,973.909581815937,413.504806087112,613.504806087112,426.090418184063,0,0,0,0,4,5,3,3,NaN,NaN,horizontal,vertical,horizontal,vertical,none,none
1a,18,100170,4,49,241,22,M,NA,variable,heterogeneous,5,present,1.19450306892395,1,horizontal,horizontal,1,0.988231026498895,green,1,2,755.719714694933,851.125977018113,1025.15163617903,719.715248510402,755.719714694933,851.125977018113,1025.15163617903,719.715248510402,983.431649086356,422.862115532956,688.215357568785,370.807518193712,547.481642470899,635.489140744817,0,0,4,0,5,6,6,NaN,horizontal,vertical,vertical,vertical,horizontal,none
1a,18,100170,4,50,242,22,M,NA,variable,heterogeneous,3,present,0.946818113327026,1,vertical,vertical,1,0.823526954650879,red,3,2,782.212099195248,345.621167183745,1029.19248180629,711.784642431215,588.595418998464,742.594190385041,1029.19248180629,711.784642431215,782.212099195248,345.621167183745,0,0,0,0,0,0,5,6,4,NaN,NaN,NaN,vertical,vertical,vertical,none,none,none
1a,18,100170,4,51,243,22,M,NA,variable,heterogeneous,3,absent,1.23429799079895,1,horizontal,horizontal,1,0.823526954650879,green,2,NaN,919.715248510402,374.848363820974,NaN,NaN,935.129412379467,816.252264519889,919.715248510402,374.848363820974,545.155339110131,608.899371659138,0,0,0,0,0,0,3,4,5,NaN,NaN,NaN,vertical,horizontal,vertical,none,none,none
1a,18,100170,4,52,244,22,M,NA,variable,heterogeneous,3,present,1.37851095199585,1,horizontal,horizontal,1,0.752939495287443,green,2,1,1048.46436652023,542.637481142314,725.445215295702,843.857712770574,725.445215295702,843.857712770574,1048.46436652023,542.637481142314,626.090418184063,413.504806087112,0,0,0,0,0,0,3,4,6,NaN,NaN,NaN,vertical,horizontal,horizontal,none,none,none
1a,18,100170,4,53,245,22,M,NA,variable,heterogeneous,6,absent,1.57695198059082,1,vertical,vertical,1,0.941172720256605,green,5,NaN,546.900731331463,568.923317431687,NaN,NaN,899.636437764765,834.728737630372,1053.09926866854,631.076682568313,953.462830903772,396.34794493794,700.363562235235,365.271262369628,546.900731331463,568.923317431687,646.537169096228,803.65205506206,5,5,6,6,4,3,horizontal,vertical,horizontal,horizontal,vertical,vertical
