experiment,subject,uniqueID,block,trial,trial_cumulative,age,gender,color_cond_blocking,color_history,shape_type,set_size,distractor,rt,acc,target_orient,response_key,response_made,iti,target_color,target_item,distractor_item,target_X,target_Y,distractor_X,distractor_Y,item1_X,item1_Y,item2_X,item2_Y,item3_X,item3_Y,item4_X,item4_Y,item5_X,item5_Y,item6_X,item6_Y,item1_shape,item2_shape,item3_shape,item4_shape,item5_shape,item6_shape,item1_line,item2_line,item3_line,item4_line,item5_line,item6_line
1a,19,100172,1,1,1,20,F,NA,variable,heterogeneous,5,absent,1.12469911575317,1,vertical,vertical,1,0.670587816238403,red,5,NaN,650.114760665419,806.299333565612,NaN,NaN,949.885239334581,806.299333565612,1042.51941165526,521.200666434388,800,345,557.480588344736,521.200666434388,650.114760665419,806.299333565612,0,0,5,3,0,6,4,NaN,horizontal,horizontal,vertical,horizontal,vertical,none
1a,19,100172,1,2,2,20,F,NA,variable,heterogeneous,6,absent,1.95090389251709,1,horizontal,horizontal,1,0.988232989311218,green,6,NaN,616.568350913644,777.137884467044,NaN,NaN,861.690083377915,847.425410200379,1045.12173246427,670.287525733335,983.431649086356,422.862115532956,738.309916622085,352.574589799621,554.878267535729,529.712474266665,616.568350913644,777.137884467044,5,0,3,0,3,4,horizontal,vertical,horizontal,horizontal,horizontal,horizontal
1a,19,100172,1,3,3,20,F,NA,variable,heterogeneous,3,present,0.873256206512451,1,vertical,vertical,1,0.952939081192017,red,1,3,636.089159529932,795.341332995339,712.784863451954,360.378381699593,636.089159529932,795.341332995339,1051.12597701811,644.280285305067,712.784863451954,360.378381699593,0,0,0,0,0,0,4,3,0,NaN,NaN,NaN,vertical,horizontal,vertical,none,none,none
1a,19,100172,1,4,4,20,F,NA,variable,heterogeneous,6,present,1.08540987968445,1,horizontal,horizontal,1,0.929409809112549,red,1,3,874.554784704298,843.857712770574,973.909581815937,413.504806087112,874.554784704298,843.857712770574,1048.46436652023,657.362518857686,973.909581815937,413.504806087112,725.445215295702,356.142287229426,551.535633479765,542.637481142314,626.090418184063,786.495193912888,4,6,5,5,0,6,horizontal,horizontal,vertical,horizontal,vertical,vertical
1a,19,100172,1,5,5,20,F,NA,variable,heterogeneous,4,present,1.63691592216492,1,vertical,vertical,1,0.682352452278137,green,1,2,668.665290897936,818.577661679039,1018.57766167904,731.334709102064,668.665290897936,818.577661679039,1018.57766167904,731.334709102064,931.334709102064,381.422338320961,581.422338320961,468.665290897936,0,0,0,0,4,6,3,5,NaN,NaN,vertical,horizontal,vertical,horizontal,none,none
1a,19,100172,1,6,6,20,F,NA,variable,heterogeneous,6,present,1.88113713264465,1,vertical,vertical,1,0.764704904556274,green,3,1,980.31222920257,419.68777079743,865.998856501143,846.311085703712,865.998856501143,846.311085703712,1046.31108570371,665.998856501143,980.31222920257,419.68777079743,734.001143498857,353.688914296288,553.688914296288,534.001143498857,619.68777079743,780.31222920257,6,5,4,6,3,0,vertical,vertical,vertical,horizontal,vertical,horizontal
1a,19,100172,1,7,7,20,F,NA,variable,heterogeneous,3,absent,1.41768312454224,1,horizontal,horizontal,1,0.729410996437073,green,1,NaN,1011.40458100154,742.594190385041,NaN,NaN,1011.40458100154,742.594190385041,817.787900804752,345.621167183745,570.807518193712,711.784642431215,0,0,0,0,0,0,4,0,6,NaN,NaN,NaN,horizontal,horizontal,vertical,none,none,none
1a,19,100172,1,8,8,20,F,NA,variable,heterogeneous,5,absent,0.985811948776245,1,vertical,vertical,1,0.776469540596008,green,3,NaN,919.715248510402,374.848363820974,NaN,NaN,835.489140744817,852.518357529101,1051.12597701811,644.280285305067,919.715248510402,374.848363820974,622.862115532956,416.568350913644,570.807518193712,711.784642431215,0,0,5,6,4,0,6,NaN,horizontal,horizontal,vertical,horizontal,vertical,none
1a,19,100172,1,9,9,20,F,NA,variable,heterogeneous,4,present,NaN,0,horizontal,none,0,0.788234176635742,green,3,4,657.405809614959,388.595418998464,588.595418998464,742.594190385041,942.594190385041,811.404581001536,1011.40458100154,457.40580961496,657.405809614959,388.595418998464,588.595418998464,742.594190385041,0,0,0,0,0,3,4,5,NaN,NaN,horizontal,vertical,horizontal,vertical,none,none
1a,19,100172,1,10,10,20,F,NA,variable,heterogeneous,4,present,1.55180287361145,1,horizontal,horizontal,1,0.717646360397339,red,4,1,545.155339110131,608.899371659138,808.899371659138,854.844660889869,808.899371659138,854.844660889869,1054.84466088987,591.100628340862,791.100628340862,345.155339110131,545.155339110131,608.899371659138,0,0,0,0,0,3,6,4,NaN,NaN,vertical,vertical,horizontal,horizontal,none,none
1a,19,100172,1,11,11,20,F,NA,variable,heterogeneous,6,absent,1.23062515258789,1,horizontal,horizontal,1,0.964703717231751,red,4,NaN,848.656293821019,349.685068220846,NaN,NaN,751.343706178981,850.314931779154,992.450942956807,767.295052392579,1041.10723677783,516.980120613425,848.656293821019,349.685068220846,607.549057043193,432.704947607421,558.892763222174,683.019879386575,5,0,0,4,5,6,vertical,vertical,horizontal,horizontal,horizontal,vertical
1a,19,100172,1,12,12,20,F,NA,variable,heterogeneous,3,present,0.734641075134277,1,horizontal,horizontal,1,0.964703717231751,red,3,1,755.719714694933,348.874022981887,604.658667004661,763.910840470068,604.658667004661,763.910840470068,1039.62161830041,687.215136548046,755.719714694933,348.874022981887,0,0,0,0,0,0,5,0,4,NaN,NaN,NaN,vertical,vertical,horizontal,none,none,none
1a,19,100172,1,13,13,20,F,NA,variable,heterogeneous,3,absent,0.94504714012146,1,vertical,vertical,1,0.976468353271484,red,1,NaN,777.775285599347,854.029648013395,NaN,NaN,777.775285599347,854.029648013395,1031.10848569435,492.232343256122,591.116228706307,453.738008730483,0,0,0,0,0,0,4,6,6,NaN,NaN,NaN,vertical,vertical,horizontal,none,none,none
1a,19,100172,1,14,14,20,F,NA,variable,heterogeneous,3,absent,0.985487937927246,1,vertical,vertical,1,0.670587816238403,green,1,NaN,844.280285305067,851.125977018113,NaN,NaN,844.280285305067,851.125977018113,995.341332995339,436.089159529932,560.378381699593,512.784863451954,0,0,0,0,0,0,4,5,6,NaN,NaN,NaN,vertical,vertical,vertical,none,none,none
1a,19,100172,1,15,15,20,F,NA,variable,heterogeneous,6,present,NaN,0,vertical,none,0,0.870586628913879,green,5,3,579.163522034968,472.5,1020.83647796503,472.5,800,855,1020.83647796503,727.5,1020.83647796503,472.5,800,345,579.163522034968,472.5,579.163522034968,727.5,0,5,3,3,4,5,vertical,vertical,horizontal,vertical,vertical,vertical
1a,19,100172,1,16,16,20,F,NA,variable,heterogeneous,5,present,1.34700918197632,1,horizontal,horizontal,1,0.999997625350952,green,2,5,1018.57766167904,731.334709102064,545.970351986605,622.224714400653,742.637481142314,848.464366520235,1018.57766167904,731.334709102064,992.450942956807,432.704947607421,700.363562235235,365.271262369628,545.970351986605,622.224714400653,0,0,0,4,5,0,3,NaN,horizontal,horizontal,horizontal,vertical,vertical,none
1a,19,100172,1,17,17,20,F,NA,variable,heterogeneous,6,present,1.08923101425171,1,horizontal,horizontal,1,0.952939081192017,green,3,4,995.341332995339,436.089159529932,755.719714694933,348.874022981887,844.280285305067,851.125977018113,1039.62161830041,687.215136548046,995.341332995339,436.089159529932,755.719714694933,348.874022981887,560.378381699593,512.784863451954,604.658667004661,763.910840470068,6,5,4,0,0,3,vertical,horizontal,horizontal,vertical,horizontal,horizontal
1a,19,100172,1,18,18,20,F,NA,variable,heterogeneous,6,absent,1.7843291759491,1,vertical,vertical,1,1.05882080554962,green,3,NaN,1041.10723677783,516.980120613425,NaN,NaN,751.343706178981,850.314931779154,992.450942956807,767.295052392579,1041.10723677783,516.980120613425,848.656293821019,349.685068220846,607.549057043193,432.704947607421,558.892763222174,683.019879386575,6,5,4,0,3,3,horizontal,horizontal,vertical,vertical,vertical,horizontal
1a,19,100172,1,19,19,20,F,NA,variable,heterogeneous,6,present,NaN,0,horizontal,none,0,0.823528084754944,green,6,1,556.142287229426,674.554784704298,742.637481142314,848.464366520235,742.637481142314,848.464366520235,986.495193912888,773.909581815937,1043.85771277057,525.445215295702,857.362518857686,351.535633479765,613.504806087112,426.090418184063,556.142287229426,674.554784704298,6,0,6,5,3,4,vertical,horizontal,vertical,horizontal,vertical,horizontal
1a,19,100172,1,20,20,20,F,NA,variable,heterogeneous,6,present,1.08083319664001,1,horizontal,horizontal,1,0.6,red,4,6,725.445215295702,356.142287229426,626.090418184063,786.495193912888,874.554784704298,843.857712770574,1048.46436652023,657.362518857686,973.909581815937,413.504806087112,725.445215295702,356.142287229426,551.535633479765,542.637481142314,626.090418184063,786.495193912888,3,5,5,4,6,0,horizontal,vertical,horizontal,horizontal,vertical,vertical
1a,19,100172,1,21,21,20,F,NA,variable,heterogeneous,5,present,1.15524792671204,1,vertical,vertical,1,0.635293908119202,red,5,1,610.498069503264,770.628304621509,903.717843984329,832.954091698863,903.717843984329,832.954091698863,1053.60308331891,573.345241866748,853.017481158529,350.57236181288,579.163522034968,472.5,610.498069503264,770.628304621509,0,0,3,6,3,5,4,NaN,horizontal,horizontal,vertical,horizontal,vertical,none
1a,19,100172,1,22,22,20,F,NA,variable,heterogeneous,6,absent,1.02828311920166,1,vertical,vertical,1,1.08235007762909,red,6,NaN,545.349468637584,613.345668841951,NaN,NaN,684.232422566416,827.206663668034,938.882953928832,813.860994826083,1054.65053136242,586.654331158049,915.767577433584,372.793336331966,661.117046071168,386.139005173917,545.349468637584,613.345668841951,3,5,5,6,6,4,horizontal,vertical,vertical,vertical,horizontal,vertical
1a,19,100172,1,23,23,20,F,NA,variable,heterogeneous,5,present,1.22547698020935,1,horizontal,horizontal,1,1.02352689743042,red,1,5,738.309916622085,847.425410200379,545.621167183745,617.787900804752,738.309916622085,847.425410200379,1016.25226451989,735.129412379467,995.341332995339,436.089159529932,704.475318678942,363.568117085469,545.621167183745,617.787900804752,0,0,4,6,5,3,0,NaN,horizontal,horizontal,horizontal,vertical,vertical,none
1a,19,100172,1,24,24,20,F,NA,variable,heterogeneous,3,absent,1.00987911224365,1,vertical,vertical,1,0.788234176635742,red,2,NaN,853.017481158529,350.57236181288,NaN,NaN,989.501930496736,770.628304621509,853.017481158529,350.57236181288,557.480588344736,678.799333565612,0,0,0,0,0,0,6,4,3,NaN,NaN,NaN,vertical,vertical,horizontal,none,none,none
1a,19,100172,1,25,25,20,F,NA,variable,heterogeneous,5,absent,1.06361985206604,1,vertical,vertical,1,0.870586628913879,green,2,NaN,1047.42541020038,661.690083377915,NaN,NaN,817.787900804752,854.378832816255,1047.42541020038,661.690083377915,935.129412379467,383.747735480111,636.089159529932,404.658667004661,563.568117085469,695.524681321058,0,0,6,4,0,3,0,NaN,horizontal,vertical,vertical,vertical,vertical,none
1a,19,100172,1,26,26,20,F,NA,variable,heterogeneous,5,present,0.873095989227295,1,vertical,vertical,1,0.6,red,3,4,874.554784704298,356.142287229426,591.116228706307,453.738008730483,883.019879386575,841.107236777826,1054.96116226488,595.549636358493,874.554784704298,356.142287229426,591.116228706307,453.738008730483,596.34794493794,753.462830903772,0,0,5,3,4,6,6,NaN,horizontal,vertical,vertical,vertical,vertical,none
1a,19,100172,1,27,27,20,F,NA,variable,heterogeneous,3,present,0.800579071044922,1,horizontal,horizontal,1,1.09411471366882,green,1,2,887.215136548046,839.621618300407,963.910840470068,404.658667004661,887.215136548046,839.621618300407,963.910840470068,404.658667004661,548.874022981887,555.719714694933,0,0,0,0,0,0,4,6,0,NaN,NaN,NaN,horizontal,horizontal,vertical,none,none,none
1a,19,100172,1,28,28,20,F,NA,variable,heterogeneous,3,present,0.782572984695435,1,horizontal,horizontal,1,0.694117088317871,red,1,3,708.616172865948,838.063008756786,639.523300282292,401.827779828472,708.616172865948,838.063008756786,1051.86052685176,560.109211414741,639.523300282292,401.827779828472,0,0,0,0,0,0,4,6,6,NaN,NaN,NaN,horizontal,horizontal,vertical,none,none,none
1a,19,100172,1,29,29,20,F,NA,variable,heterogeneous,6,absent,0.884368181228638,1,horizontal,horizontal,1,1.09411471366882,red,6,NaN,560.378381699593,687.215136548046,NaN,NaN,755.719714694933,851.125977018113,995.341332995339,763.910840470068,1039.62161830041,512.784863451954,844.280285305067,348.874022981887,604.658667004661,436.089159529932,560.378381699593,687.215136548046,6,5,3,0,0,4,horizontal,horizontal,horizontal,vertical,horizontal,horizontal
1a,19,100172,1,30,30,20,F,NA,variable,heterogeneous,4,absent,1.15727806091309,0,vertical,horizontal,1,0.729410996437073,green,1,NaN,738.309916622085,847.425410200379,NaN,NaN,738.309916622085,847.425410200379,1047.42541020038,661.690083377915,861.690083377915,352.574589799621,552.574589799621,538.309916622085,0,0,0,0,4,3,3,5,NaN,NaN,vertical,vertical,vertical,vertical,none,none
1a,19,100172,1,31,31,20,F,NA,variable,heterogeneous,5,absent,1.60166192054749,1,horizontal,horizontal,1,0.670587816238403,green,4,NaN,613.504806087112,426.090418184063,NaN,NaN,848.656293821019,850.314931779154,1053.09926866854,631.076682568313,907.767656743878,368.891514305654,613.504806087112,426.090418184063,576.971974679454,723.626453162816,0,0,0,3,6,4,5,NaN,horizontal,vertical,vertical,horizontal,horizontal,none
1a,19,100172,1,32,32,20,F,NA,variable,heterogeneous,4,present,1.08400511741638,1,horizontal,horizontal,1,0.905880537033081,green,2,1,1046.31108570371,534.001143498857,865.998856501143,846.311085703712,865.998856501143,846.311085703712,1046.31108570371,534.001143498857,734.001143498857,353.688914296288,553.688914296288,665.998856501143,0,0,0,0,0,4,6,3,NaN,NaN,vertical,horizontal,vertical,vertical,none,none
1a,19,100172,1,33,33,20,F,NA,variable,heterogeneous,3,present,0.763106107711792,1,vertical,vertical,1,1.05882080554962,green,3,1,692.232343256122,368.891514305654,653.738008730483,808.883771293693,653.738008730483,808.883771293693,1054.0296480134,622.224714400653,692.232343256122,368.891514305654,0,0,0,0,0,0,3,0,4,NaN,NaN,NaN,vertical,vertical,vertical,none,none,none
1a,19,100172,1,34,34,20,F,NA,variable,heterogeneous,3,absent,0.545356035232544,1,vertical,vertical,1,0.741175632476807,green,3,NaN,692.232343256122,368.891514305654,NaN,NaN,653.738008730483,808.883771293693,1054.0296480134,622.224714400653,692.232343256122,368.891514305654,0,0,0,0,0,0,6,5,4,NaN,NaN,NaN,vertical,horizontal,vertical,none,none,none
1a,19,100172,1,35,35,20,F,NA,variable,heterogeneous,4,absent,1.1067271232605,1,vertical,vertical,1,0.717646360397339,red,1,NaN,899.636437764765,834.728737630372,NaN,NaN,899.636437764765,834.728737630372,1034.72873763037,500.363562235235,700.363562235235,365.271262369628,565.271262369628,699.636437764765,0,0,0,0,4,3,0,3,NaN,NaN,vertical,vertical,vertical,horizontal,none,none
1a,19,100172,1,36,36,20,F,NA,variable,heterogeneous,5,absent,0.846414089202881,1,vertical,vertical,1,1.07058544158936,red,1,NaN,808.899371659138,854.844660889869,NaN,NaN,808.899371659138,854.844660889869,1045.12173246427,670.287525733335,942.594190385041,388.595418998464,643.006323791957,399.057257830286,560.378381699593,687.215136548046,0,0,4,5,6,3,6,NaN,vertical,vertical,horizontal,horizontal,vertical,none
1a,19,100172,1,37,37,20,F,NA,variable,heterogeneous,3,present,0.877364873886108,1,horizontal,horizontal,1,0.670587816238403,green,1,2,883.019879386575,841.107236777826,967.295052392579,407.549057043193,883.019879386575,841.107236777826,967.295052392579,407.549057043193,549.685068220846,551.343706178981,0,0,0,0,0,0,4,0,5,NaN,NaN,NaN,horizontal,vertical,vertical,none,none,none
1a,19,100172,1,38,38,20,F,NA,variable,heterogeneous,4,absent,0.890743017196655,1,horizontal,horizontal,1,0.6,red,1,NaN,622.862115532956,783.431649086356,NaN,NaN,622.862115532956,783.431649086356,983.431649086356,777.137884467044,977.137884467044,416.568350913644,616.568350913644,422.862115532956,0,0,0,0,4,6,3,5,NaN,NaN,horizontal,vertical,horizontal,vertical,none,none
1a,19,100172,1,39,39,20,F,NA,variable,heterogeneous,3,present,0.755270004272461,1,vertical,vertical,1,0.729410996437073,green,1,3,883.019879386575,841.107236777826,549.685068220846,551.343706178981,883.019879386575,841.107236777826,967.295052392579,407.549057043193,549.685068220846,551.343706178981,0,0,0,0,0,0,4,0,0,NaN,NaN,NaN,vertical,vertical,horizontal,none,none,none
1a,19,100172,1,40,40,20,F,NA,variable,heterogeneous,6,present,1.01463508605957,1,vertical,vertical,1,0.6,red,6,1,596.34794493794,753.462830903772,831.076682568313,853.099268668537,831.076682568313,853.099268668537,1034.72873763037,699.636437764765,1003.65205506206,446.537169096228,768.923317431687,346.900731331463,565.271262369628,500.363562235235,596.34794493794,753.462830903772,5,0,6,0,5,4,horizontal,horizontal,horizontal,vertical,vertical,vertical
1a,19,100172,1,41,41,20,F,NA,variable,heterogeneous,4,present,1.85421204566956,0,vertical,horizontal,1,0.752940268516541,red,2,3,1045.12173246427,529.712474266665,729.712474266665,354.878267535729,870.287525733335,845.121732464271,1045.12173246427,529.712474266665,729.712474266665,354.878267535729,554.878267535729,670.287525733335,0,0,0,0,0,4,5,6,NaN,NaN,vertical,vertical,horizontal,vertical,none,none
1a,19,100172,1,42,42,20,F,NA,variable,heterogeneous,4,present,1.31349492073059,1,vertical,vertical,1,0.905880537033081,green,3,4,861.690083377915,352.574589799621,552.574589799621,538.309916622085,738.309916622085,847.425410200379,1047.42541020038,661.690083377915,861.690083377915,352.574589799621,552.574589799621,538.309916622085,0,0,0,0,0,3,4,5,NaN,NaN,vertical,horizontal,vertical,horizontal,none,none
1a,19,100172,1,43,43,20,F,NA,variable,heterogeneous,5,present,1.54310512542725,0,horizontal,vertical,1,0.764704904556274,red,5,2,546.39691668109,626.654758133252,1020.83647796503,727.5,746.982518841471,849.42763818712,1020.83647796503,727.5,989.501930496736,429.371695378491,696.282156015671,367.045908301137,546.39691668109,626.654758133252,0,0,6,5,6,0,4,NaN,horizontal,horizontal,vertical,horizontal,horizontal,none
1a,19,100172,1,44,44,20,F,NA,variable,heterogeneous,6,absent,1.52663898468018,1,vertical,vertical,1,0.823528084754944,green,2,NaN,960.476699717708,798.172220171528,NaN,NaN,708.616172865948,838.063008756786,960.476699717708,798.172220171528,1051.86052685176,560.109211414741,891.383827134052,361.936991243214,639.523300282292,401.827779828472,548.13947314824,639.890788585259,5,4,0,5,3,0,vertical,vertical,horizontal,vertical,vertical,horizontal
1a,19,100172,1,45,45,20,F,NA,variable,heterogeneous,4,absent,1.28811597824097,1,horizontal,horizontal,1,0.941174445152283,red,2,NaN,1053.09926866854,631.076682568313,NaN,NaN,768.923317431687,853.099268668537,1053.09926866854,631.076682568313,831.076682568313,346.900731331463,546.900731331463,568.923317431687,0,0,0,0,6,4,5,3,NaN,NaN,vertical,horizontal,vertical,horizontal,none,none
1a,19,100172,1,46,46,20,F,NA,variable,heterogeneous,6,absent,1.88543295860291,0,horizontal,vertical,1,0.964703717231751,green,1,NaN,688.215357568785,829.192481806288,NaN,NaN,688.215357568785,829.192481806288,942.594190385041,811.404581001536,1054.37883281626,582.212099195248,911.784642431215,370.807518193712,657.405809614959,388.595418998464,545.621167183745,617.787900804752,4,0,6,5,3,0,horizontal,vertical,vertical,horizontal,horizontal,vertical
1a,19,100172,1,47,47,20,F,NA,variable,heterogeneous,6,present,NaN,0,vertical,none,0,0.717646360397339,red,4,5,725.445215295702,356.142287229426,551.535633479765,542.637481142314,874.554784704298,843.857712770574,1048.46436652023,657.362518857686,973.909581815937,413.504806087112,725.445215295702,356.142287229426,551.535633479765,542.637481142314,626.090418184063,786.495193912888,0,6,0,4,5,6,horizontal,horizontal,horizontal,vertical,vertical,horizontal
1a,19,100172,1,48,48,20,F,NA,variable,heterogeneous,4,absent,1.54718899726868,0,vertical,horizontal,1,0.858821992874145,green,2,NaN,1043.85771277057,674.554784704298,NaN,NaN,725.445215295702,843.857712770574,1043.85771277057,674.554784704298,874.554784704298,356.142287229426,556.142287229426,525.445215295702,0,0,0,0,6,4,0,5,NaN,NaN,horizontal,vertical,horizontal,vertical,none,none
1a,19,100172,1,49,49,20,F,NA,variable,heterogeneous,3,present,1.57419991493225,1,vertical,vertical,1,1.01176226139069,red,2,3,848.656293821019,349.685068220846,558.892763222174,683.019879386575,992.450942956807,767.295052392579,848.656293821019,349.685068220846,558.892763222174,683.019879386575,0,0,0,0,0,0,3,4,6,NaN,NaN,NaN,vertical,vertical,vertical,none,none,none
1a,19,100172,1,50,50,20,F,NA,variable,heterogeneous,4,absent,1.06259799003601,1,horizontal,horizontal,1,0.823528084754944,green,4,NaN,619.68777079743,419.68777079743,NaN,NaN,619.68777079743,780.31222920257,980.31222920257,780.31222920257,980.31222920257,419.68777079743,619.68777079743,419.68777079743,0,0,0,0,5,0,3,4,NaN,NaN,vertical,horizontal,horizontal,horizontal,none,none
1a,19,100172,1,51,51,20,F,NA,variable,heterogeneous,3,absent,1.8243100643158,1,horizontal,horizontal,1,0.623529272079468,green,1,NaN,661.117046071168,813.860994826083,NaN,NaN,661.117046071168,813.860994826083,1054.65053136242,613.345668841951,684.232422566416,372.793336331966,0,0,0,0,0,0,4,3,3,NaN,NaN,NaN,horizontal,horizontal,horizontal,none,none,none
1a,19,100172,1,52,52,20,F,NA,variable,heterogeneous,5,absent,0.954127073287964,1,horizontal,horizontal,1,1.03529153347015,red,4,NaN,708.616172865948,361.936991243214,NaN,NaN,734.001143498857,846.311085703712,1013.86099482608,738.882953928832,998.172220171528,439.523300282291,708.616172865948,361.936991243214,545.349468637584,613.345668841951,0,0,5,6,0,4,5,NaN,horizontal,vertical,vertical,horizontal,horizontal,none
1a,19,100172,1,53,53,20,F,NA,variable,heterogeneous,4,present,1.0846540927887,1,vertical,vertical,1,0.952939081192017,red,2,3,1042.51941165526,678.799333565612,878.799333565612,357.480588344736,721.200666434388,842.519411655264,1042.51941165526,678.799333565612,878.799333565612,357.480588344736,557.480588344736,521.200666434388,0,0,0,0,3,4,3,0,NaN,NaN,vertical,vertical,horizontal,horizontal,none,none
1a,19,100172,1,54,54,20,F,NA,variable,heterogeneous,4,present,0.859632968902588,1,horizontal,horizontal,1,1.05882080554962,red,4,3,613.504806087112,773.909581815937,626.090418184063,413.504806087112,973.909581815937,786.495193912888,986.495193912888,426.090418184063,626.090418184063,413.504806087112,613.504806087112,773.909581815937,0,0,0,0,3,5,6,4,NaN,NaN,horizontal,vertical,horizontal,horizontal,none,none
1a,19,100172,1,55,55,20,F,NA,variable,heterogeneous,5,absent,0.980873107910156,1,horizontal,horizontal,1,0.799998812675476,red,5,NaN,596.34794493794,753.462830903772,NaN,NaN,883.019879386575,841.107236777826,1054.96116226488,595.549636358493,874.554784704298,356.142287229426,591.116228706307,453.738008730483,596.34794493794,753.462830903772,0,0,6,0,0,6,4,NaN,vertical,horizontal,vertical,vertical,horizontal,none
1a,19,100172,1,56,56,20,F,NA,variable,heterogeneous,5,present,1.13155388832092,1,vertical,vertical,1,0.941174445152283,green,4,1,616.568350913644,422.862115532956,844.280285305067,851.125977018113,844.280285305067,851.125977018113,1052.5183575291,635.489140744817,911.784642431215,370.807518193712,616.568350913644,422.862115532956,574.848363820974,719.715248510402,0,0,5,6,5,4,0,NaN,vertical,vertical,vertical,vertical,horizontal,none
1a,19,100172,1,57,57,20,F,NA,variable,heterogeneous,5,absent,1.31851506233215,1,horizontal,horizontal,1,0.799998812675476,green,2,NaN,1053.60308331891,573.345241866748,NaN,NaN,903.717843984329,832.954091698863,1053.60308331891,573.345241866748,853.017481158529,350.57236181288,579.163522034968,472.5,610.498069503264,770.628304621509,0,0,5,4,6,3,0,NaN,vertical,horizontal,horizontal,horizontal,horizontal,none
1a,19,100172,1,58,58,20,F,NA,variable,heterogeneous,6,absent,NaN,0,vertical,none,0,0.670587816238403,red,1,NaN,800,855,NaN,NaN,800,855,1020.83647796503,727.5,1020.83647796503,472.5,800,345,579.163522034968,472.5,579.163522034968,727.5,4,6,0,3,3,0,vertical,vertical,vertical,vertical,vertical,horizontal
1a,19,100172,1,59,59,20,F,NA,variable,heterogeneous,4,absent,0.74531102180481,1,vertical,vertical,1,0.729410996437073,red,3,NaN,786.654331158049,345.349468637584,NaN,NaN,813.345668841951,854.650531362416,1054.65053136242,586.654331158049,786.654331158049,345.349468637584,545.349468637584,613.345668841951,0,0,0,0,3,6,4,5,NaN,NaN,vertical,vertical,vertical,vertical,none,none
1a,19,100172,1,60,60,20,F,NA,variable,heterogeneous,4,absent,1.1312038898468,1,horizontal,horizontal,1,0.941174445152283,green,1,NaN,782.212099195248,854.378832816255,NaN,NaN,782.212099195248,854.378832816255,1054.37883281626,617.787900804752,817.787900804752,345.621167183745,545.621167183745,582.212099195248,0,0,0,0,4,5,3,0,NaN,NaN,horizontal,horizontal,horizontal,vertical,none,none
1a,19,100172,1,61,61,20,F,NA,variable,heterogeneous,3,absent,1.44931507110596,1,horizontal,horizontal,1,0.964703717231751,red,1,NaN,949.885239334581,806.299333565612,NaN,NaN,949.885239334581,806.299333565612,903.717843984329,367.045908301137,546.39691668109,626.654758133252,0,0,0,0,0,0,4,3,5,NaN,NaN,NaN,horizontal,vertical,horizontal,none,none,none
1a,19,100172,1,62,62,20,F,NA,variable,heterogeneous,5,present,1.18775177001953,1,horizontal,horizontal,1,0.858821992874145,green,4,5,800,345,557.480588344736,521.200666434388,650.114760665419,806.299333565612,949.885239334581,806.299333565612,1042.51941165526,521.200666434388,800,345,557.480588344736,521.200666434388,0,0,3,5,0,4,6,NaN,vertical,horizontal,horizontal,horizontal,horizontal,none
1a,19,100172,1,63,63,20,F,NA,variable,heterogeneous,5,present,1.72350001335144,1,vertical,vertical,1,0.6,green,1,4,672.5,820.836477965032,773.345241866748,346.39691668109,672.5,820.836477965032,970.628304621509,789.501930496736,1032.95409169886,496.282156015671,773.345241866748,346.39691668109,550.57236181288,546.982518841471,0,0,4,5,3,6,5,NaN,vertical,vertical,vertical,horizontal,vertical,none
1a,19,100172,1,64,64,20,F,NA,variable,heterogeneous,3,absent,0.751307964324951,1,horizontal,horizontal,1,0.658823180198669,red,3,NaN,570.807518193712,488.215357568785,NaN,NaN,817.787900804752,854.378832816255,1011.40458100154,457.40580961496,570.807518193712,488.215357568785,0,0,0,0,0,0,3,6,4,NaN,NaN,NaN,vertical,vertical,horizontal,none,none,none
1a,19,100172,2,1,65,20,F,NA,variable,heterogeneous,4,absent,NaN,0,horizontal,none,0,0.964703717231751,red,4,NaN,545,600,NaN,NaN,800,855,1055,600,800,345,545,600,0,0,0,0,3,3,6,4,NaN,NaN,horizontal,vertical,vertical,horizontal,none,none
1a,19,100172,2,2,66,20,F,NA,variable,heterogeneous,5,present,1.13239502906799,1,vertical,vertical,1,0.976468353271484,red,3,2,953.462830903772,396.34794493794,1041.10723677783,683.019879386575,795.549636358493,854.96116226488,1041.10723677783,683.019879386575,953.462830903772,396.34794493794,653.738008730483,391.116228706307,556.142287229426,674.554784704298,0,0,6,0,4,3,3,NaN,horizontal,vertical,vertical,horizontal,vertical,none
1a,19,100172,2,3,67,20,F,NA,variable,heterogeneous,4,present,0.989146947860718,1,vertical,vertical,1,0.882351264953613,red,2,4,995.341332995339,436.089159529932,604.658667004661,763.910840470068,963.910840470068,795.341332995339,995.341332995339,436.089159529932,636.089159529932,404.658667004661,604.658667004661,763.910840470068,0,0,0,0,3,4,5,5,NaN,NaN,vertical,vertical,vertical,vertical,none,none
1a,19,100172,2,4,68,20,F,NA,variable,heterogeneous,5,present,1.96110105514526,1,vertical,vertical,1,0.81176344871521,red,5,1,613.504806087112,773.909581815937,907.767656743878,831.108485694346,907.767656743878,831.108485694346,1053.09926866854,568.923317431687,848.656293821019,349.685068220846,576.971974679454,476.373546837184,613.504806087112,773.909581815937,0,0,6,5,0,0,4,NaN,vertical,horizontal,vertical,horizontal,vertical,none
1a,19,100172,2,5,69,20,F,NA,variable,heterogeneous,5,absent,1.64777779579163,1,vertical,vertical,1,0.764704904556274,green,2,NaN,1053.60308331891,626.654758133252,NaN,NaN,853.017481158529,849.42763818712,1053.60308331891,626.654758133252,903.717843984329,367.045908301137,610.498069503264,429.371695378491,579.163522034968,727.5,0,0,3,4,6,0,3,NaN,horizontal,vertical,vertical,vertical,vertical,none
1a,19,100172,2,6,70,20,F,NA,variable,heterogeneous,3,absent,1.09049892425537,1,horizontal,horizontal,1,0.882351264953613,red,3,NaN,581.422338320961,468.665290897936,NaN,NaN,795.549636358493,854.96116226488,1023.02802532055,476.373546837184,581.422338320961,468.665290897936,0,0,0,0,0,0,6,5,4,NaN,NaN,NaN,vertical,horizontal,horizontal,none,none,none
1a,19,100172,2,7,71,20,F,NA,variable,heterogeneous,6,absent,1.34011602401733,1,vertical,vertical,1,0.776469540596008,green,6,NaN,579.163522034968,727.5,NaN,NaN,800,855,1020.83647796503,727.5,1020.83647796503,472.5,800,345,579.163522034968,472.5,579.163522034968,727.5,6,5,0,6,5,4,horizontal,vertical,horizontal,vertical,horizontal,vertical
1a,19,100172,2,8,72,20,F,NA,variable,heterogeneous,3,absent,1.19131898880005,1,horizontal,horizontal,1,0.81176344871521,red,3,NaN,554.878267535729,529.712474266665,NaN,NaN,861.690083377915,847.425410200379,983.431649086356,422.862115532956,554.878267535729,529.712474266665,0,0,0,0,0,0,0,6,4,NaN,NaN,NaN,horizontal,vertical,horizontal,none,none,none
1a,19,100172,2,9,73,20,F,NA,variable,heterogeneous,5,present,1.32260704040527,1,vertical,vertical,1,0.941174445152283,green,4,1,773.345241866748,346.39691668109,672.5,820.836477965032,672.5,820.836477965032,970.628304621509,789.501930496736,1032.95409169886,496.282156015671,773.345241866748,346.39691668109,550.57236181288,546.982518841471,0,0,0,0,3,4,5,NaN,vertical,horizontal,horizontal,vertical,horizontal,none
1a,19,100172,2,10,74,20,F,NA,variable,heterogeneous,4,absent,1.38301205635071,1,horizontal,horizontal,1,0.705881724357605,red,2,NaN,1025.15163617903,480.284751489598,NaN,NaN,919.715248510402,825.151636179026,1025.15163617903,480.284751489598,680.284751489598,374.848363820974,574.848363820974,719.715248510402,0,0,0,0,5,4,6,6,NaN,NaN,vertical,horizontal,horizontal,vertical,none,none
1a,19,100172,2,11,75,20,F,NA,variable,heterogeneous,4,absent,0.87959885597229,1,horizontal,horizontal,1,1.03529153347015,green,2,NaN,1053.09926866854,568.923317431687,NaN,NaN,831.076682568313,853.099268668537,1053.09926866854,568.923317431687,768.923317431687,346.900731331463,546.900731331463,631.076682568313,0,0,0,0,6,4,6,5,NaN,NaN,horizontal,horizontal,vertical,horizontal,none,none
1a,19,100172,2,12,76,20,F,NA,variable,heterogeneous,6,absent,1.49006509780884,1,horizontal,horizontal,1,0.635293908119202,green,6,NaN,588.595418998464,742.594190385041,NaN,NaN,817.787900804752,854.378832816255,1029.19248180629,711.784642431215,1011.40458100154,457.40580961496,782.212099195248,345.621167183745,570.807518193712,488.215357568785,588.595418998464,742.594190385041,3,6,5,5,3,4,vertical,vertical,horizontal,horizontal,vertical,horizontal
1a,19,100172,2,13,77,20,F,NA,variable,heterogeneous,3,absent,0.713157176971436,1,vertical,vertical,1,0.658823180198669,red,2,NaN,931.334709102064,381.422338320961,NaN,NaN,923.626453162816,823.028025320546,931.334709102064,381.422338320961,545.03883773512,595.549636358493,0,0,0,0,0,0,0,4,5,NaN,NaN,NaN,horizontal,vertical,vertical,none,none,none
1a,19,100172,2,14,78,20,F,NA,variable,heterogeneous,5,absent,0.919677972793579,1,horizontal,horizontal,1,0.81176344871521,green,3,NaN,953.462830903772,396.34794493794,NaN,NaN,795.549636358493,854.96116226488,1041.10723677783,683.019879386575,953.462830903772,396.34794493794,653.738008730483,391.116228706307,556.142287229426,674.554784704298,0,0,0,6,4,3,0,NaN,horizontal,horizontal,horizontal,vertical,vertical,none
1a,19,100172,2,15,79,20,F,NA,variable,heterogeneous,5,present,1.50276899337769,1,horizontal,horizontal,1,1.02352689743042,red,5,3,556.142287229426,525.445215295702,1041.10723677783,516.980120613425,653.738008730483,808.883771293693,953.462830903772,803.65205506206,1041.10723677783,516.980120613425,795.549636358493,345.03883773512,556.142287229426,525.445215295702,0,0,0,3,6,0,4,NaN,horizontal,horizontal,vertical,horizontal,horizontal,none
1a,19,100172,2,16,80,20,F,NA,variable,heterogeneous,4,present,0.626180171966553,1,horizontal,horizontal,1,0.858821992874145,red,1,2,712.784863451954,839.621618300407,1039.62161830041,687.215136548046,712.784863451954,839.621618300407,1039.62161830041,687.215136548046,887.215136548046,360.378381699593,560.378381699593,512.784863451954,0,0,0,0,4,6,6,5,NaN,NaN,horizontal,horizontal,vertical,horizontal,none,none
1a,19,100172,2,17,81,20,F,NA,variable,heterogeneous,5,present,1.46522402763367,1,horizontal,horizontal,1,0.717646360397339,green,1,5,839.890788585259,851.86052685176,572.793336331966,715.767577433584,839.890788585259,851.86052685176,1051.86052685176,639.890788585259,915.767577433584,372.793336331966,619.68777079743,419.68777079743,572.793336331966,715.767577433584,0,0,4,6,3,3,5,NaN,horizontal,horizontal,vertical,vertical,vertical,none
1a,19,100172,2,18,82,20,F,NA,variable,heterogeneous,3,absent,1.1419689655304,1,horizontal,horizontal,1,0.964703717231751,green,2,NaN,967.295052392579,407.549057043193,NaN,NaN,883.019879386575,841.107236777826,967.295052392579,407.549057043193,549.685068220846,551.343706178981,0,0,0,0,0,0,5,4,3,NaN,NaN,NaN,horizontal,horizontal,vertical,none,none,none
1a,19,100172,2,19,83,20,F,NA,variable,heterogeneous,5,present,1.23327493667603,1,horizontal,horizontal,1,0.81176344871521,green,4,3,746.982518841471,350.57236181288,1020.83647796503,472.5,696.282156015671,832.954091698863,989.501930496736,770.628304621509,1020.83647796503,472.5,746.982518841471,350.57236181288,546.39691668109,573.345241866748,0,0,0,6,3,4,5,NaN,horizontal,horizontal,horizontal,horizontal,horizontal,none
1a,19,100172,2,20,84,20,F,NA,variable,heterogeneous,4,absent,1.42340707778931,1,vertical,vertical,1,0.670587816238403,red,2,NaN,1027.20666366803,715.767577433584,NaN,NaN,684.232422566416,827.206663668034,1027.20666366803,715.767577433584,915.767577433584,372.793336331966,572.793336331966,484.232422566416,0,0,0,0,3,4,5,6,NaN,NaN,vertical,vertical,horizontal,vertical,none,none
1a,19,100172,2,21,85,20,F,NA,variable,heterogeneous,3,present,0.652517080307007,1,vertical,vertical,1,0.799998812675476,red,3,2,557.480588344736,521.200666434388,989.501930496736,429.371695378491,853.017481158529,849.42763818712,989.501930496736,429.371695378491,557.480588344736,521.200666434388,0,0,0,0,0,0,6,5,4,NaN,NaN,NaN,horizontal,horizontal,vertical,none,none,none
1a,19,100172,2,22,86,20,F,NA,variable,heterogeneous,3,absent,1.10047388076782,0,vertical,horizontal,1,0.941174445152283,green,3,NaN,639.523300282292,401.827779828472,NaN,NaN,708.616172865948,838.063008756786,1051.86052685176,560.109211414741,639.523300282292,401.827779828472,0,0,0,0,0,0,5,6,4,NaN,NaN,NaN,horizontal,horizontal,vertical,none,none,none
1a,19,100172,2,23,87,20,F,NA,variable,heterogeneous,6,present,1.36188697814941,1,vertical,vertical,1,0.776469540596008,red,6,5,588.595418998464,742.594190385041,570.807518193712,488.215357568785,817.787900804752,854.378832816255,1029.19248180629,711.784642431215,1011.40458100154,457.40580961496,782.212099195248,345.621167183745,570.807518193712,488.215357568785,588.595418998464,742.594190385041,3,5,6,5,0,4,horizontal,horizontal,horizontal,vertical,vertical,vertical
1a,19,100172,2,24,88,20,F,NA,variable,heterogeneous,6,absent,0.665866851806641,1,vertical,vertical,1,0.835292720794678,red,5,NaN,591.116228706307,453.738008730483,NaN,NaN,777.775285599347,854.029648013395,1008.88377129369,746.261991269517,1031.10848569435,492.232343256122,822.224714400653,345.970351986605,591.116228706307,453.738008730483,568.891514305654,707.767656743878,5,6,3,0,4,3,horizontal,vertical,vertical,vertical,vertical,vertical
1a,19,100172,2,25,89,20,F,NA,variable,heterogeneous,6,absent,1.14407300949097,1,vertical,vertical,1,0.635293908119202,green,1,NaN,883.019879386575,841.107236777826,NaN,NaN,883.019879386575,841.107236777826,1050.31493177915,648.656293821019,967.295052392579,407.549057043193,716.980120613425,358.892763222174,549.685068220846,551.343706178981,632.704947607421,792.450942956807,4,5,5,3,6,0,vertical,horizontal,horizontal,vertical,horizontal,vertical
1a,19,100172,2,26,90,20,F,NA,variable,heterogeneous,3,present,0.658137798309326,1,horizontal,horizontal,1,0.741175632476807,red,3,2,795.549636358493,345.03883773512,1023.02802532055,723.626453162816,581.422338320961,731.334709102064,1023.02802532055,723.626453162816,795.549636358493,345.03883773512,0,0,0,0,0,0,0,6,4,NaN,NaN,NaN,horizontal,horizontal,horizontal,none,none,none
1a,19,100172,2,27,91,20,F,NA,variable,heterogeneous,5,absent,0.971230030059814,0,vertical,horizontal,1,0.999997625350952,green,5,NaN,619.68777079743,780.31222920257,NaN,NaN,915.767577433584,827.206663668034,1051.86052685176,560.109211414741,839.890788585259,348.13947314824,572.793336331966,484.232422566416,619.68777079743,780.31222920257,0,0,6,3,5,0,4,NaN,horizontal,vertical,vertical,vertical,vertical,none
1a,19,100172,2,28,92,20,F,NA,variable,heterogeneous,5,present,0.752290010452271,1,horizontal,horizontal,1,0.658823180198669,red,4,1,692.232343256122,368.891514305654,751.343706178981,850.314931779154,751.343706178981,850.314931779154,1023.02802532055,723.626453162816,986.495193912888,426.090418184063,692.232343256122,368.891514305654,546.900731331463,631.076682568313,0,0,6,5,6,4,0,NaN,vertical,horizontal,vertical,horizontal,horizontal,none
1a,19,100172,2,29,93,20,F,NA,variable,heterogeneous,4,absent,0.988458871841431,1,vertical,vertical,1,1.04705616950989,red,1,NaN,911.784642431215,829.192481806288,NaN,NaN,911.784642431215,829.192481806288,1029.19248180629,488.215357568785,688.215357568785,370.807518193712,570.807518193712,711.784642431215,0,0,0,0,4,0,6,0,NaN,NaN,vertical,horizontal,vertical,vertical,none,none
1a,19,100172,2,30,94,20,F,NA,variable,heterogeneous,3,absent,1.0419499874115,1,horizontal,horizontal,1,0.882351264953613,green,3,NaN,576.971974679454,723.626453162816,NaN,NaN,1018.57766167904,731.334709102064,804.450363641507,345.03883773512,576.971974679454,723.626453162816,0,0,0,0,0,0,3,5,4,NaN,NaN,NaN,horizontal,horizontal,horizontal,none,none,none
1a,19,100172,2,31,95,20,F,NA,variable,heterogeneous,3,present,1.00031113624573,1,vertical,vertical,1,1.05882080554962,green,1,3,680.284751489598,825.151636179026,664.870587620533,383.747735480111,680.284751489598,825.151636179026,1054.84466088987,591.100628340862,664.870587620533,383.747735480111,0,0,0,0,0,0,4,0,3,NaN,NaN,NaN,vertical,horizontal,horizontal,none,none,none
1a,19,100172,2,32,96,20,F,NA,variable,heterogeneous,4,absent,1.12225985527039,1,horizontal,horizontal,1,1.08235007762909,green,1,NaN,813.345668841951,854.650531362416,NaN,NaN,813.345668841951,854.650531362416,1054.65053136242,586.654331158049,786.654331158049,345.349468637584,545.349468637584,613.345668841951,0,0,0,0,4,0,5,3,NaN,NaN,horizontal,vertical,vertical,vertical,none,none
1a,19,100172,2,33,97,20,F,NA,variable,heterogeneous,6,absent,1.55413699150085,1,vertical,vertical,1,1.07058544158936,red,1,NaN,755.719714694933,851.125977018113,NaN,NaN,755.719714694933,851.125977018113,995.341332995339,763.910840470068,1039.62161830041,512.784863451954,844.280285305067,348.874022981887,604.658667004661,436.089159529932,560.378381699593,687.215136548046,4,5,6,6,0,0,vertical,vertical,horizontal,vertical,horizontal,horizontal
1a,19,100172,2,34,98,20,F,NA,variable,heterogeneous,6,present,1.02427005767822,1,vertical,vertical,1,0.941174445152283,green,1,3,755.719714694933,851.125977018113,1039.62161830041,512.784863451954,755.719714694933,851.125977018113,995.341332995339,763.910840470068,1039.62161830041,512.784863451954,844.280285305067,348.874022981887,604.658667004661,436.089159529932,560.378381699593,687.215136548046,4,3,5,0,5,6,vertical,vertical,horizontal,vertical,horizontal,horizontal
1a,19,100172,2,35,99,20,F,NA,variable,heterogeneous,4,present,1.57200217247009,1,vertical,vertical,1,0.752940268516541,red,2,3,1016.25226451989,735.129412379467,935.129412379467,383.747735480111,664.870587620533,816.252264519889,1016.25226451989,735.129412379467,935.129412379467,383.747735480111,583.747735480111,464.870587620533,0,0,0,0,5,4,3,0,NaN,NaN,horizontal,vertical,vertical,horizontal,none,none
1a,19,100172,2,36,100,20,F,NA,variable,heterogeneous,6,present,0.85815691947937,1,vertical,vertical,1,0.729410996437073,green,4,3,887.215136548046,360.378381699593,1051.12597701811,555.719714694933,712.784863451954,839.621618300407,963.910840470068,795.341332995339,1051.12597701811,555.719714694933,887.215136548046,360.378381699593,636.089159529932,404.658667004661,548.874022981887,644.280285305067,6,5,0,4,0,5,horizontal,horizontal,horizontal,vertical,horizontal,horizontal
1a,19,100172,2,37,101,20,F,NA,variable,heterogeneous,4,absent,1.05212497711182,0,vertical,horizontal,1,0.823528084754944,green,4,NaN,546.39691668109,626.654758133252,NaN,NaN,826.654758133252,853.60308331891,1053.60308331891,573.345241866748,773.345241866748,346.39691668109,546.39691668109,626.654758133252,0,0,0,0,3,5,5,4,NaN,NaN,vertical,vertical,horizontal,vertical,none,none
1a,19,100172,2,38,102,20,F,NA,variable,heterogeneous,4,absent,1.40707397460938,1,vertical,vertical,1,1.08235007762909,green,3,NaN,895.524681321058,363.568117085469,NaN,NaN,704.475318678942,836.431882914531,1036.43188291453,695.524681321058,895.524681321058,363.568117085469,563.568117085469,504.475318678942,0,0,0,0,5,5,4,3,NaN,NaN,horizontal,vertical,vertical,horizontal,none,none
1a,19,100172,2,39,103,20,F,NA,variable,heterogeneous,3,present,1.16481995582581,1,horizontal,horizontal,1,1.07058544158936,green,2,3,826.654758133252,346.39691668109,567.045908301137,703.717843984329,1006.29933356561,749.885239334581,826.654758133252,346.39691668109,567.045908301137,703.717843984329,0,0,0,0,0,0,3,4,0,NaN,NaN,NaN,horizontal,horizontal,horizontal,none,none,none
1a,19,100172,2,40,104,20,F,NA,variable,heterogeneous,6,present,0.849702119827271,1,horizontal,horizontal,1,1.08235007762909,green,3,4,1027.20666366803,484.232422566416,813.345668841951,345.349468637584,786.654331158049,854.650531362416,1013.86099482608,738.882953928832,1027.20666366803,484.232422566416,813.345668841951,345.349468637584,586.139005173917,461.117046071168,572.793336331966,715.767577433584,6,0,4,6,0,3,vertical,horizontal,horizontal,horizontal,vertical,horizontal
1a,19,100172,2,41,105,20,F,NA,variable,heterogeneous,6,present,NaN,0,horizontal,none,0,1.05882080554962,red,5,6,604.658667004661,436.089159529932,560.378381699593,687.215136548046,755.719714694933,851.125977018113,995.341332995339,763.910840470068,1039.62161830041,512.784863451954,844.280285305067,348.874022981887,604.658667004661,436.089159529932,560.378381699593,687.215136548046,5,5,6,0,4,6,horizontal,vertical,vertical,vertical,horizontal,vertical
1a,19,100172,2,42,106,20,F,NA,variable,heterogeneous,6,absent,0.0170869827270508,1,horizontal,horizontal,1,0.623529272079468,red,1,NaN,865.998856501143,846.311085703712,NaN,NaN,865.998856501143,846.311085703712,1046.31108570371,665.998856501143,980.31222920257,419.68777079743,734.001143498857,353.688914296288,553.688914296288,534.001143498857,619.68777079743,780.31222920257,4,6,5,3,0,5,horizontal,horizontal,vertical,vertical,horizontal,vertical
1a,19,100172,2,43,107,20,F,NA,variable,heterogeneous,5,absent,1.43209505081177,1,horizontal,horizontal,1,0.929409809112549,green,4,NaN,613.504806087112,426.090418184063,NaN,NaN,848.656293821019,850.314931779154,1053.09926866854,631.076682568313,907.767656743878,368.891514305654,613.504806087112,426.090418184063,576.971974679454,723.626453162816,0,0,0,5,0,4,3,NaN,vertical,horizontal,vertical,horizontal,horizontal,none
1a,19,100172,2,44,108,20,F,NA,variable,heterogeneous,3,present,1.14570188522339,1,horizontal,horizontal,1,0.835292720794678,red,3,1,560.378381699593,687.215136548046,995.341332995339,763.910840470068,995.341332995339,763.910840470068,844.280285305067,348.874022981887,560.378381699593,687.215136548046,0,0,0,0,0,0,3,3,4,NaN,NaN,NaN,horizontal,horizontal,horizontal,none,none,none
1a,19,100172,2,45,109,20,F,NA,variable,heterogeneous,3,absent,1.08483982086182,1,vertical,vertical,1,0.81176344871521,red,1,NaN,1013.86099482608,738.882953928832,NaN,NaN,1013.86099482608,738.882953928832,813.345668841951,345.349468637584,572.793336331966,715.767577433584,0,0,0,0,0,0,4,6,3,NaN,NaN,NaN,vertical,horizontal,horizontal,none,none,none
1a,19,100172,2,46,110,20,F,NA,variable,heterogeneous,6,absent,1.21574783325195,1,horizontal,horizontal,1,1.04705616950989,green,2,NaN,1031.10848569435,707.767656743878,NaN,NaN,822.224714400653,854.029648013395,1031.10848569435,707.767656743878,1008.88377129369,453.738008730483,777.775285599347,345.970351986605,568.891514305654,492.232343256122,591.116228706307,746.261991269517,0,4,3,6,3,0,horizontal,horizontal,horizontal,vertical,horizontal,horizontal
1a,19,100172,2,47,111,20,F,NA,variable,heterogeneous,5,present,1.08411693572998,1,vertical,vertical,1,0.988232989311218,green,1,4,653.738008730483,808.883771293693,795.549636358493,345.03883773512,653.738008730483,808.883771293693,953.462830903772,803.65205506206,1041.10723677783,516.980120613425,795.549636358493,345.03883773512,556.142287229426,525.445215295702,0,0,4,3,0,6,6,NaN,vertical,vertical,horizontal,vertical,vertical,none
1a,19,100172,2,48,112,20,F,NA,variable,heterogeneous,5,absent,1.09725499153137,1,horizontal,horizontal,1,0.964703717231751,red,4,NaN,708.616172865948,361.936991243214,NaN,NaN,734.001143498857,846.311085703712,1013.86099482608,738.882953928832,998.172220171528,439.523300282291,708.616172865948,361.936991243214,545.349468637584,613.345668841951,0,0,6,5,6,4,3,NaN,vertical,horizontal,vertical,horizontal,horizontal,none
1a,19,100172,2,49,113,20,F,NA,variable,heterogeneous,6,absent,1.49547600746155,1,horizontal,horizontal,1,0.6,red,1,NaN,676.373546837184,823.028025320546,NaN,NaN,676.373546837184,823.028025320546,931.334709102064,818.577661679039,1054.96116226488,595.549636358493,923.626453162816,376.971974679454,668.665290897936,381.422338320961,545.03883773512,604.450363641507,4,5,3,0,5,6,horizontal,horizontal,horizontal,horizontal,horizontal,vertical
1a,19,100172,2,50,114,20,F,NA,variable,heterogeneous,3,present,0.806059837341309,1,vertical,vertical,1,1.02352689743042,red,1,3,676.373546837184,823.028025320546,668.665290897936,381.422338320961,676.373546837184,823.028025320546,1054.96116226488,595.549636358493,668.665290897936,381.422338320961,0,0,0,0,0,0,4,5,6,NaN,NaN,NaN,vertical,vertical,horizontal,none,none,none
1a,19,100172,2,51,115,20,F,NA,variable,heterogeneous,4,present,0.798293113708496,0,horizontal,vertical,1,1.01176226139069,red,2,1,1051.86052685176,560.109211414741,839.890788585259,851.86052685176,839.890788585259,851.86052685176,1051.86052685176,560.109211414741,760.109211414741,348.13947314824,548.13947314824,639.890788585259,0,0,0,0,5,4,6,3,NaN,NaN,horizontal,horizontal,vertical,horizontal,none,none
1a,19,100172,2,52,116,20,F,NA,variable,heterogeneous,3,present,0.829210996627808,1,horizontal,horizontal,1,0.717646360397339,green,2,3,970.628304621509,410.498069503264,550.57236181288,546.982518841471,878.799333565612,842.519411655264,970.628304621509,410.498069503264,550.57236181288,546.982518841471,0,0,0,0,0,0,6,4,3,NaN,NaN,NaN,horizontal,horizontal,vertical,none,none,none
1a,19,100172,2,53,117,20,F,NA,variable,heterogeneous,5,absent,1.13847994804382,1,horizontal,horizontal,1,0.623529272079468,red,3,NaN,935.129412379467,383.747735480111,NaN,NaN,817.787900804752,854.378832816255,1047.42541020038,661.690083377915,935.129412379467,383.747735480111,636.089159529932,404.658667004661,563.568117085469,695.524681321058,0,0,3,5,4,5,0,NaN,vertical,vertical,horizontal,vertical,horizontal,none
1a,19,100172,2,54,118,20,F,NA,variable,heterogeneous,3,present,1.36708688735962,1,vertical,vertical,1,0.694117088317871,green,2,3,844.280285305067,348.874022981887,560.378381699593,687.215136548046,995.341332995339,763.910840470068,844.280285305067,348.874022981887,560.378381699593,687.215136548046,0,0,0,0,0,0,0,4,3,NaN,NaN,NaN,horizontal,vertical,horizontal,none,none,none
1a,19,100172,2,55,119,20,F,NA,variable,heterogeneous,5,absent,0.799432992935181,1,vertical,vertical,1,0.647058544158935,red,1,NaN,915.767577433584,827.206663668034,NaN,NaN,915.767577433584,827.206663668034,1051.86052685176,560.109211414741,839.890788585259,348.13947314824,572.793336331966,484.232422566416,619.68777079743,780.31222920257,0,0,4,5,3,6,0,NaN,vertical,vertical,vertical,horizontal,vertical,none
1a,19,100172,2,56,120,20,F,NA,variable,heterogeneous,4,present,1.42881107330322,1,horizontal,horizontal,1,0.847057356834412,green,4,1,576.971974679454,723.626453162816,923.626453162816,823.028025320546,923.626453162816,823.028025320546,1023.02802532055,476.373546837184,676.373546837184,376.971974679454,576.971974679454,723.626453162816,0,0,0,0,0,6,3,4,NaN,NaN,horizontal,vertical,vertical,horizontal,none,none
1a,19,100172,2,57,121,20,F,NA,variable,heterogeneous,5,absent,1.03790712356567,0,vertical,horizontal,1,0.81176344871521,red,5,NaN,546.39691668109,626.654758133252,NaN,NaN,746.982518841471,849.42763818712,1020.83647796503,727.5,989.501930496736,429.371695378491,696.282156015671,367.045908301137,546.39691668109,626.654758133252,0,0,5,0,3,5,4,NaN,vertical,vertical,horizontal,vertical,vertical,none
1a,19,100172,2,58,122,20,F,NA,variable,heterogeneous,6,present,NaN,0,horizontal,none,0,0.799998812675476,green,2,5,1006.29933356561,749.885239334581,593.700666434388,450.114760665419,773.345241866748,853.60308331891,1006.29933356561,749.885239334581,1032.95409169886,496.282156015671,826.654758133252,346.39691668109,593.700666434388,450.114760665419,567.045908301137,703.717843984329,3,4,3,6,0,5,horizontal,horizontal,vertical,horizontal,vertical,horizontal
1a,19,100172,2,59,123,20,F,NA,variable,heterogeneous,4,present,NaN,0,vertical,none,0,0.635293908119202,green,2,1,1048.46436652023,542.637481142314,857.362518857686,848.464366520235,857.362518857686,848.464366520235,1048.46436652023,542.637481142314,742.637481142314,351.535633479765,551.535633479765,657.362518857686,0,0,0,0,5,4,6,3,NaN,NaN,horizontal,vertical,vertical,vertical,none,none
1a,19,100172,2,60,124,20,F,NA,variable,heterogeneous,3,absent,1.33117008209229,1,vertical,vertical,1,0.952939081192017,green,1,NaN,942.594190385041,811.404581001536,NaN,NaN,942.594190385041,811.404581001536,911.784642431215,370.807518193712,545.621167183745,617.787900804752,0,0,0,0,0,0,4,5,3,NaN,NaN,NaN,vertical,vertical,horizontal,none,none,none
1a,19,100172,2,61,125,20,F,NA,variable,heterogeneous,6,present,1.53312110900879,1,vertical,vertical,1,0.952939081192017,red,6,1,672.5,820.836477965032,927.5,820.836477965032,927.5,820.836477965032,1055,600,927.5,379.163522034968,672.5,379.163522034968,545,600,672.5,820.836477965032,6,3,6,5,0,4,vertical,vertical,vertical,vertical,horizontal,vertical
1a,19,100172,2,62,126,20,F,NA,variable,heterogeneous,6,present,NaN,0,horizontal,none,0,0.81176344871521,red,5,6,545.621167183745,582.212099195248,657.405809614959,811.404581001536,911.784642431215,829.192481806288,1054.37883281626,617.787900804752,942.594190385041,388.595418998464,688.215357568785,370.807518193712,545.621167183745,582.212099195248,657.405809614959,811.404581001536,3,0,0,5,4,3,horizontal,horizontal,horizontal,vertical,horizontal,horizontal
1a,19,100172,2,63,127,20,F,NA,variable,heterogeneous,4,present,NaN,0,vertical,none,0,0.752940268516541,green,2,3,992.450942956807,432.704947607421,632.704947607421,407.549057043193,967.295052392579,792.450942956807,992.450942956807,432.704947607421,632.704947607421,407.549057043193,607.549057043193,767.295052392579,0,0,0,0,3,4,5,5,NaN,NaN,vertical,vertical,vertical,vertical,none,none
1a,19,100172,2,64,128,20,F,NA,variable,heterogeneous,4,present,0.930296182632446,1,horizontal,horizontal,1,0.929409809112549,green,3,4,746.982518841471,350.57236181288,550.57236181288,653.017481158529,853.017481158529,849.42763818712,1049.42763818712,546.982518841471,746.982518841471,350.57236181288,550.57236181288,653.017481158529,0,0,0,0,5,0,4,3,NaN,NaN,vertical,vertical,horizontal,horizontal,none,none
1a,19,100172,3,1,129,20,F,NA,variable,heterogeneous,5,absent,1.09039211273193,1,vertical,vertical,1,0.764704904556274,red,4,NaN,704.475318678942,363.568117085469,NaN,NaN,738.309916622085,847.425410200379,1016.25226451989,735.129412379467,995.341332995339,436.089159529932,704.475318678942,363.568117085469,545.621167183745,617.787900804752,0,0,0,5,3,4,5,NaN,vertical,horizontal,vertical,vertical,vertical,none
1a,19,100172,3,2,130,20,F,NA,variable,heterogeneous,6,present,1.80864596366882,1,vertical,vertical,1,0.81176344871521,red,3,4,1049.42763818712,546.982518841471,878.799333565612,357.480588344736,721.200666434388,842.519411655264,970.628304621509,789.501930496736,1049.42763818712,546.982518841471,878.799333565612,357.480588344736,629.371695378491,410.498069503264,550.57236181288,653.017481158529,0,6,4,3,0,5,vertical,vertical,vertical,horizontal,vertical,horizontal
1a,19,100172,3,3,131,20,F,NA,variable,heterogeneous,3,absent,0.720018148422241,1,vertical,vertical,1,0.741175632476807,green,3,NaN,738.309916622085,352.574589799621,NaN,NaN,616.568350913644,777.137884467044,1045.12173246427,670.287525733335,738.309916622085,352.574589799621,0,0,0,0,0,0,0,6,4,NaN,NaN,NaN,vertical,horizontal,vertical,none,none,none
1a,19,100172,3,4,132,20,F,NA,variable,heterogeneous,3,absent,0.754703998565674,1,horizontal,horizontal,1,0.611764636039734,red,1,NaN,712.784863451954,839.621618300407,NaN,NaN,712.784863451954,839.621618300407,1051.12597701811,555.719714694933,636.089159529932,404.658667004661,0,0,0,0,0,0,4,6,0,NaN,NaN,NaN,horizontal,vertical,horizontal,none,none,none
1a,19,100172,3,5,133,20,F,NA,variable,heterogeneous,5,absent,1.18825697898865,1,horizontal,horizontal,1,0.905880537033081,red,4,NaN,676.373546837184,376.971974679454,NaN,NaN,768.923317431687,853.099268668537,1031.10848569435,707.767656743878,973.909581815937,413.504806087112,676.373546837184,376.971974679454,549.685068220846,648.656293821019,0,0,3,0,6,4,5,NaN,vertical,vertical,vertical,horizontal,horizontal,none
1a,19,100172,3,6,134,20,F,NA,variable,heterogeneous,3,present,0.921660900115967,1,horizontal,horizontal,1,0.682352452278137,green,1,3,653.738008730483,808.883771293693,692.232343256122,368.891514305654,653.738008730483,808.883771293693,1054.0296480134,622.224714400653,692.232343256122,368.891514305654,0,0,0,0,0,0,4,5,0,NaN,NaN,NaN,horizontal,horizontal,vertical,none,none,none
1a,19,100172,3,7,135,20,F,NA,variable,heterogeneous,3,present,0.661576986312866,1,vertical,vertical,1,0.858821992874145,green,2,1,817.787900804752,345.621167183745,1011.40458100154,742.594190385041,1011.40458100154,742.594190385041,817.787900804752,345.621167183745,570.807518193712,711.784642431215,0,0,0,0,0,0,5,4,6,NaN,NaN,NaN,horizontal,vertical,horizontal,none,none,none
1a,19,100172,3,8,136,20,F,NA,variable,heterogeneous,6,absent,1.95658302307129,1,horizontal,horizontal,1,0.682352452278137,red,4,NaN,835.489140744817,347.4816424709,NaN,NaN,764.510859255183,852.518357529101,1000.94274216971,756.993676208043,1036.43188291453,504.475318678942,835.489140744817,347.4816424709,599.057257830286,443.006323791957,563.568117085469,695.524681321058,0,5,6,4,3,5,vertical,horizontal,vertical,horizontal,horizontal,vertical
1a,19,100172,3,9,137,20,F,NA,variable,heterogeneous,4,absent,0.749222040176392,1,vertical,vertical,1,1.05882080554962,green,2,NaN,1020.83647796503,472.5,NaN,NaN,927.5,820.836477965032,1020.83647796503,472.5,672.5,379.163522034968,579.163522034968,727.5,0,0,0,0,5,4,6,5,NaN,NaN,horizontal,vertical,vertical,horizontal,none,none
1a,19,100172,3,10,138,20,F,NA,variable,heterogeneous,6,present,1.217365026474,1,horizontal,horizontal,1,0.858821992874145,green,3,2,1034.72873763037,500.363562235235,1003.65205506206,753.462830903772,768.923317431687,853.099268668537,1003.65205506206,753.462830903772,1034.72873763037,500.363562235235,831.076682568313,346.900731331463,596.34794493794,446.537169096228,565.271262369628,699.636437764765,3,0,4,3,0,6,horizontal,horizontal,horizontal,horizontal,vertical,horizontal
1a,19,100172,3,11,139,20,F,NA,variable,heterogeneous,3,absent,0.809859037399292,1,horizontal,horizontal,1,0.799998812675476,green,2,NaN,870.287525733335,354.878267535729,NaN,NaN,977.137884467044,783.431649086356,870.287525733335,354.878267535729,552.574589799621,661.690083377915,0,0,0,0,0,0,0,4,6,NaN,NaN,NaN,vertical,horizontal,vertical,none,none,none
1a,19,100172,3,12,140,20,F,NA,variable,heterogeneous,5,present,0.767971038818359,1,horizontal,horizontal,1,1.09411471366882,green,2,4,1032.95409169886,703.717843984329,672.5,379.163522034968,773.345241866748,853.60308331891,1032.95409169886,703.717843984329,970.628304621509,410.498069503264,672.5,379.163522034968,550.57236181288,653.017481158529,0,0,3,4,6,5,3,NaN,horizontal,horizontal,horizontal,vertical,vertical,none
1a,19,100172,3,13,141,20,F,NA,variable,heterogeneous,3,present,NaN,0,horizontal,none,0,0.729410996437073,green,3,2,560.378381699593,512.784863451954,995.341332995339,436.089159529932,844.280285305067,851.125977018113,995.341332995339,436.089159529932,560.378381699593,512.784863451954,0,0,0,0,0,0,5,3,4,NaN,NaN,NaN,vertical,horizontal,horizontal,none,none,none
1a,19,100172,3,14,142,20,F,NA,variable,heterogeneous,3,absent,0.975385904312134,1,vertical,vertical,1,1.03529153347015,green,1,NaN,1013.86099482608,738.882953928832,NaN,NaN,1013.86099482608,738.882953928832,813.345668841951,345.349468637584,572.793336331966,715.767577433584,0,0,0,0,0,0,4,0,6,NaN,NaN,NaN,vertical,horizontal,vertical,none,none,none
1a,19,100172,3,15,143,20,F,NA,variable,heterogeneous,3,absent,0.699687004089355,1,horizontal,horizontal,1,0.823528084754944,green,2,NaN,907.767656743878,368.891514305654,NaN,NaN,946.261991269517,808.883771293693,907.767656743878,368.891514305654,545.970351986605,622.224714400653,0,0,0,0,0,0,6,4,3,NaN,NaN,NaN,vertical,horizontal,horizontal,none,none,none
1a,19,100172,3,16,144,20,F,NA,variable,heterogeneous,5,present,1.58328294754028,1,horizontal,horizontal,1,1.08235007762909,green,5,1,545.349468637584,586.654331158049,708.616172865948,838.063008756786,708.616172865948,838.063008756786,998.172220171528,760.476699717708,1013.86099482608,461.117046071168,734.001143498857,353.688914296288,545.349468637584,586.654331158049,0,0,6,3,5,6,4,NaN,horizontal,vertical,vertical,horizontal,horizontal,none
1a,19,100172,3,17,145,20,F,NA,variable,heterogeneous,4,present,0.876662015914917,1,horizontal,horizontal,1,0.894115900993347,green,1,3,795.549636358493,854.96116226488,804.450363641507,345.03883773512,795.549636358493,854.96116226488,1054.96116226488,604.450363641507,804.450363641507,345.03883773512,545.03883773512,595.549636358493,0,0,0,0,4,0,0,3,NaN,NaN,horizontal,vertical,horizontal,horizontal,none,none
1a,19,100172,3,18,146,20,F,NA,variable,heterogeneous,4,absent,0.703309059143066,1,horizontal,horizontal,1,1.03529153347015,green,2,NaN,1054.84466088987,608.899371659138,NaN,NaN,791.100628340862,854.844660889869,1054.84466088987,608.899371659138,808.899371659138,345.155339110131,545.155339110131,591.100628340862,0,0,0,0,3,4,6,5,NaN,NaN,horizontal,horizontal,vertical,horizontal,none,none
1a,19,100172,3,19,147,20,F,NA,variable,heterogeneous,3,present,0.974503040313721,1,vertical,vertical,1,0.847057356834412,green,3,1,553.688914296288,534.001143498857,865.998856501143,846.311085703712,865.998856501143,846.311085703712,980.31222920257,419.68777079743,553.688914296288,534.001143498857,0,0,0,0,0,0,6,3,4,NaN,NaN,NaN,vertical,horizontal,vertical,none,none,none
1a,19,100172,3,20,148,20,F,NA,variable,heterogeneous,4,absent,0.763991117477417,1,vertical,vertical,1,0.905880537033081,red,4,NaN,613.504806087112,773.909581815937,NaN,NaN,973.909581815937,786.495193912888,986.495193912888,426.090418184063,626.090418184063,413.504806087112,613.504806087112,773.909581815937,0,0,0,0,0,3,6,4,NaN,NaN,horizontal,horizontal,vertical,vertical,none,none
1a,19,100172,3,21,149,20,F,NA,variable,heterogeneous,6,present,0.78941011428833,1,vertical,vertical,1,1.09411471366882,green,5,3,632.704947607421,407.549057043193,1050.31493177915,551.343706178981,716.980120613425,841.107236777826,967.295052392579,792.450942956807,1050.31493177915,551.343706178981,883.019879386575,358.892763222174,632.704947607421,407.549057043193,549.685068220846,648.656293821019,3,3,6,6,4,5,horizontal,vertical,vertical,vertical,vertical,vertical
1a,19,100172,3,22,150,20,F,NA,variable,heterogeneous,6,absent,1.38342308998108,1,horizontal,horizontal,1,0.694117088317871,red,6,NaN,576.971974679454,723.626453162816,NaN,NaN,795.549636358493,854.96116226488,1018.57766167904,731.334709102064,1023.02802532055,476.373546837184,804.450363641507,345.03883773512,581.422338320961,468.665290897936,576.971974679454,723.626453162816,6,0,6,5,3,4,vertical,vertical,horizontal,horizontal,horizontal,horizontal
1a,19,100172,3,23,151,20,F,NA,variable,heterogeneous,4,present,1.34488701820374,1,vertical,vertical,1,0.682352452278137,red,1,2,734.001143498857,846.311085703712,1046.31108570371,665.998856501143,734.001143498857,846.311085703712,1046.31108570371,665.998856501143,865.998856501143,353.688914296288,553.688914296288,534.001143498857,0,0,0,0,4,6,5,0,NaN,NaN,vertical,horizontal,horizontal,horizontal,none,none
1a,19,100172,3,24,152,20,F,NA,variable,heterogeneous,4,absent,1.22788500785828,0,horizontal,vertical,1,0.788234176635742,red,2,NaN,1046.31108570371,665.998856501143,NaN,NaN,734.001143498857,846.311085703712,1046.31108570371,665.998856501143,865.998856501143,353.688914296288,553.688914296288,534.001143498857,0,0,0,0,0,4,5,3,NaN,NaN,horizontal,horizontal,vertical,vertical,none,none
1a,19,100172,3,25,153,20,F,NA,variable,heterogeneous,4,present,0.905531167984009,1,vertical,vertical,1,0.847057356834412,green,2,4,992.450942956807,432.704947607421,607.549057043193,767.295052392579,967.295052392579,792.450942956807,992.450942956807,432.704947607421,632.704947607421,407.549057043193,607.549057043193,767.295052392579,0,0,0,0,0,4,0,5,NaN,NaN,horizontal,vertical,horizontal,horizontal,none,none
1a,19,100172,3,26,154,20,F,NA,variable,heterogeneous,5,absent,1.0649619102478,1,vertical,vertical,1,0.658823180198669,green,5,NaN,591.116228706307,746.261991269517,NaN,NaN,874.554784704298,843.857712770574,1054.96116226488,604.450363641507,883.019879386575,358.892763222174,596.34794493794,446.537169096228,591.116228706307,746.261991269517,0,0,5,6,5,3,4,NaN,vertical,vertical,horizontal,vertical,vertical,none
1a,19,100172,3,27,155,20,F,NA,variable,heterogeneous,4,absent,0.751641988754272,1,vertical,vertical,1,0.858821992874145,red,3,NaN,734.001143498857,353.688914296288,NaN,NaN,865.998856501143,846.311085703712,1046.31108570371,534.001143498857,734.001143498857,353.688914296288,553.688914296288,665.998856501143,0,0,0,0,3,5,4,0,NaN,NaN,horizontal,vertical,vertical,vertical,none,none
1a,19,100172,3,28,156,20,F,NA,variable,heterogeneous,4,absent,1.32096195220947,1,horizontal,horizontal,1,0.705881724357605,red,2,NaN,1025.15163617903,719.715248510402,NaN,NaN,680.284751489598,825.151636179026,1025.15163617903,719.715248510402,919.715248510402,374.848363820974,574.848363820974,480.284751489598,0,0,0,0,3,4,5,6,NaN,NaN,vertical,horizontal,vertical,vertical,none,none
1a,19,100172,3,29,157,20,F,NA,variable,heterogeneous,6,absent,1.55909299850464,1,vertical,vertical,1,0.976468353271484,red,1,NaN,755.719714694933,851.125977018113,NaN,NaN,755.719714694933,851.125977018113,995.341332995339,763.910840470068,1039.62161830041,512.784863451954,844.280285305067,348.874022981887,604.658667004661,436.089159529932,560.378381699593,687.215136548046,4,6,0,3,5,3,vertical,horizontal,horizontal,horizontal,vertical,vertical
1a,19,100172,3,30,158,20,F,NA,variable,heterogeneous,6,present,1.86043810844421,1,horizontal,horizontal,1,1.09411471366882,green,5,4,588.595418998464,457.40580961496,817.787900804752,345.621167183745,782.212099195248,854.378832816255,1011.40458100154,742.594190385041,1029.19248180629,488.215357568785,817.787900804752,345.621167183745,588.595418998464,457.40580961496,570.807518193712,711.784642431215,3,6,5,5,4,6,vertical,vertical,vertical,horizontal,horizontal,vertical
1a,19,100172,3,31,159,20,F,NA,variable,heterogeneous,6,absent,1.39323210716248,1,vertical,vertical,1,0.964703717231751,green,6,NaN,613.504806087112,773.909581815937,NaN,NaN,857.362518857686,848.464366520235,1043.85771277057,674.554784704298,986.495193912888,426.090418184063,742.637481142314,351.535633479765,556.142287229426,525.445215295702,613.504806087112,773.909581815937,0,3,5,5,6,4,vertical,horizontal,horizontal,vertical,vertical,vertical
1a,19,100172,3,32,160,20,F,NA,variable,heterogeneous,6,present,NaN,0,vertical,none,0,1.01176226139069,green,2,5,1051.86052685176,639.890788585259,548.13947314824,560.109211414741,891.383827134052,838.063008756786,1051.86052685176,639.890788585259,960.476699717708,401.827779828472,708.616172865948,361.936991243214,548.13947314824,560.109211414741,639.523300282292,798.172220171528,3,4,0,5,6,5,vertical,vertical,horizontal,horizontal,vertical,horizontal
1a,19,100172,3,33,161,20,F,NA,variable,heterogeneous,4,absent,1.5857789516449,1,horizontal,horizontal,1,0.799998812675476,green,1,NaN,970.628304621509,789.501930496736,NaN,NaN,970.628304621509,789.501930496736,989.501930496736,429.371695378491,629.371695378491,410.498069503264,610.498069503264,770.628304621509,0,0,0,0,4,5,0,0,NaN,NaN,horizontal,vertical,vertical,horizontal,none,none
1a,19,100172,3,34,162,20,F,NA,variable,heterogeneous,5,present,1.60602498054504,1,vertical,vertical,1,0.823528084754944,green,4,2,738.309916622085,352.574589799621,995.341332995339,763.910840470068,704.475318678942,836.431882914531,995.341332995339,763.910840470068,1016.25226451989,464.870587620533,738.309916622085,352.574589799621,545.621167183745,582.212099195248,0,0,6,5,0,4,3,NaN,horizontal,vertical,horizontal,vertical,horizontal,none
1a,19,100172,3,35,163,20,F,NA,variable,heterogeneous,5,present,1.53406286239624,1,horizontal,horizontal,1,0.988232989311218,red,3,5,1039.62161830041,512.784863451954,554.878267535729,529.712474266665,657.405809614959,811.404581001536,956.993676208043,800.942742169714,1039.62161830041,512.784863451954,791.100628340862,345.155339110131,554.878267535729,529.712474266665,0,0,3,5,4,6,6,NaN,vertical,vertical,horizontal,vertical,vertical,none
1a,19,100172,3,36,164,20,F,NA,variable,heterogeneous,4,present,0.777809143066406,1,horizontal,horizontal,1,1.04705616950989,red,4,1,593.700666434388,450.114760665419,650.114760665419,806.299333565612,650.114760665419,806.299333565612,1006.29933356561,749.885239334581,949.885239334581,393.700666434388,593.700666434388,450.114760665419,0,0,0,0,0,0,3,4,NaN,NaN,horizontal,vertical,vertical,horizontal,none,none
1a,19,100172,3,37,165,20,F,NA,variable,heterogeneous,3,absent,1.32535004615784,1,vertical,vertical,1,0.976468353271484,red,2,NaN,927.5,379.163522034968,NaN,NaN,927.5,820.836477965032,927.5,379.163522034968,545,600,0,0,0,0,0,0,3,4,3,NaN,NaN,NaN,horizontal,vertical,horizontal,none,none,none
1a,19,100172,3,38,166,20,F,NA,variable,heterogeneous,3,present,0.807820081710815,1,vertical,vertical,1,1.01176226139069,red,3,2,545.970351986605,577.775285599347,946.261991269517,391.116228706307,907.767656743878,831.108485694346,946.261991269517,391.116228706307,545.970351986605,577.775285599347,0,0,0,0,0,0,6,0,4,NaN,NaN,NaN,horizontal,horizontal,vertical,none,none,none
1a,19,100172,3,39,167,20,F,NA,variable,heterogeneous,5,absent,1.19025111198425,1,vertical,vertical,1,0.694117088317871,red,3,NaN,1023.02802532055,476.373546837184,NaN,NaN,692.232343256122,831.108485694346,986.495193912888,773.909581815937,1023.02802532055,476.373546837184,751.343706178981,349.685068220846,546.900731331463,568.923317431687,0,0,0,6,4,3,5,NaN,horizontal,vertical,vertical,vertical,horizontal,none
1a,19,100172,3,40,168,20,F,NA,variable,heterogeneous,6,absent,0.888154983520508,1,vertical,vertical,1,1.09411471366882,green,4,NaN,712.784863451954,360.378381699593,NaN,NaN,887.215136548046,839.621618300407,1051.12597701811,644.280285305067,963.910840470068,404.658667004661,712.784863451954,360.378381699593,548.874022981887,555.719714694933,636.089159529932,795.341332995339,0,6,5,4,0,6,horizontal,vertical,vertical,vertical,vertical,vertical
1a,19,100172,3,41,169,20,F,NA,variable,heterogeneous,4,present,0.800201892852783,1,horizontal,horizontal,1,0.705881724357605,red,4,2,556.142287229426,525.445215295702,1043.85771277057,674.554784704298,725.445215295702,843.857712770574,1043.85771277057,674.554784704298,874.554784704298,356.142287229426,556.142287229426,525.445215295702,0,0,0,0,5,6,0,4,NaN,NaN,vertical,horizontal,horizontal,horizontal,none,none
1a,19,100172,3,42,170,20,F,NA,variable,heterogeneous,3,absent,0.775754928588867,1,horizontal,horizontal,1,0.964703717231751,red,2,NaN,1039.62161830041,512.784863451954,NaN,NaN,755.719714694933,851.125977018113,1039.62161830041,512.784863451954,604.658667004661,436.089159529932,0,0,0,0,0,0,0,4,6,NaN,NaN,NaN,horizontal,horizontal,horizontal,none,none,none
1a,19,100172,3,43,171,20,F,NA,variable,heterogeneous,3,absent,0.900027990341187,1,vertical,vertical,1,1.02352689743042,red,1,NaN,839.890788585259,851.86052685176,NaN,NaN,839.890788585259,851.86052685176,998.172220171528,439.523300282291,561.936991243214,508.616172865948,0,0,0,0,0,0,4,5,5,NaN,NaN,NaN,vertical,horizontal,horizontal,none,none,none
1a,19,100172,3,44,172,20,F,NA,variable,heterogeneous,5,absent,1.16736102104187,1,horizontal,horizontal,1,0.858821992874145,red,2,NaN,1054.96116226488,595.549636358493,NaN,NaN,883.019879386575,841.107236777826,1054.96116226488,595.549636358493,874.554784704298,356.142287229426,591.116228706307,453.738008730483,596.34794493794,753.462830903772,0,0,5,4,6,3,5,NaN,vertical,horizontal,vertical,horizontal,horizontal,none
1a,19,100172,3,45,173,20,F,NA,variable,heterogeneous,5,absent,1.14729499816895,1,horizontal,horizontal,1,0.611764636039734,green,2,NaN,956.993676208043,800.942742169714,NaN,NaN,657.405809614959,811.404581001536,956.993676208043,800.942742169714,1039.62161830041,512.784863451954,791.100628340862,345.155339110131,554.878267535729,529.712474266665,0,0,3,4,0,3,0,NaN,vertical,horizontal,horizontal,vertical,horizontal,none
1a,19,100172,3,46,174,20,F,NA,variable,heterogeneous,4,present,1.51582312583923,1,horizontal,horizontal,1,0.870586628913879,green,3,4,773.345241866748,346.39691668109,546.39691668109,626.654758133252,826.654758133252,853.60308331891,1053.60308331891,573.345241866748,773.345241866748,346.39691668109,546.39691668109,626.654758133252,0,0,0,0,0,3,4,5,NaN,NaN,horizontal,horizontal,horizontal,vertical,none,none
1a,19,100172,3,47,175,20,F,NA,variable,heterogeneous,6,present,0.944449901580811,1,horizontal,horizontal,1,0.917645173072815,red,1,3,848.656293821019,850.314931779154,992.450942956807,432.704947607421,848.656293821019,850.314931779154,1041.10723677783,683.019879386575,992.450942956807,432.704947607421,751.343706178981,349.685068220846,558.892763222174,516.980120613425,607.549057043193,767.295052392579,4,0,3,3,5,0,horizontal,vertical,horizontal,horizontal,horizontal,vertical
1a,19,100172,3,48,176,20,F,NA,variable,heterogeneous,6,absent,1.00886988639832,1,horizontal,horizontal,1,0.870586628913879,green,4,NaN,704.475318678942,363.568117085469,NaN,NaN,895.524681321058,836.431882914531,1052.5183575291,635.489140744817,956.993676208043,399.057257830286,704.475318678942,363.568117085469,547.481642470899,564.510859255183,643.006323791957,800.942742169714,5,0,3,4,6,3,vertical,horizontal,horizontal,horizontal,vertical,vertical
1a,19,100172,3,49,177,20,F,NA,variable,heterogeneous,5,absent,1.54166412353516,1,horizontal,horizontal,1,0.623529272079468,green,2,NaN,1053.60308331891,573.345241866748,NaN,NaN,903.717843984329,832.954091698863,1053.60308331891,573.345241866748,853.017481158529,350.57236181288,579.163522034968,472.5,610.498069503264,770.628304621509,0,0,3,4,6,5,3,NaN,vertical,horizontal,horizontal,vertical,vertical,none
1a,19,100172,3,50,178,20,F,NA,variable,heterogeneous,5,present,1.56845903396606,1,vertical,vertical,1,0.788234176635742,red,1,3,760.109211414741,851.86052685176,980.31222920257,419.68777079743,760.109211414741,851.86052685176,1027.20666366803,715.767577433584,980.31222920257,419.68777079743,684.232422566416,372.793336331966,548.13947314824,639.890788585259,0,0,4,6,6,5,0,NaN,vertical,horizontal,horizontal,vertical,horizontal,none
1a,19,100172,3,51,179,20,F,NA,variable,heterogeneous,3,present,1.1342179775238,1,horizontal,horizontal,1,0.705881724357605,red,1,3,960.476699717708,798.172220171528,548.13947314824,639.890788585259,960.476699717708,798.172220171528,891.383827134052,361.936991243214,548.13947314824,639.890788585259,0,0,0,0,0,0,4,0,3,NaN,NaN,NaN,horizontal,vertical,horizontal,none,none,none
1a,19,100172,3,52,180,20,F,NA,variable,heterogeneous,6,present,0.815594911575317,1,horizontal,horizontal,1,0.729410996437073,red,1,2,835.489140744817,852.518357529101,1036.43188291453,695.524681321058,835.489140744817,852.518357529101,1036.43188291453,695.524681321058,1000.94274216971,443.006323791957,764.510859255183,347.4816424709,563.568117085469,504.475318678942,599.057257830286,756.993676208043,4,6,5,6,5,3,horizontal,vertical,horizontal,horizontal,vertical,vertical
1a,19,100172,3,53,181,20,F,NA,variable,heterogeneous,6,absent,1.46588802337646,1,horizontal,horizontal,1,1.09411471366882,green,5,NaN,545.970351986605,577.775285599347,NaN,NaN,907.767656743878,831.108485694346,1054.0296480134,622.224714400653,946.261991269517,391.116228706307,692.232343256122,368.891514305654,545.970351986605,577.775285599347,653.738008730483,808.883771293693,0,5,5,3,4,6,vertical,horizontal,vertical,horizontal,horizontal,horizontal
1a,19,100172,3,54,182,20,F,NA,variable,heterogeneous,3,present,0.913843154907227,1,horizontal,horizontal,1,0.729410996437073,red,3,1,561.936991243214,508.616172865948,839.890788585259,851.86052685176,839.890788585259,851.86052685176,998.172220171528,439.523300282291,561.936991243214,508.616172865948,0,0,0,0,0,0,0,5,4,NaN,NaN,NaN,vertical,horizontal,horizontal,none,none,none
1a,19,100172,3,55,183,20,F,NA,variable,heterogeneous,5,present,1.14224290847778,1,horizontal,horizontal,1,0.694117088317871,red,1,5,844.280285305067,851.125977018113,574.848363820974,719.715248510402,844.280285305067,851.125977018113,1052.5183575291,635.489140744817,911.784642431215,370.807518193712,616.568350913644,422.862115532956,574.848363820974,719.715248510402,0,0,4,6,6,3,5,NaN,horizontal,horizontal,horizontal,horizontal,vertical,none
1a,19,100172,3,56,184,20,F,NA,variable,heterogeneous,5,absent,1.60210609436035,1,vertical,vertical,1,0.635293908119202,green,2,NaN,1011.40458100154,742.594190385041,NaN,NaN,729.712474266665,845.121732464271,1011.40458100154,742.594190385041,1000.94274216971,443.006323791957,712.784863451954,360.378381699593,545.155339110131,608.899371659138,0,0,6,4,5,0,3,NaN,horizontal,vertical,horizontal,vertical,horizontal,none
1a,19,100172,3,57,185,20,F,NA,variable,heterogeneous,3,present,1.16280722618103,1,vertical,vertical,1,0.611764636039734,red,1,2,586.139005173917,738.882953928832,1027.20666366803,715.767577433584,586.139005173917,738.882953928832,1027.20666366803,715.767577433584,786.654331158049,345.349468637584,0,0,0,0,0,0,4,0,6,NaN,NaN,NaN,vertical,horizontal,horizontal,none,none,none
1a,19,100172,3,58,186,20,F,NA,variable,heterogeneous,6,absent,0.982947826385498,1,vertical,vertical,1,1.04705616950989,red,4,NaN,712.784863451954,360.378381699593,NaN,NaN,887.215136548046,839.621618300407,1051.12597701811,644.280285305067,963.910840470068,404.658667004661,712.784863451954,360.378381699593,548.874022981887,555.719714694933,636.089159529932,795.341332995339,5,0,3,4,0,5,horizontal,vertical,vertical,vertical,horizontal,horizontal
1a,19,100172,3,59,187,20,F,NA,variable,heterogeneous,4,present,1.54913306236267,1,vertical,vertical,1,0.717646360397339,green,4,2,593.700666434388,450.114760665419,1006.29933356561,749.885239334581,650.114760665419,806.299333565612,1006.29933356561,749.885239334581,949.885239334581,393.700666434388,593.700666434388,450.114760665419,0,0,0,0,3,0,6,4,NaN,NaN,vertical,horizontal,vertical,vertical,none,none
1a,19,100172,3,60,188,20,F,NA,variable,heterogeneous,6,present,1.6445689201355,1,vertical,vertical,1,0.823528084754944,red,3,1,967.295052392579,407.549057043193,883.019879386575,841.107236777826,883.019879386575,841.107236777826,1050.31493177915,648.656293821019,967.295052392579,407.549057043193,716.980120613425,358.892763222174,549.685068220846,551.343706178981,632.704947607421,792.450942956807,0,3,4,6,5,6,vertical,vertical,vertical,horizontal,horizontal,horizontal
1a,19,100172,3,61,189,20,F,NA,variable,heterogeneous,5,present,0.774121046066284,1,vertical,vertical,1,0.823528084754944,red,4,3,664.870587620533,383.747735480111,963.910840470068,404.658667004661,782.212099195248,854.378832816255,1036.43188291453,695.524681321058,963.910840470068,404.658667004661,664.870587620533,383.747735480111,552.574589799621,661.690083377915,0,0,3,5,6,4,6,NaN,vertical,vertical,vertical,vertical,vertical,none
1a,19,100172,3,62,190,20,F,NA,variable,heterogeneous,5,present,1.20826005935669,1,vertical,vertical,1,0.941174445152283,green,3,5,1006.29933356561,450.114760665419,545,600,721.200666434388,842.519411655264,1006.29933356561,749.885239334581,1006.29933356561,450.114760665419,721.200666434388,357.480588344736,545,600,0,0,0,3,4,5,6,NaN,horizontal,horizontal,vertical,vertical,horizontal,none
1a,19,100172,3,63,191,20,F,NA,variable,heterogeneous,4,present,1.11864590644836,1,vertical,vertical,1,1.09411471366882,red,3,2,725.445215295702,356.142287229426,1043.85771277057,525.445215295702,874.554784704298,843.857712770574,1043.85771277057,525.445215295702,725.445215295702,356.142287229426,556.142287229426,674.554784704298,0,0,0,0,0,5,4,6,NaN,NaN,vertical,horizontal,vertical,vertical,none,none
1a,19,100172,3,64,192,20,F,NA,variable,heterogeneous,4,absent,0.824308156967163,1,vertical,vertical,1,0.764704904556274,green,4,NaN,574.848363820974,480.284751489598,NaN,NaN,680.284751489598,825.151636179026,1025.15163617903,719.715248510402,919.715248510402,374.848363820974,574.848363820974,480.284751489598,0,0,0,0,3,0,3,4,NaN,NaN,vertical,horizontal,horizontal,vertical,none,none
1a,19,100172,4,1,193,20,F,NA,variable,heterogeneous,3,absent,0.791323184967041,1,horizontal,horizontal,1,0.988232989311218,green,1,NaN,817.787900804752,854.378832816255,NaN,NaN,817.787900804752,854.378832816255,1011.40458100154,457.40580961496,570.807518193712,488.215357568785,0,0,0,0,0,0,4,5,6,NaN,NaN,NaN,horizontal,vertical,vertical,none,none,none
1a,19,100172,4,2,194,20,F,NA,variable,heterogeneous,5,present,1.12831997871399,1,vertical,vertical,1,0.847057356834412,red,3,5,891.383827134052,361.936991243214,586.139005173917,738.882953928832,865.998856501143,846.311085703712,1054.65053136242,613.345668841951,891.383827134052,361.936991243214,601.827779828472,439.523300282291,586.139005173917,738.882953928832,0,0,0,6,4,6,5,NaN,vertical,horizontal,vertical,vertical,horizontal,none
1a,19,100172,4,3,195,20,F,NA,variable,heterogeneous,5,present,0.879737854003906,1,horizontal,horizontal,1,0.635293908119202,green,5,2,557.480588344736,678.799333565612,1042.51941165526,678.799333565612,800,855,1042.51941165526,678.799333565612,949.885239334581,393.700666434388,650.114760665419,393.700666434388,557.480588344736,678.799333565612,0,0,3,5,6,5,4,NaN,vertical,vertical,vertical,vertical,horizontal,none
1a,19,100172,4,4,196,20,F,NA,variable,heterogeneous,5,present,1.28933691978455,1,vertical,vertical,1,0.988232989311218,green,5,3,591.116228706307,746.261991269517,883.019879386575,358.892763222174,874.554784704298,843.857712770574,1054.96116226488,604.450363641507,883.019879386575,358.892763222174,596.34794493794,446.537169096228,591.116228706307,746.261991269517,0,0,6,5,0,6,4,NaN,vertical,horizontal,vertical,horizontal,vertical,none
1a,19,100172,4,5,197,20,F,NA,variable,heterogeneous,4,present,1.15119194984436,1,horizontal,horizontal,1,1.01176226139069,green,1,3,949.885239334581,806.299333565612,650.114760665419,393.700666434388,949.885239334581,806.299333565612,1006.29933356561,450.114760665419,650.114760665419,393.700666434388,593.700666434388,749.885239334581,0,0,0,0,4,3,0,6,NaN,NaN,horizontal,horizontal,vertical,horizontal,none,none
1a,19,100172,4,6,198,20,F,NA,variable,heterogeneous,6,present,1.10949802398682,1,horizontal,horizontal,1,0.941174445152283,green,3,6,992.450942956807,432.704947607421,607.549057043193,767.295052392579,848.656293821019,850.314931779154,1041.10723677783,683.019879386575,992.450942956807,432.704947607421,751.343706178981,349.685068220846,558.892763222174,516.980120613425,607.549057043193,767.295052392579,3,0,4,0,6,5,vertical,vertical,horizontal,horizontal,horizontal,horizontal
1a,19,100172,4,7,199,20,F,NA,variable,heterogeneous,5,present,0.72185206413269,1,horizontal,horizontal,1,0.694117088317871,green,4,5,570.807518193712,488.215357568785,622.862115532956,783.431649086356,919.715248510402,825.151636179026,1051.12597701811,555.719714694933,835.489140744817,347.4816424709,570.807518193712,488.215357568785,622.862115532956,783.431649086356,0,0,3,5,3,4,0,NaN,vertical,horizontal,horizontal,horizontal,horizontal,none
1a,19,100172,4,8,200,20,F,NA,variable,heterogeneous,5,absent,0.84745192527771,1,horizontal,horizontal,1,0.952939081192017,red,2,NaN,1054.96116226488,595.549636358493,NaN,NaN,883.019879386575,841.107236777826,1054.96116226488,595.549636358493,874.554784704298,356.142287229426,591.116228706307,453.738008730483,596.34794493794,753.462830903772,0,0,0,4,3,3,0,NaN,horizontal,horizontal,horizontal,horizontal,vertical,none
1a,19,100172,4,9,201,20,F,NA,variable,heterogeneous,4,present,1.56383609771729,1,vertical,vertical,1,0.952939081192017,green,2,1,1049.42763818712,653.017481158529,746.982518841471,849.42763818712,746.982518841471,849.42763818712,1049.42763818712,653.017481158529,853.017481158529,350.57236181288,550.57236181288,546.982518841471,0,0,0,0,3,4,0,3,NaN,NaN,horizontal,vertical,horizontal,vertical,none,none
1a,19,100172,4,10,202,20,F,NA,variable,heterogeneous,5,present,1.38785815238953,1,horizontal,horizontal,1,1.02352689743042,red,2,3,1043.85771277057,674.554784704298,946.261991269517,391.116228706307,804.450363641507,854.96116226488,1043.85771277057,674.554784704298,946.261991269517,391.116228706307,646.537169096228,396.34794493794,558.892763222174,683.019879386575,0,0,5,4,6,3,0,NaN,vertical,horizontal,horizontal,horizontal,vertical,none
1a,19,100172,4,11,203,20,F,NA,variable,heterogeneous,5,absent,0.840758085250854,1,vertical,vertical,1,0.635293908119202,red,5,NaN,548.13947314824,639.890788585259,NaN,NaN,760.109211414741,851.86052685176,1027.20666366803,715.767577433584,980.31222920257,419.68777079743,684.232422566416,372.793336331966,548.13947314824,639.890788585259,0,0,6,0,5,6,4,NaN,horizontal,vertical,vertical,horizontal,vertical,none
1a,19,100172,4,12,204,20,F,NA,variable,heterogeneous,4,absent,1.17110395431519,1,horizontal,horizontal,1,0.670587816238403,red,1,NaN,831.076682568313,853.099268668537,NaN,NaN,831.076682568313,853.099268668537,1053.09926866854,568.923317431687,768.923317431687,346.900731331463,546.900731331463,631.076682568313,0,0,0,0,4,3,6,5,NaN,NaN,horizontal,horizontal,horizontal,horizontal,none,none
1a,19,100172,4,13,205,20,F,NA,variable,heterogeneous,4,absent,1.23461699485779,1,horizontal,horizontal,1,0.799998812675476,green,4,NaN,545.349468637584,613.345668841951,NaN,NaN,813.345668841951,854.650531362416,1054.65053136242,586.654331158049,786.654331158049,345.349468637584,545.349468637584,613.345668841951,0,0,0,0,5,3,3,4,NaN,NaN,horizontal,horizontal,horizontal,horizontal,none,none
1a,19,100172,4,14,206,20,F,NA,variable,heterogeneous,3,present,1.0011990070343,1,horizontal,horizontal,1,0.882351264953613,red,3,2,554.878267535729,670.287525733335,861.690083377915,352.574589799621,983.431649086356,777.137884467044,861.690083377915,352.574589799621,554.878267535729,670.287525733335,0,0,0,0,0,0,0,5,4,NaN,NaN,NaN,vertical,vertical,horizontal,none,none,none
1a,19,100172,4,15,207,20,F,NA,variable,heterogeneous,6,absent,0.909493923187256,1,horizontal,horizontal,1,0.999997625350952,red,4,NaN,704.475318678942,363.568117085469,NaN,NaN,895.524681321058,836.431882914531,1052.5183575291,635.489140744817,956.993676208043,399.057257830286,704.475318678942,363.568117085469,547.481642470899,564.510859255183,643.006323791957,800.942742169714,6,5,0,4,6,5,horizontal,horizontal,vertical,horizontal,vertical,vertical
1a,19,100172,4,16,208,20,F,NA,variable,heterogeneous,4,present,0.932536125183105,1,vertical,vertical,1,0.635293908119202,red,2,4,1049.42763818712,546.982518841471,550.57236181288,653.017481158529,853.017481158529,849.42763818712,1049.42763818712,546.982518841471,746.982518841471,350.57236181288,550.57236181288,653.017481158529,0,0,0,0,0,4,3,5,NaN,NaN,vertical,vertical,horizontal,vertical,none,none
1a,19,100172,4,17,209,20,F,NA,variable,heterogeneous,6,present,1.25322818756104,1,vertical,vertical,1,0.882351264953613,green,3,4,1047.42541020038,538.309916622085,870.287525733335,354.878267535729,729.712474266665,845.121732464271,977.137884467044,783.431649086356,1047.42541020038,538.309916622085,870.287525733335,354.878267535729,622.862115532956,416.568350913644,552.574589799621,661.690083377915,3,6,4,0,0,3,vertical,vertical,vertical,vertical,vertical,horizontal
1a,19,100172,4,18,210,20,F,NA,variable,heterogeneous,6,present,0.820230007171631,1,vertical,vertical,1,1.09411471366882,green,4,3,923.626453162816,376.971974679454,1054.96116226488,595.549636358493,676.373546837184,823.028025320546,931.334709102064,818.577661679039,1054.96116226488,595.549636358493,923.626453162816,376.971974679454,668.665290897936,381.422338320961,545.03883773512,604.450363641507,0,0,6,4,5,3,horizontal,horizontal,vertical,vertical,horizontal,horizontal
1a,19,100172,4,19,211,20,F,NA,variable,heterogeneous,4,absent,1.24184417724609,1,vertical,vertical,1,1.05882080554962,red,1,NaN,826.654758133252,853.60308331891,NaN,NaN,826.654758133252,853.60308331891,1053.60308331891,573.345241866748,773.345241866748,346.39691668109,546.39691668109,626.654758133252,0,0,0,0,4,3,5,0,NaN,NaN,vertical,horizontal,horizontal,vertical,none,none
1a,19,100172,4,20,212,20,F,NA,variable,heterogeneous,6,present,0.671817064285278,1,horizontal,horizontal,1,1.05882080554962,red,5,3,650.114760665419,393.700666434388,1053.60308331891,573.345241866748,696.282156015671,832.954091698863,949.885239334581,806.299333565612,1053.60308331891,573.345241866748,903.717843984329,367.045908301137,650.114760665419,393.700666434388,546.39691668109,626.654758133252,0,3,5,6,4,5,vertical,vertical,horizontal,horizontal,horizontal,vertical
1a,19,100172,4,21,213,20,F,NA,variable,heterogeneous,4,present,0.77266001701355,1,vertical,vertical,1,0.952939081192017,green,2,3,1054.96116226488,604.450363641507,804.450363641507,345.03883773512,795.549636358493,854.96116226488,1054.96116226488,604.450363641507,804.450363641507,345.03883773512,545.03883773512,595.549636358493,0,0,0,0,0,4,3,6,NaN,NaN,horizontal,vertical,horizontal,vertical,none,none
1a,19,100172,4,22,214,20,F,NA,variable,heterogeneous,3,present,0.948170900344849,1,vertical,vertical,1,0.999997625350952,red,3,2,676.373546837184,376.971974679454,1054.96116226488,604.450363641507,668.665290897936,818.577661679039,1054.96116226488,604.450363641507,676.373546837184,376.971974679454,0,0,0,0,0,0,3,5,4,NaN,NaN,NaN,horizontal,vertical,vertical,none,none,none
1a,19,100172,4,23,215,20,F,NA,variable,heterogeneous,4,absent,0.80859112739563,1,vertical,vertical,1,1.05882080554962,green,4,NaN,548.874022981887,644.280285305067,NaN,NaN,844.280285305067,851.125977018113,1051.12597701811,555.719714694933,755.719714694933,348.874022981887,548.874022981887,644.280285305067,0,0,0,0,0,5,3,4,NaN,NaN,vertical,horizontal,horizontal,vertical,none,none
1a,19,100172,4,24,216,20,F,NA,variable,heterogeneous,6,absent,NaN,0,horizontal,none,0,0.729410996437073,green,1,NaN,870.287525733335,845.121732464271,NaN,NaN,870.287525733335,845.121732464271,1047.42541020038,661.690083377915,977.137884467044,416.568350913644,729.712474266665,354.878267535729,552.574589799621,538.309916622085,622.862115532956,783.431649086356,4,0,3,6,5,0,horizontal,vertical,vertical,horizontal,horizontal,vertical
1a,19,100172,4,25,217,20,F,NA,variable,heterogeneous,4,present,0.841031074523926,1,horizontal,horizontal,1,1.07058544158936,red,2,3,1032.95409169886,496.282156015671,696.282156015671,367.045908301137,903.717843984329,832.954091698863,1032.95409169886,496.282156015671,696.282156015671,367.045908301137,567.045908301137,703.717843984329,0,0,0,0,5,4,6,6,NaN,NaN,horizontal,horizontal,vertical,horizontal,none,none
1a,19,100172,4,26,218,20,F,NA,variable,heterogeneous,6,present,1.63462615013123,1,horizontal,horizontal,1,0.623529272079468,green,1,4,680.284751489598,825.151636179026,919.715248510402,374.848363820974,680.284751489598,825.151636179026,935.129412379467,816.252264519889,1054.84466088987,591.100628340862,919.715248510402,374.848363820974,664.870587620533,383.747735480111,545.155339110131,608.899371659138,4,6,5,5,3,6,horizontal,vertical,vertical,vertical,vertical,vertical
1a,19,100172,4,27,219,20,F,NA,variable,heterogeneous,4,present,1.19792819023132,1,horizontal,horizontal,1,0.717646360397339,red,4,1,546.39691668109,573.345241866748,773.345241866748,853.60308331891,773.345241866748,853.60308331891,1053.60308331891,626.654758133252,826.654758133252,346.39691668109,546.39691668109,573.345241866748,0,0,0,0,5,3,3,4,NaN,NaN,horizontal,horizontal,horizontal,horizontal,none,none
1a,19,100172,4,28,220,20,F,NA,variable,heterogeneous,3,absent,1.02896094322205,1,vertical,vertical,1,0.952939081192017,red,2,NaN,992.450942956807,432.704947607421,NaN,NaN,848.656293821019,850.314931779154,992.450942956807,432.704947607421,558.892763222174,516.980120613425,0,0,0,0,0,0,3,4,0,NaN,NaN,NaN,horizontal,vertical,vertical,none,none,none
1a,19,100172,4,29,221,20,F,NA,variable,heterogeneous,5,present,1.34482002258301,1,vertical,vertical,1,0.752940268516541,red,5,1,591.116228706307,746.261991269517,874.554784704298,843.857712770574,874.554784704298,843.857712770574,1054.96116226488,604.450363641507,883.019879386575,358.892763222174,596.34794493794,446.537169096228,591.116228706307,746.261991269517,0,0,3,0,6,5,4,NaN,horizontal,horizontal,horizontal,horizontal,vertical,none
1a,19,100172,4,30,222,20,F,NA,variable,heterogeneous,4,present,0.765995979309082,1,vertical,vertical,1,0.905880537033081,red,4,2,574.848363820974,480.284751489598,1025.15163617903,719.715248510402,680.284751489598,825.151636179026,1025.15163617903,719.715248510402,919.715248510402,374.848363820974,574.848363820974,480.284751489598,0,0,0,0,3,0,5,4,NaN,NaN,vertical,vertical,horizontal,vertical,none,none
1a,19,100172,4,31,223,20,F,NA,variable,heterogeneous,4,absent,1.28507614135742,1,horizontal,horizontal,1,0.976468353271484,red,3,NaN,661.117046071168,386.139005173917,NaN,NaN,938.882953928832,813.860994826083,1013.86099482608,461.117046071168,661.117046071168,386.139005173917,586.139005173917,738.882953928832,0,0,0,0,6,3,4,3,NaN,NaN,vertical,vertical,horizontal,vertical,none,none
1a,19,100172,4,32,224,20,F,NA,variable,heterogeneous,3,absent,1.05315899848938,1,vertical,vertical,1,0.705881724357605,red,3,NaN,556.142287229426,674.554784704298,NaN,NaN,986.495193912888,773.909581815937,857.362518857686,351.535633479765,556.142287229426,674.554784704298,0,0,0,0,0,0,5,0,4,NaN,NaN,NaN,vertical,vertical,vertical,none,none,none
1a,19,100172,4,33,225,20,F,NA,variable,heterogeneous,4,present,1.17500400543213,1,horizontal,horizontal,1,1.03529153347015,green,1,4,878.799333565612,842.519411655264,557.480588344736,678.799333565612,878.799333565612,842.519411655264,1042.51941165526,521.200666434388,721.200666434388,357.480588344736,557.480588344736,678.799333565612,0,0,0,0,4,3,5,0,NaN,NaN,horizontal,vertical,vertical,horizontal,none,none
1a,19,100172,4,34,226,20,F,NA,variable,heterogeneous,3,absent,1.24242496490479,1,horizontal,horizontal,1,0.776469540596008,red,1,NaN,599.057257830286,756.993676208043,NaN,NaN,599.057257830286,756.993676208043,1036.43188291453,695.524681321058,764.510859255183,347.4816424709,0,0,0,0,0,0,4,0,3,NaN,NaN,NaN,horizontal,horizontal,horizontal,none,none,none
1a,19,100172,4,35,227,20,F,NA,variable,heterogeneous,6,absent,1.13369297981262,1,vertical,vertical,1,0.717646360397339,red,6,NaN,657.405809614959,811.404581001536,NaN,NaN,911.784642431215,829.192481806288,1054.37883281626,617.787900804752,942.594190385041,388.595418998464,688.215357568785,370.807518193712,545.621167183745,582.212099195248,657.405809614959,811.404581001536,5,3,6,0,5,4,vertical,horizontal,vertical,horizontal,vertical,vertical
1a,19,100172,4,36,228,20,F,NA,variable,heterogeneous,3,absent,0.961051940917969,1,horizontal,horizontal,1,0.623529272079468,red,3,NaN,626.090418184063,413.504806087112,NaN,NaN,725.445215295702,843.857712770574,1048.46436652023,542.637481142314,626.090418184063,413.504806087112,0,0,0,0,0,0,6,3,4,NaN,NaN,NaN,horizontal,vertical,horizontal,none,none,none
1a,19,100172,4,37,229,20,F,NA,variable,heterogeneous,4,absent,0.993556022644043,1,horizontal,horizontal,1,0.658823180198669,green,4,NaN,601.827779828472,439.523300282291,NaN,NaN,639.523300282292,798.172220171528,998.172220171528,760.476699717708,960.476699717708,401.827779828472,601.827779828472,439.523300282291,0,0,0,0,6,0,0,4,NaN,NaN,horizontal,vertical,horizontal,horizontal,none,none
1a,19,100172,4,38,230,20,F,NA,variable,heterogeneous,5,absent,1.26181507110596,1,horizontal,horizontal,1,0.81176344871521,green,1,NaN,704.475318678942,836.431882914531,NaN,NaN,704.475318678942,836.431882914531,995.341332995339,763.910840470068,1016.25226451989,464.870587620533,738.309916622085,352.574589799621,545.621167183745,582.212099195248,0,0,4,0,0,6,3,NaN,horizontal,vertical,vertical,vertical,horizontal,none
1a,19,100172,4,39,231,20,F,NA,variable,heterogeneous,6,present,1.33118987083435,1,vertical,vertical,1,1.01176226139069,red,3,2,960.476699717708,401.827779828472,1051.86052685176,639.890788585259,891.383827134052,838.063008756786,1051.86052685176,639.890788585259,960.476699717708,401.827779828472,708.616172865948,361.936991243214,548.13947314824,560.109211414741,639.523300282292,798.172220171528,3,3,4,6,5,6,vertical,vertical,vertical,horizontal,horizontal,vertical
1a,19,100172,4,40,232,20,F,NA,variable,heterogeneous,3,absent,0.746132135391235,1,vertical,vertical,1,0.988232989311218,green,3,NaN,653.738008730483,391.116228706307,NaN,NaN,692.232343256122,831.108485694346,1054.0296480134,577.775285599347,653.738008730483,391.116228706307,0,0,0,0,0,0,5,3,4,NaN,NaN,NaN,vertical,horizontal,vertical,none,none,none
1a,19,100172,4,41,233,20,F,NA,variable,heterogeneous,5,absent,0.745530843734741,1,vertical,vertical,1,1.02352689743042,green,4,NaN,760.109211414741,348.13947314824,NaN,NaN,684.232422566416,827.206663668034,980.31222920257,780.31222920257,1027.20666366803,484.232422566416,760.109211414741,348.13947314824,548.13947314824,560.109211414741,0,0,6,0,0,4,5,NaN,horizontal,vertical,vertical,vertical,horizontal,none
1a,19,100172,4,42,234,20,F,NA,variable,heterogeneous,5,absent,0.62620210647583,1,horizontal,horizontal,1,0.670587816238403,red,3,NaN,870.287525733335,354.878267535729,NaN,NaN,887.215136548046,839.621618300407,1054.84466088987,591.100628340862,870.287525733335,354.878267535729,588.595418998464,457.40580961496,599.057257830286,756.993676208043,0,0,0,3,4,0,5,NaN,vertical,horizontal,horizontal,vertical,vertical,none
1a,19,100172,4,43,235,20,F,NA,variable,heterogeneous,5,absent,1.22187304496765,1,vertical,vertical,1,0.952939081192017,green,1,NaN,804.450363641507,854.96116226488,NaN,NaN,804.450363641507,854.96116226488,1043.85771277057,674.554784704298,946.261991269517,391.116228706307,646.537169096228,396.34794493794,558.892763222174,683.019879386575,0,0,4,5,6,0,0,NaN,vertical,horizontal,vertical,vertical,vertical,none
1a,19,100172,4,44,236,20,F,NA,variable,heterogeneous,6,absent,1.84302186965942,1,vertical,vertical,1,0.835292720794678,green,2,NaN,1013.86099482608,738.882953928832,NaN,NaN,786.654331158049,854.650531362416,1013.86099482608,738.882953928832,1027.20666366803,484.232422566416,813.345668841951,345.349468637584,586.139005173917,461.117046071168,572.793336331966,715.767577433584,5,4,0,6,6,5,horizontal,vertical,vertical,horizontal,horizontal,vertical
1a,19,100172,4,45,237,20,F,NA,variable,heterogeneous,3,present,1.02478790283203,1,horizontal,horizontal,1,0.835292720794678,green,2,3,1023.02802532055,723.626453162816,795.549636358493,345.03883773512,581.422338320961,731.334709102064,1023.02802532055,723.626453162816,795.549636358493,345.03883773512,0,0,0,0,0,0,5,4,0,NaN,NaN,NaN,vertical,horizontal,horizontal,none,none,none
1a,19,100172,4,46,238,20,F,NA,variable,heterogeneous,5,present,1.6601779460907,1,horizontal,horizontal,1,0.929409809112549,red,4,2,629.371695378491,410.498069503264,1049.42763818712,653.017481158529,826.654758133252,853.60308331891,1049.42763818712,653.017481158529,927.5,379.163522034968,629.371695378491,410.498069503264,567.045908301137,703.717843984329,0,0,3,6,5,4,3,NaN,horizontal,horizontal,horizontal,horizontal,vertical,none
1a,19,100172,4,47,239,20,F,NA,variable,heterogeneous,5,absent,0.945860862731934,1,horizontal,horizontal,1,0.81176344871521,green,5,NaN,546.39691668109,626.654758133252,NaN,NaN,746.982518841471,849.42763818712,1020.83647796503,727.5,989.501930496736,429.371695378491,696.282156015671,367.045908301137,546.39691668109,626.654758133252,0,0,3,6,5,0,4,NaN,vertical,horizontal,vertical,horizontal,horizontal,none
1a,19,100172,4,48,240,20,F,NA,variable,heterogeneous,4,absent,1.1044180393219,1,vertical,vertical,1,0.776469540596008,red,4,NaN,593.700666434388,749.885239334581,NaN,NaN,949.885239334581,806.299333565612,1006.29933356561,450.114760665419,650.114760665419,393.700666434388,593.700666434388,749.885239334581,0,0,0,0,6,3,0,4,NaN,NaN,vertical,vertical,horizontal,vertical,none,none
1a,19,100172,4,49,241,20,F,NA,variable,heterogeneous,3,present,0.713948011398315,1,vertical,vertical,1,0.952939081192017,green,3,2,680.284751489598,374.848363820974,1054.84466088987,608.899371659138,664.870587620533,816.252264519889,1054.84466088987,608.899371659138,680.284751489598,374.848363820974,0,0,0,0,0,0,6,0,4,NaN,NaN,NaN,horizontal,horizontal,vertical,none,none,none
1a,19,100172,4,50,242,20,F,NA,variable,heterogeneous,6,absent,0.866920948028564,1,horizontal,horizontal,1,0.929409809112549,green,5,NaN,586.139005173917,461.117046071168,NaN,NaN,786.654331158049,854.650531362416,1013.86099482608,738.882953928832,1027.20666366803,484.232422566416,813.345668841951,345.349468637584,586.139005173917,461.117046071168,572.793336331966,715.767577433584,6,5,3,0,4,6,vertical,vertical,vertical,vertical,horizontal,vertical
1a,19,100172,4,51,243,20,F,NA,variable,heterogeneous,5,present,0.981293201446533,0,vertical,horizontal,1,0.647058544158935,green,5,2,574.848363820974,719.715248510402,1052.5183575291,635.489140744817,844.280285305067,851.125977018113,1052.5183575291,635.489140744817,911.784642431215,370.807518193712,616.568350913644,422.862115532956,574.848363820974,719.715248510402,0,0,3,0,6,5,4,NaN,horizontal,horizontal,horizontal,vertical,vertical,none
1a,19,100172,4,52,244,20,F,NA,variable,heterogeneous,4,absent,NaN,0,vertical,none,0,1.02352689743042,green,2,NaN,1045.12173246427,529.712474266665,NaN,NaN,870.287525733335,845.121732464271,1045.12173246427,529.712474266665,729.712474266665,354.878267535729,554.878267535729,670.287525733335,0,0,0,0,5,4,6,3,NaN,NaN,vertical,vertical,horizontal,vertical,none,none
