experiment,subject,uniqueID,block,trial,trial_cumulative,age,gender,color_cond_blocking,color_history,shape_type,set_size,distractor,rt,acc,target_orient,response_key,response_made,iti,target_color,target_item,distractor_item,target_X,target_Y,distractor_X,distractor_Y,item1_X,item1_Y,item2_X,item2_Y,item3_X,item3_Y,item4_X,item4_Y,item5_X,item5_Y,item6_X,item6_Y,item1_shape,item2_shape,item3_shape,item4_shape,item5_shape,item6_shape,item1_line,item2_line,item3_line,item4_line,item5_line,item6_line
1a,1,100140,1,1,1,21,M,NA,variable,heterogeneous,5,absent,1.84586906433105,1,horizontal,horizontal,1,0.823525317210071,red,2,NaN,1039.62161830041,687.215136548046,NaN,NaN,791.100628340862,854.844660889869,1039.62161830041,687.215136548046,956.993676208043,399.057257830286,657.405809614959,388.595418998464,554.878267535729,670.287525733335,0,0,5,4,0,0,3,NaN,horizontal,horizontal,vertical,vertical,horizontal,none
1a,1,100140,1,2,2,21,M,NA,variable,heterogeneous,4,present,NaN,0,vertical,none,0,0.729409394174252,red,3,1,653.738008730483,391.116228706307,946.261991269517,808.883771293693,946.261991269517,808.883771293693,1008.88377129369,453.738008730483,653.738008730483,391.116228706307,591.116228706307,746.261991269517,0,0,0,0,5,5,4,6,NaN,NaN,vertical,horizontal,vertical,vertical,none,none
1a,1,100140,1,3,3,21,M,NA,variable,heterogeneous,4,present,1.31543207168579,1,horizontal,horizontal,1,1.08234410555858,red,1,3,839.890788585259,851.86052685176,760.109211414741,348.13947314824,839.890788585259,851.86052685176,1051.86052685176,560.109211414741,760.109211414741,348.13947314824,548.13947314824,639.890788585259,0,0,0,0,4,0,3,5,NaN,NaN,horizontal,horizontal,horizontal,horizontal,none,none
1a,1,100140,1,4,4,21,M,NA,variable,heterogeneous,5,absent,NaN,0,horizontal,none,0,0.929405730625368,green,4,NaN,626.090418184063,413.504806087112,NaN,NaN,831.076682568313,853.099268668537,1050.31493177915,648.656293821019,923.626453162816,376.971974679454,626.090418184063,413.504806087112,568.891514305654,707.767656743878,0,0,3,6,5,4,3,NaN,vertical,vertical,horizontal,horizontal,horizontal,none
1a,1,100140,1,5,5,21,M,NA,variable,heterogeneous,5,absent,0.000993013381958008,0,vertical,horizontal,1,0.717644903794774,red,5,NaN,560.378381699593,687.215136548046,NaN,NaN,808.899371659138,854.844660889869,1045.12173246427,670.287525733335,942.594190385041,388.595418998464,643.006323791957,399.057257830286,560.378381699593,687.215136548046,0,0,6,5,6,0,4,NaN,vertical,vertical,horizontal,horizontal,vertical,none
1a,1,100140,1,6,6,21,M,NA,variable,heterogeneous,4,present,1.26551795005798,1,horizontal,horizontal,1,0.917641240245891,green,4,2,549.685068220846,551.343706178981,1050.31493177915,648.656293821019,751.343706178981,850.314931779154,1050.31493177915,648.656293821019,848.656293821019,349.685068220846,549.685068220846,551.343706178981,0,0,0,0,0,6,5,4,NaN,NaN,horizontal,vertical,horizontal,horizontal,none,none
1a,1,100140,1,7,7,21,M,NA,variable,heterogeneous,5,present,1.2229220867157,0,horizontal,vertical,1,0.788231846071639,red,1,4,931.334709102064,818.577661679039,565.271262369628,500.363562235235,931.334709102064,818.577661679039,1048.46436652023,542.637481142314,822.224714400653,345.970351986605,565.271262369628,500.363562235235,632.704947607421,792.450942956807,0,0,4,0,0,6,5,NaN,horizontal,horizontal,horizontal,vertical,vertical,none
1a,1,100140,1,8,8,21,M,NA,variable,heterogeneous,3,absent,1.3625168800354,1,vertical,vertical,1,0.752938374933207,red,1,NaN,989.501930496736,770.628304621509,NaN,NaN,989.501930496736,770.628304621509,853.017481158529,350.57236181288,557.480588344736,678.799333565612,0,0,0,0,0,0,4,5,3,NaN,NaN,NaN,vertical,horizontal,vertical,none,none,none
1a,1,100140,1,9,9,21,M,NA,variable,heterogeneous,4,absent,1.01810193061829,1,vertical,vertical,1,1.01175716328171,red,2,NaN,1047.42541020038,661.690083377915,NaN,NaN,738.309916622085,847.425410200379,1047.42541020038,661.690083377915,861.690083377915,352.574589799621,552.574589799621,538.309916622085,0,0,0,0,0,4,3,0,NaN,NaN,vertical,vertical,vertical,horizontal,none,none
1a,1,100140,1,10,10,21,M,NA,variable,heterogeneous,3,present,1.08010697364807,1,vertical,vertical,1,0.882347769107459,red,1,2,911.784642431215,829.192481806288,942.594190385041,388.595418998464,911.784642431215,829.192481806288,942.594190385041,388.595418998464,545.621167183745,582.212099195248,0,0,0,0,0,0,4,5,0,NaN,NaN,NaN,vertical,vertical,horizontal,none,none,none
1a,1,100140,1,11,11,21,M,NA,variable,heterogeneous,5,present,1.50739407539368,1,horizontal,horizontal,1,1.08234410555858,red,2,5,1051.86052685176,560.109211414741,619.68777079743,780.31222920257,915.767577433584,827.206663668034,1051.86052685176,560.109211414741,839.890788585259,348.13947314824,572.793336331966,484.232422566416,619.68777079743,780.31222920257,0,0,5,4,5,0,6,NaN,vertical,horizontal,vertical,horizontal,horizontal,none
1a,1,100140,1,12,12,21,M,NA,variable,heterogeneous,4,present,1.58210110664368,1,horizontal,horizontal,1,0.999992672902233,green,4,1,552.574589799621,661.690083377915,861.690083377915,847.425410200379,861.690083377915,847.425410200379,1047.42541020038,538.309916622085,738.309916622085,352.574589799621,552.574589799621,661.690083377915,0,0,0,0,5,3,3,4,NaN,NaN,vertical,vertical,vertical,horizontal,none,none
1a,1,100140,1,13,13,21,M,NA,variable,heterogeneous,6,present,1.03131985664368,1,vertical,vertical,1,0.658822451897387,green,3,1,1027.20666366803,484.232422566416,786.654331158049,854.650531362416,786.654331158049,854.650531362416,1013.86099482608,738.882953928832,1027.20666366803,484.232422566416,813.345668841951,345.349468637584,586.139005173917,461.117046071168,572.793336331966,715.767577433584,6,0,4,5,0,5,vertical,vertical,vertical,horizontal,vertical,horizontal
1a,1,100140,1,14,14,21,M,NA,variable,heterogeneous,3,absent,1.52240610122681,1,horizontal,horizontal,1,0.729409394174252,red,3,NaN,546.900731331463,568.923317431687,NaN,NaN,899.636437764765,834.728737630372,953.462830903772,396.34794493794,546.900731331463,568.923317431687,0,0,0,0,0,0,5,5,4,NaN,NaN,NaN,horizontal,horizontal,horizontal,none,none,none
1a,1,100140,1,15,15,21,M,NA,variable,heterogeneous,4,absent,1.20537185668945,1,horizontal,horizontal,1,0.611764490379477,red,2,NaN,980.31222920257,780.31222920257,NaN,NaN,619.68777079743,780.31222920257,980.31222920257,780.31222920257,980.31222920257,419.68777079743,619.68777079743,419.68777079743,0,0,0,0,3,4,6,5,NaN,NaN,horizontal,horizontal,horizontal,horizontal,none,none
1a,1,100140,1,16,16,21,M,NA,variable,heterogeneous,6,present,0.881619930267334,1,vertical,vertical,1,0.6,green,6,1,558.892763222174,683.019879386575,751.343706178981,850.314931779154,751.343706178981,850.314931779154,992.450942956807,767.295052392579,1041.10723677783,516.980120613425,848.656293821019,349.685068220846,607.549057043193,432.704947607421,558.892763222174,683.019879386575,3,5,3,6,5,4,horizontal,horizontal,horizontal,horizontal,horizontal,vertical
1a,1,100140,1,17,17,21,M,NA,variable,heterogeneous,6,present,1.87261700630188,0,vertical,horizontal,1,1.05881512479962,red,1,6,734.001143498857,846.311085703712,553.688914296288,665.998856501143,734.001143498857,846.311085703712,980.31222920257,780.31222920257,1046.31108570371,534.001143498857,865.998856501143,353.688914296288,619.68777079743,419.68777079743,553.688914296288,665.998856501143,4,5,5,6,3,0,vertical,vertical,vertical,horizontal,horizontal,horizontal
1a,1,100140,1,18,18,21,M,NA,variable,heterogeneous,4,present,1.29778480529785,1,horizontal,horizontal,1,0.964699201763801,red,2,3,998.172220171528,439.523300282291,639.523300282292,401.827779828472,960.476699717708,798.172220171528,998.172220171528,439.523300282291,639.523300282292,401.827779828472,601.827779828472,760.476699717708,0,0,0,0,5,4,0,6,NaN,NaN,vertical,horizontal,horizontal,horizontal,none,none
1a,1,100140,1,19,19,21,M,NA,variable,heterogeneous,3,present,1.89300298690796,0,horizontal,vertical,1,0.658822451897387,red,1,2,650.114760665419,806.299333565612,1053.60308331891,626.654758133252,650.114760665419,806.299333565612,1053.60308331891,626.654758133252,696.282156015671,367.045908301137,0,0,0,0,0,0,4,5,5,NaN,NaN,NaN,horizontal,vertical,vertical,none,none,none
1a,1,100140,1,20,20,21,M,NA,variable,heterogeneous,5,absent,1.60049605369568,1,vertical,vertical,1,1.05881512479962,green,5,NaN,604.658667004661,763.910840470068,NaN,NaN,895.524681321058,836.431882914531,1054.37883281626,582.212099195248,861.690083377915,352.574589799621,583.747735480111,464.870587620533,604.658667004661,763.910840470068,0,0,3,0,5,6,4,NaN,vertical,vertical,vertical,vertical,vertical,none
1a,1,100140,1,21,21,21,M,NA,variable,heterogeneous,6,present,1.27264094352722,1,horizontal,horizontal,1,0.988228182522756,green,3,6,1049.42763818712,546.982518841471,550.57236181288,653.017481158529,721.200666434388,842.519411655264,970.628304621509,789.501930496736,1049.42763818712,546.982518841471,878.799333565612,357.480588344736,629.371695378491,410.498069503264,550.57236181288,653.017481158529,3,0,4,5,6,6,horizontal,horizontal,horizontal,vertical,horizontal,vertical
1a,1,100140,1,22,22,21,M,NA,variable,heterogeneous,3,absent,0.82706093788147,1,horizontal,horizontal,1,0.635293471138432,green,3,NaN,708.616172865948,361.936991243214,NaN,NaN,639.523300282292,798.172220171528,1051.86052685176,639.890788585259,708.616172865948,361.936991243214,0,0,0,0,0,0,6,6,4,NaN,NaN,NaN,horizontal,horizontal,horizontal,none,none,none
1a,1,100140,1,23,23,21,M,NA,variable,heterogeneous,3,present,NaN,0,horizontal,none,0,0.658822451897387,red,1,2,919.715248510402,825.151636179026,935.129412379467,383.747735480111,919.715248510402,825.151636179026,935.129412379467,383.747735480111,545.155339110131,591.100628340862,0,0,0,0,0,0,4,3,6,NaN,NaN,NaN,horizontal,vertical,vertical,none,none,none
1a,1,100140,1,24,24,21,M,NA,variable,heterogeneous,6,absent,1.24251508712769,1,vertical,vertical,1,0.670586942276865,red,1,NaN,887.215136548046,839.621618300407,NaN,NaN,887.215136548046,839.621618300407,1051.12597701811,644.280285305067,963.910840470068,404.658667004661,712.784863451954,360.378381699593,548.874022981887,555.719714694933,636.089159529932,795.341332995339,4,3,3,6,6,5,vertical,vertical,vertical,vertical,horizontal,vertical
1a,1,100140,1,25,25,21,M,NA,variable,heterogeneous,4,present,0.76676607131958,1,vertical,vertical,1,0.764702865312684,red,2,4,1031.10848569435,492.232343256122,568.891514305654,707.767656743878,907.767656743878,831.108485694346,1031.10848569435,492.232343256122,692.232343256122,368.891514305654,568.891514305654,707.767656743878,0,0,0,0,6,4,0,6,NaN,NaN,vertical,vertical,vertical,horizontal,none,none
1a,1,100140,1,26,26,21,M,NA,variable,heterogeneous,4,present,1.00884509086609,1,vertical,vertical,1,0.917641240245891,green,2,4,992.450942956807,432.704947607421,607.549057043193,767.295052392579,967.295052392579,792.450942956807,992.450942956807,432.704947607421,632.704947607421,407.549057043193,607.549057043193,767.295052392579,0,0,0,0,0,4,5,6,NaN,NaN,vertical,vertical,vertical,horizontal,none,none
1a,1,100140,1,27,27,21,M,NA,variable,heterogeneous,6,absent,0.706539869308472,1,vertical,vertical,1,1.08234410555858,green,2,NaN,1025.15163617903,719.715248510402,NaN,NaN,808.899371659138,854.844660889869,1025.15163617903,719.715248510402,1016.25226451989,464.870587620533,791.100628340862,345.155339110131,574.848363820974,480.284751489598,583.747735480111,735.129412379467,3,4,5,3,6,5,horizontal,vertical,vertical,horizontal,vertical,vertical
1a,1,100140,1,28,28,21,M,NA,variable,heterogeneous,5,absent,1.56217408180237,1,horizontal,horizontal,1,0.858818788348504,green,5,NaN,545.621167183745,582.212099195248,NaN,NaN,704.475318678942,836.431882914531,995.341332995339,763.910840470068,1016.25226451989,464.870587620533,738.309916622085,352.574589799621,545.621167183745,582.212099195248,0,0,5,6,0,5,4,NaN,vertical,horizontal,horizontal,vertical,horizontal,none
1a,1,100140,1,29,29,21,M,NA,variable,heterogeneous,3,absent,NaN,0,vertical,none,0,0.858818788348504,red,3,NaN,574.848363820974,719.715248510402,NaN,NaN,1016.25226451989,735.129412379467,808.899371659138,345.155339110131,574.848363820974,719.715248510402,0,0,0,0,0,0,6,3,4,NaN,NaN,NaN,vertical,horizontal,vertical,none,none,none
1a,1,100140,1,30,30,21,M,NA,variable,heterogeneous,6,present,1.19026398658752,1,horizontal,horizontal,1,0.976463692143278,green,4,3,688.215357568785,370.807518193712,942.594190385041,388.595418998464,911.784642431215,829.192481806288,1054.37883281626,617.787900804752,942.594190385041,388.595418998464,688.215357568785,370.807518193712,545.621167183745,582.212099195248,657.405809614959,811.404581001536,6,0,6,4,5,5,vertical,vertical,vertical,horizontal,vertical,horizontal
1a,1,100140,1,31,31,21,M,NA,variable,heterogeneous,6,absent,1.96537709236145,1,horizontal,horizontal,1,0.729409394174252,red,5,NaN,547.481642470899,564.510859255183,NaN,NaN,895.524681321058,836.431882914531,1052.5183575291,635.489140744817,956.993676208043,399.057257830286,704.475318678942,363.568117085469,547.481642470899,564.510859255183,643.006323791957,800.942742169714,0,6,5,3,4,5,vertical,horizontal,horizontal,horizontal,horizontal,vertical
1a,1,100140,1,32,32,21,M,NA,variable,heterogeneous,3,present,0.715434074401855,1,horizontal,horizontal,1,0.729409394174252,green,3,1,545.621167183745,582.212099195248,911.784642431215,829.192481806288,911.784642431215,829.192481806288,942.594190385041,388.595418998464,545.621167183745,582.212099195248,0,0,0,0,0,0,6,0,4,NaN,NaN,NaN,vertical,vertical,horizontal,none,none,none
1a,1,100140,1,33,33,21,M,NA,variable,heterogeneous,3,present,1.03968906402588,1,vertical,vertical,1,0.894112259486936,red,3,2,643.006323791957,399.057257830286,1052.5183575291,564.510859255183,704.475318678942,836.431882914531,1052.5183575291,564.510859255183,643.006323791957,399.057257830286,0,0,0,0,0,0,6,3,4,NaN,NaN,NaN,vertical,vertical,vertical,none,none,none
1a,1,100140,1,34,34,21,M,NA,variable,heterogeneous,4,present,1.26322388648987,1,vertical,vertical,1,0.729409394174252,green,4,2,591.116228706307,746.261991269517,1008.88377129369,453.738008730483,946.261991269517,808.883771293693,1008.88377129369,453.738008730483,653.738008730483,391.116228706307,591.116228706307,746.261991269517,0,0,0,0,3,5,3,4,NaN,NaN,vertical,vertical,vertical,vertical,none,none
1a,1,100140,1,35,35,21,M,NA,variable,heterogeneous,6,absent,1.94605708122253,0,horizontal,vertical,1,0.670586942276865,green,6,NaN,549.685068220846,648.656293821019,NaN,NaN,716.980120613425,841.107236777826,967.295052392579,792.450942956807,1050.31493177915,551.343706178981,883.019879386575,358.892763222174,632.704947607421,407.549057043193,549.685068220846,648.656293821019,3,3,6,5,5,4,horizontal,vertical,horizontal,vertical,vertical,horizontal
1a,1,100140,1,36,36,21,M,NA,variable,heterogeneous,6,present,1.93678307533264,1,horizontal,horizontal,1,0.776467355692162,red,1,3,721.200666434388,842.519411655264,1049.42763818712,546.982518841471,721.200666434388,842.519411655264,970.628304621509,789.501930496736,1049.42763818712,546.982518841471,878.799333565612,357.480588344736,629.371695378491,410.498069503264,550.57236181288,653.017481158529,4,5,3,6,0,0,horizontal,vertical,horizontal,horizontal,horizontal,horizontal
1a,1,100140,1,37,37,21,M,NA,variable,heterogeneous,6,present,1.57358312606812,1,horizontal,horizontal,1,1.09410859593805,red,6,3,616.568350913644,777.137884467044,983.431649086356,422.862115532956,861.690083377915,847.425410200379,1045.12173246427,670.287525733335,983.431649086356,422.862115532956,738.309916622085,352.574589799621,554.878267535729,529.712474266665,616.568350913644,777.137884467044,6,3,5,0,6,4,vertical,vertical,horizontal,horizontal,horizontal,horizontal
1a,1,100140,1,38,38,21,M,NA,variable,heterogeneous,3,absent,0.934563875198364,1,vertical,vertical,1,0.870583278727981,green,3,NaN,552.574589799621,538.309916622085,NaN,NaN,870.287525733335,845.121732464271,977.137884467044,416.568350913644,552.574589799621,538.309916622085,0,0,0,0,0,0,6,3,4,NaN,NaN,NaN,horizontal,vertical,vertical,none,none,none
1a,1,100140,1,39,39,21,M,NA,variable,heterogeneous,4,absent,1.19388508796692,1,horizontal,horizontal,1,1.02352165366119,green,4,NaN,554.878267535729,529.712474266665,NaN,NaN,729.712474266665,845.121732464271,1045.12173246427,670.287525733335,870.287525733335,354.878267535729,554.878267535729,529.712474266665,0,0,0,0,3,0,3,4,NaN,NaN,horizontal,horizontal,vertical,horizontal,none,none
1a,1,100140,1,40,40,21,M,NA,variable,heterogeneous,4,absent,1.29556083679199,1,horizontal,horizontal,1,0.682351432656342,green,4,NaN,552.574589799621,538.309916622085,NaN,NaN,738.309916622085,847.425410200379,1047.42541020038,661.690083377915,861.690083377915,352.574589799621,552.574589799621,538.309916622085,0,0,0,0,3,5,6,4,NaN,NaN,vertical,vertical,horizontal,horizontal,none,none
1a,1,100140,1,41,41,21,M,NA,variable,heterogeneous,5,absent,1.00722885131836,0,vertical,horizontal,1,0.870583278727981,green,4,NaN,572.793336331966,484.232422566416,NaN,NaN,915.767577433584,827.206663668034,1051.86052685176,560.109211414741,839.890788585259,348.13947314824,572.793336331966,484.232422566416,619.68777079743,780.31222920257,0,0,6,5,6,4,3,NaN,horizontal,horizontal,horizontal,vertical,vertical,none
1a,1,100140,1,42,42,21,M,NA,variable,heterogeneous,5,present,1.99947690963745,1,vertical,vertical,1,0.811760826830594,red,3,5,835.489140744817,347.4816424709,622.862115532956,783.431649086356,919.715248510402,825.151636179026,1051.12597701811,555.719714694933,835.489140744817,347.4816424709,570.807518193712,488.215357568785,622.862115532956,783.431649086356,0,0,0,6,4,0,3,NaN,vertical,vertical,vertical,vertical,vertical,none
1a,1,100140,1,43,43,21,M,NA,variable,heterogeneous,5,present,1.21874403953552,1,vertical,vertical,1,0.929405730625368,green,4,2,576.971974679454,476.373546837184,1053.09926866854,568.923317431687,907.767656743878,831.108485694346,1053.09926866854,568.923317431687,848.656293821019,349.685068220846,576.971974679454,476.373546837184,613.504806087112,773.909581815937,0,0,0,3,6,4,6,NaN,horizontal,vertical,vertical,vertical,horizontal,none
1a,1,100140,1,44,44,21,M,NA,variable,heterogeneous,3,present,0.940527200698853,1,vertical,vertical,1,1.0705796151791,green,1,2,980.31222920257,780.31222920257,865.998856501143,353.688914296288,980.31222920257,780.31222920257,865.998856501143,353.688914296288,553.688914296288,665.998856501143,0,0,0,0,0,0,4,6,6,NaN,NaN,NaN,vertical,vertical,vertical,none,none,none
1a,1,100140,1,45,45,21,M,NA,variable,heterogeneous,4,absent,1.34810709953308,1,horizontal,horizontal,1,1.02352165366119,red,1,NaN,742.637481142314,848.464366520235,NaN,NaN,742.637481142314,848.464366520235,1048.46436652023,657.362518857686,857.362518857686,351.535633479765,551.535633479765,542.637481142314,0,0,0,0,4,6,5,5,NaN,NaN,horizontal,horizontal,horizontal,horizontal,none,none
1a,1,100140,1,46,46,21,M,NA,variable,heterogeneous,4,absent,0.956403970718384,1,vertical,vertical,1,1.0705796151791,green,2,NaN,1041.10723677783,683.019879386575,NaN,NaN,716.980120613425,841.107236777826,1041.10723677783,683.019879386575,883.019879386575,358.892763222174,558.892763222174,516.980120613425,0,0,0,0,3,4,5,0,NaN,NaN,horizontal,vertical,horizontal,vertical,none,none
1a,1,100140,1,47,47,21,M,NA,variable,heterogeneous,3,absent,1.44937896728516,1,horizontal,horizontal,1,1.0705796151791,green,2,NaN,1055,600,NaN,NaN,672.5,820.836477965032,1055,600,672.5,379.163522034968,0,0,0,0,0,0,6,4,5,NaN,NaN,NaN,vertical,horizontal,horizontal,none,none,none
1a,1,100140,1,48,48,21,M,NA,variable,heterogeneous,5,present,1.13507485389709,1,horizontal,horizontal,1,0.823525317210071,green,5,1,558.892763222174,683.019879386575,804.450363641507,854.96116226488,804.450363641507,854.96116226488,1043.85771277057,674.554784704298,946.261991269517,391.116228706307,646.537169096228,396.34794493794,558.892763222174,683.019879386575,0,0,0,6,3,5,4,NaN,vertical,vertical,horizontal,vertical,horizontal,none
1a,1,100140,1,49,49,21,M,NA,variable,heterogeneous,6,present,1.26264595985413,1,vertical,vertical,1,1.03528614404067,red,4,2,676.373546837184,376.971974679454,1054.96116226488,604.450363641507,923.626453162816,823.028025320546,1054.96116226488,604.450363641507,931.334709102064,381.422338320961,676.373546837184,376.971974679454,545.03883773512,595.549636358493,668.665290897936,818.577661679039,6,5,3,4,0,6,vertical,horizontal,vertical,vertical,vertical,horizontal
1a,1,100140,1,50,50,21,M,NA,variable,heterogeneous,5,present,1.2181499004364,1,horizontal,horizontal,1,1.09410859593805,green,2,3,960.476699717708,798.172220171528,1038.06300875679,508.616172865948,661.117046071168,813.860994826083,960.476699717708,798.172220171528,1038.06300875679,508.616172865948,786.654331158049,345.349468637584,553.688914296288,534.001143498857,0,0,0,4,6,0,5,NaN,horizontal,horizontal,vertical,vertical,horizontal,none
1a,1,100140,1,51,51,21,M,NA,variable,heterogeneous,6,absent,1.58654093742371,0,horizontal,vertical,1,0.6,green,2,NaN,1027.20666366803,715.767577433584,NaN,NaN,813.345668841951,854.650531362416,1027.20666366803,715.767577433584,1013.86099482608,461.117046071168,786.654331158049,345.349468637584,572.793336331966,484.232422566416,586.139005173917,738.882953928832,5,4,3,0,3,6,horizontal,horizontal,vertical,horizontal,horizontal,horizontal
1a,1,100140,1,52,52,21,M,NA,variable,heterogeneous,4,absent,1.06101107597351,1,vertical,vertical,1,0.729409394174252,green,2,NaN,1051.12597701811,644.280285305067,NaN,NaN,755.719714694933,851.125977018113,1051.12597701811,644.280285305067,844.280285305067,348.874022981887,548.874022981887,555.719714694933,0,0,0,0,3,4,3,0,NaN,NaN,horizontal,vertical,horizontal,horizontal,none,none
1a,1,100140,1,53,53,21,M,NA,variable,heterogeneous,3,present,0.795066833496094,1,vertical,vertical,1,0.635293471138432,green,1,3,610.498069503264,770.628304621509,746.982518841471,350.57236181288,610.498069503264,770.628304621509,1042.51941165526,678.799333565612,746.982518841471,350.57236181288,0,0,0,0,0,0,4,6,0,NaN,NaN,NaN,vertical,vertical,vertical,none,none,none
1a,1,100140,1,54,54,21,M,NA,variable,heterogeneous,6,absent,0.977263927459717,1,horizontal,horizontal,1,0.905876749866414,red,2,NaN,1031.10848569435,707.767656743878,NaN,NaN,822.224714400653,854.029648013395,1031.10848569435,707.767656743878,1008.88377129369,453.738008730483,777.775285599347,345.970351986605,568.891514305654,492.232343256122,591.116228706307,746.261991269517,5,4,0,0,6,6,horizontal,horizontal,vertical,horizontal,horizontal,vertical
1a,1,100140,1,55,55,21,M,NA,variable,heterogeneous,6,absent,1.65352582931519,1,vertical,vertical,1,0.623528980758955,red,4,NaN,857.362518857686,351.535633479765,NaN,NaN,742.637481142314,848.464366520235,986.495193912888,773.909581815937,1043.85771277057,525.445215295702,857.362518857686,351.535633479765,613.504806087112,426.090418184063,556.142287229426,674.554784704298,5,6,0,4,6,5,horizontal,horizontal,vertical,vertical,vertical,horizontal
1a,1,100140,1,56,56,21,M,NA,variable,heterogeneous,3,absent,1.07555079460144,1,horizontal,horizontal,1,1.04705063442014,red,2,NaN,895.524681321058,363.568117085469,NaN,NaN,956.993676208043,800.942742169714,895.524681321058,363.568117085469,547.481642470899,635.489140744817,0,0,0,0,0,0,3,4,0,NaN,NaN,NaN,vertical,horizontal,vertical,none,none,none
1a,1,100140,1,57,57,21,M,NA,variable,heterogeneous,5,present,1.16183996200562,1,vertical,vertical,1,0.623528980758955,red,3,1,835.489140744817,347.4816424709,919.715248510402,825.151636179026,919.715248510402,825.151636179026,1051.12597701811,555.719714694933,835.489140744817,347.4816424709,570.807518193712,488.215357568785,622.862115532956,783.431649086356,0,0,3,5,4,0,0,NaN,vertical,horizontal,vertical,vertical,vertical,none
1a,1,100140,1,58,58,21,M,NA,variable,heterogeneous,3,present,1.63432788848877,1,horizontal,horizontal,1,0.858818788348504,green,2,1,1055,600,672.5,820.836477965032,672.5,820.836477965032,1055,600,672.5,379.163522034968,0,0,0,0,0,0,6,4,0,NaN,NaN,NaN,vertical,horizontal,horizontal,none,none,none
1a,1,100140,1,59,59,21,M,NA,variable,heterogeneous,4,absent,1.22078013420105,1,vertical,vertical,1,1.0705796151791,red,3,NaN,725.445215295702,356.142287229426,NaN,NaN,874.554784704298,843.857712770574,1043.85771277057,525.445215295702,725.445215295702,356.142287229426,556.142287229426,674.554784704298,0,0,0,0,6,0,4,0,NaN,NaN,vertical,vertical,vertical,horizontal,none,none
1a,1,100140,1,60,60,21,M,NA,variable,heterogeneous,5,absent,0.83118200302124,1,vertical,vertical,1,0.894112259486936,red,4,NaN,688.215357568785,370.807518193712,NaN,NaN,755.719714694933,851.125977018113,1025.15163617903,719.715248510402,983.431649086356,422.862115532956,688.215357568785,370.807518193712,547.481642470899,635.489140744817,0,0,0,6,0,4,5,NaN,horizontal,horizontal,horizontal,vertical,vertical,none
1a,1,100140,1,61,61,21,M,NA,variable,heterogeneous,5,absent,0.77380108833313,1,horizontal,horizontal,1,1.09410859593805,red,4,NaN,742.637481142314,351.535633479765,NaN,NaN,700.363562235235,834.728737630372,992.450942956807,767.295052392579,1018.57766167904,468.665290897936,742.637481142314,351.535633479765,545.970351986605,577.775285599347,0,0,5,6,6,4,5,NaN,horizontal,horizontal,horizontal,horizontal,horizontal,none
1a,1,100140,1,62,62,21,M,NA,variable,heterogeneous,5,present,1.50229001045227,1,vertical,vertical,1,0.847054297969026,green,5,1,548.874022981887,644.280285305067,764.510859255183,852.518357529101,764.510859255183,852.518357529101,1029.19248180629,711.784642431215,977.137884467044,416.568350913644,680.284751489598,374.848363820974,548.874022981887,644.280285305067,0,0,5,3,0,0,4,NaN,horizontal,horizontal,vertical,vertical,vertical,none
1a,1,100140,1,63,63,21,M,NA,variable,heterogeneous,3,absent,1.18608784675598,1,vertical,vertical,1,1.08234410555858,green,2,NaN,895.524681321058,363.568117085469,NaN,NaN,956.993676208043,800.942742169714,895.524681321058,363.568117085469,547.481642470899,635.489140744817,0,0,0,0,0,0,0,4,6,NaN,NaN,NaN,vertical,vertical,vertical,none,none,none
1a,1,100140,1,64,64,21,M,NA,variable,heterogeneous,6,absent,1.58911895751953,1,vertical,vertical,1,0.952934711384323,green,6,NaN,548.874022981887,644.280285305067,NaN,NaN,712.784863451954,839.621618300407,963.910840470068,795.341332995339,1051.12597701811,555.719714694933,887.215136548046,360.378381699593,636.089159529932,404.658667004661,548.874022981887,644.280285305067,0,5,3,6,0,4,horizontal,vertical,vertical,vertical,vertical,vertical
1a,1,100140,2,1,65,21,M,NA,variable,heterogeneous,4,present,0.925915956497192,1,vertical,vertical,1,0.952934711384323,red,2,3,1027.20666366803,715.767577433584,915.767577433584,372.793336331966,684.232422566416,827.206663668034,1027.20666366803,715.767577433584,915.767577433584,372.793336331966,572.793336331966,484.232422566416,0,0,0,0,5,4,6,3,NaN,NaN,vertical,vertical,vertical,horizontal,none,none
1a,1,100140,2,2,66,21,M,NA,variable,heterogeneous,3,absent,0.842644929885864,1,vertical,vertical,1,0.705880413415297,red,2,NaN,1016.25226451989,464.870587620533,NaN,NaN,808.899371659138,854.844660889869,1016.25226451989,464.870587620533,574.848363820974,480.284751489598,0,0,0,0,0,0,0,4,5,NaN,NaN,NaN,vertical,vertical,vertical,none,none,none
1a,1,100140,2,3,67,21,M,NA,variable,heterogeneous,4,absent,1.2392840385437,1,horizontal,horizontal,1,0.788231846071639,red,4,NaN,545.155339110131,591.100628340862,NaN,NaN,791.100628340862,854.844660889869,1054.84466088987,608.899371659138,808.899371659138,345.155339110131,545.155339110131,591.100628340862,0,0,0,0,3,0,6,4,NaN,NaN,vertical,horizontal,horizontal,horizontal,none,none
1a,1,100140,2,4,68,21,M,NA,variable,heterogeneous,5,present,0.934493064880371,1,vertical,vertical,1,0.705880413415297,red,1,5,931.334709102064,818.577661679039,632.704947607421,792.450942956807,931.334709102064,818.577661679039,1048.46436652023,542.637481142314,822.224714400653,345.970351986605,565.271262369628,500.363562235235,632.704947607421,792.450942956807,0,0,4,5,5,3,3,NaN,vertical,vertical,horizontal,vertical,vertical,none
1a,1,100140,2,5,69,21,M,NA,variable,heterogeneous,6,absent,1.42113208770752,1,vertical,vertical,1,0.988228182522756,red,1,NaN,919.715248510402,825.151636179026,NaN,NaN,919.715248510402,825.151636179026,1054.84466088987,608.899371659138,935.129412379467,383.747735480111,680.284751489598,374.848363820974,545.155339110131,591.100628340862,664.870587620533,816.252264519889,4,3,5,0,6,6,vertical,vertical,horizontal,vertical,vertical,horizontal
1a,1,100140,2,6,70,21,M,NA,variable,heterogeneous,3,present,1.03762602806091,0,vertical,horizontal,1,0.799996336451117,red,1,2,599.057257830286,756.993676208043,1036.43188291453,695.524681321058,599.057257830286,756.993676208043,1036.43188291453,695.524681321058,764.510859255183,347.4816424709,0,0,0,0,0,0,4,5,6,NaN,NaN,NaN,vertical,vertical,vertical,none,none,none
1a,1,100140,2,7,71,21,M,NA,variable,heterogeneous,6,present,1.2442741394043,1,vertical,vertical,1,0.682351432656342,red,4,5,808.899371659138,345.155339110131,583.747735480111,464.870587620533,791.100628340862,854.844660889869,1016.25226451989,735.129412379467,1025.15163617903,480.284751489598,808.899371659138,345.155339110131,583.747735480111,464.870587620533,574.848363820974,719.715248510402,3,3,5,4,0,6,horizontal,horizontal,vertical,vertical,horizontal,horizontal
1a,1,100140,2,8,72,21,M,NA,variable,heterogeneous,5,present,1.51065397262573,0,horizontal,vertical,1,0.870583278727981,green,1,3,808.899371659138,854.844660889869,942.594190385041,388.595418998464,808.899371659138,854.844660889869,1045.12173246427,670.287525733335,942.594190385041,388.595418998464,643.006323791957,399.057257830286,560.378381699593,687.215136548046,0,0,4,3,0,0,3,NaN,horizontal,vertical,vertical,vertical,horizontal,none
1a,1,100140,2,9,73,21,M,NA,variable,heterogeneous,5,absent,1.64393997192383,1,vertical,vertical,1,0.941170221004846,red,1,NaN,891.383827134052,838.063008756786,NaN,NaN,891.383827134052,838.063008756786,1054.65053136242,586.654331158049,865.998856501143,353.688914296288,586.139005173917,461.117046071168,601.827779828472,760.476699717708,0,0,4,6,5,3,3,NaN,vertical,horizontal,horizontal,vertical,vertical,none
1a,1,100140,2,10,74,21,M,NA,variable,heterogeneous,5,absent,1.6175491809845,1,vertical,vertical,1,0.635293471138432,green,2,NaN,1003.65205506206,753.462830903772,NaN,NaN,716.980120613425,841.107236777826,1003.65205506206,753.462830903772,1008.88377129369,453.738008730483,725.445215295702,356.142287229426,545.03883773512,595.549636358493,0,0,3,4,6,0,0,NaN,vertical,vertical,horizontal,horizontal,vertical,none
1a,1,100140,2,11,75,21,M,NA,variable,heterogeneous,4,present,1.04307389259338,1,horizontal,horizontal,1,1.04705063442014,green,3,1,696.282156015671,367.045908301137,903.717843984329,832.954091698863,903.717843984329,832.954091698863,1032.95409169886,496.282156015671,696.282156015671,367.045908301137,567.045908301137,703.717843984329,0,0,0,0,3,0,4,5,NaN,NaN,vertical,vertical,horizontal,horizontal,none,none
1a,1,100140,2,12,76,21,M,NA,variable,heterogeneous,4,present,1.88335180282593,1,horizontal,horizontal,1,0.752938374933207,red,4,2,546.900731331463,568.923317431687,1053.09926866854,631.076682568313,768.923317431687,853.099268668537,1053.09926866854,631.076682568313,831.076682568313,346.900731331463,546.900731331463,568.923317431687,0,0,0,0,6,6,3,4,NaN,NaN,horizontal,horizontal,horizontal,horizontal,none,none
1a,1,100140,2,13,77,21,M,NA,variable,heterogeneous,6,absent,1.11706209182739,1,vertical,vertical,1,0.6,green,3,NaN,953.462830903772,396.34794493794,NaN,NaN,899.636437764765,834.728737630372,1053.09926866854,631.076682568313,953.462830903772,396.34794493794,700.363562235235,365.271262369628,546.900731331463,568.923317431687,646.537169096228,803.65205506206,0,5,4,3,3,5,horizontal,horizontal,vertical,horizontal,horizontal,vertical
1a,1,100140,2,14,78,21,M,NA,variable,heterogeneous,6,present,NaN,0,horizontal,none,0,0.905876749866414,red,6,3,626.090418184063,786.495193912888,973.909581815937,413.504806087112,874.554784704298,843.857712770574,1048.46436652023,657.362518857686,973.909581815937,413.504806087112,725.445215295702,356.142287229426,551.535633479765,542.637481142314,626.090418184063,786.495193912888,0,3,0,6,5,4,horizontal,horizontal,vertical,vertical,horizontal,horizontal
1a,1,100140,2,15,79,21,M,NA,variable,heterogeneous,5,present,1.19862008094788,1,horizontal,horizontal,1,0.623528980758955,red,4,5,661.117046071168,386.139005173917,553.688914296288,665.998856501143,786.654331158049,854.650531362416,1038.06300875679,691.383827134052,960.476699717708,401.827779828472,661.117046071168,386.139005173917,553.688914296288,665.998856501143,0,0,3,0,0,4,3,NaN,horizontal,horizontal,vertical,horizontal,horizontal,none
1a,1,100140,2,16,80,21,M,NA,variable,heterogeneous,6,absent,1.09842300415039,1,horizontal,horizontal,1,0.776467355692162,green,2,NaN,1054.65053136242,613.345668841951,NaN,NaN,915.767577433584,827.206663668034,1054.65053136242,613.345668841951,938.882953928832,386.139005173917,684.232422566416,372.793336331966,545.349468637584,586.654331158049,661.117046071168,813.860994826083,0,4,0,5,6,5,vertical,horizontal,horizontal,horizontal,vertical,horizontal
1a,1,100140,2,17,81,21,M,NA,variable,heterogeneous,5,absent,0.746068954467773,1,vertical,vertical,1,0.670586942276865,red,2,NaN,1047.42541020038,538.309916622085,NaN,NaN,935.129412379467,816.252264519889,1047.42541020038,538.309916622085,817.787900804752,345.621167183745,563.568117085469,504.475318678942,636.089159529932,795.341332995339,0,0,0,4,6,0,3,NaN,horizontal,vertical,vertical,vertical,horizontal,none
1a,1,100140,2,18,82,21,M,NA,variable,heterogeneous,6,absent,1.75957012176514,1,horizontal,horizontal,1,0.729409394174252,green,1,NaN,891.383827134052,838.063008756786,NaN,NaN,891.383827134052,838.063008756786,1051.86052685176,639.890788585259,960.476699717708,401.827779828472,708.616172865948,361.936991243214,548.13947314824,560.109211414741,639.523300282292,798.172220171528,4,3,6,0,0,3,horizontal,vertical,horizontal,vertical,vertical,horizontal
1a,1,100140,2,19,83,21,M,NA,variable,heterogeneous,6,absent,1.27875399589539,1,vertical,vertical,1,0.988228182522756,green,5,NaN,547.481642470899,564.510859255183,NaN,NaN,895.524681321058,836.431882914531,1052.5183575291,635.489140744817,956.993676208043,399.057257830286,704.475318678942,363.568117085469,547.481642470899,564.510859255183,643.006323791957,800.942742169714,3,5,0,3,4,6,vertical,horizontal,horizontal,vertical,vertical,horizontal
1a,1,100140,2,20,84,21,M,NA,variable,heterogeneous,5,absent,0.956273078918457,1,vertical,vertical,1,0.799996336451117,green,3,NaN,998.172220171528,439.523300282291,NaN,NaN,734.001143498857,846.311085703712,1013.86099482608,738.882953928832,998.172220171528,439.523300282291,708.616172865948,361.936991243214,545.349468637584,613.345668841951,0,0,5,6,4,0,0,NaN,horizontal,vertical,vertical,vertical,vertical,none
1a,1,100140,2,21,85,21,M,NA,variable,heterogeneous,5,absent,1.13912606239319,0,horizontal,vertical,1,0.964699201763801,green,2,NaN,1023.02802532055,723.626453162816,NaN,NaN,751.343706178981,850.314931779154,1023.02802532055,723.626453162816,986.495193912888,426.090418184063,692.232343256122,368.891514305654,546.900731331463,631.076682568313,0,0,0,4,5,0,6,NaN,horizontal,horizontal,vertical,horizontal,vertical,none
1a,1,100140,2,22,86,21,M,NA,variable,heterogeneous,4,absent,1.2462420463562,1,horizontal,horizontal,1,1.02352165366119,red,1,NaN,903.717843984329,832.954091698863,NaN,NaN,903.717843984329,832.954091698863,1032.95409169886,496.282156015671,696.282156015671,367.045908301137,567.045908301137,703.717843984329,0,0,0,0,4,3,5,6,NaN,NaN,horizontal,horizontal,vertical,vertical,none,none
1a,1,100140,2,23,87,21,M,NA,variable,heterogeneous,4,present,1.01368880271912,1,horizontal,horizontal,1,0.894112259486936,red,2,1,1054.65053136242,586.654331158049,813.345668841951,854.650531362416,813.345668841951,854.650531362416,1054.65053136242,586.654331158049,786.654331158049,345.349468637584,545.349468637584,613.345668841951,0,0,0,0,5,4,3,0,NaN,NaN,horizontal,horizontal,vertical,vertical,none,none
1a,1,100140,2,24,88,21,M,NA,variable,heterogeneous,6,present,1.19293808937073,1,vertical,vertical,1,0.941170221004846,green,1,6,755.719714694933,851.125977018113,560.378381699593,687.215136548046,755.719714694933,851.125977018113,995.341332995339,763.910840470068,1039.62161830041,512.784863451954,844.280285305067,348.874022981887,604.658667004661,436.089159529932,560.378381699593,687.215136548046,4,6,3,5,3,0,vertical,horizontal,horizontal,vertical,vertical,vertical
1a,1,100140,2,25,89,21,M,NA,variable,heterogeneous,4,absent,1.3073570728302,1,vertical,vertical,1,0.717644903794774,red,4,NaN,551.535633479765,542.637481142314,NaN,NaN,742.637481142314,848.464366520235,1048.46436652023,657.362518857686,857.362518857686,351.535633479765,551.535633479765,542.637481142314,0,0,0,0,0,5,0,4,NaN,NaN,vertical,horizontal,horizontal,vertical,none,none
1a,1,100140,2,26,90,21,M,NA,variable,heterogeneous,3,absent,1.26737308502197,1,horizontal,horizontal,1,0.882347769107459,red,2,NaN,949.885239334581,393.700666434388,NaN,NaN,903.717843984329,832.954091698863,949.885239334581,393.700666434388,546.39691668109,573.345241866748,0,0,0,0,0,0,0,4,5,NaN,NaN,NaN,horizontal,horizontal,horizontal,none,none,none
1a,1,100140,2,27,91,21,M,NA,variable,heterogeneous,5,present,1.91075491905212,1,vertical,vertical,1,0.69411592303582,red,1,3,664.870587620533,816.252264519889,1036.43188291453,504.475318678942,664.870587620533,816.252264519889,963.910840470068,795.341332995339,1036.43188291453,504.475318678942,782.212099195248,345.621167183745,552.574589799621,538.309916622085,0,0,4,3,6,5,3,NaN,vertical,horizontal,vertical,vertical,vertical,none
1a,1,100140,2,28,92,21,M,NA,variable,heterogeneous,6,present,1.853670835495,0,horizontal,vertical,1,0.811760826830594,red,5,2,616.568350913644,422.862115532956,983.431649086356,777.137884467044,738.309916622085,847.425410200379,983.431649086356,777.137884467044,1045.12173246427,529.712474266665,861.690083377915,352.574589799621,616.568350913644,422.862115532956,554.878267535729,670.287525733335,5,0,5,0,4,3,horizontal,vertical,vertical,vertical,horizontal,vertical
1a,1,100140,2,29,93,21,M,NA,variable,heterogeneous,5,present,1.1249840259552,1,horizontal,horizontal,1,0.917641240245891,red,4,3,729.712474266665,354.878267535729,1011.40458100154,457.40580961496,712.784863451954,839.621618300407,1000.94274216971,756.993676208043,1011.40458100154,457.40580961496,729.712474266665,354.878267535729,545.155339110131,591.100628340862,0,0,0,5,6,4,0,NaN,vertical,vertical,horizontal,horizontal,vertical,none
1a,1,100140,2,30,94,21,M,NA,variable,heterogeneous,3,present,1.02956604957581,1,vertical,vertical,1,0.69411592303582,green,2,1,1042.51941165526,678.799333565612,610.498069503264,770.628304621509,610.498069503264,770.628304621509,1042.51941165526,678.799333565612,746.982518841471,350.57236181288,0,0,0,0,0,0,0,4,0,NaN,NaN,NaN,horizontal,vertical,vertical,none,none,none
1a,1,100140,2,31,95,21,M,NA,variable,heterogeneous,6,present,NaN,0,horizontal,none,0,0.705880413415297,green,6,1,643.006323791957,800.942742169714,895.524681321058,836.431882914531,895.524681321058,836.431882914531,1052.5183575291,635.489140744817,956.993676208043,399.057257830286,704.475318678942,363.568117085469,547.481642470899,564.510859255183,643.006323791957,800.942742169714,5,0,5,3,3,4,horizontal,vertical,vertical,horizontal,vertical,horizontal
1a,1,100140,2,32,96,21,M,NA,variable,heterogeneous,4,present,1.24187898635864,1,vertical,vertical,1,0.658822451897387,red,1,3,700.363562235235,834.728737630372,899.636437764765,365.271262369628,700.363562235235,834.728737630372,1034.72873763037,699.636437764765,899.636437764765,365.271262369628,565.271262369628,500.363562235235,0,0,0,0,4,6,3,0,NaN,NaN,vertical,horizontal,horizontal,vertical,none,none
1a,1,100140,2,33,97,21,M,NA,variable,heterogeneous,6,present,0.859375,1,vertical,vertical,1,1.02352165366119,green,1,6,870.287525733335,845.121732464271,622.862115532956,783.431649086356,870.287525733335,845.121732464271,1047.42541020038,661.690083377915,977.137884467044,416.568350913644,729.712474266665,354.878267535729,552.574589799621,538.309916622085,622.862115532956,783.431649086356,4,3,6,0,3,5,vertical,horizontal,horizontal,vertical,vertical,vertical
1a,1,100140,2,34,98,21,M,NA,variable,heterogeneous,3,absent,0.859810829162598,1,horizontal,horizontal,1,0.952934711384323,red,1,NaN,777.775285599347,854.029648013395,NaN,NaN,777.775285599347,854.029648013395,1031.10848569435,492.232343256122,591.116228706307,453.738008730483,0,0,0,0,0,0,4,5,6,NaN,NaN,NaN,horizontal,horizontal,vertical,none,none,none
1a,1,100140,2,35,99,21,M,NA,variable,heterogeneous,3,absent,1.54128098487854,1,vertical,vertical,1,0.799996336451117,red,2,NaN,1025.15163617903,480.284751489598,NaN,NaN,791.100628340862,854.844660889869,1025.15163617903,480.284751489598,583.747735480111,464.870587620533,0,0,0,0,0,0,6,4,3,NaN,NaN,NaN,vertical,vertical,horizontal,none,none,none
1a,1,100140,2,36,100,21,M,NA,variable,heterogeneous,4,absent,1.42800498008728,1,vertical,vertical,1,0.976463692143278,green,3,NaN,831.076682568313,346.900731331463,NaN,NaN,768.923317431687,853.099268668537,1053.09926866854,631.076682568313,831.076682568313,346.900731331463,546.900731331463,568.923317431687,0,0,0,0,3,6,4,6,NaN,NaN,vertical,horizontal,vertical,vertical,none,none
1a,1,100140,2,37,101,21,M,NA,variable,heterogeneous,5,present,1.10571217536926,1,vertical,vertical,1,1.04705063442014,green,1,5,795.549636358493,854.96116226488,556.142287229426,674.554784704298,795.549636358493,854.96116226488,1041.10723677783,683.019879386575,953.462830903772,396.34794493794,653.738008730483,391.116228706307,556.142287229426,674.554784704298,0,0,4,0,6,6,3,NaN,vertical,vertical,horizontal,vertical,horizontal,none
1a,1,100140,2,38,102,21,M,NA,variable,heterogeneous,3,absent,0.900012016296387,1,vertical,vertical,1,0.799996336451117,green,1,NaN,607.549057043193,767.295052392579,NaN,NaN,607.549057043193,767.295052392579,1041.10723677783,683.019879386575,751.343706178981,349.685068220846,0,0,0,0,0,0,4,6,6,NaN,NaN,NaN,vertical,vertical,horizontal,none,none,none
1a,1,100140,2,39,103,21,M,NA,variable,heterogeneous,6,absent,1.97438287734985,1,vertical,vertical,1,0.611764490379477,red,4,NaN,742.637481142314,351.535633479765,NaN,NaN,857.362518857686,848.464366520235,1043.85771277057,674.554784704298,986.495193912888,426.090418184063,742.637481142314,351.535633479765,556.142287229426,525.445215295702,613.504806087112,773.909581815937,5,0,6,4,3,3,vertical,vertical,horizontal,vertical,vertical,horizontal
1a,1,100140,2,40,104,21,M,NA,variable,heterogeneous,3,absent,0.809792041778564,1,vertical,vertical,1,0.788231846071639,green,2,NaN,956.993676208043,399.057257830286,NaN,NaN,895.524681321058,836.431882914531,956.993676208043,399.057257830286,547.481642470899,564.510859255183,0,0,0,0,0,0,0,4,6,NaN,NaN,NaN,horizontal,vertical,vertical,none,none,none
1a,1,100140,2,41,105,21,M,NA,variable,heterogeneous,3,present,1.341961145401,1,horizontal,horizontal,1,0.799996336451117,green,1,3,721.200666434388,842.519411655264,629.371695378491,410.498069503264,721.200666434388,842.519411655264,1049.42763818712,546.982518841471,629.371695378491,410.498069503264,0,0,0,0,0,0,4,0,3,NaN,NaN,NaN,horizontal,horizontal,vertical,none,none,none
1a,1,100140,2,42,106,21,M,NA,variable,heterogeneous,5,present,1.07450294494629,1,horizontal,horizontal,1,1.05881512479962,green,4,1,721.200666434388,357.480588344736,721.200666434388,842.519411655264,721.200666434388,842.519411655264,1006.29933356561,749.885239334581,1006.29933356561,450.114760665419,721.200666434388,357.480588344736,545,600,0,0,0,3,6,4,5,NaN,vertical,horizontal,horizontal,horizontal,horizontal,none
1a,1,100140,2,43,107,21,M,NA,variable,heterogeneous,4,present,0.825026988983154,1,vertical,vertical,1,0.847054297969026,green,3,1,657.405809614959,388.595418998464,942.594190385041,811.404581001536,942.594190385041,811.404581001536,1011.40458100154,457.40580961496,657.405809614959,388.595418998464,588.595418998464,742.594190385041,0,0,0,0,6,3,4,6,NaN,NaN,vertical,vertical,vertical,vertical,none,none
1a,1,100140,2,44,108,21,M,NA,variable,heterogeneous,5,absent,1.3668909072876,1,horizontal,horizontal,1,0.847054297969026,red,3,NaN,813.345668841951,345.349468637584,NaN,NaN,938.882953928832,813.860994826083,1046.31108570371,534.001143498857,813.345668841951,345.349468637584,561.936991243214,508.616172865948,639.523300282292,798.172220171528,0,0,5,6,4,3,0,NaN,horizontal,vertical,horizontal,horizontal,horizontal,none
1a,1,100140,2,45,109,21,M,NA,variable,heterogeneous,5,absent,1.20669507980347,1,horizontal,horizontal,1,0.623528980758955,red,4,NaN,676.373546837184,376.971974679454,NaN,NaN,768.923317431687,853.099268668537,1031.10848569435,707.767656743878,973.909581815937,413.504806087112,676.373546837184,376.971974679454,549.685068220846,648.656293821019,0,0,5,5,3,4,3,NaN,horizontal,vertical,horizontal,horizontal,vertical,none
1a,1,100140,2,46,110,21,M,NA,variable,heterogeneous,6,present,1.54096603393555,1,vertical,vertical,1,1.09410859593805,red,6,1,626.090418184063,786.495193912888,874.554784704298,843.857712770574,874.554784704298,843.857712770574,1048.46436652023,657.362518857686,973.909581815937,413.504806087112,725.445215295702,356.142287229426,551.535633479765,542.637481142314,626.090418184063,786.495193912888,0,6,0,5,3,4,horizontal,horizontal,vertical,vertical,horizontal,vertical
1a,1,100140,2,47,111,21,M,NA,variable,heterogeneous,4,absent,1.18802404403687,1,horizontal,horizontal,1,0.799996336451117,green,1,NaN,704.475318678942,836.431882914531,NaN,NaN,704.475318678942,836.431882914531,1036.43188291453,695.524681321058,895.524681321058,363.568117085469,563.568117085469,504.475318678942,0,0,0,0,4,3,5,3,NaN,NaN,horizontal,vertical,horizontal,horizontal,none,none
1a,1,100140,2,48,112,21,M,NA,variable,heterogeneous,4,absent,1.51584100723267,1,horizontal,horizontal,1,0.999992672902233,green,4,NaN,561.936991243214,508.616172865948,NaN,NaN,708.616172865948,838.063008756786,1038.06300875679,691.383827134052,891.383827134052,361.936991243214,561.936991243214,508.616172865948,0,0,0,0,5,5,6,4,NaN,NaN,horizontal,vertical,vertical,horizontal,none,none
1a,1,100140,2,49,113,21,M,NA,variable,heterogeneous,4,absent,0.975481986999512,1,vertical,vertical,1,0.847054297969026,green,3,NaN,738.309916622085,352.574589799621,NaN,NaN,861.690083377915,847.425410200379,1047.42541020038,538.309916622085,738.309916622085,352.574589799621,552.574589799621,661.690083377915,0,0,0,0,3,6,4,0,NaN,NaN,vertical,horizontal,vertical,horizontal,none,none
1a,1,100140,2,50,114,21,M,NA,variable,heterogeneous,6,absent,1.31338810920715,1,horizontal,horizontal,1,0.705880413415297,red,5,NaN,622.862115532956,416.568350913644,NaN,NaN,729.712474266665,845.121732464271,977.137884467044,783.431649086356,1047.42541020038,538.309916622085,870.287525733335,354.878267535729,622.862115532956,416.568350913644,552.574589799621,661.690083377915,6,3,0,5,4,0,vertical,horizontal,horizontal,vertical,horizontal,vertical
1a,1,100140,2,51,115,21,M,NA,variable,heterogeneous,3,present,1.16757702827454,1,vertical,vertical,1,0.988228182522756,red,2,1,1051.12597701811,555.719714694933,712.784863451954,839.621618300407,712.784863451954,839.621618300407,1051.12597701811,555.719714694933,636.089159529932,404.658667004661,0,0,0,0,0,0,0,4,6,NaN,NaN,NaN,vertical,vertical,horizontal,none,none,none
1a,1,100140,2,52,116,21,M,NA,variable,heterogeneous,3,present,1.49692296981812,1,horizontal,horizontal,1,0.894112259486936,red,1,3,938.882953928832,813.860994826083,545.349468637584,613.345668841951,938.882953928832,813.860994826083,915.767577433584,372.793336331966,545.349468637584,613.345668841951,0,0,0,0,0,0,4,3,0,NaN,NaN,NaN,horizontal,horizontal,horizontal,none,none,none
1a,1,100140,2,53,117,21,M,NA,variable,heterogeneous,3,present,1.12244009971619,1,horizontal,horizontal,1,0.964699201763801,green,1,3,768.923317431687,853.099268668537,596.34794493794,446.537169096228,768.923317431687,853.099268668537,1034.72873763037,500.363562235235,596.34794493794,446.537169096228,0,0,0,0,0,0,4,3,6,NaN,NaN,NaN,horizontal,horizontal,vertical,none,none,none
1a,1,100140,2,54,118,21,M,NA,variable,heterogeneous,5,absent,1.24009990692139,1,horizontal,horizontal,1,0.752938374933207,green,5,NaN,557.480588344736,521.200666434388,NaN,NaN,650.114760665419,806.299333565612,949.885239334581,806.299333565612,1042.51941165526,521.200666434388,800,345,557.480588344736,521.200666434388,0,0,0,3,0,3,4,NaN,vertical,vertical,horizontal,horizontal,horizontal,none
1a,1,100140,2,55,119,21,M,NA,variable,heterogeneous,4,present,0.800757884979248,1,vertical,vertical,1,0.776467355692162,green,4,3,599.057257830286,756.993676208043,643.006323791957,399.057257830286,956.993676208043,800.942742169714,1000.94274216971,443.006323791957,643.006323791957,399.057257830286,599.057257830286,756.993676208043,0,0,0,0,5,0,3,4,NaN,NaN,horizontal,vertical,horizontal,vertical,none,none
1a,1,100140,2,56,120,21,M,NA,variable,heterogeneous,3,absent,0.799780130386353,0,horizontal,vertical,1,0.741173884553729,green,1,NaN,808.899371659138,854.844660889869,NaN,NaN,808.899371659138,854.844660889869,1016.25226451989,464.870587620533,574.848363820974,480.284751489598,0,0,0,0,0,0,4,0,5,NaN,NaN,NaN,horizontal,vertical,vertical,none,none,none
1a,1,100140,2,57,121,21,M,NA,variable,heterogeneous,3,present,0.833691835403442,1,vertical,vertical,1,0.882347769107459,green,2,3,1006.29933356561,450.114760665419,567.045908301137,496.282156015671,826.654758133252,853.60308331891,1006.29933356561,450.114760665419,567.045908301137,496.282156015671,0,0,0,0,0,0,5,4,3,NaN,NaN,NaN,horizontal,vertical,horizontal,none,none,none
1a,1,100140,2,58,122,21,M,NA,variable,heterogeneous,4,absent,0.880371809005737,1,vertical,vertical,1,0.894112259486936,red,2,NaN,1043.85771277057,674.554784704298,NaN,NaN,725.445215295702,843.857712770574,1043.85771277057,674.554784704298,874.554784704298,356.142287229426,556.142287229426,525.445215295702,0,0,0,0,3,4,0,3,NaN,NaN,horizontal,vertical,horizontal,vertical,none,none
1a,1,100140,2,59,123,21,M,NA,variable,heterogeneous,3,absent,0.945237874984741,1,horizontal,horizontal,1,0.764702865312684,green,3,NaN,554.878267535729,670.287525733335,NaN,NaN,983.431649086356,777.137884467044,861.690083377915,352.574589799621,554.878267535729,670.287525733335,0,0,0,0,0,0,3,0,4,NaN,NaN,NaN,vertical,vertical,horizontal,none,none,none
1a,1,100140,2,60,124,21,M,NA,variable,heterogeneous,5,present,1.55757403373718,1,vertical,vertical,1,0.658822451897387,green,4,2,676.373546837184,376.971974679454,1031.10848569435,707.767656743878,768.923317431687,853.099268668537,1031.10848569435,707.767656743878,973.909581815937,413.504806087112,676.373546837184,376.971974679454,549.685068220846,648.656293821019,0,0,5,3,5,4,6,NaN,vertical,vertical,vertical,vertical,horizontal,none
1a,1,100140,2,61,125,21,M,NA,variable,heterogeneous,4,present,1.00864386558533,0,horizontal,vertical,1,0.776467355692162,green,2,1,1050.31493177915,648.656293821019,751.343706178981,850.314931779154,751.343706178981,850.314931779154,1050.31493177915,648.656293821019,848.656293821019,349.685068220846,549.685068220846,551.343706178981,0,0,0,0,5,4,6,0,NaN,NaN,horizontal,horizontal,horizontal,horizontal,none,none
1a,1,100140,2,62,126,21,M,NA,variable,heterogeneous,6,present,1.54931497573853,1,horizontal,horizontal,1,0.623528980758955,green,1,2,808.899371659138,854.844660889869,1025.15163617903,719.715248510402,808.899371659138,854.844660889869,1025.15163617903,719.715248510402,1016.25226451989,464.870587620533,791.100628340862,345.155339110131,574.848363820974,480.284751489598,583.747735480111,735.129412379467,4,3,3,6,0,6,horizontal,vertical,horizontal,horizontal,vertical,vertical
1a,1,100140,2,63,127,21,M,NA,variable,heterogeneous,3,present,NaN,0,horizontal,none,0,0.776467355692162,red,1,2,639.523300282292,798.172220171528,1051.86052685176,639.890788585259,639.523300282292,798.172220171528,1051.86052685176,639.890788585259,708.616172865948,361.936991243214,0,0,0,0,0,0,4,6,6,NaN,NaN,NaN,horizontal,horizontal,vertical,none,none,none
1a,1,100140,2,64,128,21,M,NA,variable,heterogeneous,6,absent,1.32538199424744,1,horizontal,horizontal,1,0.858818788348504,red,2,NaN,1032.95409169886,703.717843984329,NaN,NaN,826.654758133252,853.60308331891,1032.95409169886,703.717843984329,1006.29933356561,450.114760665419,773.345241866748,346.39691668109,567.045908301137,496.282156015671,593.700666434388,749.885239334581,6,4,5,5,0,3,vertical,horizontal,horizontal,vertical,horizontal,vertical
1a,1,100140,3,1,129,21,M,NA,variable,heterogeneous,3,absent,1.01043915748596,1,horizontal,horizontal,1,0.635293471138432,red,3,NaN,643.006323791957,399.057257830286,NaN,NaN,704.475318678942,836.431882914531,1052.5183575291,564.510859255183,643.006323791957,399.057257830286,0,0,0,0,0,0,6,3,4,NaN,NaN,NaN,vertical,vertical,horizontal,none,none,none
1a,1,100140,3,2,130,21,M,NA,variable,heterogeneous,5,present,0.985038995742798,1,vertical,vertical,1,0.905876749866414,green,3,4,808.899371659138,345.155339110131,560.378381699593,512.784863451954,942.594190385041,811.404581001536,1045.12173246427,529.712474266665,808.899371659138,345.155339110131,560.378381699593,512.784863451954,643.006323791957,800.942742169714,0,0,6,3,4,6,5,NaN,horizontal,vertical,vertical,vertical,horizontal,none
1a,1,100140,3,3,131,21,M,NA,variable,heterogeneous,6,present,1.09898686408997,1,vertical,vertical,1,0.705880413415297,red,3,5,1016.25226451989,464.870587620533,574.848363820974,480.284751489598,808.899371659138,854.844660889869,1025.15163617903,719.715248510402,1016.25226451989,464.870587620533,791.100628340862,345.155339110131,574.848363820974,480.284751489598,583.747735480111,735.129412379467,0,0,4,5,3,3,horizontal,horizontal,vertical,vertical,vertical,horizontal
1a,1,100140,3,4,132,21,M,NA,variable,heterogeneous,6,absent,1.22981214523315,1,vertical,vertical,1,0.635293471138432,red,1,NaN,777.775285599347,854.029648013395,NaN,NaN,777.775285599347,854.029648013395,1008.88377129369,746.261991269517,1031.10848569435,492.232343256122,822.224714400653,345.970351986605,591.116228706307,453.738008730483,568.891514305654,707.767656743878,4,3,6,6,0,0,vertical,vertical,horizontal,vertical,horizontal,vertical
1a,1,100140,3,5,133,21,M,NA,variable,heterogeneous,5,present,1.79784798622131,1,horizontal,horizontal,1,0.964699201763801,green,5,3,636.089159529932,795.341332995339,817.787900804752,345.621167183745,935.129412379467,816.252264519889,1047.42541020038,538.309916622085,817.787900804752,345.621167183745,563.568117085469,504.475318678942,636.089159529932,795.341332995339,0,0,0,3,6,5,4,NaN,vertical,vertical,vertical,horizontal,horizontal,none
1a,1,100140,3,6,134,21,M,NA,variable,heterogeneous,6,present,1.34232616424561,1,horizontal,horizontal,1,0.623528980758955,green,2,5,1031.10848569435,707.767656743878,568.891514305654,492.232343256122,822.224714400653,854.029648013395,1031.10848569435,707.767656743878,1008.88377129369,453.738008730483,777.775285599347,345.970351986605,568.891514305654,492.232343256122,591.116228706307,746.261991269517,3,4,3,0,6,5,horizontal,horizontal,horizontal,horizontal,vertical,horizontal
1a,1,100140,3,7,135,21,M,NA,variable,heterogeneous,3,absent,1.41637706756592,1,horizontal,horizontal,1,0.941170221004846,green,1,NaN,668.665290897936,818.577661679039,NaN,NaN,668.665290897936,818.577661679039,1054.96116226488,604.450363641507,676.373546837184,376.971974679454,0,0,0,0,0,0,4,5,3,NaN,NaN,NaN,horizontal,vertical,vertical,none,none,none
1a,1,100140,3,8,136,21,M,NA,variable,heterogeneous,4,present,1.21971702575684,1,horizontal,horizontal,1,0.741173884553729,red,4,3,574.848363820974,480.284751489598,919.715248510402,374.848363820974,680.284751489598,825.151636179026,1025.15163617903,719.715248510402,919.715248510402,374.848363820974,574.848363820974,480.284751489598,0,0,0,0,0,6,3,4,NaN,NaN,vertical,vertical,vertical,horizontal,none,none
1a,1,100140,3,9,137,21,M,NA,variable,heterogeneous,5,absent,1.71205592155457,1,horizontal,horizontal,1,0.988228182522756,green,5,NaN,567.045908301137,703.717843984329,NaN,NaN,826.654758133252,853.60308331891,1049.42763818712,653.017481158529,927.5,379.163522034968,629.371695378491,410.498069503264,567.045908301137,703.717843984329,0,0,0,3,5,6,4,NaN,horizontal,horizontal,vertical,horizontal,horizontal,none
1a,1,100140,3,10,138,21,M,NA,variable,heterogeneous,5,absent,1.10969305038452,1,horizontal,horizontal,1,0.964699201763801,red,4,NaN,616.568350913644,422.862115532956,NaN,NaN,844.280285305067,851.125977018113,1052.5183575291,635.489140744817,911.784642431215,370.807518193712,616.568350913644,422.862115532956,574.848363820974,719.715248510402,0,0,6,5,0,4,3,NaN,horizontal,horizontal,vertical,horizontal,horizontal,none
1a,1,100140,3,11,139,21,M,NA,variable,heterogeneous,6,present,1.68906402587891,0,horizontal,vertical,1,0.847054297969026,red,6,2,672.5,820.836477965032,1055,600,927.5,820.836477965032,1055,600,927.5,379.163522034968,672.5,379.163522034968,545,600,672.5,820.836477965032,0,0,5,5,6,4,vertical,vertical,horizontal,vertical,vertical,horizontal
1a,1,100140,3,12,140,21,M,NA,variable,heterogeneous,3,present,1.04961705207825,1,vertical,vertical,1,0.929405730625368,green,2,1,839.890788585259,348.13947314824,998.172220171528,760.476699717708,998.172220171528,760.476699717708,839.890788585259,348.13947314824,561.936991243214,691.383827134052,0,0,0,0,0,0,3,4,5,NaN,NaN,NaN,vertical,vertical,horizontal,none,none,none
1a,1,100140,3,13,141,21,M,NA,variable,heterogeneous,3,absent,0.900032043457031,1,vertical,vertical,1,1.05881512479962,red,3,NaN,791.100628340862,345.155339110131,NaN,NaN,583.747735480111,735.129412379467,1025.15163617903,719.715248510402,791.100628340862,345.155339110131,0,0,0,0,0,0,0,6,4,NaN,NaN,NaN,vertical,vertical,vertical,none,none,none
1a,1,100140,3,14,142,21,M,NA,variable,heterogeneous,5,absent,0.946631908416748,1,vertical,vertical,1,0.823525317210071,red,5,NaN,556.142287229426,525.445215295702,NaN,NaN,653.738008730483,808.883771293693,953.462830903772,803.65205506206,1041.10723677783,516.980120613425,795.549636358493,345.03883773512,556.142287229426,525.445215295702,0,0,0,3,0,3,4,NaN,vertical,horizontal,vertical,horizontal,vertical,none
1a,1,100140,3,15,143,21,M,NA,variable,heterogeneous,5,present,1.0135338306427,1,vertical,vertical,1,1.01175716328171,red,3,5,977.137884467044,416.568350913644,548.874022981887,644.280285305067,764.510859255183,852.518357529101,1029.19248180629,711.784642431215,977.137884467044,416.568350913644,680.284751489598,374.848363820974,548.874022981887,644.280285305067,0,0,0,5,4,3,0,NaN,horizontal,vertical,vertical,horizontal,vertical,none
1a,1,100140,3,16,144,21,M,NA,variable,heterogeneous,3,absent,1.00120997428894,1,vertical,vertical,1,0.941170221004846,green,1,NaN,857.362518857686,848.464366520235,NaN,NaN,857.362518857686,848.464366520235,986.495193912888,426.090418184063,556.142287229426,525.445215295702,0,0,0,0,0,0,4,3,6,NaN,NaN,NaN,vertical,vertical,vertical,none,none,none
1a,1,100140,3,17,145,21,M,NA,variable,heterogeneous,5,absent,0.864392042160034,1,vertical,vertical,1,0.741173884553729,green,1,NaN,782.212099195248,854.378832816255,NaN,NaN,782.212099195248,854.378832816255,1036.43188291453,695.524681321058,963.910840470068,404.658667004661,664.870587620533,383.747735480111,552.574589799621,661.690083377915,0,0,4,0,0,3,5,NaN,vertical,horizontal,horizontal,horizontal,vertical,none
1a,1,100140,3,18,146,21,M,NA,variable,heterogeneous,4,absent,0.862526893615723,1,horizontal,horizontal,1,1.03528614404067,green,3,NaN,773.345241866748,346.39691668109,NaN,NaN,826.654758133252,853.60308331891,1053.60308331891,573.345241866748,773.345241866748,346.39691668109,546.39691668109,626.654758133252,0,0,0,0,5,0,4,6,NaN,NaN,horizontal,horizontal,horizontal,horizontal,none,none
1a,1,100140,3,19,147,21,M,NA,variable,heterogeneous,3,present,1.22907781600952,1,horizontal,horizontal,1,0.858818788348504,red,3,2,746.982518841471,350.57236181288,1042.51941165526,678.799333565612,610.498069503264,770.628304621509,1042.51941165526,678.799333565612,746.982518841471,350.57236181288,0,0,0,0,0,0,5,6,4,NaN,NaN,NaN,horizontal,vertical,horizontal,none,none,none
1a,1,100140,3,20,148,21,M,NA,variable,heterogeneous,6,absent,1.07023692131042,1,vertical,vertical,1,0.811760826830594,green,3,NaN,956.993676208043,399.057257830286,NaN,NaN,895.524681321058,836.431882914531,1052.5183575291,635.489140744817,956.993676208043,399.057257830286,704.475318678942,363.568117085469,547.481642470899,564.510859255183,643.006323791957,800.942742169714,5,5,4,6,3,0,horizontal,vertical,vertical,horizontal,horizontal,horizontal
1a,1,100140,3,21,149,21,M,NA,variable,heterogeneous,4,absent,1.07264304161072,1,horizontal,horizontal,1,0.835289807589549,green,4,NaN,548.13947314824,560.109211414741,NaN,NaN,760.109211414741,851.86052685176,1051.86052685176,639.890788585259,839.890788585259,348.13947314824,548.13947314824,560.109211414741,0,0,0,0,3,6,5,4,NaN,NaN,vertical,vertical,vertical,horizontal,none,none
1a,1,100140,3,22,150,21,M,NA,variable,heterogeneous,3,present,0.898462057113647,1,vertical,vertical,1,0.611764490379477,red,2,3,1008.88377129369,453.738008730483,568.891514305654,492.232343256122,822.224714400653,854.029648013395,1008.88377129369,453.738008730483,568.891514305654,492.232343256122,0,0,0,0,0,0,3,4,5,NaN,NaN,NaN,vertical,vertical,horizontal,none,none,none
1a,1,100140,3,23,151,21,M,NA,variable,heterogeneous,6,present,1.36506390571594,1,horizontal,horizontal,1,0.611764490379477,green,5,1,568.891514305654,492.232343256122,822.224714400653,854.029648013395,822.224714400653,854.029648013395,1031.10848569435,707.767656743878,1008.88377129369,453.738008730483,777.775285599347,345.970351986605,568.891514305654,492.232343256122,591.116228706307,746.261991269517,3,0,6,5,4,6,vertical,horizontal,vertical,vertical,horizontal,vertical
1a,1,100140,3,24,152,21,M,NA,variable,heterogeneous,4,present,0.900962829589844,1,horizontal,horizontal,1,1.02352165366119,green,3,4,704.475318678942,363.568117085469,563.568117085469,695.524681321058,895.524681321058,836.431882914531,1036.43188291453,504.475318678942,704.475318678942,363.568117085469,563.568117085469,695.524681321058,0,0,0,0,5,3,4,0,NaN,NaN,vertical,horizontal,horizontal,vertical,none,none
1a,1,100140,3,25,153,21,M,NA,variable,heterogeneous,6,absent,1.73946189880371,1,horizontal,horizontal,1,0.623528980758955,green,5,NaN,565.271262369628,500.363562235235,NaN,NaN,831.076682568313,853.099268668537,1034.72873763037,699.636437764765,1003.65205506206,446.537169096228,768.923317431687,346.900731331463,565.271262369628,500.363562235235,596.34794493794,753.462830903772,5,5,3,3,4,6,vertical,horizontal,vertical,horizontal,horizontal,horizontal
1a,1,100140,3,26,154,21,M,NA,variable,heterogeneous,4,absent,0.896782159805298,1,horizontal,horizontal,1,0.717644903794774,red,2,NaN,1053.60308331891,626.654758133252,NaN,NaN,773.345241866748,853.60308331891,1053.60308331891,626.654758133252,826.654758133252,346.39691668109,546.39691668109,573.345241866748,0,0,0,0,0,4,6,3,NaN,NaN,horizontal,horizontal,vertical,vertical,none,none
1a,1,100140,3,27,155,21,M,NA,variable,heterogeneous,4,present,1.33204817771912,1,horizontal,horizontal,1,0.658822451897387,green,4,1,545.621167183745,582.212099195248,782.212099195248,854.378832816255,782.212099195248,854.378832816255,1054.37883281626,617.787900804752,817.787900804752,345.621167183745,545.621167183745,582.212099195248,0,0,0,0,6,6,0,4,NaN,NaN,horizontal,vertical,vertical,horizontal,none,none
1a,1,100140,3,28,156,21,M,NA,variable,heterogeneous,6,absent,0.905911922454834,1,horizontal,horizontal,1,0.941170221004846,red,1,NaN,721.200666434388,842.519411655264,NaN,NaN,721.200666434388,842.519411655264,970.628304621509,789.501930496736,1049.42763818712,546.982518841471,878.799333565612,357.480588344736,629.371695378491,410.498069503264,550.57236181288,653.017481158529,4,5,6,3,0,6,horizontal,horizontal,vertical,vertical,vertical,horizontal
1a,1,100140,3,29,157,21,M,NA,variable,heterogeneous,3,absent,1.07294893264771,1,horizontal,horizontal,1,0.835289807589549,red,1,NaN,581.422338320961,731.334709102064,NaN,NaN,581.422338320961,731.334709102064,1023.02802532055,723.626453162816,795.549636358493,345.03883773512,0,0,0,0,0,0,4,5,3,NaN,NaN,NaN,horizontal,vertical,vertical,none,none,none
1a,1,100140,3,30,158,21,M,NA,variable,heterogeneous,6,absent,1.195387840271,1,vertical,vertical,1,0.635293471138432,green,3,NaN,1039.62161830041,512.784863451954,NaN,NaN,755.719714694933,851.125977018113,995.341332995339,763.910840470068,1039.62161830041,512.784863451954,844.280285305067,348.874022981887,604.658667004661,436.089159529932,560.378381699593,687.215136548046,0,3,4,6,0,5,vertical,horizontal,vertical,vertical,vertical,vertical
1a,1,100140,3,31,159,21,M,NA,variable,heterogeneous,5,absent,1.6297869682312,1,horizontal,horizontal,1,0.717644903794774,red,3,NaN,903.717843984329,367.045908301137,NaN,NaN,853.017481158529,849.42763818712,1053.60308331891,626.654758133252,903.717843984329,367.045908301137,610.498069503264,429.371695378491,579.163522034968,727.5,0,0,5,0,4,6,6,NaN,horizontal,horizontal,horizontal,vertical,horizontal,none
1a,1,100140,3,32,160,21,M,NA,variable,heterogeneous,4,absent,1.23975396156311,1,vertical,vertical,1,1.05881512479962,green,4,NaN,579.163522034968,472.5,NaN,NaN,672.5,820.836477965032,1020.83647796503,727.5,927.5,379.163522034968,579.163522034968,472.5,0,0,0,0,6,3,5,4,NaN,NaN,horizontal,horizontal,horizontal,vertical,none,none
1a,1,100140,3,33,161,21,M,NA,variable,heterogeneous,3,absent,1.54163694381714,1,vertical,vertical,1,0.835289807589549,red,3,NaN,548.13947314824,639.890788585259,NaN,NaN,960.476699717708,798.172220171528,891.383827134052,361.936991243214,548.13947314824,639.890788585259,0,0,0,0,0,0,6,3,4,NaN,NaN,NaN,horizontal,vertical,vertical,none,none,none
1a,1,100140,3,34,162,21,M,NA,variable,heterogeneous,4,present,1.16814804077148,1,vertical,vertical,1,0.788231846071639,green,3,2,751.343706178981,349.685068220846,1050.31493177915,551.343706178981,848.656293821019,850.314931779154,1050.31493177915,551.343706178981,751.343706178981,349.685068220846,549.685068220846,648.656293821019,0,0,0,0,5,0,4,3,NaN,NaN,vertical,horizontal,vertical,horizontal,none,none
1a,1,100140,3,35,163,21,M,NA,variable,heterogeneous,6,present,1.4163510799408,1,horizontal,horizontal,1,0.623528980758955,red,3,2,1038.06300875679,508.616172865948,998.172220171528,760.476699717708,760.109211414741,851.86052685176,998.172220171528,760.476699717708,1038.06300875679,508.616172865948,839.890788585259,348.13947314824,601.827779828472,439.523300282291,561.936991243214,691.383827134052,0,0,4,6,3,3,vertical,horizontal,horizontal,vertical,horizontal,horizontal
1a,1,100140,3,36,164,21,M,NA,variable,heterogeneous,3,present,0.937826156616211,1,horizontal,horizontal,1,0.847054297969026,green,1,3,953.462830903772,803.65205506206,546.900731331463,631.076682568313,953.462830903772,803.65205506206,899.636437764765,365.271262369628,546.900731331463,631.076682568313,0,0,0,0,0,0,4,0,3,NaN,NaN,NaN,horizontal,horizontal,vertical,none,none,none
1a,1,100140,3,37,165,21,M,NA,variable,heterogeneous,4,absent,0.908591985702515,1,vertical,vertical,1,0.799996336451117,green,4,NaN,547.481642470899,635.489140744817,NaN,NaN,835.489140744817,852.518357529101,1052.5183575291,564.510859255183,764.510859255183,347.4816424709,547.481642470899,635.489140744817,0,0,0,0,0,5,6,4,NaN,NaN,horizontal,horizontal,horizontal,vertical,none,none
1a,1,100140,3,38,166,21,M,NA,variable,heterogeneous,3,absent,1.10348510742188,1,horizontal,horizontal,1,0.823525317210071,green,3,NaN,729.712474266665,354.878267535729,NaN,NaN,622.862115532956,783.431649086356,1047.42541020038,661.690083377915,729.712474266665,354.878267535729,0,0,0,0,0,0,6,5,4,NaN,NaN,NaN,vertical,horizontal,horizontal,none,none,none
1a,1,100140,3,39,167,21,M,NA,variable,heterogeneous,5,present,0.874424934387207,1,vertical,vertical,1,0.835289807589549,green,3,4,831.076682568313,346.900731331463,568.891514305654,492.232343256122,923.626453162816,823.028025320546,1050.31493177915,551.343706178981,831.076682568313,346.900731331463,568.891514305654,492.232343256122,626.090418184063,786.495193912888,0,0,0,3,4,5,5,NaN,horizontal,horizontal,vertical,vertical,horizontal,none
1a,1,100140,3,40,168,21,M,NA,variable,heterogeneous,5,absent,1.67683792114258,1,horizontal,horizontal,1,0.635293471138432,green,5,NaN,549.685068220846,648.656293821019,NaN,NaN,768.923317431687,853.099268668537,1031.10848569435,707.767656743878,973.909581815937,413.504806087112,676.373546837184,376.971974679454,549.685068220846,648.656293821019,0,0,0,6,5,0,4,NaN,vertical,vertical,vertical,vertical,horizontal,none
1a,1,100140,3,41,169,21,M,NA,variable,heterogeneous,3,present,1.07633900642395,1,horizontal,horizontal,1,0.69411592303582,red,2,1,1034.72873763037,699.636437764765,596.34794493794,753.462830903772,596.34794493794,753.462830903772,1034.72873763037,699.636437764765,768.923317431687,346.900731331463,0,0,0,0,0,0,0,4,3,NaN,NaN,NaN,horizontal,horizontal,vertical,none,none,none
1a,1,100140,3,42,170,21,M,NA,variable,heterogeneous,5,absent,0.853393077850342,1,vertical,vertical,1,0.964699201763801,green,2,NaN,1050.31493177915,648.656293821019,NaN,NaN,831.076682568313,853.099268668537,1050.31493177915,648.656293821019,923.626453162816,376.971974679454,626.090418184063,413.504806087112,568.891514305654,707.767656743878,0,0,6,4,0,6,0,NaN,horizontal,vertical,horizontal,horizontal,vertical,none
1a,1,100140,3,43,171,21,M,NA,variable,heterogeneous,6,present,1.82649993896484,1,vertical,vertical,1,0.999992672902233,red,2,4,1013.86099482608,738.882953928832,813.345668841951,345.349468637584,786.654331158049,854.650531362416,1013.86099482608,738.882953928832,1027.20666366803,484.232422566416,813.345668841951,345.349468637584,586.139005173917,461.117046071168,572.793336331966,715.767577433584,3,4,6,0,6,5,vertical,vertical,horizontal,vertical,horizontal,vertical
1a,1,100140,3,44,172,21,M,NA,variable,heterogeneous,6,absent,0.929754018783569,1,vertical,vertical,1,0.917641240245891,red,3,NaN,992.450942956807,432.704947607421,NaN,NaN,848.656293821019,850.314931779154,1041.10723677783,683.019879386575,992.450942956807,432.704947607421,751.343706178981,349.685068220846,558.892763222174,516.980120613425,607.549057043193,767.295052392579,0,0,4,3,6,5,horizontal,vertical,vertical,horizontal,vertical,horizontal
1a,1,100140,3,45,173,21,M,NA,variable,heterogeneous,3,present,0.89653491973877,1,vertical,vertical,1,1.01175716328171,green,2,1,1027.20666366803,715.767577433584,586.139005173917,738.882953928832,586.139005173917,738.882953928832,1027.20666366803,715.767577433584,786.654331158049,345.349468637584,0,0,0,0,0,0,0,4,0,NaN,NaN,NaN,horizontal,vertical,vertical,none,none,none
1a,1,100140,3,46,174,21,M,NA,variable,heterogeneous,4,present,1.12511706352234,1,vertical,vertical,1,0.705880413415297,red,2,1,1020.83647796503,472.5,927.5,820.836477965032,927.5,820.836477965032,1020.83647796503,472.5,672.5,379.163522034968,579.163522034968,727.5,0,0,0,0,0,4,6,5,NaN,NaN,horizontal,vertical,vertical,vertical,none,none
1a,1,100140,3,47,175,21,M,NA,variable,heterogeneous,3,absent,0.919985055923462,1,vertical,vertical,1,0.611764490379477,green,1,NaN,672.5,820.836477965032,NaN,NaN,672.5,820.836477965032,1055,600,672.5,379.163522034968,0,0,0,0,0,0,4,6,3,NaN,NaN,NaN,vertical,vertical,horizontal,none,none,none
1a,1,100140,3,48,176,21,M,NA,variable,heterogeneous,5,present,1.72474312782288,1,horizontal,horizontal,1,0.905876749866414,red,1,5,927.5,820.836477965032,629.371695378491,789.501930496736,927.5,820.836477965032,1049.42763818712,546.982518841471,826.654758133252,346.39691668109,567.045908301137,496.282156015671,629.371695378491,789.501930496736,0,0,4,3,0,5,3,NaN,horizontal,vertical,vertical,horizontal,horizontal,none
1a,1,100140,3,49,177,21,M,NA,variable,heterogeneous,5,present,1.37599015235901,1,horizontal,horizontal,1,1.03528614404067,green,2,5,1041.10723677783,683.019879386575,556.142287229426,674.554784704298,795.549636358493,854.96116226488,1041.10723677783,683.019879386575,953.462830903772,396.34794493794,653.738008730483,391.116228706307,556.142287229426,674.554784704298,0,0,5,4,0,6,5,NaN,vertical,horizontal,horizontal,vertical,vertical,none
1a,1,100140,3,50,178,21,M,NA,variable,heterogeneous,6,absent,1.76439785957336,1,horizontal,horizontal,1,0.623528980758955,red,1,NaN,704.475318678942,836.431882914531,NaN,NaN,704.475318678942,836.431882914531,956.993676208043,800.942742169714,1052.5183575291,564.510859255183,895.524681321058,363.568117085469,643.006323791957,399.057257830286,547.481642470899,635.489140744817,4,3,6,0,0,5,horizontal,vertical,horizontal,vertical,horizontal,vertical
1a,1,100140,3,51,179,21,M,NA,variable,heterogeneous,3,present,1.088299036026,1,vertical,vertical,1,0.611764490379477,red,3,1,622.862115532956,416.568350913644,729.712474266665,845.121732464271,729.712474266665,845.121732464271,1047.42541020038,538.309916622085,622.862115532956,416.568350913644,0,0,0,0,0,0,3,5,4,NaN,NaN,NaN,horizontal,vertical,vertical,none,none,none
1a,1,100140,3,52,180,21,M,NA,variable,heterogeneous,4,absent,1.01350402832031,1,vertical,vertical,1,0.964699201763801,red,3,NaN,632.704947607421,407.549057043193,NaN,NaN,967.295052392579,792.450942956807,992.450942956807,432.704947607421,632.704947607421,407.549057043193,607.549057043193,767.295052392579,0,0,0,0,6,5,4,3,NaN,NaN,horizontal,horizontal,vertical,horizontal,none,none
1a,1,100140,3,53,181,21,M,NA,variable,heterogeneous,3,present,0.929630994796753,1,horizontal,horizontal,1,0.788231846071639,green,2,3,1041.10723677783,683.019879386575,751.343706178981,349.685068220846,607.549057043193,767.295052392579,1041.10723677783,683.019879386575,751.343706178981,349.685068220846,0,0,0,0,0,0,3,4,3,NaN,NaN,NaN,vertical,horizontal,horizontal,none,none,none
1a,1,100140,3,54,182,21,M,NA,variable,heterogeneous,4,present,0.870059013366699,1,vertical,vertical,1,0.670586942276865,green,2,1,1048.46436652023,542.637481142314,857.362518857686,848.464366520235,857.362518857686,848.464366520235,1048.46436652023,542.637481142314,742.637481142314,351.535633479765,551.535633479765,657.362518857686,0,0,0,0,3,4,6,3,NaN,NaN,vertical,vertical,vertical,horizontal,none,none
1a,1,100140,3,55,183,21,M,NA,variable,heterogeneous,5,present,1.78520822525024,1,horizontal,horizontal,1,0.682351432656342,red,4,1,586.139005173917,461.117046071168,891.383827134052,838.063008756786,891.383827134052,838.063008756786,1054.65053136242,586.654331158049,865.998856501143,353.688914296288,586.139005173917,461.117046071168,601.827779828472,760.476699717708,0,0,6,5,3,4,6,NaN,vertical,horizontal,horizontal,horizontal,horizontal,none
1a,1,100140,3,56,184,21,M,NA,variable,heterogeneous,4,present,0.946533918380737,1,horizontal,horizontal,1,1.08234410555858,red,4,3,565.271262369628,500.363562235235,899.636437764765,365.271262369628,700.363562235235,834.728737630372,1034.72873763037,699.636437764765,899.636437764765,365.271262369628,565.271262369628,500.363562235235,0,0,0,0,5,5,0,4,NaN,NaN,horizontal,horizontal,horizontal,horizontal,none,none
1a,1,100140,3,57,185,21,M,NA,variable,heterogeneous,6,present,0.981158018112183,1,vertical,vertical,1,0.964699201763801,green,1,3,915.767577433584,827.206663668034,938.882953928832,386.139005173917,915.767577433584,827.206663668034,1054.65053136242,613.345668841951,938.882953928832,386.139005173917,684.232422566416,372.793336331966,545.349468637584,586.654331158049,661.117046071168,813.860994826083,4,3,3,5,0,6,vertical,vertical,vertical,horizontal,vertical,horizontal
1a,1,100140,3,58,186,21,M,NA,variable,heterogeneous,4,present,1.58877897262573,1,vertical,vertical,1,0.788231846071639,red,2,1,1013.86099482608,461.117046071168,938.882953928832,813.860994826083,938.882953928832,813.860994826083,1013.86099482608,461.117046071168,661.117046071168,386.139005173917,586.139005173917,738.882953928832,0,0,0,0,6,4,3,5,NaN,NaN,vertical,vertical,vertical,vertical,none,none
1a,1,100140,3,59,187,21,M,NA,variable,heterogeneous,5,absent,1.28002119064331,1,vertical,vertical,1,0.964699201763801,red,4,NaN,579.163522034968,472.5,NaN,NaN,903.717843984329,832.954091698863,1053.60308331891,573.345241866748,853.017481158529,350.57236181288,579.163522034968,472.5,610.498069503264,770.628304621509,0,0,5,0,3,4,6,NaN,horizontal,vertical,vertical,vertical,horizontal,none
1a,1,100140,3,60,188,21,M,NA,variable,heterogeneous,6,present,1.07370495796204,1,vertical,vertical,1,0.988228182522756,green,3,6,953.462830903772,396.34794493794,646.537169096228,803.65205506206,899.636437764765,834.728737630372,1053.09926866854,631.076682568313,953.462830903772,396.34794493794,700.363562235235,365.271262369628,546.900731331463,568.923317431687,646.537169096228,803.65205506206,6,3,4,5,0,0,horizontal,horizontal,vertical,horizontal,vertical,vertical
1a,1,100140,3,61,189,21,M,NA,variable,heterogeneous,4,absent,1.71447491645813,1,horizontal,horizontal,1,0.964699201763801,red,1,NaN,729.712474266665,845.121732464271,NaN,NaN,729.712474266665,845.121732464271,1045.12173246427,670.287525733335,870.287525733335,354.878267535729,554.878267535729,529.712474266665,0,0,0,0,4,6,0,5,NaN,NaN,horizontal,horizontal,vertical,horizontal,none,none
1a,1,100140,3,62,190,21,M,NA,variable,heterogeneous,6,absent,1.65479421615601,1,horizontal,horizontal,1,0.69411592303582,green,2,NaN,946.261991269517,808.883771293693,NaN,NaN,692.232343256122,831.108485694346,946.261991269517,808.883771293693,1054.0296480134,577.775285599347,907.767656743878,368.891514305654,653.738008730483,391.116228706307,545.970351986605,622.224714400653,5,4,3,6,3,6,horizontal,horizontal,horizontal,horizontal,vertical,horizontal
1a,1,100140,3,63,191,21,M,NA,variable,heterogeneous,5,present,1.03750991821289,1,vertical,vertical,1,0.670586942276865,red,2,3,986.495193912888,773.909581815937,1023.02802532055,476.373546837184,692.232343256122,831.108485694346,986.495193912888,773.909581815937,1023.02802532055,476.373546837184,751.343706178981,349.685068220846,546.900731331463,568.923317431687,0,0,3,4,6,6,0,NaN,horizontal,vertical,vertical,horizontal,vertical,none
1a,1,100140,3,64,192,21,M,NA,variable,heterogeneous,4,absent,0.94549298286438,1,vertical,vertical,1,0.741173884553729,red,2,NaN,1053.09926866854,631.076682568313,NaN,NaN,768.923317431687,853.099268668537,1053.09926866854,631.076682568313,831.076682568313,346.900731331463,546.900731331463,568.923317431687,0,0,0,0,0,4,3,5,NaN,NaN,horizontal,vertical,horizontal,vertical,none,none
1a,1,100140,4,1,193,21,M,NA,variable,heterogeneous,5,present,1.30120396614075,1,horizontal,horizontal,1,0.705880413415297,red,5,2,549.685068220846,648.656293821019,1031.10848569435,707.767656743878,768.923317431687,853.099268668537,1031.10848569435,707.767656743878,973.909581815937,413.504806087112,676.373546837184,376.971974679454,549.685068220846,648.656293821019,0,0,5,5,6,6,4,NaN,horizontal,vertical,horizontal,horizontal,horizontal,none
1a,1,100140,4,2,194,21,M,NA,variable,heterogeneous,6,absent,0.984899044036865,1,vertical,vertical,1,0.882347769107459,red,1,NaN,777.775285599347,854.029648013395,NaN,NaN,777.775285599347,854.029648013395,1008.88377129369,746.261991269517,1031.10848569435,492.232343256122,822.224714400653,345.970351986605,591.116228706307,453.738008730483,568.891514305654,707.767656743878,4,6,5,0,6,0,vertical,horizontal,horizontal,vertical,horizontal,vertical
1a,1,100140,4,3,195,21,M,NA,variable,heterogeneous,6,present,1.56986784934998,1,vertical,vertical,1,0.858818788348504,red,4,5,692.232343256122,368.891514305654,545.970351986605,577.775285599347,907.767656743878,831.108485694346,1054.0296480134,622.224714400653,946.261991269517,391.116228706307,692.232343256122,368.891514305654,545.970351986605,577.775285599347,653.738008730483,808.883771293693,6,5,0,4,3,6,horizontal,vertical,horizontal,vertical,horizontal,vertical
1a,1,100140,4,4,196,21,M,NA,variable,heterogeneous,5,absent,0.802450895309448,1,vertical,vertical,1,0.64705796151791,green,4,NaN,700.363562235235,365.271262369628,NaN,NaN,742.637481142314,848.464366520235,1018.57766167904,731.334709102064,992.450942956807,432.704947607421,700.363562235235,365.271262369628,545.970351986605,622.224714400653,0,0,6,3,5,4,0,NaN,horizontal,vertical,horizontal,vertical,vertical,none
1a,1,100140,4,5,197,21,M,NA,variable,heterogeneous,3,present,1.03147411346436,1,vertical,vertical,1,0.847054297969026,red,1,2,646.537169096228,803.65205506206,1053.09926866854,631.076682568313,646.537169096228,803.65205506206,1053.09926866854,631.076682568313,700.363562235235,365.271262369628,0,0,0,0,0,0,4,0,0,NaN,NaN,NaN,vertical,horizontal,vertical,none,none,none
1a,1,100140,4,6,198,21,M,NA,variable,heterogeneous,5,present,0.941723108291626,1,horizontal,horizontal,1,0.670586942276865,green,4,3,760.109211414741,348.13947314824,1027.20666366803,484.232422566416,684.232422566416,827.206663668034,980.31222920257,780.31222920257,1027.20666366803,484.232422566416,760.109211414741,348.13947314824,548.13947314824,560.109211414741,0,0,5,0,3,4,6,NaN,horizontal,vertical,vertical,horizontal,vertical,none
1a,1,100140,4,7,199,21,M,NA,variable,heterogeneous,6,present,1.09415793418884,1,vertical,vertical,1,1.0705796151791,green,4,6,704.475318678942,363.568117085469,643.006323791957,800.942742169714,895.524681321058,836.431882914531,1052.5183575291,635.489140744817,956.993676208043,399.057257830286,704.475318678942,363.568117085469,547.481642470899,564.510859255183,643.006323791957,800.942742169714,3,0,6,4,5,3,vertical,vertical,vertical,vertical,horizontal,vertical
1a,1,100140,4,8,200,21,M,NA,variable,heterogeneous,4,absent,0.9859938621521,1,vertical,vertical,1,1.08234410555858,green,4,NaN,588.595418998464,742.594190385041,NaN,NaN,942.594190385041,811.404581001536,1011.40458100154,457.40580961496,657.405809614959,388.595418998464,588.595418998464,742.594190385041,0,0,0,0,0,6,6,4,NaN,NaN,vertical,horizontal,vertical,vertical,none,none
1a,1,100140,4,9,201,21,M,NA,variable,heterogeneous,6,absent,1.51191401481628,1,horizontal,horizontal,1,0.69411592303582,green,3,NaN,986.495193912888,426.090418184063,NaN,NaN,857.362518857686,848.464366520235,1043.85771277057,674.554784704298,986.495193912888,426.090418184063,742.637481142314,351.535633479765,556.142287229426,525.445215295702,613.504806087112,773.909581815937,5,3,4,0,5,3,vertical,horizontal,horizontal,horizontal,horizontal,vertical
1a,1,100140,4,10,202,21,M,NA,variable,heterogeneous,4,absent,1.34311485290527,1,horizontal,horizontal,1,0.635293471138432,green,3,NaN,782.212099195248,345.621167183745,NaN,NaN,817.787900804752,854.378832816255,1054.37883281626,582.212099195248,782.212099195248,345.621167183745,545.621167183745,617.787900804752,0,0,0,0,0,5,4,3,NaN,NaN,vertical,horizontal,horizontal,vertical,none,none
1a,1,100140,4,11,203,21,M,NA,variable,heterogeneous,4,absent,1.10620903968811,1,vertical,vertical,1,0.611764490379477,red,4,NaN,607.549057043193,767.295052392579,NaN,NaN,967.295052392579,792.450942956807,992.450942956807,432.704947607421,632.704947607421,407.549057043193,607.549057043193,767.295052392579,0,0,0,0,6,0,3,4,NaN,NaN,horizontal,vertical,vertical,vertical,none,none
1a,1,100140,4,12,204,21,M,NA,variable,heterogeneous,4,present,1.01847004890442,1,horizontal,horizontal,1,1.08234410555858,green,4,2,619.68777079743,419.68777079743,980.31222920257,780.31222920257,619.68777079743,780.31222920257,980.31222920257,780.31222920257,980.31222920257,419.68777079743,619.68777079743,419.68777079743,0,0,0,0,0,6,5,4,NaN,NaN,vertical,vertical,horizontal,horizontal,none,none
1a,1,100140,4,13,205,21,M,NA,variable,heterogeneous,5,absent,1.1021089553833,1,vertical,vertical,1,0.764702865312684,red,1,NaN,680.284751489598,825.151636179026,NaN,NaN,680.284751489598,825.151636179026,977.137884467044,783.431649086356,1029.19248180629,488.215357568785,764.510859255183,347.4816424709,548.874022981887,555.719714694933,0,0,4,5,3,5,0,NaN,vertical,horizontal,horizontal,horizontal,vertical,none
1a,1,100140,4,14,206,21,M,NA,variable,heterogeneous,5,present,1.09787702560425,1,vertical,vertical,1,0.882347769107459,red,4,5,586.139005173917,461.117046071168,601.827779828472,760.476699717708,891.383827134052,838.063008756786,1054.65053136242,586.654331158049,865.998856501143,353.688914296288,586.139005173917,461.117046071168,601.827779828472,760.476699717708,0,0,3,0,0,4,6,NaN,vertical,vertical,vertical,vertical,vertical,none
1a,1,100140,4,15,207,21,M,NA,variable,heterogeneous,5,absent,1.6080539226532,1,horizontal,horizontal,1,0.799996336451117,red,5,NaN,557.480588344736,521.200666434388,NaN,NaN,650.114760665419,806.299333565612,949.885239334581,806.299333565612,1042.51941165526,521.200666434388,800,345,557.480588344736,521.200666434388,0,0,5,6,3,5,4,NaN,vertical,horizontal,horizontal,vertical,horizontal,none
1a,1,100140,4,16,208,21,M,NA,variable,heterogeneous,5,absent,0.87165904045105,1,vertical,vertical,1,0.964699201763801,red,3,NaN,1042.51941165526,521.200666434388,NaN,NaN,650.114760665419,806.299333565612,949.885239334581,806.299333565612,1042.51941165526,521.200666434388,800,345,557.480588344736,521.200666434388,0,0,3,6,4,0,0,NaN,horizontal,horizontal,vertical,vertical,horizontal,none
1a,1,100140,4,17,209,21,M,NA,variable,heterogeneous,3,absent,0.97192907333374,1,horizontal,horizontal,1,0.729409394174252,green,1,NaN,734.001143498857,846.311085703712,NaN,NaN,734.001143498857,846.311085703712,1046.31108570371,534.001143498857,619.68777079743,419.68777079743,0,0,0,0,0,0,4,0,6,NaN,NaN,NaN,horizontal,horizontal,vertical,none,none,none
1a,1,100140,4,18,210,21,M,NA,variable,heterogeneous,3,absent,0.820868968963623,1,horizontal,horizontal,1,0.870583278727981,red,1,NaN,878.799333565612,842.519411655264,NaN,NaN,878.799333565612,842.519411655264,970.628304621509,410.498069503264,550.57236181288,546.982518841471,0,0,0,0,0,0,4,5,3,NaN,NaN,NaN,horizontal,vertical,horizontal,none,none,none
1a,1,100140,4,19,211,21,M,NA,variable,heterogeneous,4,absent,1.2957718372345,1,vertical,vertical,1,0.717644903794774,green,2,NaN,1034.72873763037,699.636437764765,NaN,NaN,700.363562235235,834.728737630372,1034.72873763037,699.636437764765,899.636437764765,365.271262369628,565.271262369628,500.363562235235,0,0,0,0,3,4,5,6,NaN,NaN,vertical,vertical,horizontal,horizontal,none,none
1a,1,100140,4,20,212,21,M,NA,variable,heterogeneous,3,absent,0.776845932006836,1,vertical,vertical,1,0.941170221004846,green,1,NaN,586.139005173917,738.882953928832,NaN,NaN,586.139005173917,738.882953928832,1027.20666366803,715.767577433584,786.654331158049,345.349468637584,0,0,0,0,0,0,4,0,3,NaN,NaN,NaN,vertical,horizontal,horizontal,none,none,none
1a,1,100140,4,21,213,21,M,NA,variable,heterogeneous,5,present,1.11836290359497,1,horizontal,horizontal,1,0.69411592303582,green,4,1,773.345241866748,346.39691668109,672.5,820.836477965032,672.5,820.836477965032,970.628304621509,789.501930496736,1032.95409169886,496.282156015671,773.345241866748,346.39691668109,550.57236181288,546.982518841471,0,0,6,3,0,4,0,NaN,horizontal,vertical,horizontal,horizontal,vertical,none
1a,1,100140,4,22,214,21,M,NA,variable,heterogeneous,5,absent,NaN,0,horizontal,none,0,0.741173884553729,green,2,NaN,960.476699717708,798.172220171528,NaN,NaN,661.117046071168,813.860994826083,960.476699717708,798.172220171528,1038.06300875679,508.616172865948,786.654331158049,345.349468637584,553.688914296288,534.001143498857,0,0,6,4,6,0,5,NaN,vertical,horizontal,vertical,vertical,horizontal,none
1a,1,100140,4,23,215,21,M,NA,variable,heterogeneous,4,absent,0.960114002227783,1,vertical,vertical,1,1.01175716328171,red,4,NaN,576.971974679454,723.626453162816,NaN,NaN,923.626453162816,823.028025320546,1023.02802532055,476.373546837184,676.373546837184,376.971974679454,576.971974679454,723.626453162816,0,0,0,0,6,3,0,4,NaN,NaN,vertical,horizontal,vertical,vertical,none,none
1a,1,100140,4,24,216,21,M,NA,variable,heterogeneous,6,absent,1.26438498497009,1,vertical,vertical,1,0.635293471138432,red,6,NaN,552.574589799621,661.690083377915,NaN,NaN,729.712474266665,845.121732464271,977.137884467044,783.431649086356,1047.42541020038,538.309916622085,870.287525733335,354.878267535729,622.862115532956,416.568350913644,552.574589799621,661.690083377915,3,0,6,5,3,4,horizontal,vertical,vertical,vertical,vertical,vertical
1a,1,100140,4,25,217,21,M,NA,variable,heterogeneous,6,absent,1.16571402549744,1,vertical,vertical,1,0.988228182522756,green,4,NaN,899.636437764765,365.271262369628,NaN,NaN,700.363562235235,834.728737630372,953.462830903772,803.65205506206,1053.09926866854,568.923317431687,899.636437764765,365.271262369628,646.537169096228,396.34794493794,546.900731331463,631.076682568313,6,3,5,4,0,5,vertical,vertical,horizontal,vertical,vertical,vertical
1a,1,100140,4,26,218,21,M,NA,variable,heterogeneous,5,absent,1.00519585609436,1,vertical,vertical,1,0.6,green,4,NaN,593.700666434388,450.114760665419,NaN,NaN,878.799333565612,842.519411655264,1055,600,878.799333565612,357.480588344736,593.700666434388,450.114760665419,593.700666434388,749.885239334581,0,0,3,5,6,4,0,NaN,vertical,horizontal,vertical,vertical,horizontal,none
1a,1,100140,4,27,219,21,M,NA,variable,heterogeneous,5,absent,1.23875093460083,1,horizontal,horizontal,1,0.658822451897387,green,5,NaN,568.891514305654,707.767656743878,NaN,NaN,831.076682568313,853.099268668537,1050.31493177915,648.656293821019,923.626453162816,376.971974679454,626.090418184063,413.504806087112,568.891514305654,707.767656743878,0,0,5,3,0,0,4,NaN,vertical,horizontal,vertical,horizontal,horizontal,none
1a,1,100140,4,28,220,21,M,NA,variable,heterogeneous,3,absent,0.739481925964355,1,vertical,vertical,1,0.788231846071639,green,3,NaN,721.200666434388,357.480588344736,NaN,NaN,629.371695378491,789.501930496736,1049.42763818712,653.017481158529,721.200666434388,357.480588344736,0,0,0,0,0,0,0,5,4,NaN,NaN,NaN,vertical,horizontal,vertical,none,none,none
1a,1,100140,4,29,221,21,M,NA,variable,heterogeneous,4,present,1.19891095161438,1,vertical,vertical,1,0.623528980758955,green,1,3,791.100628340862,854.844660889869,808.899371659138,345.155339110131,791.100628340862,854.844660889869,1054.84466088987,608.899371659138,808.899371659138,345.155339110131,545.155339110131,591.100628340862,0,0,0,0,4,5,0,5,NaN,NaN,vertical,vertical,vertical,horizontal,none,none
1a,1,100140,4,30,222,21,M,NA,variable,heterogeneous,5,absent,0.786636114120483,1,horizontal,horizontal,1,0.976463692143278,red,1,NaN,668.665290897936,818.577661679039,NaN,NaN,668.665290897936,818.577661679039,967.295052392579,792.450942956807,1034.72873763037,500.363562235235,777.775285599347,345.970351986605,551.535633479765,542.637481142314,0,0,4,6,3,0,0,NaN,horizontal,vertical,horizontal,vertical,vertical,none
1a,1,100140,4,31,223,21,M,NA,variable,heterogeneous,4,present,0.815865993499756,1,vertical,vertical,1,1.0705796151791,green,1,4,931.334709102064,818.577661679039,581.422338320961,731.334709102064,931.334709102064,818.577661679039,1018.57766167904,468.665290897936,668.665290897936,381.422338320961,581.422338320961,731.334709102064,0,0,0,0,4,0,5,0,NaN,NaN,vertical,horizontal,vertical,horizontal,none,none
1a,1,100140,4,32,224,21,M,NA,variable,heterogeneous,3,present,0.854864120483398,0,horizontal,vertical,1,0.929405730625368,red,1,2,588.595418998464,742.594190385041,1029.19248180629,711.784642431215,588.595418998464,742.594190385041,1029.19248180629,711.784642431215,782.212099195248,345.621167183745,0,0,0,0,0,0,4,0,3,NaN,NaN,NaN,horizontal,vertical,vertical,none,none,none
1a,1,100140,4,33,225,21,M,NA,variable,heterogeneous,6,absent,1.1787281036377,1,vertical,vertical,1,0.929405730625368,green,1,NaN,738.309916622085,847.425410200379,NaN,NaN,738.309916622085,847.425410200379,983.431649086356,777.137884467044,1045.12173246427,529.712474266665,861.690083377915,352.574589799621,616.568350913644,422.862115532956,554.878267535729,670.287525733335,4,3,6,0,5,3,vertical,horizontal,horizontal,horizontal,horizontal,horizontal
1a,1,100140,4,34,226,21,M,NA,variable,heterogeneous,4,absent,1.38388395309448,1,horizontal,horizontal,1,0.670586942276865,green,1,NaN,664.870587620533,816.252264519889,NaN,NaN,664.870587620533,816.252264519889,1016.25226451989,735.129412379467,935.129412379467,383.747735480111,583.747735480111,464.870587620533,0,0,0,0,4,0,6,5,NaN,NaN,horizontal,horizontal,horizontal,vertical,none,none
1a,1,100140,4,35,227,21,M,NA,variable,heterogeneous,5,present,1.60700106620789,1,vertical,vertical,1,0.964699201763801,green,4,1,791.100628340862,345.155339110131,657.405809614959,811.404581001536,657.405809614959,811.404581001536,956.993676208043,800.942742169714,1039.62161830041,512.784863451954,791.100628340862,345.155339110131,554.878267535729,529.712474266665,0,0,3,0,5,4,6,NaN,vertical,horizontal,horizontal,vertical,vertical,none
1a,1,100140,4,36,228,21,M,NA,variable,heterogeneous,3,present,0.967571020126343,1,vertical,vertical,1,1.01175716328171,green,1,2,1003.65205506206,753.462830903772,831.076682568313,346.900731331463,1003.65205506206,753.462830903772,831.076682568313,346.900731331463,565.271262369628,699.636437764765,0,0,0,0,0,0,4,3,5,NaN,NaN,NaN,vertical,vertical,horizontal,none,none,none
1a,1,100140,4,37,229,21,M,NA,variable,heterogeneous,6,absent,1.99542784690857,1,horizontal,horizontal,1,0.811760826830594,red,1,NaN,826.654758133252,853.60308331891,NaN,NaN,826.654758133252,853.60308331891,1032.95409169886,703.717843984329,1006.29933356561,450.114760665419,773.345241866748,346.39691668109,567.045908301137,496.282156015671,593.700666434388,749.885239334581,4,6,0,3,6,3,horizontal,horizontal,horizontal,horizontal,horizontal,horizontal
1a,1,100140,4,38,230,21,M,NA,variable,heterogeneous,3,present,0.94136381149292,1,horizontal,horizontal,1,0.894112259486936,green,1,3,986.495193912888,773.909581815937,556.142287229426,674.554784704298,986.495193912888,773.909581815937,857.362518857686,351.535633479765,556.142287229426,674.554784704298,0,0,0,0,0,0,4,0,0,NaN,NaN,NaN,horizontal,vertical,horizontal,none,none,none
1a,1,100140,4,39,231,21,M,NA,variable,heterogeneous,3,present,0.89441990852356,1,horizontal,horizontal,1,0.69411592303582,green,1,2,1013.86099482608,738.882953928832,813.345668841951,345.349468637584,1013.86099482608,738.882953928832,813.345668841951,345.349468637584,572.793336331966,715.767577433584,0,0,0,0,0,0,4,3,6,NaN,NaN,NaN,horizontal,vertical,horizontal,none,none,none
1a,1,100140,4,40,232,21,M,NA,variable,heterogeneous,3,absent,0.775285005569458,1,horizontal,horizontal,1,0.941170221004846,red,1,NaN,593.700666434388,749.885239334581,NaN,NaN,593.700666434388,749.885239334581,1032.95409169886,703.717843984329,773.345241866748,346.39691668109,0,0,0,0,0,0,4,0,6,NaN,NaN,NaN,horizontal,vertical,horizontal,none,none,none
1a,1,100140,4,41,233,21,M,NA,variable,heterogeneous,4,present,1.06384491920471,1,vertical,vertical,1,1.03528614404067,red,4,2,604.658667004661,436.089159529932,995.341332995339,763.910840470068,636.089159529932,795.341332995339,995.341332995339,763.910840470068,963.910840470068,404.658667004661,604.658667004661,436.089159529932,0,0,0,0,3,0,6,4,NaN,NaN,horizontal,horizontal,horizontal,vertical,none,none
1a,1,100140,4,42,234,21,M,NA,variable,heterogeneous,6,absent,1.27570199966431,1,horizontal,horizontal,1,0.717644903794774,green,5,NaN,545.155339110131,591.100628340862,NaN,NaN,919.715248510402,825.151636179026,1054.84466088987,608.899371659138,935.129412379467,383.747735480111,680.284751489598,374.848363820974,545.155339110131,591.100628340862,664.870587620533,816.252264519889,0,5,6,0,4,5,horizontal,vertical,horizontal,vertical,horizontal,horizontal
1a,1,100140,4,43,235,21,M,NA,variable,heterogeneous,6,present,1.7415919303894,1,vertical,vertical,1,0.811760826830594,green,6,2,629.371695378491,789.501930496736,1049.42763818712,653.017481158529,878.799333565612,842.519411655264,1049.42763818712,653.017481158529,970.628304621509,410.498069503264,721.200666434388,357.480588344736,550.57236181288,546.982518841471,629.371695378491,789.501930496736,0,3,6,5,6,4,vertical,horizontal,horizontal,horizontal,horizontal,vertical
1a,1,100140,4,44,236,21,M,NA,variable,heterogeneous,4,absent,1.96896696090698,1,horizontal,horizontal,1,0.611764490379477,red,4,NaN,549.685068220846,648.656293821019,NaN,NaN,848.656293821019,850.314931779154,1050.31493177915,551.343706178981,751.343706178981,349.685068220846,549.685068220846,648.656293821019,0,0,0,0,0,3,6,4,NaN,NaN,vertical,vertical,vertical,horizontal,none,none
1a,1,100140,4,45,237,21,M,NA,variable,heterogeneous,6,present,1.42458319664001,1,horizontal,horizontal,1,0.999992672902233,red,6,1,646.537169096228,803.65205506206,899.636437764765,834.728737630372,899.636437764765,834.728737630372,1053.09926866854,631.076682568313,953.462830903772,396.34794493794,700.363562235235,365.271262369628,546.900731331463,568.923317431687,646.537169096228,803.65205506206,0,3,0,6,6,4,horizontal,vertical,vertical,vertical,horizontal,horizontal
1a,1,100140,4,46,238,21,M,NA,variable,heterogeneous,6,present,NaN,0,horizontal,none,0,0.835289807589549,red,1,3,907.767656743878,831.108485694346,946.261991269517,391.116228706307,907.767656743878,831.108485694346,1054.0296480134,622.224714400653,946.261991269517,391.116228706307,692.232343256122,368.891514305654,545.970351986605,577.775285599347,653.738008730483,808.883771293693,4,3,3,6,6,5,horizontal,vertical,vertical,vertical,vertical,vertical
1a,1,100140,4,47,239,21,M,NA,variable,heterogeneous,4,present,0.705682992935181,0,horizontal,vertical,1,0.964699201763801,red,3,2,960.476699717708,401.827779828472,998.172220171528,760.476699717708,639.523300282292,798.172220171528,998.172220171528,760.476699717708,960.476699717708,401.827779828472,601.827779828472,439.523300282291,0,0,0,0,5,3,4,5,NaN,NaN,vertical,horizontal,horizontal,vertical,none,none
1a,1,100140,4,48,240,21,M,NA,variable,heterogeneous,3,absent,0.83222508430481,1,vertical,vertical,1,0.611764490379477,red,3,NaN,768.923317431687,346.900731331463,NaN,NaN,596.34794493794,753.462830903772,1034.72873763037,699.636437764765,768.923317431687,346.900731331463,0,0,0,0,0,0,3,0,4,NaN,NaN,NaN,vertical,horizontal,vertical,none,none,none
1a,1,100140,4,49,241,21,M,NA,variable,heterogeneous,6,present,1.39889883995056,1,horizontal,horizontal,1,1.09410859593805,green,5,6,565.271262369628,500.363562235235,596.34794493794,753.462830903772,831.076682568313,853.099268668537,1034.72873763037,699.636437764765,1003.65205506206,446.537169096228,768.923317431687,346.900731331463,565.271262369628,500.363562235235,596.34794493794,753.462830903772,0,5,6,3,4,6,horizontal,horizontal,horizontal,vertical,horizontal,horizontal
1a,1,100140,4,50,242,21,M,NA,variable,heterogeneous,6,present,1.2544949054718,1,vertical,vertical,1,0.764702865312684,red,4,5,672.5,379.163522034968,545,600,927.5,820.836477965032,1055,600,927.5,379.163522034968,672.5,379.163522034968,545,600,672.5,820.836477965032,0,0,5,4,3,3,horizontal,horizontal,vertical,vertical,vertical,vertical
1a,1,100140,4,51,243,21,M,NA,variable,heterogeneous,4,present,1.41833996772766,1,horizontal,horizontal,1,0.929405730625368,green,1,2,672.5,820.836477965032,1020.83647796503,727.5,672.5,820.836477965032,1020.83647796503,727.5,927.5,379.163522034968,579.163522034968,472.5,0,0,0,0,4,0,6,3,NaN,NaN,horizontal,horizontal,horizontal,vertical,none,none
1a,1,100140,4,52,244,21,M,NA,variable,heterogeneous,4,present,1.56283903121948,0,horizontal,vertical,1,0.799996336451117,red,3,2,777.775285599347,345.970351986605,1054.0296480134,577.775285599347,822.224714400653,854.029648013395,1054.0296480134,577.775285599347,777.775285599347,345.970351986605,545.970351986605,622.224714400653,0,0,0,0,0,5,4,5,NaN,NaN,vertical,horizontal,horizontal,vertical,none,none
