experiment,subject,uniqueID,block,trial,trial_cumulative,age,gender,color_cond_blocking,color_history,shape_type,set_size,distractor,rt,acc,target_orient,response_key,response_made,iti,target_color,target_item,distractor_item,target_X,target_Y,distractor_X,distractor_Y,item1_X,item1_Y,item2_X,item2_Y,item3_X,item3_Y,item4_X,item4_Y,item5_X,item5_Y,item6_X,item6_Y,item1_shape,item2_shape,item3_shape,item4_shape,item5_shape,item6_shape,item1_line,item2_line,item3_line,item4_line,item5_line,item6_line
1a,20,100182,1,1,1,19,F,NA,variable,heterogeneous,3,absent,1.0516140460968,1,vertical,vertical,1,0.788228535202314,green,1,NaN,591.116228706307,746.261991269517,NaN,NaN,591.116228706307,746.261991269517,1031.10848569435,707.767656743878,777.775285599347,345.970351986605,0,0,0,0,0,0,4,5,3,NaN,NaN,NaN,vertical,vertical,horizontal,none,none,none
1a,20,100182,1,2,2,19,F,NA,variable,heterogeneous,3,absent,1.19939923286438,1,vertical,vertical,1,0.952928503504339,green,2,NaN,1023.02802532055,476.373546837184,NaN,NaN,795.549636358493,854.96116226488,1023.02802532055,476.373546837184,581.422338320961,468.665290897936,0,0,0,0,0,0,3,4,5,NaN,NaN,NaN,horizontal,vertical,vertical,none,none,none
1a,20,100182,1,3,3,19,F,NA,variable,heterogeneous,5,present,1.0475161075592,1,vertical,vertical,1,0.788228535202314,red,3,2,973.909581815937,413.504806087112,1031.10848569435,707.767656743878,768.923317431687,853.099268668537,1031.10848569435,707.767656743878,973.909581815937,413.504806087112,676.373546837184,376.971974679454,549.685068220846,648.656293821019,0,0,0,5,4,6,3,NaN,vertical,vertical,vertical,horizontal,horizontal,none
1a,20,100182,1,4,4,19,F,NA,variable,heterogeneous,4,absent,1.19414091110229,1,horizontal,horizontal,1,1.05880705455564,red,4,NaN,616.568350913644,777.137884467044,NaN,NaN,977.137884467044,783.431649086356,983.431649086356,422.862115532956,622.862115532956,416.568350913644,616.568350913644,777.137884467044,0,0,0,0,0,6,3,4,NaN,NaN,vertical,horizontal,vertical,horizontal,none,none
1a,20,100182,1,5,5,19,F,NA,variable,heterogeneous,6,absent,1.71162891387939,1,horizontal,horizontal,1,0.882342802803471,green,2,NaN,989.501930496736,770.628304621509,NaN,NaN,746.982518841471,849.42763818712,989.501930496736,770.628304621509,1042.51941165526,521.200666434388,853.017481158529,350.57236181288,610.498069503264,429.371695378491,557.480588344736,678.799333565612,6,4,5,0,3,6,vertical,horizontal,horizontal,horizontal,vertical,vertical
1a,20,100182,1,6,6,19,F,NA,variable,heterogeneous,5,present,1.59929299354553,1,vertical,vertical,1,0.858814235903182,red,4,1,676.373546837184,376.971974679454,768.923317431687,853.099268668537,768.923317431687,853.099268668537,1031.10848569435,707.767656743878,973.909581815937,413.504806087112,676.373546837184,376.971974679454,549.685068220846,648.656293821019,0,0,5,0,5,4,6,NaN,vertical,horizontal,vertical,vertical,vertical,none
1a,20,100182,1,7,7,19,F,NA,variable,heterogeneous,3,absent,1.19596409797668,1,horizontal,horizontal,1,0.823521385552748,green,2,NaN,1053.09926866854,631.076682568313,NaN,NaN,646.537169096228,803.65205506206,1053.09926866854,631.076682568313,700.363562235235,365.271262369628,0,0,0,0,0,0,3,4,3,NaN,NaN,NaN,vertical,horizontal,vertical,none,none,none
1a,20,100182,1,8,8,19,F,NA,variable,heterogeneous,4,present,1.32850694656372,1,horizontal,horizontal,1,0.635292850350434,green,1,2,786.654331158049,854.650531362416,1054.65053136242,613.345668841951,786.654331158049,854.650531362416,1054.65053136242,613.345668841951,813.345668841951,345.349468637584,545.349468637584,586.654331158049,0,0,0,0,4,0,5,3,NaN,NaN,horizontal,horizontal,horizontal,vertical,none,none
1a,20,100182,1,9,9,19,F,NA,variable,heterogeneous,5,absent,1.11911988258362,1,vertical,vertical,1,0.764699968302025,red,3,NaN,977.137884467044,416.568350913644,NaN,NaN,764.510859255183,852.518357529101,1029.19248180629,711.784642431215,977.137884467044,416.568350913644,680.284751489598,374.848363820974,548.874022981887,644.280285305067,0,0,5,3,4,3,0,NaN,vertical,vertical,vertical,horizontal,horizontal,none
1a,20,100182,1,10,10,19,F,NA,variable,heterogeneous,5,present,0.909824848175049,1,horizontal,horizontal,1,0.823521385552748,green,5,4,545.621167183745,617.787900804752,704.475318678942,363.568117085469,738.309916622085,847.425410200379,1016.25226451989,735.129412379467,995.341332995339,436.089159529932,704.475318678942,363.568117085469,545.621167183745,617.787900804752,0,0,5,0,6,0,4,NaN,horizontal,horizontal,horizontal,horizontal,horizontal,none
1a,20,100182,1,11,11,19,F,NA,variable,heterogeneous,4,absent,0.957030057907104,1,vertical,vertical,1,0.835285669002893,red,2,NaN,998.172220171528,760.476699717708,NaN,NaN,639.523300282292,798.172220171528,998.172220171528,760.476699717708,960.476699717708,401.827779828472,601.827779828472,439.523300282291,0,0,0,0,6,4,6,5,NaN,NaN,vertical,vertical,horizontal,horizontal,none,none
1a,20,100182,1,12,12,19,F,NA,variable,heterogeneous,4,absent,0.800294876098633,1,horizontal,horizontal,1,0.999985637304918,red,2,NaN,1053.60308331891,573.345241866748,NaN,NaN,826.654758133252,853.60308331891,1053.60308331891,573.345241866748,773.345241866748,346.39691668109,546.39691668109,626.654758133252,0,0,0,0,0,4,3,5,NaN,NaN,vertical,horizontal,vertical,horizontal,none,none
1a,20,100182,1,13,13,19,F,NA,variable,heterogeneous,6,present,1.4111180305481,0,vertical,horizontal,1,0.92939993660405,red,4,2,734.001143498857,353.688914296288,1046.31108570371,665.998856501143,865.998856501143,846.311085703712,1046.31108570371,665.998856501143,980.31222920257,419.68777079743,734.001143498857,353.688914296288,553.688914296288,534.001143498857,619.68777079743,780.31222920257,3,6,3,4,0,5,vertical,vertical,vertical,vertical,vertical,vertical
1a,20,100182,1,14,14,19,F,NA,variable,heterogeneous,6,absent,1.51150798797607,1,horizontal,horizontal,1,1.01174992075506,red,6,NaN,653.738008730483,808.883771293693,NaN,NaN,907.767656743878,831.108485694346,1054.0296480134,622.224714400653,946.261991269517,391.116228706307,692.232343256122,368.891514305654,545.970351986605,577.775285599347,653.738008730483,808.883771293693,6,3,3,5,0,4,vertical,vertical,vertical,vertical,vertical,horizontal
1a,20,100182,1,15,15,19,F,NA,variable,heterogeneous,6,absent,1.05266094207764,1,vertical,vertical,1,0.717642834501446,green,5,NaN,545,600,NaN,NaN,927.5,820.836477965032,1055,600,927.5,379.163522034968,672.5,379.163522034968,545,600,672.5,820.836477965032,6,3,0,0,4,3,vertical,horizontal,horizontal,horizontal,vertical,vertical
1a,20,100182,1,16,16,19,F,NA,variable,heterogeneous,6,present,1.45029497146606,1,horizontal,horizontal,1,1.02351420420521,green,6,2,657.405809614959,811.404581001536,1054.37883281626,617.787900804752,911.784642431215,829.192481806288,1054.37883281626,617.787900804752,942.594190385041,388.595418998464,688.215357568785,370.807518193712,545.621167183745,582.212099195248,657.405809614959,811.404581001536,3,3,6,0,5,4,vertical,horizontal,vertical,vertical,vertical,horizontal
1a,20,100182,1,17,17,19,F,NA,variable,heterogeneous,5,absent,1.37549591064453,1,horizontal,horizontal,1,0.999985637304918,red,2,NaN,953.462830903772,803.65205506206,NaN,NaN,653.738008730483,808.883771293693,953.462830903772,803.65205506206,1041.10723677783,516.980120613425,795.549636358493,345.03883773512,556.142287229426,525.445215295702,0,0,0,4,0,5,3,NaN,horizontal,horizontal,vertical,vertical,horizontal,none
1a,20,100182,1,18,18,19,F,NA,variable,heterogeneous,5,absent,0.884329080581665,1,horizontal,horizontal,1,0.847049952453037,green,2,NaN,1043.85771277057,525.445215295702,NaN,NaN,946.261991269517,808.883771293693,1043.85771277057,525.445215295702,804.450363641507,345.03883773512,558.892763222174,516.980120613425,646.537169096228,803.65205506206,0,0,6,4,5,0,3,NaN,vertical,horizontal,vertical,horizontal,vertical,none
1a,20,100182,1,19,19,19,F,NA,variable,heterogeneous,3,present,0.548797845840454,1,horizontal,horizontal,1,0.729407117951591,green,2,1,998.172220171528,439.523300282291,839.890788585259,851.86052685176,839.890788585259,851.86052685176,998.172220171528,439.523300282291,561.936991243214,508.616172865948,0,0,0,0,0,0,5,4,0,NaN,NaN,NaN,horizontal,horizontal,horizontal,none,none,none
1a,20,100182,1,20,20,19,F,NA,variable,heterogeneous,6,absent,0.734215021133423,1,horizontal,horizontal,1,0.717642834501446,green,3,NaN,1016.25226451989,464.870587620533,NaN,NaN,808.899371659138,854.844660889869,1025.15163617903,719.715248510402,1016.25226451989,464.870587620533,791.100628340862,345.155339110131,574.848363820974,480.284751489598,583.747735480111,735.129412379467,3,6,4,5,0,3,horizontal,vertical,horizontal,vertical,horizontal,vertical
1a,20,100182,1,21,21,19,F,NA,variable,heterogeneous,4,present,0.724364995956421,1,vertical,vertical,1,0.964692786954484,red,3,1,800,345,800,855,800,855,1055,600,800,345,545,600,0,0,0,0,3,5,4,6,NaN,NaN,vertical,horizontal,vertical,horizontal,none,none
1a,20,100182,1,22,22,19,F,NA,variable,heterogeneous,3,present,0.715930938720703,1,vertical,vertical,1,1.0470427711055,red,3,1,545.03883773512,595.549636358493,923.626453162816,823.028025320546,923.626453162816,823.028025320546,931.334709102064,381.422338320961,545.03883773512,595.549636358493,0,0,0,0,0,0,5,0,4,NaN,NaN,NaN,vertical,horizontal,vertical,none,none,none
1a,20,100182,1,23,23,19,F,NA,variable,heterogeneous,6,present,0.703677177429199,1,vertical,vertical,1,0.870578519353327,green,5,3,607.549057043193,432.704947607421,1041.10723677783,516.980120613425,751.343706178981,850.314931779154,992.450942956807,767.295052392579,1041.10723677783,516.980120613425,848.656293821019,349.685068220846,607.549057043193,432.704947607421,558.892763222174,683.019879386575,0,3,5,5,4,0,horizontal,horizontal,vertical,horizontal,vertical,vertical
1a,20,100182,1,24,24,19,F,NA,variable,heterogeneous,3,present,0.605865001678467,1,vertical,vertical,1,0.799992818652459,green,3,2,570.807518193712,711.784642431215,817.787900804752,345.621167183745,1011.40458100154,742.594190385041,817.787900804752,345.621167183745,570.807518193712,711.784642431215,0,0,0,0,0,0,3,0,4,NaN,NaN,NaN,horizontal,vertical,vertical,none,none,none
1a,20,100182,1,25,25,19,F,NA,variable,heterogeneous,4,present,0.580474853515625,1,horizontal,horizontal,1,0.917635653153905,red,4,3,545.349468637584,586.654331158049,813.345668841951,345.349468637584,786.654331158049,854.650531362416,1054.65053136242,613.345668841951,813.345668841951,345.349468637584,545.349468637584,586.654331158049,0,0,0,0,6,5,0,4,NaN,NaN,horizontal,horizontal,vertical,horizontal,none,none
1a,20,100182,1,26,26,19,F,NA,variable,heterogeneous,6,absent,1.66004300117493,0,horizontal,vertical,1,0.788228535202314,red,1,NaN,721.200666434388,842.519411655264,NaN,NaN,721.200666434388,842.519411655264,970.628304621509,789.501930496736,1049.42763818712,546.982518841471,878.799333565612,357.480588344736,629.371695378491,410.498069503264,550.57236181288,653.017481158529,4,6,5,0,3,5,horizontal,vertical,horizontal,vertical,vertical,vertical
1a,20,100182,1,27,27,19,F,NA,variable,heterogeneous,3,absent,0.769272089004517,1,vertical,vertical,1,0.788228535202314,red,2,NaN,1052.5183575291,564.510859255183,NaN,NaN,704.475318678942,836.431882914531,1052.5183575291,564.510859255183,643.006323791957,399.057257830286,0,0,0,0,0,0,5,4,6,NaN,NaN,NaN,vertical,vertical,horizontal,none,none,none
1a,20,100182,1,28,28,19,F,NA,variable,heterogeneous,3,present,0.797552108764648,1,horizontal,horizontal,1,0.635292850350434,green,3,2,557.480588344736,678.799333565612,853.017481158529,350.57236181288,989.501930496736,770.628304621509,853.017481158529,350.57236181288,557.480588344736,678.799333565612,0,0,0,0,0,0,6,0,4,NaN,NaN,NaN,horizontal,horizontal,horizontal,none,none,none
1a,20,100182,1,29,29,19,F,NA,variable,heterogeneous,5,absent,1.12705111503601,1,horizontal,horizontal,1,0.870578519353327,green,2,NaN,1042.51941165526,678.799333565612,NaN,NaN,800,855,1042.51941165526,678.799333565612,949.885239334581,393.700666434388,650.114760665419,393.700666434388,557.480588344736,678.799333565612,0,0,3,4,6,0,5,NaN,vertical,horizontal,vertical,vertical,horizontal,none
1a,20,100182,1,30,30,19,F,NA,variable,heterogeneous,6,present,0.670522928237915,1,horizontal,horizontal,1,0.647057133800578,red,6,1,567.045908301137,703.717843984329,773.345241866748,853.60308331891,773.345241866748,853.60308331891,1006.29933356561,749.885239334581,1032.95409169886,496.282156015671,826.654758133252,346.39691668109,593.700666434388,450.114760665419,567.045908301137,703.717843984329,6,3,5,5,0,4,horizontal,vertical,horizontal,vertical,vertical,horizontal
1a,20,100182,1,31,31,19,F,NA,variable,heterogeneous,3,present,0.643560886383057,1,horizontal,horizontal,1,0.75293568485188,red,1,3,639.523300282292,798.172220171528,708.616172865948,361.936991243214,639.523300282292,798.172220171528,1051.86052685176,639.890788585259,708.616172865948,361.936991243214,0,0,0,0,0,0,4,0,5,NaN,NaN,NaN,horizontal,horizontal,vertical,none,none,none
1a,20,100182,1,32,32,19,F,NA,variable,heterogeneous,6,present,0.722794055938721,1,vertical,vertical,1,0.92939993660405,green,5,2,556.142287229426,525.445215295702,1043.85771277057,674.554784704298,857.362518857686,848.464366520235,1043.85771277057,674.554784704298,986.495193912888,426.090418184063,742.637481142314,351.535633479765,556.142287229426,525.445215295702,613.504806087112,773.909581815937,5,5,6,0,4,0,vertical,vertical,vertical,vertical,vertical,vertical
1a,20,100182,1,33,33,19,F,NA,variable,heterogeneous,4,present,0.957643032073975,1,horizontal,horizontal,1,0.811757102102604,red,1,2,808.899371659138,854.844660889869,1054.84466088987,591.100628340862,808.899371659138,854.844660889869,1054.84466088987,591.100628340862,791.100628340862,345.155339110131,545.155339110131,608.899371659138,0,0,0,0,4,0,3,0,NaN,NaN,horizontal,horizontal,vertical,vertical,none,none
1a,20,100182,1,34,34,19,F,NA,variable,heterogeneous,5,absent,0.975600957870483,1,vertical,vertical,1,0.92939993660405,green,3,NaN,1034.72873763037,500.363562235235,NaN,NaN,668.665290897936,818.577661679039,967.295052392579,792.450942956807,1034.72873763037,500.363562235235,777.775285599347,345.970351986605,551.535633479765,542.637481142314,0,0,5,3,4,6,3,NaN,horizontal,vertical,vertical,vertical,horizontal,none
1a,20,100182,1,35,35,19,F,NA,variable,heterogeneous,5,present,1.15910196304321,1,horizontal,horizontal,1,0.988221353854773,red,1,3,708.616172865948,838.063008756786,1013.86099482608,461.117046071168,708.616172865948,838.063008756786,998.172220171528,760.476699717708,1013.86099482608,461.117046071168,734.001143498857,353.688914296288,545.349468637584,586.654331158049,0,0,4,3,3,6,0,NaN,horizontal,horizontal,vertical,horizontal,vertical,none
1a,20,100182,1,36,36,19,F,NA,variable,heterogeneous,4,absent,0.829785108566284,1,vertical,vertical,1,0.764699968302025,red,2,NaN,1006.29933356561,450.114760665419,NaN,NaN,949.885239334581,806.299333565612,1006.29933356561,450.114760665419,650.114760665419,393.700666434388,593.700666434388,749.885239334581,0,0,0,0,0,4,3,6,NaN,NaN,vertical,vertical,vertical,vertical,none,none
1a,20,100182,1,37,37,19,F,NA,variable,heterogeneous,6,present,0.912916898727417,1,vertical,vertical,1,0.729407117951591,red,6,3,636.089159529932,795.341332995339,963.910840470068,404.658667004661,887.215136548046,839.621618300407,1051.12597701811,644.280285305067,963.910840470068,404.658667004661,712.784863451954,360.378381699593,548.874022981887,555.719714694933,636.089159529932,795.341332995339,0,3,3,6,0,4,vertical,horizontal,vertical,horizontal,vertical,vertical
1a,20,100182,1,38,38,19,F,NA,variable,heterogeneous,3,present,0.596611022949219,1,vertical,vertical,1,0.847049952453037,red,1,3,650.114760665419,806.299333565612,696.282156015671,367.045908301137,650.114760665419,806.299333565612,1053.60308331891,626.654758133252,696.282156015671,367.045908301137,0,0,0,0,0,0,4,0,6,NaN,NaN,NaN,vertical,horizontal,horizontal,none,none,none
1a,20,100182,1,39,39,19,F,NA,variable,heterogeneous,6,absent,0.737590074539185,1,vertical,vertical,1,0.858814235903182,red,1,NaN,870.287525733335,845.121732464271,NaN,NaN,870.287525733335,845.121732464271,1047.42541020038,661.690083377915,977.137884467044,416.568350913644,729.712474266665,354.878267535729,552.574589799621,538.309916622085,622.862115532956,783.431649086356,4,5,3,0,3,6,vertical,horizontal,vertical,horizontal,horizontal,horizontal
1a,20,100182,1,40,40,19,F,NA,variable,heterogeneous,3,present,1.08110594749451,1,horizontal,horizontal,1,0.635292850350434,red,2,1,1054.96116226488,595.549636358493,676.373546837184,823.028025320546,676.373546837184,823.028025320546,1054.96116226488,595.549636358493,668.665290897936,381.422338320961,0,0,0,0,0,0,0,4,3,NaN,NaN,NaN,vertical,horizontal,horizontal,none,none,none
1a,20,100182,1,41,41,19,F,NA,variable,heterogeneous,4,present,1.49671602249146,1,vertical,vertical,1,0.882342802803471,green,2,3,1042.51941165526,678.799333565612,878.799333565612,357.480588344736,721.200666434388,842.519411655264,1042.51941165526,678.799333565612,878.799333565612,357.480588344736,557.480588344736,521.200666434388,0,0,0,0,5,4,3,6,NaN,NaN,vertical,vertical,horizontal,vertical,none,none
1a,20,100182,1,42,42,19,F,NA,variable,heterogeneous,5,present,1.78470993041992,1,horizontal,horizontal,1,1.09409990490607,green,3,1,817.787900804752,345.621167183745,935.129412379467,816.252264519889,935.129412379467,816.252264519889,1047.42541020038,538.309916622085,817.787900804752,345.621167183745,563.568117085469,504.475318678942,636.089159529932,795.341332995339,0,0,3,5,4,3,0,NaN,vertical,horizontal,horizontal,vertical,horizontal,none
1a,20,100182,1,43,43,19,F,NA,variable,heterogeneous,3,absent,1.17510604858398,1,horizontal,horizontal,1,0.717642834501446,red,3,NaN,596.34794493794,446.537169096228,NaN,NaN,768.923317431687,853.099268668537,1034.72873763037,500.363562235235,596.34794493794,446.537169096228,0,0,0,0,0,0,3,6,4,NaN,NaN,NaN,vertical,horizontal,horizontal,none,none,none
1a,20,100182,1,44,44,19,F,NA,variable,heterogeneous,6,present,1.0939199924469,1,horizontal,horizontal,1,0.764699968302025,red,2,6,1042.51941165526,678.799333565612,610.498069503264,770.628304621509,853.017481158529,849.42763818712,1042.51941165526,678.799333565612,989.501930496736,429.371695378491,746.982518841471,350.57236181288,557.480588344736,521.200666434388,610.498069503264,770.628304621509,3,4,0,3,0,5,vertical,horizontal,vertical,vertical,horizontal,vertical
1a,20,100182,1,45,45,19,F,NA,variable,heterogeneous,4,present,0.804076910018921,1,horizontal,horizontal,1,0.799992818652459,green,3,1,923.626453162816,376.971974679454,676.373546837184,823.028025320546,676.373546837184,823.028025320546,1023.02802532055,723.626453162816,923.626453162816,376.971974679454,576.971974679454,476.373546837184,0,0,0,0,5,0,4,3,NaN,NaN,vertical,vertical,horizontal,horizontal,none,none
1a,20,100182,1,46,46,19,F,NA,variable,heterogeneous,5,absent,1.4852340221405,1,vertical,vertical,1,0.835285669002893,green,2,NaN,992.450942956807,767.295052392579,NaN,NaN,700.363562235235,834.728737630372,992.450942956807,767.295052392579,1018.57766167904,468.665290897936,742.637481142314,351.535633479765,545.970351986605,577.775285599347,0,0,5,4,3,3,6,NaN,horizontal,vertical,vertical,vertical,horizontal,none
1a,20,100182,1,47,47,19,F,NA,variable,heterogeneous,3,present,1.01374101638794,1,vertical,vertical,1,0.92939993660405,green,1,3,986.495193912888,773.909581815937,556.142287229426,674.554784704298,986.495193912888,773.909581815937,857.362518857686,351.535633479765,556.142287229426,674.554784704298,0,0,0,0,0,0,4,5,5,NaN,NaN,NaN,vertical,horizontal,vertical,none,none,none
1a,20,100182,1,48,48,19,F,NA,variable,heterogeneous,5,absent,0.863381147384644,1,horizontal,horizontal,1,0.847049952453037,red,1,NaN,672.5,820.836477965032,NaN,NaN,672.5,820.836477965032,970.628304621509,789.501930496736,1032.95409169886,496.282156015671,773.345241866748,346.39691668109,550.57236181288,546.982518841471,0,0,4,5,3,5,0,NaN,horizontal,vertical,vertical,vertical,horizontal,none
1a,20,100182,1,49,49,19,F,NA,variable,heterogeneous,3,absent,0.772578001022339,0,horizontal,vertical,1,1.01174992075506,green,3,NaN,746.982518841471,350.57236181288,NaN,NaN,610.498069503264,770.628304621509,1042.51941165526,678.799333565612,746.982518841471,350.57236181288,0,0,0,0,0,0,0,0,4,NaN,NaN,NaN,horizontal,horizontal,horizontal,none,none,none
1a,20,100182,1,50,50,19,F,NA,variable,heterogeneous,4,absent,0.554960012435913,1,vertical,vertical,1,0.729407117951591,green,3,NaN,650.114760665419,393.700666434388,NaN,NaN,949.885239334581,806.299333565612,1006.29933356561,450.114760665419,650.114760665419,393.700666434388,593.700666434388,749.885239334581,0,0,0,0,6,5,4,0,NaN,NaN,vertical,horizontal,vertical,vertical,none,none
1a,20,100182,1,51,51,19,F,NA,variable,heterogeneous,4,present,1.14612293243408,1,vertical,vertical,1,1.01174992075506,red,1,4,729.712474266665,845.121732464271,554.878267535729,529.712474266665,729.712474266665,845.121732464271,1045.12173246427,670.287525733335,870.287525733335,354.878267535729,554.878267535729,529.712474266665,0,0,0,0,4,5,6,3,NaN,NaN,vertical,horizontal,vertical,vertical,none,none
1a,20,100182,1,52,52,19,F,NA,variable,heterogeneous,4,absent,1.25097799301147,1,horizontal,horizontal,1,0.870578519353327,green,2,NaN,1054.37883281626,617.787900804752,NaN,NaN,782.212099195248,854.378832816255,1054.37883281626,617.787900804752,817.787900804752,345.621167183745,545.621167183745,582.212099195248,0,0,0,0,5,4,5,6,NaN,NaN,horizontal,horizontal,vertical,vertical,none,none
1a,20,100182,1,53,53,19,F,NA,variable,heterogeneous,3,absent,1.04022598266602,1,vertical,vertical,1,0.799992818652459,red,3,NaN,591.116228706307,453.738008730483,NaN,NaN,777.775285599347,854.029648013395,1031.10848569435,492.232343256122,591.116228706307,453.738008730483,0,0,0,0,0,0,5,3,4,NaN,NaN,NaN,vertical,vertical,vertical,none,none,none
1a,20,100182,1,54,54,19,F,NA,variable,heterogeneous,3,absent,1.10235977172852,1,horizontal,horizontal,1,0.858814235903182,red,3,NaN,599.057257830286,443.006323791957,NaN,NaN,764.510859255183,852.518357529101,1036.43188291453,504.475318678942,599.057257830286,443.006323791957,0,0,0,0,0,0,5,6,4,NaN,NaN,NaN,vertical,vertical,horizontal,none,none,none
1a,20,100182,1,55,55,19,F,NA,variable,heterogeneous,5,absent,1.05011105537415,1,vertical,vertical,1,0.882342802803471,red,3,NaN,853.017481158529,350.57236181288,NaN,NaN,903.717843984329,832.954091698863,1053.60308331891,573.345241866748,853.017481158529,350.57236181288,579.163522034968,472.5,610.498069503264,770.628304621509,0,0,3,5,4,6,0,NaN,horizontal,horizontal,vertical,vertical,vertical,none
1a,20,100182,1,56,56,19,F,NA,variable,heterogeneous,5,present,1.18330097198486,1,vertical,vertical,1,0.799992818652459,green,2,4,1050.31493177915,551.343706178981,568.891514305654,492.232343256122,923.626453162816,823.028025320546,1050.31493177915,551.343706178981,831.076682568313,346.900731331463,568.891514305654,492.232343256122,626.090418184063,786.495193912888,0,0,3,4,3,6,5,NaN,horizontal,vertical,horizontal,horizontal,vertical,none
1a,20,100182,1,57,57,19,F,NA,variable,heterogeneous,6,present,1.83747410774231,1,horizontal,horizontal,1,0.717642834501446,green,2,3,1013.86099482608,738.882953928832,1027.20666366803,484.232422566416,786.654331158049,854.650531362416,1013.86099482608,738.882953928832,1027.20666366803,484.232422566416,813.345668841951,345.349468637584,586.139005173917,461.117046071168,572.793336331966,715.767577433584,5,4,6,6,0,3,horizontal,horizontal,vertical,horizontal,horizontal,vertical
1a,20,100182,1,58,58,19,F,NA,variable,heterogeneous,4,absent,0.71382999420166,1,vertical,vertical,1,0.764699968302025,green,3,NaN,688.215357568785,370.807518193712,NaN,NaN,911.784642431215,829.192481806288,1029.19248180629,488.215357568785,688.215357568785,370.807518193712,570.807518193712,711.784642431215,0,0,0,0,0,3,4,6,NaN,NaN,vertical,vertical,vertical,vertical,none,none
1a,20,100182,1,59,59,19,F,NA,variable,heterogeneous,6,absent,0.877681970596313,1,vertical,vertical,1,1.07057133800579,red,5,NaN,557.480588344736,521.200666434388,NaN,NaN,853.017481158529,849.42763818712,1042.51941165526,678.799333565612,989.501930496736,429.371695378491,746.982518841471,350.57236181288,557.480588344736,521.200666434388,610.498069503264,770.628304621509,6,0,5,3,4,0,horizontal,horizontal,vertical,vertical,vertical,vertical
1a,20,100182,1,60,60,19,F,NA,variable,heterogeneous,4,present,0.677051067352295,1,vertical,vertical,1,0.894107086253616,green,4,3,554.878267535729,670.287525733335,729.712474266665,354.878267535729,870.287525733335,845.121732464271,1045.12173246427,529.712474266665,729.712474266665,354.878267535729,554.878267535729,670.287525733335,0,0,0,0,6,6,5,4,NaN,NaN,vertical,vertical,vertical,vertical,none,none
1a,20,100182,1,61,61,19,F,NA,variable,heterogeneous,5,present,1.19617581367493,1,horizontal,horizontal,1,0.670585700700868,red,1,4,839.890788585259,851.86052685176,619.68777079743,419.68777079743,839.890788585259,851.86052685176,1051.86052685176,639.890788585259,915.767577433584,372.793336331966,619.68777079743,419.68777079743,572.793336331966,715.767577433584,0,0,4,6,0,0,3,NaN,horizontal,vertical,horizontal,horizontal,vertical,none
1a,20,100182,1,62,62,19,F,NA,variable,heterogeneous,6,absent,1.04242992401123,1,vertical,vertical,1,0.705878551051302,green,5,NaN,610.498069503264,429.371695378491,NaN,NaN,746.982518841471,849.42763818712,989.501930496736,770.628304621509,1042.51941165526,521.200666434388,853.017481158529,350.57236181288,610.498069503264,429.371695378491,557.480588344736,678.799333565612,5,3,5,0,4,6,horizontal,horizontal,horizontal,horizontal,vertical,horizontal
1a,20,100182,1,63,63,19,F,NA,variable,heterogeneous,4,absent,0.740334033966064,1,horizontal,horizontal,1,0.847049952453037,green,2,NaN,1029.19248180629,488.215357568785,NaN,NaN,911.784642431215,829.192481806288,1029.19248180629,488.215357568785,688.215357568785,370.807518193712,570.807518193712,711.784642431215,0,0,0,0,5,4,3,6,NaN,NaN,vertical,horizontal,horizontal,vertical,none,none
1a,20,100182,1,64,64,19,F,NA,variable,heterogeneous,5,present,1.41689682006836,1,vertical,vertical,1,0.682349984151012,green,3,2,907.767656743878,368.891514305654,1053.09926866854,631.076682568313,848.656293821019,850.314931779154,1053.09926866854,631.076682568313,907.767656743878,368.891514305654,613.504806087112,426.090418184063,576.971974679454,723.626453162816,0,0,0,3,4,6,5,NaN,horizontal,horizontal,vertical,vertical,horizontal,none
1a,20,100182,2,1,65,19,F,NA,variable,heterogeneous,6,present,1.84777402877808,1,vertical,vertical,1,1.08233562145593,red,1,3,895.524681321058,836.431882914531,956.993676208043,399.057257830286,895.524681321058,836.431882914531,1052.5183575291,635.489140744817,956.993676208043,399.057257830286,704.475318678942,363.568117085469,547.481642470899,564.510859255183,643.006323791957,800.942742169714,4,6,5,3,0,5,vertical,horizontal,vertical,horizontal,horizontal,vertical
1a,20,100182,2,2,66,19,F,NA,variable,heterogeneous,5,present,1.24873614311218,0,vertical,horizontal,1,0.988221353854773,green,1,4,692.232343256122,831.108485694346,751.343706178981,349.685068220846,692.232343256122,831.108485694346,986.495193912888,773.909581815937,1023.02802532055,476.373546837184,751.343706178981,349.685068220846,546.900731331463,568.923317431687,0,0,4,5,3,6,3,NaN,vertical,vertical,horizontal,horizontal,horizontal,none
1a,20,100182,2,3,67,19,F,NA,variable,heterogeneous,3,absent,1.02677416801453,1,horizontal,horizontal,1,0.835285669002893,red,3,NaN,716.980120613425,358.892763222174,NaN,NaN,632.704947607421,792.450942956807,1050.31493177915,648.656293821019,716.980120613425,358.892763222174,0,0,0,0,0,0,3,5,4,NaN,NaN,NaN,horizontal,horizontal,horizontal,none,none,none
1a,20,100182,2,4,68,19,F,NA,variable,heterogeneous,5,absent,0.930200815200806,1,vertical,vertical,1,0.941164220054195,green,5,NaN,545.03883773512,604.450363641507,NaN,NaN,725.445215295702,843.857712770574,1008.88377129369,746.261991269517,1003.65205506206,446.537169096228,716.980120613425,358.892763222174,545.03883773512,604.450363641507,0,0,6,3,0,5,4,NaN,horizontal,vertical,horizontal,horizontal,vertical,none
1a,20,100182,2,5,69,19,F,NA,variable,heterogeneous,6,absent,1.04594993591309,1,horizontal,horizontal,1,0.847049952453037,green,4,NaN,870.287525733335,354.878267535729,NaN,NaN,729.712474266665,845.121732464271,977.137884467044,783.431649086356,1047.42541020038,538.309916622085,870.287525733335,354.878267535729,622.862115532956,416.568350913644,552.574589799621,661.690083377915,6,5,6,4,5,3,vertical,horizontal,vertical,horizontal,horizontal,horizontal
1a,20,100182,2,6,70,19,F,NA,variable,heterogeneous,6,present,1.20833706855774,1,horizontal,horizontal,1,0.658821417250723,red,3,6,1054.0296480134,577.775285599347,545.970351986605,622.224714400653,692.232343256122,831.108485694346,946.261991269517,808.883771293693,1054.0296480134,577.775285599347,907.767656743878,368.891514305654,653.738008730483,391.116228706307,545.970351986605,622.224714400653,6,0,4,3,5,5,horizontal,horizontal,horizontal,vertical,horizontal,horizontal
1a,20,100182,2,7,71,19,F,NA,variable,heterogeneous,3,absent,0.919333934783936,1,horizontal,horizontal,1,0.941164220054195,green,1,NaN,672.5,820.836477965032,NaN,NaN,672.5,820.836477965032,1055,600,672.5,379.163522034968,0,0,0,0,0,0,4,0,6,NaN,NaN,NaN,horizontal,vertical,horizontal,none,none,none
1a,20,100182,2,8,72,19,F,NA,variable,heterogeneous,3,absent,1.07578301429749,1,vertical,vertical,1,0.682349984151012,green,1,NaN,712.784863451954,839.621618300407,NaN,NaN,712.784863451954,839.621618300407,1051.12597701811,555.719714694933,636.089159529932,404.658667004661,0,0,0,0,0,0,4,0,3,NaN,NaN,NaN,vertical,horizontal,vertical,none,none,none
1a,20,100182,2,9,73,19,F,NA,variable,heterogeneous,6,present,1.21586298942566,1,horizontal,horizontal,1,0.92939993660405,green,5,6,668.665290897936,381.422338320961,545.03883773512,604.450363641507,676.373546837184,823.028025320546,931.334709102064,818.577661679039,1054.96116226488,595.549636358493,923.626453162816,376.971974679454,668.665290897936,381.422338320961,545.03883773512,604.450363641507,6,5,3,6,4,5,vertical,horizontal,horizontal,vertical,horizontal,vertical
1a,20,100182,2,10,74,19,F,NA,variable,heterogeneous,4,absent,0.712518930435181,1,horizontal,horizontal,1,0.999985637304918,red,2,NaN,986.495193912888,426.090418184063,NaN,NaN,973.909581815937,786.495193912888,986.495193912888,426.090418184063,626.090418184063,413.504806087112,613.504806087112,773.909581815937,0,0,0,0,0,4,0,6,NaN,NaN,horizontal,horizontal,horizontal,vertical,none,none
1a,20,100182,2,11,75,19,F,NA,variable,heterogeneous,4,present,0.882898092269897,1,vertical,vertical,1,0.799992818652459,green,4,2,552.574589799621,661.690083377915,1047.42541020038,538.309916622085,861.690083377915,847.425410200379,1047.42541020038,538.309916622085,738.309916622085,352.574589799621,552.574589799621,661.690083377915,0,0,0,0,3,5,0,4,NaN,NaN,vertical,horizontal,vertical,vertical,none,none
1a,20,100182,2,12,76,19,F,NA,variable,heterogeneous,6,absent,0.850505828857422,1,vertical,vertical,1,1.08233562145593,red,5,NaN,616.568350913644,422.862115532956,NaN,NaN,738.309916622085,847.425410200379,983.431649086356,777.137884467044,1045.12173246427,529.712474266665,861.690083377915,352.574589799621,616.568350913644,422.862115532956,554.878267535729,670.287525733335,0,3,6,0,4,6,vertical,vertical,vertical,horizontal,vertical,horizontal
1a,20,100182,2,13,77,19,F,NA,variable,heterogeneous,6,absent,1.12154483795166,1,horizontal,horizontal,1,0.894107086253616,red,2,NaN,1048.46436652023,657.362518857686,NaN,NaN,874.554784704298,843.857712770574,1048.46436652023,657.362518857686,973.909581815937,413.504806087112,725.445215295702,356.142287229426,551.535633479765,542.637481142314,626.090418184063,786.495193912888,3,4,5,3,5,0,vertical,horizontal,horizontal,horizontal,vertical,horizontal
1a,20,100182,2,14,78,19,F,NA,variable,heterogeneous,4,present,0.935233116149902,1,horizontal,horizontal,1,0.952928503504339,green,3,4,883.019879386575,358.892763222174,558.892763222174,516.980120613425,716.980120613425,841.107236777826,1041.10723677783,683.019879386575,883.019879386575,358.892763222174,558.892763222174,516.980120613425,0,0,0,0,5,3,4,3,NaN,NaN,horizontal,vertical,horizontal,horizontal,none,none
1a,20,100182,2,15,79,19,F,NA,variable,heterogeneous,4,present,0.954352855682373,0,vertical,horizontal,1,1.02351420420521,red,2,1,1045.12173246427,529.712474266665,870.287525733335,845.121732464271,870.287525733335,845.121732464271,1045.12173246427,529.712474266665,729.712474266665,354.878267535729,554.878267535729,670.287525733335,0,0,0,0,5,4,3,0,NaN,NaN,horizontal,vertical,vertical,vertical,none,none
1a,20,100182,2,16,80,19,F,NA,variable,heterogeneous,5,present,0.871016979217529,1,horizontal,horizontal,1,0.647057133800578,green,2,3,1049.42763818712,653.017481158529,927.5,379.163522034968,826.654758133252,853.60308331891,1049.42763818712,653.017481158529,927.5,379.163522034968,629.371695378491,410.498069503264,567.045908301137,703.717843984329,0,0,3,4,0,5,5,NaN,horizontal,horizontal,horizontal,horizontal,vertical,none
1a,20,100182,2,17,81,19,F,NA,variable,heterogeneous,5,present,0.956384181976318,1,vertical,vertical,1,0.999985637304918,red,5,2,553.688914296288,665.998856501143,1038.06300875679,691.383827134052,786.654331158049,854.650531362416,1038.06300875679,691.383827134052,960.476699717708,401.827779828472,661.117046071168,386.139005173917,553.688914296288,665.998856501143,0,0,0,0,6,5,4,NaN,horizontal,horizontal,horizontal,vertical,vertical,none
1a,20,100182,2,18,82,19,F,NA,variable,heterogeneous,6,present,0.764029979705811,1,vertical,vertical,1,0.811757102102604,green,5,6,610.498069503264,429.371695378491,557.480588344736,678.799333565612,746.982518841471,849.42763818712,989.501930496736,770.628304621509,1042.51941165526,521.200666434388,853.017481158529,350.57236181288,610.498069503264,429.371695378491,557.480588344736,678.799333565612,5,0,3,6,4,5,horizontal,horizontal,vertical,horizontal,vertical,horizontal
1a,20,100182,2,19,83,19,F,NA,variable,heterogeneous,4,absent,0.737612962722778,1,horizontal,horizontal,1,0.905871369703761,green,1,NaN,629.371695378491,789.501930496736,NaN,NaN,629.371695378491,789.501930496736,989.501930496736,770.628304621509,970.628304621509,410.498069503264,610.498069503264,429.371695378491,0,0,0,0,4,5,3,0,NaN,NaN,horizontal,vertical,vertical,vertical,none,none
1a,20,100182,2,20,84,19,F,NA,variable,heterogeneous,5,absent,1.83558320999146,0,vertical,horizontal,1,0.952928503504339,green,2,NaN,1050.31493177915,648.656293821019,NaN,NaN,831.076682568313,853.099268668537,1050.31493177915,648.656293821019,923.626453162816,376.971974679454,626.090418184063,413.504806087112,568.891514305654,707.767656743878,0,0,3,4,3,6,5,NaN,horizontal,vertical,vertical,vertical,horizontal,none
1a,20,100182,2,21,85,19,F,NA,variable,heterogeneous,5,present,1.61127305030823,1,horizontal,horizontal,1,0.729407117951591,red,3,5,919.715248510402,374.848363820974,570.807518193712,711.784642431215,835.489140744817,852.518357529101,1051.12597701811,644.280285305067,919.715248510402,374.848363820974,622.862115532956,416.568350913644,570.807518193712,711.784642431215,0,0,0,6,4,6,0,NaN,vertical,vertical,horizontal,vertical,horizontal,none
1a,20,100182,2,22,86,19,F,NA,variable,heterogeneous,5,present,0.630579948425293,1,vertical,vertical,1,0.741171401401736,green,3,1,938.882953928832,386.139005173917,813.345668841951,854.650531362416,813.345668841951,854.650531362416,1046.31108570371,665.998856501143,938.882953928832,386.139005173917,639.523300282292,401.827779828472,561.936991243214,691.383827134052,0,0,6,3,4,5,3,NaN,vertical,vertical,vertical,vertical,horizontal,none
1a,20,100182,2,23,87,19,F,NA,variable,heterogeneous,4,present,0.660272121429443,1,horizontal,horizontal,1,0.647057133800578,red,3,2,927.5,379.163522034968,1020.83647796503,727.5,672.5,820.836477965032,1020.83647796503,727.5,927.5,379.163522034968,579.163522034968,472.5,0,0,0,0,6,0,4,5,NaN,NaN,vertical,vertical,horizontal,horizontal,none,none
1a,20,100182,2,24,88,19,F,NA,variable,heterogeneous,3,present,1.51821184158325,1,horizontal,horizontal,1,0.823521385552748,green,1,2,839.890788585259,851.86052685176,998.172220171528,439.523300282291,839.890788585259,851.86052685176,998.172220171528,439.523300282291,561.936991243214,508.616172865948,0,0,0,0,0,0,4,0,5,NaN,NaN,NaN,horizontal,horizontal,horizontal,none,none,none
1a,20,100182,2,25,89,19,F,NA,variable,heterogeneous,4,absent,0.890391111373901,1,vertical,vertical,1,1.08233562145593,green,4,NaN,548.874022981887,555.719714694933,NaN,NaN,755.719714694933,851.125977018113,1051.12597701811,644.280285305067,844.280285305067,348.874022981887,548.874022981887,555.719714694933,0,0,0,0,0,0,5,4,NaN,NaN,horizontal,horizontal,horizontal,vertical,none,none
1a,20,100182,2,26,90,19,F,NA,variable,heterogeneous,5,present,0.752599954605103,1,vertical,vertical,1,0.811757102102604,red,4,1,596.34794493794,446.537169096228,874.554784704298,843.857712770574,874.554784704298,843.857712770574,1054.96116226488,604.450363641507,883.019879386575,358.892763222174,596.34794493794,446.537169096228,591.116228706307,746.261991269517,0,0,0,5,3,4,0,NaN,vertical,horizontal,vertical,vertical,vertical,none
1a,20,100182,2,27,91,19,F,NA,variable,heterogeneous,5,absent,1.76101398468018,1,horizontal,horizontal,1,1.05880705455564,red,3,NaN,1042.51941165526,521.200666434388,NaN,NaN,650.114760665419,806.299333565612,949.885239334581,806.299333565612,1042.51941165526,521.200666434388,800,345,557.480588344736,521.200666434388,0,0,0,6,4,3,0,NaN,vertical,horizontal,horizontal,vertical,vertical,none
1a,20,100182,2,28,92,19,F,NA,variable,heterogeneous,6,absent,NaN,0,horizontal,none,0,1.02351420420521,red,1,NaN,835.489140744817,852.518357529101,NaN,NaN,835.489140744817,852.518357529101,1036.43188291453,695.524681321058,1000.94274216971,443.006323791957,764.510859255183,347.4816424709,563.568117085469,504.475318678942,599.057257830286,756.993676208043,4,6,5,0,5,3,horizontal,horizontal,vertical,vertical,horizontal,vertical
1a,20,100182,2,29,93,19,F,NA,variable,heterogeneous,3,absent,1.27521014213562,1,vertical,vertical,1,0.694114267601157,red,3,NaN,568.891514305654,492.232343256122,NaN,NaN,822.224714400653,854.029648013395,1008.88377129369,453.738008730483,568.891514305654,492.232343256122,0,0,0,0,0,0,3,0,4,NaN,NaN,NaN,vertical,horizontal,vertical,none,none,none
1a,20,100182,2,30,94,19,F,NA,variable,heterogeneous,5,absent,1.21960210800171,1,horizontal,horizontal,1,0.941164220054195,red,1,NaN,773.345241866748,853.60308331891,NaN,NaN,773.345241866748,853.60308331891,1032.95409169886,703.717843984329,970.628304621509,410.498069503264,672.5,379.163522034968,550.57236181288,653.017481158529,0,0,4,5,5,6,0,NaN,horizontal,vertical,horizontal,vertical,vertical,none
1a,20,100182,2,31,95,19,F,NA,variable,heterogeneous,5,present,1.30818915367126,1,horizontal,horizontal,1,0.799992818652459,red,3,4,808.899371659138,345.155339110131,560.378381699593,512.784863451954,942.594190385041,811.404581001536,1045.12173246427,529.712474266665,808.899371659138,345.155339110131,560.378381699593,512.784863451954,643.006323791957,800.942742169714,0,0,0,6,4,0,3,NaN,horizontal,vertical,horizontal,vertical,vertical,none
1a,20,100182,2,32,96,19,F,NA,variable,heterogeneous,3,present,0.954268932342529,1,vertical,vertical,1,0.988221353854773,green,2,1,1052.5183575291,635.489140744817,643.006323791957,800.942742169714,643.006323791957,800.942742169714,1052.5183575291,635.489140744817,704.475318678942,363.568117085469,0,0,0,0,0,0,6,4,0,NaN,NaN,NaN,vertical,vertical,horizontal,none,none,none
1a,20,100182,2,33,97,19,F,NA,variable,heterogeneous,6,present,1.05879878997803,1,horizontal,horizontal,1,0.658821417250723,green,4,2,923.626453162816,376.971974679454,931.334709102064,818.577661679039,676.373546837184,823.028025320546,931.334709102064,818.577661679039,1054.96116226488,595.549636358493,923.626453162816,376.971974679454,668.665290897936,381.422338320961,545.03883773512,604.450363641507,5,3,3,4,6,6,vertical,horizontal,vertical,horizontal,horizontal,horizontal
1a,20,100182,2,34,98,19,F,NA,variable,heterogeneous,5,absent,1.1411280632019,1,horizontal,horizontal,1,0.847049952453037,green,1,NaN,915.767577433584,827.206663668034,NaN,NaN,915.767577433584,827.206663668034,1051.86052685176,560.109211414741,839.890788585259,348.13947314824,572.793336331966,484.232422566416,619.68777079743,780.31222920257,0,0,4,6,6,5,5,NaN,horizontal,horizontal,horizontal,vertical,horizontal,none
1a,20,100182,2,35,99,19,F,NA,variable,heterogeneous,3,present,0.761934041976929,1,vertical,vertical,1,0.682349984151012,red,1,3,915.767577433584,827.206663668034,545.349468637584,586.654331158049,915.767577433584,827.206663668034,938.882953928832,386.139005173917,545.349468637584,586.654331158049,0,0,0,0,0,0,4,6,0,NaN,NaN,NaN,vertical,vertical,vertical,none,none,none
1a,20,100182,2,36,100,19,F,NA,variable,heterogeneous,6,present,1.45668697357178,1,vertical,vertical,1,0.964692786954484,green,5,2,672.5,379.163522034968,927.5,820.836477965032,672.5,820.836477965032,927.5,820.836477965032,1055,600,927.5,379.163522034968,672.5,379.163522034968,545,600,0,6,3,0,4,6,vertical,vertical,horizontal,vertical,vertical,horizontal
1a,20,100182,2,37,101,19,F,NA,variable,heterogeneous,4,absent,1.3796980381012,0,horizontal,vertical,1,0.705878551051302,green,2,NaN,1054.37883281626,617.787900804752,NaN,NaN,782.212099195248,854.378832816255,1054.37883281626,617.787900804752,817.787900804752,345.621167183745,545.621167183745,582.212099195248,0,0,0,0,3,4,5,3,NaN,NaN,horizontal,horizontal,horizontal,vertical,none,none
1a,20,100182,2,38,102,19,F,NA,variable,heterogeneous,3,absent,0.641970157623291,1,vertical,vertical,1,0.917635653153905,green,2,NaN,942.594190385041,388.595418998464,NaN,NaN,911.784642431215,829.192481806288,942.594190385041,388.595418998464,545.621167183745,582.212099195248,0,0,0,0,0,0,0,4,6,NaN,NaN,NaN,horizontal,vertical,vertical,none,none,none
1a,20,100182,2,39,103,19,F,NA,variable,heterogeneous,3,absent,0.68285083770752,1,vertical,vertical,1,0.799992818652459,red,2,NaN,946.261991269517,391.116228706307,NaN,NaN,907.767656743878,831.108485694346,946.261991269517,391.116228706307,545.970351986605,577.775285599347,0,0,0,0,0,0,3,4,0,NaN,NaN,NaN,vertical,vertical,vertical,none,none,none
1a,20,100182,2,40,104,19,F,NA,variable,heterogeneous,4,present,1.30147004127502,1,vertical,vertical,1,1.02351420420521,red,1,3,777.775285599347,854.029648013395,822.224714400653,345.970351986605,777.775285599347,854.029648013395,1054.0296480134,622.224714400653,822.224714400653,345.970351986605,545.970351986605,577.775285599347,0,0,0,0,4,3,6,5,NaN,NaN,vertical,vertical,vertical,vertical,none,none
1a,20,100182,2,41,105,19,F,NA,variable,heterogeneous,5,absent,1.03030610084534,1,vertical,vertical,1,0.741171401401736,red,1,NaN,672.5,820.836477965032,NaN,NaN,672.5,820.836477965032,970.628304621509,789.501930496736,1032.95409169886,496.282156015671,773.345241866748,346.39691668109,550.57236181288,546.982518841471,0,0,4,3,0,0,6,NaN,vertical,horizontal,horizontal,vertical,horizontal,none
1a,20,100182,2,42,106,19,F,NA,variable,heterogeneous,4,present,0.78322696685791,1,horizontal,horizontal,1,0.611764283450145,green,3,1,865.998856501143,353.688914296288,734.001143498857,846.311085703712,734.001143498857,846.311085703712,1046.31108570371,665.998856501143,865.998856501143,353.688914296288,553.688914296288,534.001143498857,0,0,0,0,3,0,4,6,NaN,NaN,vertical,horizontal,horizontal,vertical,none,none
1a,20,100182,2,43,107,19,F,NA,variable,heterogeneous,3,present,1.03268694877625,1,vertical,vertical,1,0.682349984151012,green,1,3,579.163522034968,727.5,800,345,579.163522034968,727.5,1020.83647796503,727.5,800,345,0,0,0,0,0,0,4,3,6,NaN,NaN,NaN,vertical,vertical,horizontal,none,none,none
1a,20,100182,2,44,108,19,F,NA,variable,heterogeneous,4,absent,1.15041780471802,0,vertical,horizontal,1,0.847049952453037,red,2,NaN,1003.65205506206,753.462830903772,NaN,NaN,646.537169096228,803.65205506206,1003.65205506206,753.462830903772,953.462830903772,396.34794493794,596.34794493794,446.537169096228,0,0,0,0,6,4,5,3,NaN,NaN,vertical,vertical,vertical,horizontal,none,none
1a,20,100182,2,45,109,19,F,NA,variable,heterogeneous,4,present,0.805480003356934,1,vertical,vertical,1,0.799992818652459,green,4,1,610.498069503264,429.371695378491,629.371695378491,789.501930496736,629.371695378491,789.501930496736,989.501930496736,770.628304621509,970.628304621509,410.498069503264,610.498069503264,429.371695378491,0,0,0,0,5,6,0,4,NaN,NaN,vertical,vertical,vertical,vertical,none,none
1a,20,100182,2,46,110,19,F,NA,variable,heterogeneous,3,present,1.27705812454224,1,horizontal,horizontal,1,0.764699968302025,red,1,2,629.371695378491,789.501930496736,1049.42763818712,653.017481158529,629.371695378491,789.501930496736,1049.42763818712,653.017481158529,721.200666434388,357.480588344736,0,0,0,0,0,0,4,6,3,NaN,NaN,NaN,horizontal,vertical,vertical,none,none,none
1a,20,100182,2,47,111,19,F,NA,variable,heterogeneous,3,absent,0.709065198898315,1,horizontal,horizontal,1,0.917635653153905,red,1,NaN,742.637481142314,848.464366520235,NaN,NaN,742.637481142314,848.464366520235,1043.85771277057,525.445215295702,613.504806087112,426.090418184063,0,0,0,0,0,0,4,0,6,NaN,NaN,NaN,horizontal,vertical,horizontal,none,none,none
1a,20,100182,2,48,112,19,F,NA,variable,heterogeneous,6,absent,1.38981890678406,1,vertical,vertical,1,0.905871369703761,green,1,NaN,878.799333565612,842.519411655264,NaN,NaN,878.799333565612,842.519411655264,1049.42763818712,653.017481158529,970.628304621509,410.498069503264,721.200666434388,357.480588344736,550.57236181288,546.982518841471,629.371695378491,789.501930496736,4,3,5,3,5,0,vertical,vertical,vertical,horizontal,horizontal,vertical
1a,20,100182,2,49,113,19,F,NA,variable,heterogeneous,4,absent,0.766571044921875,1,vertical,vertical,1,0.647057133800578,red,2,NaN,1016.25226451989,464.870587620533,NaN,NaN,935.129412379467,816.252264519889,1016.25226451989,464.870587620533,664.870587620533,383.747735480111,583.747735480111,735.129412379467,0,0,0,0,0,4,5,6,NaN,NaN,vertical,vertical,horizontal,horizontal,none,none
1a,20,100182,2,50,114,19,F,NA,variable,heterogeneous,6,absent,1.60578179359436,1,vertical,vertical,1,0.77646425175217,red,4,NaN,911.784642431215,370.807518193712,NaN,NaN,688.215357568785,829.192481806288,942.594190385041,811.404581001536,1054.37883281626,582.212099195248,911.784642431215,370.807518193712,657.405809614959,388.595418998464,545.621167183745,617.787900804752,0,3,3,4,5,0,horizontal,horizontal,vertical,vertical,horizontal,vertical
1a,20,100182,2,51,115,19,F,NA,variable,heterogeneous,5,absent,0.635370969772339,1,horizontal,horizontal,1,0.870578519353327,green,3,NaN,980.31222920257,419.68777079743,NaN,NaN,760.109211414741,851.86052685176,1027.20666366803,715.767577433584,980.31222920257,419.68777079743,684.232422566416,372.793336331966,548.13947314824,639.890788585259,0,0,6,0,4,0,3,NaN,horizontal,vertical,horizontal,vertical,vertical,none
1a,20,100182,2,52,116,19,F,NA,variable,heterogeneous,3,present,0.753972053527832,0,horizontal,vertical,1,0.682349984151012,red,1,2,579.163522034968,727.5,1020.83647796503,727.5,579.163522034968,727.5,1020.83647796503,727.5,800,345,0,0,0,0,0,0,4,0,0,NaN,NaN,NaN,horizontal,vertical,vertical,none,none,none
1a,20,100182,2,53,117,19,F,NA,variable,heterogeneous,6,present,1.00292301177979,0,horizontal,vertical,1,1.08233562145593,red,6,4,601.827779828472,760.476699717708,760.109211414741,348.13947314824,839.890788585259,851.86052685176,1038.06300875679,691.383827134052,998.172220171528,439.523300282291,760.109211414741,348.13947314824,561.936991243214,508.616172865948,601.827779828472,760.476699717708,5,3,6,5,0,4,horizontal,horizontal,horizontal,horizontal,horizontal,horizontal
1a,20,100182,2,54,118,19,F,NA,variable,heterogeneous,3,present,0.798301935195923,0,vertical,horizontal,1,0.75293568485188,red,2,3,1054.96116226488,604.450363641507,676.373546837184,376.971974679454,668.665290897936,818.577661679039,1054.96116226488,604.450363641507,676.373546837184,376.971974679454,0,0,0,0,0,0,6,4,3,NaN,NaN,NaN,vertical,vertical,horizontal,none,none,none
1a,20,100182,2,55,119,19,F,NA,variable,heterogeneous,6,absent,1.66133403778076,1,vertical,vertical,1,0.75293568485188,green,5,NaN,550.57236181288,546.982518841471,NaN,NaN,878.799333565612,842.519411655264,1049.42763818712,653.017481158529,970.628304621509,410.498069503264,721.200666434388,357.480588344736,550.57236181288,546.982518841471,629.371695378491,789.501930496736,5,5,3,6,4,0,horizontal,vertical,horizontal,horizontal,vertical,horizontal
1a,20,100182,2,56,120,19,F,NA,variable,heterogeneous,3,present,0.739131927490234,1,horizontal,horizontal,1,0.611764283450145,green,2,1,839.890788585259,348.13947314824,998.172220171528,760.476699717708,998.172220171528,760.476699717708,839.890788585259,348.13947314824,561.936991243214,691.383827134052,0,0,0,0,0,0,3,4,0,NaN,NaN,NaN,horizontal,horizontal,vertical,none,none,none
1a,20,100182,2,57,121,19,F,NA,variable,heterogeneous,3,absent,0.750345230102539,1,horizontal,horizontal,1,0.823521385552748,green,2,NaN,1055,600,NaN,NaN,672.5,820.836477965032,1055,600,672.5,379.163522034968,0,0,0,0,0,0,6,4,5,NaN,NaN,NaN,vertical,horizontal,horizontal,none,none,none
1a,20,100182,2,58,122,19,F,NA,variable,heterogeneous,4,present,1.61959099769592,1,horizontal,horizontal,1,0.905871369703761,red,2,1,986.495193912888,773.909581815937,626.090418184063,786.495193912888,626.090418184063,786.495193912888,986.495193912888,773.909581815937,973.909581815937,413.504806087112,613.504806087112,426.090418184063,0,0,0,0,6,4,3,5,NaN,NaN,horizontal,horizontal,horizontal,horizontal,none,none
1a,20,100182,2,59,123,19,F,NA,variable,heterogeneous,5,absent,1.04390096664429,1,vertical,vertical,1,0.999985637304918,red,5,NaN,596.34794493794,753.462830903772,NaN,NaN,883.019879386575,841.107236777826,1054.96116226488,595.549636358493,874.554784704298,356.142287229426,591.116228706307,453.738008730483,596.34794493794,753.462830903772,0,0,5,0,3,3,4,NaN,vertical,vertical,horizontal,vertical,vertical,none
1a,20,100182,2,60,124,19,F,NA,variable,heterogeneous,5,present,1.52592301368713,1,horizontal,horizontal,1,0.847049952453037,green,2,5,1052.5183575291,564.510859255183,616.568350913644,777.137884467044,911.784642431215,829.192481806288,1052.5183575291,564.510859255183,844.280285305067,348.874022981887,574.848363820974,480.284751489598,616.568350913644,777.137884467044,0,0,0,4,6,5,3,NaN,horizontal,horizontal,vertical,vertical,horizontal,none
1a,20,100182,2,61,125,19,F,NA,variable,heterogeneous,6,present,1.89655995368958,1,vertical,vertical,1,1.01174992075506,red,1,2,791.100628340862,854.844660889869,1016.25226451989,735.129412379467,791.100628340862,854.844660889869,1016.25226451989,735.129412379467,1025.15163617903,480.284751489598,808.899371659138,345.155339110131,583.747735480111,464.870587620533,574.848363820974,719.715248510402,4,5,5,3,0,3,vertical,vertical,horizontal,vertical,horizontal,horizontal
1a,20,100182,2,62,126,19,F,NA,variable,heterogeneous,4,absent,1.75103998184204,1,vertical,vertical,1,0.999985637304918,green,2,NaN,1034.72873763037,699.636437764765,NaN,NaN,700.363562235235,834.728737630372,1034.72873763037,699.636437764765,899.636437764765,365.271262369628,565.271262369628,500.363562235235,0,0,0,0,5,4,3,6,NaN,NaN,horizontal,vertical,horizontal,horizontal,none,none
1a,20,100182,2,63,127,19,F,NA,variable,heterogeneous,6,absent,1.41228604316711,1,horizontal,horizontal,1,0.705878551051302,green,3,NaN,1016.25226451989,464.870587620533,NaN,NaN,808.899371659138,854.844660889869,1025.15163617903,719.715248510402,1016.25226451989,464.870587620533,791.100628340862,345.155339110131,574.848363820974,480.284751489598,583.747735480111,735.129412379467,5,6,4,5,0,6,vertical,horizontal,horizontal,vertical,horizontal,vertical
1a,20,100182,2,64,128,19,F,NA,variable,heterogeneous,4,absent,0.911742925643921,1,horizontal,horizontal,1,0.941164220054195,red,2,NaN,1039.62161830041,512.784863451954,NaN,NaN,887.215136548046,839.621618300407,1039.62161830041,512.784863451954,712.784863451954,360.378381699593,560.378381699593,687.215136548046,0,0,0,0,5,4,0,3,NaN,NaN,vertical,horizontal,vertical,vertical,none,none
1a,20,100182,3,1,129,19,F,NA,variable,heterogeneous,5,present,1.10282301902771,1,vertical,vertical,1,0.858814235903182,green,4,3,563.568117085469,504.475318678942,817.787900804752,345.621167183745,935.129412379467,816.252264519889,1047.42541020038,538.309916622085,817.787900804752,345.621167183745,563.568117085469,504.475318678942,636.089159529932,795.341332995339,0,0,0,5,6,4,6,NaN,horizontal,vertical,horizontal,vertical,horizontal,none
1a,20,100182,3,2,130,19,F,NA,variable,heterogeneous,6,absent,0.654783964157104,1,vertical,vertical,1,0.694114267601157,red,3,NaN,986.495193912888,426.090418184063,NaN,NaN,857.362518857686,848.464366520235,1043.85771277057,674.554784704298,986.495193912888,426.090418184063,742.637481142314,351.535633479765,556.142287229426,525.445215295702,613.504806087112,773.909581815937,6,5,4,6,0,5,horizontal,vertical,vertical,vertical,vertical,vertical
1a,20,100182,3,3,131,19,F,NA,variable,heterogeneous,5,present,1.00722289085388,1,horizontal,horizontal,1,0.964692786954484,green,1,3,878.799333565612,842.519411655264,878.799333565612,357.480588344736,878.799333565612,842.519411655264,1055,600,878.799333565612,357.480588344736,593.700666434388,450.114760665419,593.700666434388,749.885239334581,0,0,4,0,5,3,0,NaN,horizontal,horizontal,horizontal,vertical,vertical,none
1a,20,100182,3,4,132,19,F,NA,variable,heterogeneous,5,present,1.0127899646759,1,vertical,vertical,1,1.07057133800579,red,3,2,1011.40458100154,457.40580961496,1000.94274216971,756.993676208043,712.784863451954,839.621618300407,1000.94274216971,756.993676208043,1011.40458100154,457.40580961496,729.712474266665,354.878267535729,545.155339110131,591.100628340862,0,0,3,5,4,0,6,NaN,horizontal,horizontal,vertical,vertical,vertical,none
1a,20,100182,3,5,133,19,F,NA,variable,heterogeneous,3,absent,0.723565101623535,1,horizontal,horizontal,1,0.905871369703761,green,1,NaN,831.076682568313,853.099268668537,NaN,NaN,831.076682568313,853.099268668537,1003.65205506206,446.537169096228,565.271262369628,500.363562235235,0,0,0,0,0,0,4,6,0,NaN,NaN,NaN,horizontal,vertical,horizontal,none,none,none
1a,20,100182,3,6,134,19,F,NA,variable,heterogeneous,4,absent,0.798430919647217,1,horizontal,horizontal,1,1.01174992075506,green,4,NaN,545.03883773512,604.450363641507,NaN,NaN,804.450363641507,854.96116226488,1054.96116226488,595.549636358493,795.549636358493,345.03883773512,545.03883773512,604.450363641507,0,0,0,0,0,3,0,4,NaN,NaN,horizontal,horizontal,horizontal,horizontal,none,none
1a,20,100182,3,7,135,19,F,NA,variable,heterogeneous,3,absent,0.777354001998901,1,horizontal,horizontal,1,0.92939993660405,green,1,NaN,977.137884467044,783.431649086356,NaN,NaN,977.137884467044,783.431649086356,870.287525733335,354.878267535729,552.574589799621,661.690083377915,0,0,0,0,0,0,4,5,0,NaN,NaN,NaN,horizontal,horizontal,vertical,none,none,none
1a,20,100182,3,8,136,19,F,NA,variable,heterogeneous,3,absent,0.974088907241821,1,vertical,vertical,1,0.847049952453037,red,3,NaN,556.142287229426,525.445215295702,NaN,NaN,857.362518857686,848.464366520235,986.495193912888,426.090418184063,556.142287229426,525.445215295702,0,0,0,0,0,0,5,6,4,NaN,NaN,NaN,horizontal,horizontal,vertical,none,none,none
1a,20,100182,3,9,137,19,F,NA,variable,heterogeneous,6,present,1.13454699516296,1,horizontal,horizontal,1,1.0470427711055,red,1,5,692.232343256122,831.108485694346,653.738008730483,391.116228706307,692.232343256122,831.108485694346,946.261991269517,808.883771293693,1054.0296480134,577.775285599347,907.767656743878,368.891514305654,653.738008730483,391.116228706307,545.970351986605,622.224714400653,4,0,6,3,3,6,horizontal,vertical,vertical,horizontal,horizontal,horizontal
1a,20,100182,3,10,138,19,F,NA,variable,heterogeneous,4,present,1.22491216659546,0,vertical,horizontal,1,0.77646425175217,green,2,4,1008.88377129369,746.261991269517,591.116228706307,453.738008730483,653.738008730483,808.883771293693,1008.88377129369,746.261991269517,946.261991269517,391.116228706307,591.116228706307,453.738008730483,0,0,0,0,3,4,3,0,NaN,NaN,horizontal,vertical,horizontal,horizontal,none,none
1a,20,100182,3,11,139,19,F,NA,variable,heterogeneous,4,present,1.88287401199341,1,vertical,vertical,1,1.05880705455564,red,1,4,977.137884467044,783.431649086356,616.568350913644,777.137884467044,977.137884467044,783.431649086356,983.431649086356,422.862115532956,622.862115532956,416.568350913644,616.568350913644,777.137884467044,0,0,0,0,4,3,5,0,NaN,NaN,vertical,horizontal,horizontal,horizontal,none,none
1a,20,100182,3,12,140,19,F,NA,variable,heterogeneous,4,absent,0.838255882263184,1,horizontal,horizontal,1,1.07057133800579,red,4,NaN,548.13947314824,639.890788585259,NaN,NaN,839.890788585259,851.86052685176,1051.86052685176,560.109211414741,760.109211414741,348.13947314824,548.13947314824,639.890788585259,0,0,0,0,6,5,3,4,NaN,NaN,vertical,vertical,horizontal,horizontal,none,none
1a,20,100182,3,13,141,19,F,NA,variable,heterogeneous,6,present,1.35871195793152,1,vertical,vertical,1,0.976457070404628,red,4,5,844.280285305067,348.874022981887,604.658667004661,436.089159529932,755.719714694933,851.125977018113,995.341332995339,763.910840470068,1039.62161830041,512.784863451954,844.280285305067,348.874022981887,604.658667004661,436.089159529932,560.378381699593,687.215136548046,6,3,0,4,0,5,vertical,horizontal,horizontal,vertical,horizontal,horizontal
1a,20,100182,3,14,142,19,F,NA,variable,heterogeneous,5,present,1.00390815734863,1,vertical,vertical,1,0.894107086253616,red,2,1,1031.10848569435,707.767656743878,768.923317431687,853.099268668537,768.923317431687,853.099268668537,1031.10848569435,707.767656743878,973.909581815937,413.504806087112,676.373546837184,376.971974679454,549.685068220846,648.656293821019,0,0,6,4,0,5,3,NaN,vertical,vertical,horizontal,horizontal,horizontal,none
1a,20,100182,3,15,143,19,F,NA,variable,heterogeneous,6,present,0.804352998733521,0,horizontal,vertical,1,0.611764283450145,green,3,6,1029.19248180629,488.215357568785,570.807518193712,711.784642431215,782.212099195248,854.378832816255,1011.40458100154,742.594190385041,1029.19248180629,488.215357568785,817.787900804752,345.621167183745,588.595418998464,457.40580961496,570.807518193712,711.784642431215,5,6,4,0,3,5,vertical,horizontal,horizontal,horizontal,horizontal,horizontal
1a,20,100182,3,16,144,19,F,NA,variable,heterogeneous,5,absent,0.761620044708252,1,horizontal,horizontal,1,0.647057133800578,red,3,NaN,942.594190385041,388.595418998464,NaN,NaN,808.899371659138,854.844660889869,1045.12173246427,670.287525733335,942.594190385041,388.595418998464,643.006323791957,399.057257830286,560.378381699593,687.215136548046,0,0,0,0,4,5,5,NaN,vertical,vertical,horizontal,horizontal,vertical,none
1a,20,100182,3,17,145,19,F,NA,variable,heterogeneous,5,present,0.526851177215576,1,horizontal,horizontal,1,0.694114267601157,green,3,5,946.261991269517,391.116228706307,558.892763222174,683.019879386575,804.450363641507,854.96116226488,1043.85771277057,674.554784704298,946.261991269517,391.116228706307,646.537169096228,396.34794493794,558.892763222174,683.019879386575,0,0,0,6,4,5,5,NaN,vertical,horizontal,horizontal,vertical,vertical,none
1a,20,100182,3,18,146,19,F,NA,variable,heterogeneous,6,absent,0.739051818847656,1,horizontal,horizontal,1,1.08233562145593,green,4,NaN,755.719714694933,348.874022981887,NaN,NaN,844.280285305067,851.125977018113,1039.62161830041,687.215136548046,995.341332995339,436.089159529932,755.719714694933,348.874022981887,560.378381699593,512.784863451954,604.658667004661,763.910840470068,5,3,0,4,5,0,vertical,horizontal,vertical,horizontal,horizontal,horizontal
1a,20,100182,3,19,147,19,F,NA,variable,heterogeneous,6,present,0.655340909957886,1,horizontal,horizontal,1,0.670585700700868,red,4,3,729.712474266665,354.878267535729,977.137884467044,416.568350913644,870.287525733335,845.121732464271,1047.42541020038,661.690083377915,977.137884467044,416.568350913644,729.712474266665,354.878267535729,552.574589799621,538.309916622085,622.862115532956,783.431649086356,3,5,5,4,6,0,horizontal,vertical,vertical,horizontal,vertical,vertical
1a,20,100182,3,20,148,19,F,NA,variable,heterogeneous,6,absent,1.27764701843262,1,vertical,vertical,1,0.647057133800578,green,1,NaN,768.923317431687,853.099268668537,NaN,NaN,768.923317431687,853.099268668537,1003.65205506206,753.462830903772,1034.72873763037,500.363562235235,831.076682568313,346.900731331463,596.34794493794,446.537169096228,565.271262369628,699.636437764765,4,6,5,3,0,5,vertical,horizontal,vertical,horizontal,horizontal,horizontal
1a,20,100182,3,21,149,19,F,NA,variable,heterogeneous,5,absent,0.770580053329468,1,vertical,vertical,1,0.77646425175217,red,5,NaN,599.057257830286,756.993676208043,NaN,NaN,887.215136548046,839.621618300407,1054.84466088987,591.100628340862,870.287525733335,354.878267535729,588.595418998464,457.40580961496,599.057257830286,756.993676208043,0,0,0,5,3,3,4,NaN,vertical,vertical,vertical,horizontal,vertical,none
1a,20,100182,3,22,150,19,F,NA,variable,heterogeneous,3,present,0.55231785774231,1,horizontal,horizontal,1,0.705878551051302,green,2,1,1047.42541020038,538.309916622085,729.712474266665,845.121732464271,729.712474266665,845.121732464271,1047.42541020038,538.309916622085,622.862115532956,416.568350913644,0,0,0,0,0,0,6,4,0,NaN,NaN,NaN,vertical,horizontal,horizontal,none,none,none
1a,20,100182,3,23,151,19,F,NA,variable,heterogeneous,4,absent,0.486068964004517,1,horizontal,horizontal,1,0.717642834501446,red,2,NaN,1008.88377129369,453.738008730483,NaN,NaN,946.261991269517,808.883771293693,1008.88377129369,453.738008730483,653.738008730483,391.116228706307,591.116228706307,746.261991269517,0,0,0,0,0,4,3,6,NaN,NaN,horizontal,horizontal,horizontal,vertical,none,none
1a,20,100182,3,24,152,19,F,NA,variable,heterogeneous,4,absent,0.751475095748901,1,vertical,vertical,1,0.77646425175217,red,4,NaN,616.568350913644,777.137884467044,NaN,NaN,977.137884467044,783.431649086356,983.431649086356,422.862115532956,622.862115532956,416.568350913644,616.568350913644,777.137884467044,0,0,0,0,3,6,3,4,NaN,NaN,vertical,vertical,horizontal,vertical,none,none
1a,20,100182,3,25,153,19,F,NA,variable,heterogeneous,3,present,0.586843013763428,1,vertical,vertical,1,0.611764283450145,red,2,1,1052.5183575291,564.510859255183,704.475318678942,836.431882914531,704.475318678942,836.431882914531,1052.5183575291,564.510859255183,643.006323791957,399.057257830286,0,0,0,0,0,0,3,4,3,NaN,NaN,NaN,horizontal,vertical,horizontal,none,none,none
1a,20,100182,3,26,154,19,F,NA,variable,heterogeneous,5,absent,0.936532974243164,1,vertical,vertical,1,0.882342802803471,green,1,NaN,878.799333565612,842.519411655264,NaN,NaN,878.799333565612,842.519411655264,1055,600,878.799333565612,357.480588344736,593.700666434388,450.114760665419,593.700666434388,749.885239334581,0,0,4,6,5,3,0,NaN,vertical,horizontal,horizontal,vertical,horizontal,none
1a,20,100182,3,27,155,19,F,NA,variable,heterogeneous,6,present,0.522711992263794,1,vertical,vertical,1,0.75293568485188,green,2,1,986.495193912888,773.909581815937,742.637481142314,848.464366520235,742.637481142314,848.464366520235,986.495193912888,773.909581815937,1043.85771277057,525.445215295702,857.362518857686,351.535633479765,613.504806087112,426.090418184063,556.142287229426,674.554784704298,3,4,0,3,5,5,horizontal,vertical,vertical,vertical,horizontal,horizontal
1a,20,100182,3,28,156,19,F,NA,variable,heterogeneous,5,present,1.64086604118347,1,horizontal,horizontal,1,0.976457070404628,red,5,3,547.481642470899,635.489140744817,983.431649086356,422.862115532956,755.719714694933,851.125977018113,1025.15163617903,719.715248510402,983.431649086356,422.862115532956,688.215357568785,370.807518193712,547.481642470899,635.489140744817,0,0,3,6,6,3,4,NaN,horizontal,vertical,horizontal,vertical,horizontal,none
1a,20,100182,3,29,157,19,F,NA,variable,heterogeneous,5,present,1.29031896591187,1,vertical,vertical,1,1.0470427711055,green,4,1,688.215357568785,370.807518193712,755.719714694933,851.125977018113,755.719714694933,851.125977018113,1025.15163617903,719.715248510402,983.431649086356,422.862115532956,688.215357568785,370.807518193712,547.481642470899,635.489140744817,0,0,6,6,5,4,0,NaN,horizontal,vertical,vertical,vertical,vertical,none
1a,20,100182,3,30,158,19,F,NA,variable,heterogeneous,6,absent,0.946201086044312,1,horizontal,horizontal,1,0.882342802803471,red,6,NaN,664.870587620533,816.252264519889,NaN,NaN,919.715248510402,825.151636179026,1054.84466088987,608.899371659138,935.129412379467,383.747735480111,680.284751489598,374.848363820974,545.155339110131,591.100628340862,664.870587620533,816.252264519889,3,6,5,0,6,4,horizontal,vertical,horizontal,horizontal,horizontal,horizontal
1a,20,100182,3,31,159,19,F,NA,variable,heterogeneous,3,absent,0.697841167449951,1,vertical,vertical,1,0.847049952453037,red,1,NaN,953.462830903772,803.65205506206,NaN,NaN,953.462830903772,803.65205506206,899.636437764765,365.271262369628,546.900731331463,631.076682568313,0,0,0,0,0,0,4,3,3,NaN,NaN,NaN,vertical,vertical,vertical,none,none,none
1a,20,100182,3,32,160,19,F,NA,variable,heterogeneous,4,present,0.680099010467529,1,horizontal,horizontal,1,0.799992818652459,red,1,4,734.001143498857,846.311085703712,553.688914296288,534.001143498857,734.001143498857,846.311085703712,1046.31108570371,665.998856501143,865.998856501143,353.688914296288,553.688914296288,534.001143498857,0,0,0,0,4,3,3,5,NaN,NaN,horizontal,horizontal,horizontal,vertical,none,none
1a,20,100182,3,33,161,19,F,NA,variable,heterogeneous,3,present,0.440692186355591,0,horizontal,vertical,1,0.941164220054195,red,2,3,1029.19248180629,488.215357568785,588.595418998464,457.40580961496,782.212099195248,854.378832816255,1029.19248180629,488.215357568785,588.595418998464,457.40580961496,0,0,0,0,0,0,5,4,5,NaN,NaN,NaN,horizontal,horizontal,vertical,none,none,none
1a,20,100182,3,34,162,19,F,NA,variable,heterogeneous,3,present,0.486005067825317,0,horizontal,vertical,1,0.611764283450145,red,2,1,1053.60308331891,626.654758133252,650.114760665419,806.299333565612,650.114760665419,806.299333565612,1053.60308331891,626.654758133252,696.282156015671,367.045908301137,0,0,0,0,0,0,6,4,6,NaN,NaN,NaN,horizontal,horizontal,horizontal,none,none,none
1a,20,100182,3,35,163,19,F,NA,variable,heterogeneous,3,absent,0.626028060913086,1,vertical,vertical,1,0.717642834501446,green,2,NaN,1027.20666366803,484.232422566416,NaN,NaN,786.654331158049,854.650531362416,1027.20666366803,484.232422566416,586.139005173917,461.117046071168,0,0,0,0,0,0,0,4,0,NaN,NaN,NaN,horizontal,vertical,vertical,none,none,none
1a,20,100182,3,36,164,19,F,NA,variable,heterogeneous,3,absent,0.690189123153687,1,horizontal,horizontal,1,0.764699968302025,red,2,NaN,835.489140744817,347.4816424709,NaN,NaN,1000.94274216971,756.993676208043,835.489140744817,347.4816424709,563.568117085469,695.524681321058,0,0,0,0,0,0,6,4,6,NaN,NaN,NaN,horizontal,horizontal,vertical,none,none,none
1a,20,100182,3,37,165,19,F,NA,variable,heterogeneous,5,absent,0.797660112380981,1,horizontal,horizontal,1,1.07057133800579,red,1,NaN,716.980120613425,841.107236777826,NaN,NaN,716.980120613425,841.107236777826,1003.65205506206,753.462830903772,1008.88377129369,453.738008730483,725.445215295702,356.142287229426,545.03883773512,595.549636358493,0,0,4,6,5,0,0,NaN,horizontal,vertical,vertical,vertical,vertical,none
1a,20,100182,3,38,166,19,F,NA,variable,heterogeneous,6,absent,0.62387490272522,1,horizontal,horizontal,1,0.717642834501446,green,2,NaN,1016.25226451989,735.129412379467,NaN,NaN,791.100628340862,854.844660889869,1016.25226451989,735.129412379467,1025.15163617903,480.284751489598,808.899371659138,345.155339110131,583.747735480111,464.870587620533,574.848363820974,719.715248510402,0,4,6,3,5,3,horizontal,horizontal,horizontal,vertical,horizontal,vertical
1a,20,100182,3,39,167,19,F,NA,variable,heterogeneous,3,absent,0.500764846801758,1,vertical,vertical,1,0.799992818652459,green,2,NaN,1039.62161830041,687.215136548046,NaN,NaN,604.658667004661,763.910840470068,1039.62161830041,687.215136548046,755.719714694933,348.874022981887,0,0,0,0,0,0,6,4,0,NaN,NaN,NaN,vertical,vertical,horizontal,none,none,none
1a,20,100182,3,40,168,19,F,NA,variable,heterogeneous,5,absent,0.497787952423096,1,vertical,vertical,1,0.952928503504339,green,2,NaN,1054.96116226488,595.549636358493,NaN,NaN,883.019879386575,841.107236777826,1054.96116226488,595.549636358493,874.554784704298,356.142287229426,591.116228706307,453.738008730483,596.34794493794,753.462830903772,0,0,3,4,3,5,6,NaN,horizontal,vertical,horizontal,horizontal,vertical,none
1a,20,100182,3,41,169,19,F,NA,variable,heterogeneous,4,absent,0.704551935195923,1,horizontal,horizontal,1,0.823521385552748,green,3,NaN,768.923317431687,346.900731331463,NaN,NaN,831.076682568313,853.099268668537,1053.09926866854,568.923317431687,768.923317431687,346.900731331463,546.900731331463,631.076682568313,0,0,0,0,6,5,4,5,NaN,NaN,horizontal,horizontal,horizontal,vertical,none,none
1a,20,100182,3,42,170,19,F,NA,variable,heterogeneous,4,present,1.00170493125916,1,horizontal,horizontal,1,0.92939993660405,green,3,2,768.923317431687,346.900731331463,1053.09926866854,568.923317431687,831.076682568313,853.099268668537,1053.09926866854,568.923317431687,768.923317431687,346.900731331463,546.900731331463,631.076682568313,0,0,0,0,6,0,4,6,NaN,NaN,vertical,horizontal,horizontal,horizontal,none,none
1a,20,100182,3,43,171,19,F,NA,variable,heterogeneous,3,present,0.770869970321655,1,horizontal,horizontal,1,0.658821417250723,green,2,1,891.383827134052,361.936991243214,960.476699717708,798.172220171528,960.476699717708,798.172220171528,891.383827134052,361.936991243214,548.13947314824,639.890788585259,0,0,0,0,0,0,0,4,6,NaN,NaN,NaN,horizontal,horizontal,horizontal,none,none,none
1a,20,100182,3,44,172,19,F,NA,variable,heterogeneous,4,present,1.19820713996887,1,vertical,vertical,1,1.01174992075506,red,4,3,546.900731331463,631.076682568313,768.923317431687,346.900731331463,831.076682568313,853.099268668537,1053.09926866854,568.923317431687,768.923317431687,346.900731331463,546.900731331463,631.076682568313,0,0,0,0,6,3,5,4,NaN,NaN,horizontal,horizontal,horizontal,vertical,none,none
1a,20,100182,3,45,173,19,F,NA,variable,heterogeneous,6,present,0.842497110366821,0,vertical,horizontal,1,0.976457070404628,red,4,2,878.799333565612,357.480588344736,970.628304621509,789.501930496736,721.200666434388,842.519411655264,970.628304621509,789.501930496736,1049.42763818712,546.982518841471,878.799333565612,357.480588344736,629.371695378491,410.498069503264,550.57236181288,653.017481158529,5,0,3,4,6,3,horizontal,vertical,vertical,vertical,vertical,vertical
1a,20,100182,3,46,174,19,F,NA,variable,heterogeneous,4,present,1.06787896156311,1,horizontal,horizontal,1,1.02351420420521,green,1,4,831.076682568313,853.099268668537,546.900731331463,631.076682568313,831.076682568313,853.099268668537,1053.09926866854,568.923317431687,768.923317431687,346.900731331463,546.900731331463,631.076682568313,0,0,0,0,4,3,5,5,NaN,NaN,horizontal,vertical,vertical,horizontal,none,none
1a,20,100182,3,47,175,19,F,NA,variable,heterogeneous,6,present,1.30038380622864,1,vertical,vertical,1,0.75293568485188,green,3,5,1053.09926866854,568.923317431687,646.537169096228,396.34794493794,700.363562235235,834.728737630372,953.462830903772,803.65205506206,1053.09926866854,568.923317431687,899.636437764765,365.271262369628,646.537169096228,396.34794493794,546.900731331463,631.076682568313,6,6,4,5,5,3,horizontal,vertical,vertical,horizontal,horizontal,vertical
1a,20,100182,3,48,176,19,F,NA,variable,heterogeneous,5,absent,0.939795017242432,1,horizontal,horizontal,1,1.07057133800579,green,5,NaN,560.378381699593,687.215136548046,NaN,NaN,808.899371659138,854.844660889869,1045.12173246427,670.287525733335,942.594190385041,388.595418998464,643.006323791957,399.057257830286,560.378381699593,687.215136548046,0,0,5,0,5,3,4,NaN,vertical,vertical,horizontal,horizontal,horizontal,none
1a,20,100182,3,49,177,19,F,NA,variable,heterogeneous,4,absent,0.665292024612427,1,vertical,vertical,1,0.705878551051302,red,3,NaN,844.280285305067,348.874022981887,NaN,NaN,755.719714694933,851.125977018113,1051.12597701811,644.280285305067,844.280285305067,348.874022981887,548.874022981887,555.719714694933,0,0,0,0,0,6,4,3,NaN,NaN,vertical,vertical,vertical,horizontal,none,none
1a,20,100182,3,50,178,19,F,NA,variable,heterogeneous,6,absent,1.19037985801697,1,vertical,vertical,1,0.788228535202314,red,3,NaN,1054.65053136242,586.654331158049,NaN,NaN,684.232422566416,827.206663668034,938.882953928832,813.860994826083,1054.65053136242,586.654331158049,915.767577433584,372.793336331966,661.117046071168,386.139005173917,545.349468637584,613.345668841951,6,0,4,3,0,6,vertical,horizontal,vertical,vertical,horizontal,vertical
1a,20,100182,3,51,179,19,F,NA,variable,heterogeneous,4,absent,0.70754599571228,1,vertical,vertical,1,1.05880705455564,green,4,NaN,604.658667004661,763.910840470068,NaN,NaN,963.910840470068,795.341332995339,995.341332995339,436.089159529932,636.089159529932,404.658667004661,604.658667004661,763.910840470068,0,0,0,0,5,6,5,4,NaN,NaN,vertical,horizontal,horizontal,vertical,none,none
1a,20,100182,3,52,180,19,F,NA,variable,heterogeneous,3,present,0.637475967407227,1,vertical,vertical,1,0.77646425175217,red,3,2,782.212099195248,345.621167183745,1029.19248180629,711.784642431215,588.595418998464,742.594190385041,1029.19248180629,711.784642431215,782.212099195248,345.621167183745,0,0,0,0,0,0,0,6,4,NaN,NaN,NaN,vertical,vertical,vertical,none,none,none
1a,20,100182,3,53,181,19,F,NA,variable,heterogeneous,5,present,0.927852869033813,1,horizontal,horizontal,1,0.870578519353327,red,1,4,672.5,820.836477965032,773.345241866748,346.39691668109,672.5,820.836477965032,970.628304621509,789.501930496736,1032.95409169886,496.282156015671,773.345241866748,346.39691668109,550.57236181288,546.982518841471,0,0,4,0,6,0,3,NaN,horizontal,vertical,vertical,vertical,vertical,none
1a,20,100182,3,54,182,19,F,NA,variable,heterogeneous,5,absent,1.29306817054749,1,horizontal,horizontal,1,0.92939993660405,green,1,NaN,907.767656743878,831.108485694346,NaN,NaN,907.767656743878,831.108485694346,1053.09926866854,568.923317431687,848.656293821019,349.685068220846,576.971974679454,476.373546837184,613.504806087112,773.909581815937,0,0,4,5,3,6,3,NaN,horizontal,horizontal,vertical,vertical,horizontal,none
1a,20,100182,3,55,183,19,F,NA,variable,heterogeneous,3,absent,1.41644406318665,0,horizontal,vertical,1,0.858814235903182,red,2,NaN,995.341332995339,436.089159529932,NaN,NaN,844.280285305067,851.125977018113,995.341332995339,436.089159529932,560.378381699593,512.784863451954,0,0,0,0,0,0,5,4,3,NaN,NaN,NaN,vertical,horizontal,vertical,none,none,none
1a,20,100182,3,56,184,19,F,NA,variable,heterogeneous,4,absent,1.12233304977417,0,vertical,horizontal,1,1.07057133800579,green,3,NaN,734.001143498857,353.688914296288,NaN,NaN,865.998856501143,846.311085703712,1046.31108570371,534.001143498857,734.001143498857,353.688914296288,553.688914296288,665.998856501143,0,0,0,0,6,5,4,5,NaN,NaN,horizontal,horizontal,vertical,horizontal,none,none
1a,20,100182,3,57,185,19,F,NA,variable,heterogeneous,6,absent,NaN,0,horizontal,none,0,1.0470427711055,red,6,NaN,548.13947314824,639.890788585259,NaN,NaN,708.616172865948,838.063008756786,960.476699717708,798.172220171528,1051.86052685176,560.109211414741,891.383827134052,361.936991243214,639.523300282292,401.827779828472,548.13947314824,639.890788585259,5,5,0,0,3,4,horizontal,vertical,horizontal,horizontal,horizontal,horizontal
1a,20,100182,3,58,186,19,F,NA,variable,heterogeneous,4,present,0.74322509765625,1,horizontal,horizontal,1,0.847049952453037,red,4,2,616.568350913644,777.137884467044,983.431649086356,422.862115532956,977.137884467044,783.431649086356,983.431649086356,422.862115532956,622.862115532956,416.568350913644,616.568350913644,777.137884467044,0,0,0,0,0,6,5,4,NaN,NaN,vertical,horizontal,horizontal,horizontal,none,none
1a,20,100182,3,59,187,19,F,NA,variable,heterogeneous,5,absent,1.08851909637451,1,vertical,vertical,1,0.917635653153905,red,2,NaN,1047.42541020038,661.690083377915,NaN,NaN,817.787900804752,854.378832816255,1047.42541020038,661.690083377915,935.129412379467,383.747735480111,636.089159529932,404.658667004661,563.568117085469,695.524681321058,0,0,5,4,5,3,6,NaN,vertical,vertical,horizontal,vertical,horizontal,none
1a,20,100182,3,60,188,19,F,NA,variable,heterogeneous,4,present,0.846189022064209,1,vertical,vertical,1,0.988221353854773,green,3,1,668.665290897936,381.422338320961,931.334709102064,818.577661679039,931.334709102064,818.577661679039,1018.57766167904,468.665290897936,668.665290897936,381.422338320961,581.422338320961,731.334709102064,0,0,0,0,5,6,4,0,NaN,NaN,vertical,vertical,vertical,horizontal,none,none
1a,20,100182,3,61,189,19,F,NA,variable,heterogeneous,3,present,0.672669887542725,1,vertical,vertical,1,0.858814235903182,green,1,2,970.628304621509,789.501930496736,878.799333565612,357.480588344736,970.628304621509,789.501930496736,878.799333565612,357.480588344736,550.57236181288,653.017481158529,0,0,0,0,0,0,4,0,6,NaN,NaN,NaN,vertical,horizontal,horizontal,none,none,none
1a,20,100182,3,62,190,19,F,NA,variable,heterogeneous,6,present,0.725548982620239,1,horizontal,horizontal,1,0.75293568485188,green,5,1,639.523300282292,401.827779828472,708.616172865948,838.063008756786,708.616172865948,838.063008756786,960.476699717708,798.172220171528,1051.86052685176,560.109211414741,891.383827134052,361.936991243214,639.523300282292,401.827779828472,548.13947314824,639.890788585259,6,5,0,0,4,6,vertical,vertical,vertical,vertical,horizontal,vertical
1a,20,100182,3,63,191,19,F,NA,variable,heterogeneous,3,present,1.07598400115967,0,vertical,horizontal,1,0.799992818652459,green,1,2,684.232422566416,827.206663668034,1054.65053136242,586.654331158049,684.232422566416,827.206663668034,1054.65053136242,586.654331158049,661.117046071168,386.139005173917,0,0,0,0,0,0,4,3,5,NaN,NaN,NaN,vertical,horizontal,vertical,none,none,none
1a,20,100182,3,64,192,19,F,NA,variable,heterogeneous,6,absent,1.29037189483643,1,vertical,vertical,1,0.823521385552748,green,4,NaN,680.284751489598,374.848363820974,NaN,NaN,919.715248510402,825.151636179026,1054.84466088987,608.899371659138,935.129412379467,383.747735480111,680.284751489598,374.848363820974,545.155339110131,591.100628340862,664.870587620533,816.252264519889,0,5,3,4,0,5,vertical,vertical,horizontal,vertical,horizontal,horizontal
1a,20,100182,4,1,193,19,F,NA,variable,heterogeneous,4,absent,0.74775505065918,1,vertical,vertical,1,1.02351420420521,green,1,NaN,712.784863451954,839.621618300407,NaN,NaN,712.784863451954,839.621618300407,1039.62161830041,687.215136548046,887.215136548046,360.378381699593,560.378381699593,512.784863451954,0,0,0,0,4,6,3,0,NaN,NaN,vertical,horizontal,vertical,horizontal,none,none
1a,20,100182,4,2,194,19,F,NA,variable,heterogeneous,3,present,0.989264965057373,1,horizontal,horizontal,1,0.717642834501446,red,2,3,1034.72873763037,699.636437764765,768.923317431687,346.900731331463,596.34794493794,753.462830903772,1034.72873763037,699.636437764765,768.923317431687,346.900731331463,0,0,0,0,0,0,6,4,5,NaN,NaN,NaN,horizontal,horizontal,vertical,none,none,none
1a,20,100182,4,3,195,19,F,NA,variable,heterogeneous,3,absent,0.786787986755371,1,vertical,vertical,1,0.882342802803471,red,1,NaN,919.715248510402,825.151636179026,NaN,NaN,919.715248510402,825.151636179026,935.129412379467,383.747735480111,545.155339110131,591.100628340862,0,0,0,0,0,0,4,3,3,NaN,NaN,NaN,vertical,horizontal,horizontal,none,none,none
1a,20,100182,4,4,196,19,F,NA,variable,heterogeneous,5,present,0.924260139465332,0,vertical,horizontal,1,0.870578519353327,green,2,1,1054.84466088987,591.100628340862,887.215136548046,839.621618300407,887.215136548046,839.621618300407,1054.84466088987,591.100628340862,870.287525733335,354.878267535729,588.595418998464,457.40580961496,599.057257830286,756.993676208043,0,0,5,4,6,3,3,NaN,horizontal,vertical,vertical,horizontal,horizontal,none
1a,20,100182,4,5,197,19,F,NA,variable,heterogeneous,4,absent,0.923370122909546,1,horizontal,horizontal,1,0.823521385552748,green,3,NaN,704.475318678942,363.568117085469,NaN,NaN,895.524681321058,836.431882914531,1036.43188291453,504.475318678942,704.475318678942,363.568117085469,563.568117085469,695.524681321058,0,0,0,0,5,3,4,0,NaN,NaN,vertical,vertical,horizontal,vertical,none,none
1a,20,100182,4,6,198,19,F,NA,variable,heterogeneous,5,absent,0.727578163146973,1,horizontal,horizontal,1,0.682349984151012,red,2,NaN,995.341332995339,763.910840470068,NaN,NaN,704.475318678942,836.431882914531,995.341332995339,763.910840470068,1016.25226451989,464.870587620533,738.309916622085,352.574589799621,545.621167183745,582.212099195248,0,0,5,4,6,0,3,NaN,horizontal,horizontal,vertical,vertical,horizontal,none
1a,20,100182,4,7,199,19,F,NA,variable,heterogeneous,6,present,1.04803800582886,1,horizontal,horizontal,1,0.894107086253616,green,3,6,989.501930496736,429.371695378491,610.498069503264,770.628304621509,853.017481158529,849.42763818712,1042.51941165526,678.799333565612,989.501930496736,429.371695378491,746.982518841471,350.57236181288,557.480588344736,521.200666434388,610.498069503264,770.628304621509,0,5,4,0,6,3,vertical,horizontal,horizontal,horizontal,horizontal,horizontal
1a,20,100182,4,8,200,19,F,NA,variable,heterogeneous,6,present,0.849015951156616,1,vertical,vertical,1,0.788228535202314,green,5,1,622.862115532956,416.568350913644,729.712474266665,845.121732464271,729.712474266665,845.121732464271,977.137884467044,783.431649086356,1047.42541020038,538.309916622085,870.287525733335,354.878267535729,622.862115532956,416.568350913644,552.574589799621,661.690083377915,6,0,0,5,4,3,vertical,horizontal,horizontal,vertical,vertical,horizontal
1a,20,100182,4,9,201,19,F,NA,variable,heterogeneous,6,absent,0.888150930404663,1,horizontal,horizontal,1,1.09409990490607,red,6,NaN,591.116228706307,746.261991269517,NaN,NaN,822.224714400653,854.029648013395,1031.10848569435,707.767656743878,1008.88377129369,453.738008730483,777.775285599347,345.970351986605,568.891514305654,492.232343256122,591.116228706307,746.261991269517,3,5,6,3,5,4,horizontal,vertical,vertical,vertical,vertical,horizontal
1a,20,100182,4,10,202,19,F,NA,variable,heterogeneous,6,absent,0.970561027526855,1,horizontal,horizontal,1,0.623528566900289,red,1,NaN,831.076682568313,853.099268668537,NaN,NaN,831.076682568313,853.099268668537,1034.72873763037,699.636437764765,1003.65205506206,446.537169096228,768.923317431687,346.900731331463,565.271262369628,500.363562235235,596.34794493794,753.462830903772,4,0,3,5,6,3,horizontal,horizontal,horizontal,horizontal,horizontal,horizontal
1a,20,100182,4,11,203,19,F,NA,variable,heterogeneous,5,absent,0.658665895462036,1,vertical,vertical,1,0.823521385552748,green,5,NaN,552.574589799621,661.690083377915,NaN,NaN,782.212099195248,854.378832816255,1036.43188291453,695.524681321058,963.910840470068,404.658667004661,664.870587620533,383.747735480111,552.574589799621,661.690083377915,0,0,6,0,0,5,4,NaN,horizontal,vertical,vertical,vertical,vertical,none
1a,20,100182,4,12,204,19,F,NA,variable,heterogeneous,4,absent,0.844525098800659,1,horizontal,horizontal,1,0.823521385552748,red,1,NaN,755.719714694933,851.125977018113,NaN,NaN,755.719714694933,851.125977018113,1051.12597701811,644.280285305067,844.280285305067,348.874022981887,548.874022981887,555.719714694933,0,0,0,0,4,6,0,3,NaN,NaN,horizontal,vertical,horizontal,vertical,none,none
1a,20,100182,4,13,205,19,F,NA,variable,heterogeneous,5,absent,1.07326602935791,1,vertical,vertical,1,0.788228535202314,red,3,NaN,1025.15163617903,480.284751489598,NaN,NaN,688.215357568785,829.192481806288,983.431649086356,777.137884467044,1025.15163617903,480.284751489598,755.719714694933,348.874022981887,547.481642470899,564.510859255183,0,0,6,5,4,0,3,NaN,horizontal,vertical,vertical,horizontal,horizontal,none
1a,20,100182,4,14,206,19,F,NA,variable,heterogeneous,6,present,1.40787887573242,1,horizontal,horizontal,1,0.647057133800578,green,1,2,738.309916622085,847.425410200379,983.431649086356,777.137884467044,738.309916622085,847.425410200379,983.431649086356,777.137884467044,1045.12173246427,529.712474266665,861.690083377915,352.574589799621,616.568350913644,422.862115532956,554.878267535729,670.287525733335,4,0,5,6,3,0,horizontal,horizontal,vertical,vertical,horizontal,vertical
1a,20,100182,4,15,207,19,F,NA,variable,heterogeneous,6,present,1.27012705802917,1,vertical,vertical,1,0.694114267601157,green,5,3,622.862115532956,416.568350913644,1047.42541020038,538.309916622085,729.712474266665,845.121732464271,977.137884467044,783.431649086356,1047.42541020038,538.309916622085,870.287525733335,354.878267535729,622.862115532956,416.568350913644,552.574589799621,661.690083377915,3,0,6,5,4,3,vertical,horizontal,horizontal,horizontal,vertical,horizontal
1a,20,100182,4,16,208,19,F,NA,variable,heterogeneous,3,absent,0.895617961883545,1,horizontal,horizontal,1,1.01174992075506,red,1,NaN,636.089159529932,795.341332995339,NaN,NaN,636.089159529932,795.341332995339,1051.12597701811,644.280285305067,712.784863451954,360.378381699593,0,0,0,0,0,0,4,3,6,NaN,NaN,NaN,horizontal,horizontal,vertical,none,none,none
1a,20,100182,4,17,209,19,F,NA,variable,heterogeneous,3,present,0.894455194473267,0,horizontal,vertical,1,0.823521385552748,green,2,1,1003.65205506206,446.537169096228,831.076682568313,853.099268668537,831.076682568313,853.099268668537,1003.65205506206,446.537169096228,565.271262369628,500.363562235235,0,0,0,0,0,0,0,4,0,NaN,NaN,NaN,horizontal,horizontal,vertical,none,none,none
1a,20,100182,4,18,210,19,F,NA,variable,heterogeneous,3,absent,0.687379837036133,1,horizontal,horizontal,1,0.741171401401736,red,2,NaN,1027.20666366803,715.767577433584,NaN,NaN,586.139005173917,738.882953928832,1027.20666366803,715.767577433584,786.654331158049,345.349468637584,0,0,0,0,0,0,6,4,3,NaN,NaN,NaN,horizontal,horizontal,vertical,none,none,none
1a,20,100182,4,19,211,19,F,NA,variable,heterogeneous,3,present,0.500180959701538,1,horizontal,horizontal,1,0.741171401401736,red,2,3,1032.95409169886,703.717843984329,773.345241866748,346.39691668109,593.700666434388,749.885239334581,1032.95409169886,703.717843984329,773.345241866748,346.39691668109,0,0,0,0,0,0,5,4,3,NaN,NaN,NaN,horizontal,horizontal,vertical,none,none,none
1a,20,100182,4,20,212,19,F,NA,variable,heterogeneous,6,present,1.17828989028931,1,vertical,vertical,1,0.999985637304918,red,5,2,629.371695378491,410.498069503264,970.628304621509,789.501930496736,721.200666434388,842.519411655264,970.628304621509,789.501930496736,1049.42763818712,546.982518841471,878.799333565612,357.480588344736,629.371695378491,410.498069503264,550.57236181288,653.017481158529,3,5,3,5,4,6,vertical,vertical,vertical,vertical,vertical,horizontal
1a,20,100182,4,21,213,19,F,NA,variable,heterogeneous,3,present,0.674125909805298,1,vertical,vertical,1,1.01174992075506,red,3,1,547.481642470899,564.510859255183,895.524681321058,836.431882914531,895.524681321058,836.431882914531,956.993676208043,399.057257830286,547.481642470899,564.510859255183,0,0,0,0,0,0,6,3,4,NaN,NaN,NaN,vertical,vertical,vertical,none,none,none
1a,20,100182,4,22,214,19,F,NA,variable,heterogeneous,4,present,0.762378931045532,1,horizontal,horizontal,1,0.917635653153905,red,4,1,552.574589799621,538.309916622085,738.309916622085,847.425410200379,738.309916622085,847.425410200379,1047.42541020038,661.690083377915,861.690083377915,352.574589799621,552.574589799621,538.309916622085,0,0,0,0,6,0,3,4,NaN,NaN,vertical,horizontal,horizontal,horizontal,none,none
1a,20,100182,4,23,215,19,F,NA,variable,heterogeneous,3,absent,0.747503995895386,1,vertical,vertical,1,1.08233562145593,green,2,NaN,1041.10723677783,516.980120613425,NaN,NaN,751.343706178981,850.314931779154,1041.10723677783,516.980120613425,607.549057043193,432.704947607421,0,0,0,0,0,0,0,4,3,NaN,NaN,NaN,horizontal,vertical,vertical,none,none,none
1a,20,100182,4,24,216,19,F,NA,variable,heterogeneous,5,present,0.677750110626221,1,horizontal,horizontal,1,0.964692786954484,green,2,1,1029.19248180629,711.784642431215,764.510859255183,852.518357529101,764.510859255183,852.518357529101,1029.19248180629,711.784642431215,977.137884467044,416.568350913644,680.284751489598,374.848363820974,548.874022981887,644.280285305067,0,0,3,4,5,0,5,NaN,horizontal,horizontal,horizontal,vertical,horizontal,none
1a,20,100182,4,25,217,19,F,NA,variable,heterogeneous,4,present,0.921125173568726,1,vertical,vertical,1,1.08233562145593,red,4,3,567.045908301137,496.282156015671,903.717843984329,367.045908301137,696.282156015671,832.954091698863,1032.95409169886,703.717843984329,903.717843984329,367.045908301137,567.045908301137,496.282156015671,0,0,0,0,3,6,0,4,NaN,NaN,horizontal,vertical,horizontal,vertical,none,none
1a,20,100182,4,26,218,19,F,NA,variable,heterogeneous,5,present,0.735751867294312,1,horizontal,horizontal,1,0.799992818652459,red,5,1,574.848363820974,719.715248510402,844.280285305067,851.125977018113,844.280285305067,851.125977018113,1052.5183575291,635.489140744817,911.784642431215,370.807518193712,616.568350913644,422.862115532956,574.848363820974,719.715248510402,0,0,3,6,3,0,4,NaN,vertical,horizontal,vertical,vertical,horizontal,none
1a,20,100182,4,27,219,19,F,NA,variable,heterogeneous,5,present,0.695764064788818,1,horizontal,horizontal,1,0.658821417250723,red,1,3,716.980120613425,841.107236777826,1008.88377129369,453.738008730483,716.980120613425,841.107236777826,1003.65205506206,753.462830903772,1008.88377129369,453.738008730483,725.445215295702,356.142287229426,545.03883773512,595.549636358493,0,0,4,0,5,0,6,NaN,horizontal,horizontal,vertical,horizontal,vertical,none
1a,20,100182,4,28,220,19,F,NA,variable,heterogeneous,5,present,1.67367506027222,1,horizontal,horizontal,1,0.788228535202314,green,3,2,826.654758133252,346.39691668109,1049.42763818712,546.982518841471,927.5,820.836477965032,1049.42763818712,546.982518841471,826.654758133252,346.39691668109,567.045908301137,496.282156015671,629.371695378491,789.501930496736,0,0,3,0,4,0,5,NaN,vertical,vertical,horizontal,vertical,horizontal,none
1a,20,100182,4,29,221,19,F,NA,variable,heterogeneous,4,present,1.00864100456238,1,vertical,vertical,1,1.07057133800579,red,1,3,973.909581815937,786.495193912888,626.090418184063,413.504806087112,973.909581815937,786.495193912888,986.495193912888,426.090418184063,626.090418184063,413.504806087112,613.504806087112,773.909581815937,0,0,0,0,4,6,5,0,NaN,NaN,vertical,vertical,horizontal,vertical,none,none
1a,20,100182,4,30,222,19,F,NA,variable,heterogeneous,6,absent,1.2097749710083,1,horizontal,horizontal,1,0.835285669002893,green,1,NaN,684.232422566416,827.206663668034,NaN,NaN,684.232422566416,827.206663668034,938.882953928832,813.860994826083,1054.65053136242,586.654331158049,915.767577433584,372.793336331966,661.117046071168,386.139005173917,545.349468637584,613.345668841951,4,3,5,6,5,0,horizontal,horizontal,horizontal,vertical,vertical,horizontal
1a,20,100182,4,31,223,19,F,NA,variable,heterogeneous,4,absent,0.779135942459106,1,vertical,vertical,1,0.858814235903182,red,4,NaN,548.874022981887,644.280285305067,NaN,NaN,844.280285305067,851.125977018113,1051.12597701811,555.719714694933,755.719714694933,348.874022981887,548.874022981887,644.280285305067,0,0,0,0,0,5,5,4,NaN,NaN,horizontal,horizontal,vertical,vertical,none,none
1a,20,100182,4,32,224,19,F,NA,variable,heterogeneous,6,present,0.922776937484741,0,vertical,horizontal,1,0.788228535202314,red,4,5,746.982518841471,350.57236181288,557.480588344736,521.200666434388,853.017481158529,849.42763818712,1042.51941165526,678.799333565612,989.501930496736,429.371695378491,746.982518841471,350.57236181288,557.480588344736,521.200666434388,610.498069503264,770.628304621509,6,6,0,4,0,5,vertical,vertical,horizontal,vertical,horizontal,horizontal
1a,20,100182,4,33,225,19,F,NA,variable,heterogeneous,4,present,0.7361159324646,1,horizontal,horizontal,1,0.729407117951591,green,2,4,1054.65053136242,613.345668841951,545.349468637584,586.654331158049,786.654331158049,854.650531362416,1054.65053136242,613.345668841951,813.345668841951,345.349468637584,545.349468637584,586.654331158049,0,0,0,0,6,4,0,0,NaN,NaN,vertical,horizontal,horizontal,horizontal,none,none
1a,20,100182,4,34,226,19,F,NA,variable,heterogeneous,3,present,0.76327109336853,1,vertical,vertical,1,1.02351420420521,green,2,3,808.899371659138,345.155339110131,574.848363820974,719.715248510402,1016.25226451989,735.129412379467,808.899371659138,345.155339110131,574.848363820974,719.715248510402,0,0,0,0,0,0,3,4,5,NaN,NaN,NaN,horizontal,vertical,horizontal,none,none,none
1a,20,100182,4,35,227,19,F,NA,variable,heterogeneous,4,present,0.825836896896362,1,horizontal,horizontal,1,0.75293568485188,green,2,3,1018.57766167904,468.665290897936,668.665290897936,381.422338320961,931.334709102064,818.577661679039,1018.57766167904,468.665290897936,668.665290897936,381.422338320961,581.422338320961,731.334709102064,0,0,0,0,0,4,5,0,NaN,NaN,vertical,horizontal,vertical,vertical,none,none
1a,20,100182,4,36,228,19,F,NA,variable,heterogeneous,4,absent,0.597239017486572,1,horizontal,horizontal,1,0.92939993660405,red,1,NaN,712.784863451954,839.621618300407,NaN,NaN,712.784863451954,839.621618300407,1039.62161830041,687.215136548046,887.215136548046,360.378381699593,560.378381699593,512.784863451954,0,0,0,0,4,0,3,6,NaN,NaN,horizontal,vertical,horizontal,vertical,none,none
1a,20,100182,4,37,229,19,F,NA,variable,heterogeneous,5,absent,0.681658983230591,1,horizontal,horizontal,1,0.611764283450145,red,2,NaN,1008.88377129369,746.261991269517,NaN,NaN,725.445215295702,843.857712770574,1008.88377129369,746.261991269517,1003.65205506206,446.537169096228,716.980120613425,358.892763222174,545.03883773512,604.450363641507,0,0,5,4,6,3,6,NaN,horizontal,horizontal,horizontal,horizontal,horizontal,none
1a,20,100182,4,38,230,19,F,NA,variable,heterogeneous,3,present,0.643220186233521,1,vertical,vertical,1,0.976457070404628,red,3,1,646.537169096228,396.34794493794,700.363562235235,834.728737630372,700.363562235235,834.728737630372,1053.09926866854,568.923317431687,646.537169096228,396.34794493794,0,0,0,0,0,0,6,0,4,NaN,NaN,NaN,vertical,horizontal,vertical,none,none,none
1a,20,100182,4,39,231,19,F,NA,variable,heterogeneous,3,absent,0.946835041046143,1,horizontal,horizontal,1,0.92939993660405,green,3,NaN,607.549057043193,432.704947607421,NaN,NaN,751.343706178981,850.314931779154,1041.10723677783,516.980120613425,607.549057043193,432.704947607421,0,0,0,0,0,0,5,0,4,NaN,NaN,NaN,vertical,vertical,horizontal,none,none,none
1a,20,100182,4,40,232,19,F,NA,variable,heterogeneous,5,absent,0.803752899169922,1,horizontal,horizontal,1,0.917635653153905,green,1,NaN,777.775285599347,854.029648013395,NaN,NaN,777.775285599347,854.029648013395,1034.72873763037,699.636437764765,967.295052392579,407.549057043193,668.665290897936,381.422338320961,551.535633479765,657.362518857686,0,0,4,5,3,6,3,NaN,horizontal,horizontal,horizontal,vertical,horizontal,none
1a,20,100182,4,41,233,19,F,NA,variable,heterogeneous,6,present,0.803049087524414,1,horizontal,horizontal,1,0.741171401401736,red,3,6,1054.65053136242,586.654331158049,545.349468637584,613.345668841951,684.232422566416,827.206663668034,938.882953928832,813.860994826083,1054.65053136242,586.654331158049,915.767577433584,372.793336331966,661.117046071168,386.139005173917,545.349468637584,613.345668841951,3,0,4,6,3,5,horizontal,horizontal,horizontal,horizontal,horizontal,vertical
1a,20,100182,4,42,234,19,F,NA,variable,heterogeneous,3,absent,0.589904069900513,1,horizontal,horizontal,1,0.92939993660405,green,1,NaN,953.462830903772,803.65205506206,NaN,NaN,953.462830903772,803.65205506206,899.636437764765,365.271262369628,546.900731331463,631.076682568313,0,0,0,0,0,0,4,6,5,NaN,NaN,NaN,horizontal,horizontal,horizontal,none,none,none
1a,20,100182,4,43,235,19,F,NA,variable,heterogeneous,3,present,0.556464910507202,1,vertical,vertical,1,0.92939993660405,green,2,1,1031.10848569435,492.232343256122,777.775285599347,854.029648013395,777.775285599347,854.029648013395,1031.10848569435,492.232343256122,591.116228706307,453.738008730483,0,0,0,0,0,0,6,4,6,NaN,NaN,NaN,vertical,vertical,horizontal,none,none,none
1a,20,100182,4,44,236,19,F,NA,variable,heterogeneous,6,absent,1.27272701263428,1,vertical,vertical,1,1.0470427711055,red,4,NaN,712.784863451954,360.378381699593,NaN,NaN,887.215136548046,839.621618300407,1051.12597701811,644.280285305067,963.910840470068,404.658667004661,712.784863451954,360.378381699593,548.874022981887,555.719714694933,636.089159529932,795.341332995339,5,0,6,4,5,3,horizontal,vertical,vertical,vertical,horizontal,vertical
1a,20,100182,4,45,237,19,F,NA,variable,heterogeneous,3,present,0.979050874710083,1,horizontal,horizontal,1,0.835285669002893,green,1,3,604.658667004661,763.910840470068,755.719714694933,348.874022981887,604.658667004661,763.910840470068,1039.62161830041,687.215136548046,755.719714694933,348.874022981887,0,0,0,0,0,0,4,5,6,NaN,NaN,NaN,horizontal,vertical,horizontal,none,none,none
1a,20,100182,4,46,238,19,F,NA,variable,heterogeneous,5,present,0.63953709602356,1,vertical,vertical,1,1.02351420420521,red,1,3,923.626453162816,823.028025320546,831.076682568313,346.900731331463,923.626453162816,823.028025320546,1050.31493177915,551.343706178981,831.076682568313,346.900731331463,568.891514305654,492.232343256122,626.090418184063,786.495193912888,0,0,4,0,3,3,5,NaN,vertical,horizontal,horizontal,horizontal,horizontal,none
1a,20,100182,4,47,239,19,F,NA,variable,heterogeneous,5,present,1.11705708503723,1,vertical,vertical,1,1.03527848765535,green,5,3,548.874022981887,555.719714694933,1029.19248180629,488.215357568785,680.284751489598,825.151636179026,977.137884467044,783.431649086356,1029.19248180629,488.215357568785,764.510859255183,347.4816424709,548.874022981887,555.719714694933,0,0,0,3,6,0,4,NaN,horizontal,vertical,vertical,horizontal,vertical,none
1a,20,100182,4,48,240,19,F,NA,variable,heterogeneous,4,absent,0.687939167022705,1,horizontal,horizontal,1,0.811757102102604,green,2,NaN,1029.19248180629,488.215357568785,NaN,NaN,911.784642431215,829.192481806288,1029.19248180629,488.215357568785,688.215357568785,370.807518193712,570.807518193712,711.784642431215,0,0,0,0,0,4,3,6,NaN,NaN,vertical,horizontal,horizontal,horizontal,none,none
1a,20,100182,4,49,241,19,F,NA,variable,heterogeneous,4,present,0.806672811508179,0,horizontal,vertical,1,1.03527848765535,red,3,2,895.524681321058,363.568117085469,1036.43188291453,695.524681321058,704.475318678942,836.431882914531,1036.43188291453,695.524681321058,895.524681321058,363.568117085469,563.568117085469,504.475318678942,0,0,0,0,3,0,4,5,NaN,NaN,vertical,vertical,horizontal,horizontal,none,none
1a,20,100182,4,50,242,19,F,NA,variable,heterogeneous,6,absent,1.41081809997559,1,horizontal,horizontal,1,0.6,green,2,NaN,1011.40458100154,742.594190385041,NaN,NaN,782.212099195248,854.378832816255,1011.40458100154,742.594190385041,1029.19248180629,488.215357568785,817.787900804752,345.621167183745,588.595418998464,457.40580961496,570.807518193712,711.784642431215,6,4,5,5,6,0,horizontal,horizontal,horizontal,vertical,vertical,vertical
1a,20,100182,4,51,243,19,F,NA,variable,heterogeneous,6,absent,1.2255380153656,1,vertical,vertical,1,0.905871369703761,green,4,NaN,831.076682568313,346.900731331463,NaN,NaN,768.923317431687,853.099268668537,1003.65205506206,753.462830903772,1034.72873763037,500.363562235235,831.076682568313,346.900731331463,596.34794493794,446.537169096228,565.271262369628,699.636437764765,0,3,5,4,6,3,horizontal,horizontal,vertical,vertical,vertical,vertical
