experiment,subject,uniqueID,block,trial,trial_cumulative,age,gender,color_cond_blocking,color_history,shape_type,set_size,distractor,rt,acc,target_orient,response_key,response_made,iti,target_color,target_item,distractor_item,target_X,target_Y,distractor_X,distractor_Y,item1_X,item1_Y,item2_X,item2_Y,item3_X,item3_Y,item4_X,item4_Y,item5_X,item5_Y,item6_X,item6_Y,item1_shape,item2_shape,item3_shape,item4_shape,item5_shape,item6_shape,item1_line,item2_line,item3_line,item4_line,item5_line,item6_line
1a,21,100184,1,1,1,20,F,NA,variable,heterogeneous,6,absent,NaN,0,vertical,none,0,0.764704331984887,green,6,NaN,619.68777079743,780.31222920257,NaN,NaN,865.998856501143,846.311085703712,1046.31108570371,665.998856501143,980.31222920257,419.68777079743,734.001143498857,353.688914296288,553.688914296288,534.001143498857,619.68777079743,780.31222920257,0,3,5,0,6,4,horizontal,vertical,vertical,vertical,horizontal,vertical
1a,21,100184,1,2,2,20,F,NA,variable,heterogeneous,6,absent,1.82558798789978,0,vertical,horizontal,1,1.07058380567111,green,1,NaN,716.980120613425,841.107236777826,NaN,NaN,716.980120613425,841.107236777826,967.295052392579,792.450942956807,1050.31493177915,551.343706178981,883.019879386575,358.892763222174,632.704947607421,407.549057043193,549.685068220846,648.656293821019,4,5,3,0,5,6,vertical,horizontal,horizontal,horizontal,horizontal,vertical
1a,21,100184,1,3,3,20,F,NA,variable,heterogeneous,3,present,NaN,0,vertical,none,0,0.999996234820439,red,1,3,1020.83647796503,727.5,579.163522034968,727.5,1020.83647796503,727.5,800,345,579.163522034968,727.5,0,0,0,0,0,0,4,6,0,NaN,NaN,NaN,vertical,vertical,vertical,none,none,none
1a,21,100184,1,4,4,20,F,NA,variable,heterogeneous,5,absent,1.4580409526825,0,horizontal,vertical,1,0.976467044536884,red,1,NaN,653.738008730483,808.883771293693,NaN,NaN,653.738008730483,808.883771293693,953.462830903772,803.65205506206,1041.10723677783,516.980120613425,795.549636358493,345.03883773512,556.142287229426,525.445215295702,0,0,4,5,3,6,0,NaN,horizontal,vertical,vertical,vertical,horizontal,none
1a,21,100184,1,5,5,20,F,NA,variable,heterogeneous,3,absent,1.40280699729919,0,horizontal,vertical,1,0.776468927126664,red,2,NaN,1016.25226451989,464.870587620533,NaN,NaN,808.899371659138,854.844660889869,1016.25226451989,464.870587620533,574.848363820974,480.284751489598,0,0,0,0,0,0,0,4,6,NaN,NaN,NaN,vertical,horizontal,horizontal,none,none,none
1a,21,100184,1,6,6,20,F,NA,variable,heterogeneous,4,absent,1.18325400352478,0,horizontal,vertical,1,0.6,green,1,NaN,857.362518857686,848.464366520235,NaN,NaN,857.362518857686,848.464366520235,1048.46436652023,542.637481142314,742.637481142314,351.535633479765,551.535633479765,657.362518857686,0,0,0,0,4,3,3,6,NaN,NaN,horizontal,horizontal,horizontal,vertical,none,none
1a,21,100184,1,7,7,20,F,NA,variable,heterogeneous,5,present,1.06372785568237,1,horizontal,horizontal,1,0.835291902835553,red,5,1,545.621167183745,582.212099195248,704.475318678942,836.431882914531,704.475318678942,836.431882914531,995.341332995339,763.910840470068,1016.25226451989,464.870587620533,738.309916622085,352.574589799621,545.621167183745,582.212099195248,0,0,5,0,0,3,4,NaN,horizontal,horizontal,vertical,vertical,horizontal,none
1a,21,100184,1,8,8,20,F,NA,variable,heterogeneous,5,present,1.87707209587097,0,horizontal,vertical,1,1.01176082996222,green,2,1,1039.62161830041,687.215136548046,791.100628340862,854.844660889869,791.100628340862,854.844660889869,1039.62161830041,687.215136548046,956.993676208043,399.057257830286,657.405809614959,388.595418998464,554.878267535729,670.287525733335,0,0,5,4,6,0,5,NaN,vertical,horizontal,horizontal,horizontal,vertical,none
1a,21,100184,1,9,9,20,F,NA,variable,heterogeneous,4,absent,1.47435688972473,0,horizontal,vertical,1,0.776468927126664,green,2,NaN,1020.83647796503,727.5,NaN,NaN,672.5,820.836477965032,1020.83647796503,727.5,927.5,379.163522034968,579.163522034968,472.5,0,0,0,0,3,4,6,5,NaN,NaN,vertical,horizontal,horizontal,vertical,none,none
1a,21,100184,1,10,10,20,F,NA,variable,heterogeneous,6,absent,NaN,0,vertical,none,0,0.670587570850666,red,4,NaN,878.799333565612,357.480588344736,NaN,NaN,721.200666434388,842.519411655264,970.628304621509,789.501930496736,1049.42763818712,546.982518841471,878.799333565612,357.480588344736,629.371695378491,410.498069503264,550.57236181288,653.017481158529,5,3,0,4,5,3,vertical,vertical,vertical,vertical,horizontal,vertical
1a,21,100184,1,11,11,20,F,NA,variable,heterogeneous,4,present,1.65384292602539,0,vertical,horizontal,1,0.6,green,3,2,946.261991269517,391.116228706307,1008.88377129369,746.261991269517,653.738008730483,808.883771293693,1008.88377129369,746.261991269517,946.261991269517,391.116228706307,591.116228706307,453.738008730483,0,0,0,0,6,0,4,6,NaN,NaN,vertical,horizontal,vertical,vertical,none,none
1a,21,100184,1,12,12,20,F,NA,variable,heterogeneous,6,present,NaN,0,vertical,none,0,0.917644068827996,red,1,3,791.100628340862,854.844660889869,1025.15163617903,480.284751489598,791.100628340862,854.844660889869,1016.25226451989,735.129412379467,1025.15163617903,480.284751489598,808.899371659138,345.155339110131,583.747735480111,464.870587620533,574.848363820974,719.715248510402,4,5,3,0,6,3,vertical,horizontal,vertical,horizontal,vertical,vertical
1a,21,100184,1,13,13,20,F,NA,variable,heterogeneous,4,present,1.27750420570374,1,vertical,vertical,1,0.988231639678662,green,1,4,696.282156015671,832.954091698863,567.045908301137,496.282156015671,696.282156015671,832.954091698863,1032.95409169886,703.717843984329,903.717843984329,367.045908301137,567.045908301137,496.282156015671,0,0,0,0,4,6,5,5,NaN,NaN,vertical,horizontal,horizontal,vertical,none,none
1a,21,100184,1,14,14,20,F,NA,variable,heterogeneous,3,present,NaN,0,vertical,none,0,0.976467044536884,red,3,2,777.775285599347,345.970351986605,1031.10848569435,707.767656743878,591.116228706307,746.261991269517,1031.10848569435,707.767656743878,777.775285599347,345.970351986605,0,0,0,0,0,0,6,0,4,NaN,NaN,NaN,vertical,horizontal,vertical,none,none,none
1a,21,100184,1,15,15,20,F,NA,variable,heterogeneous,3,absent,1.14762401580811,1,horizontal,horizontal,1,0.835291902835553,red,2,NaN,1043.85771277057,525.445215295702,NaN,NaN,742.637481142314,848.464366520235,1043.85771277057,525.445215295702,613.504806087112,426.090418184063,0,0,0,0,0,0,3,4,6,NaN,NaN,NaN,horizontal,horizontal,vertical,none,none,none
1a,21,100184,1,16,16,20,F,NA,variable,heterogeneous,6,present,1.79816699028015,1,vertical,vertical,1,0.964702449395106,green,2,5,967.295052392579,792.450942956807,632.704947607421,407.549057043193,716.980120613425,841.107236777826,967.295052392579,792.450942956807,1050.31493177915,551.343706178981,883.019879386575,358.892763222174,632.704947607421,407.549057043193,549.685068220846,648.656293821019,0,4,3,5,3,6,horizontal,vertical,vertical,horizontal,vertical,horizontal
1a,21,100184,1,17,17,20,F,NA,variable,heterogeneous,4,absent,0.886003971099854,1,vertical,vertical,1,0.6,green,1,NaN,960.476699717708,798.172220171528,NaN,NaN,960.476699717708,798.172220171528,998.172220171528,439.523300282291,639.523300282292,401.827779828472,601.827779828472,760.476699717708,0,0,0,0,4,5,5,0,NaN,NaN,vertical,vertical,vertical,horizontal,none,none
1a,21,100184,1,18,18,20,F,NA,variable,heterogeneous,3,absent,NaN,0,vertical,none,0,0.894114878544441,green,1,NaN,949.885239334581,806.299333565612,NaN,NaN,949.885239334581,806.299333565612,903.717843984329,367.045908301137,546.39691668109,626.654758133252,0,0,0,0,0,0,4,0,3,NaN,NaN,NaN,vertical,horizontal,vertical,none,none,none
1a,21,100184,1,19,19,20,F,NA,variable,heterogeneous,3,present,1.29270100593567,1,vertical,vertical,1,0.929408663969774,green,2,1,992.450942956807,432.704947607421,848.656293821019,850.314931779154,848.656293821019,850.314931779154,992.450942956807,432.704947607421,558.892763222174,516.980120613425,0,0,0,0,0,0,3,4,0,NaN,NaN,NaN,vertical,vertical,horizontal,none,none,none
1a,21,100184,1,20,20,20,F,NA,variable,heterogeneous,3,absent,0.892750978469849,1,vertical,vertical,1,1.09411299595466,red,3,NaN,557.480588344736,678.799333565612,NaN,NaN,989.501930496736,770.628304621509,853.017481158529,350.57236181288,557.480588344736,678.799333565612,0,0,0,0,0,0,5,6,4,NaN,NaN,NaN,vertical,vertical,vertical,none,none,none
1a,21,100184,1,21,21,20,F,NA,variable,heterogeneous,4,present,1.64004588127136,1,vertical,vertical,1,0.858821093119108,red,1,4,953.462830903772,803.65205506206,596.34794493794,753.462830903772,953.462830903772,803.65205506206,1003.65205506206,446.537169096228,646.537169096228,396.34794493794,596.34794493794,753.462830903772,0,0,0,0,4,6,5,5,NaN,NaN,vertical,horizontal,vertical,vertical,none,none
1a,21,100184,1,22,22,20,F,NA,variable,heterogeneous,4,present,1.84326982498169,1,vertical,vertical,1,0.917644068827996,red,3,2,791.100628340862,345.155339110131,1054.84466088987,591.100628340862,808.899371659138,854.844660889869,1054.84466088987,591.100628340862,791.100628340862,345.155339110131,545.155339110131,608.899371659138,0,0,0,0,5,6,4,0,NaN,NaN,horizontal,vertical,vertical,horizontal,none,none
1a,21,100184,1,23,23,20,F,NA,variable,heterogeneous,5,absent,1.07739686965942,1,horizontal,horizontal,1,0.647058380567111,red,4,NaN,786.654331158049,345.349468637584,NaN,NaN,661.117046071168,813.860994826083,960.476699717708,798.172220171528,1038.06300875679,508.616172865948,786.654331158049,345.349468637584,553.688914296288,534.001143498857,0,0,0,6,6,4,5,NaN,vertical,horizontal,horizontal,horizontal,vertical,none
1a,21,100184,1,24,24,20,F,NA,variable,heterogeneous,5,present,1.37854385375977,0,horizontal,vertical,1,0.776468927126664,red,4,3,782.212099195248,345.621167183745,1036.43188291453,504.475318678942,664.870587620533,816.252264519889,963.910840470068,795.341332995339,1036.43188291453,504.475318678942,782.212099195248,345.621167183745,552.574589799621,538.309916622085,0,0,5,6,3,4,6,NaN,horizontal,vertical,vertical,horizontal,vertical,none
1a,21,100184,1,25,25,20,F,NA,variable,heterogeneous,6,present,1.56406307220459,1,horizontal,horizontal,1,0.682352165992443,green,6,5,550.57236181288,653.017481158529,629.371695378491,410.498069503264,721.200666434388,842.519411655264,970.628304621509,789.501930496736,1049.42763818712,546.982518841471,878.799333565612,357.480588344736,629.371695378491,410.498069503264,550.57236181288,653.017481158529,6,5,3,5,3,4,vertical,horizontal,vertical,horizontal,vertical,horizontal
1a,21,100184,1,26,26,20,F,NA,variable,heterogeneous,5,absent,1.94477510452271,1,horizontal,horizontal,1,0.858821093119108,green,5,NaN,650.114760665419,806.299333565612,NaN,NaN,949.885239334581,806.299333565612,1042.51941165526,521.200666434388,800,345,557.480588344736,521.200666434388,650.114760665419,806.299333565612,0,0,5,6,5,3,4,NaN,horizontal,vertical,horizontal,horizontal,horizontal,none
1a,21,100184,1,27,27,20,F,NA,variable,heterogeneous,4,absent,NaN,0,horizontal,none,0,0.929408663969774,red,4,NaN,567.045908301137,496.282156015671,NaN,NaN,696.282156015671,832.954091698863,1032.95409169886,703.717843984329,903.717843984329,367.045908301137,567.045908301137,496.282156015671,0,0,0,0,0,3,0,4,NaN,NaN,vertical,horizontal,vertical,horizontal,none,none
1a,21,100184,1,28,28,20,F,NA,variable,heterogeneous,6,absent,0.842729806900024,1,horizontal,horizontal,1,0.79999811741022,red,5,NaN,619.68777079743,419.68777079743,NaN,NaN,734.001143498857,846.311085703712,980.31222920257,780.31222920257,1046.31108570371,534.001143498857,865.998856501143,353.688914296288,619.68777079743,419.68777079743,553.688914296288,665.998856501143,5,6,3,6,4,0,horizontal,vertical,horizontal,vertical,horizontal,vertical
1a,21,100184,1,29,29,20,F,NA,variable,heterogeneous,3,absent,1.41592192649841,1,vertical,vertical,1,0.611764595141778,red,2,NaN,1054.0296480134,622.224714400653,NaN,NaN,653.738008730483,808.883771293693,1054.0296480134,622.224714400653,692.232343256122,368.891514305654,0,0,0,0,0,0,5,4,3,NaN,NaN,NaN,vertical,vertical,horizontal,none,none,none
1a,21,100184,1,30,30,20,F,NA,variable,heterogeneous,5,present,0.848275899887085,0,vertical,horizontal,1,0.999996234820439,green,1,5,650.114760665419,806.299333565612,557.480588344736,521.200666434388,650.114760665419,806.299333565612,949.885239334581,806.299333565612,1042.51941165526,521.200666434388,800,345,557.480588344736,521.200666434388,0,0,4,3,0,5,5,NaN,vertical,horizontal,vertical,vertical,vertical,none
1a,21,100184,1,31,31,20,F,NA,variable,heterogeneous,4,absent,1.10587906837463,1,horizontal,horizontal,1,0.611764595141778,red,3,NaN,632.704947607421,407.549057043193,NaN,NaN,967.295052392579,792.450942956807,992.450942956807,432.704947607421,632.704947607421,407.549057043193,607.549057043193,767.295052392579,0,0,0,0,0,6,4,6,NaN,NaN,horizontal,vertical,horizontal,horizontal,none,none
1a,21,100184,1,32,32,20,F,NA,variable,heterogeneous,4,absent,1.73178601264954,1,vertical,vertical,1,0.976467044536884,red,4,NaN,563.568117085469,504.475318678942,NaN,NaN,704.475318678942,836.431882914531,1036.43188291453,695.524681321058,895.524681321058,363.568117085469,563.568117085469,504.475318678942,0,0,0,0,3,5,0,4,NaN,NaN,horizontal,horizontal,horizontal,vertical,none,none
1a,21,100184,1,33,33,20,F,NA,variable,heterogeneous,4,present,1.43303799629211,0,horizontal,vertical,1,0.717645951417776,red,2,1,1038.06300875679,508.616172865948,891.383827134052,838.063008756786,891.383827134052,838.063008756786,1038.06300875679,508.616172865948,708.616172865948,361.936991243214,561.936991243214,691.383827134052,0,0,0,0,5,4,6,6,NaN,NaN,vertical,horizontal,horizontal,vertical,none,none
1a,21,100184,1,34,34,20,F,NA,variable,heterogeneous,6,absent,NaN,0,horizontal,none,0,0.976467044536884,green,4,NaN,804.450363641507,345.03883773512,NaN,NaN,795.549636358493,854.96116226488,1018.57766167904,731.334709102064,1023.02802532055,476.373546837184,804.450363641507,345.03883773512,581.422338320961,468.665290897936,576.971974679454,723.626453162816,6,6,3,4,5,0,horizontal,vertical,horizontal,horizontal,horizontal,vertical
1a,21,100184,1,35,35,20,F,NA,variable,heterogeneous,3,present,1.24290299415588,1,vertical,vertical,1,0.870585688260885,green,2,1,931.334709102064,381.422338320961,923.626453162816,823.028025320546,923.626453162816,823.028025320546,931.334709102064,381.422338320961,545.03883773512,595.549636358493,0,0,0,0,0,0,0,4,5,NaN,NaN,NaN,vertical,vertical,vertical,none,none,none
1a,21,100184,1,36,36,20,F,NA,variable,heterogeneous,6,present,0.907006978988647,1,horizontal,horizontal,1,0.752939736843109,red,6,1,599.057257830286,756.993676208043,835.489140744817,852.518357529101,835.489140744817,852.518357529101,1036.43188291453,695.524681321058,1000.94274216971,443.006323791957,764.510859255183,347.4816424709,563.568117085469,504.475318678942,599.057257830286,756.993676208043,5,5,3,6,3,4,horizontal,vertical,horizontal,vertical,vertical,horizontal
1a,21,100184,1,37,37,20,F,NA,variable,heterogeneous,5,present,1.40303301811218,1,horizontal,horizontal,1,0.682352165992443,green,2,5,1054.65053136242,586.654331158049,601.827779828472,760.476699717708,891.383827134052,838.063008756786,1054.65053136242,586.654331158049,865.998856501143,353.688914296288,586.139005173917,461.117046071168,601.827779828472,760.476699717708,0,0,6,4,3,0,0,NaN,vertical,horizontal,vertical,vertical,horizontal,none
1a,21,100184,1,38,38,20,F,NA,variable,heterogeneous,5,absent,1.09146499633789,1,horizontal,horizontal,1,0.611764595141778,green,2,NaN,1045.12173246427,670.287525733335,NaN,NaN,808.899371659138,854.844660889869,1045.12173246427,670.287525733335,942.594190385041,388.595418998464,643.006323791957,399.057257830286,560.378381699593,687.215136548046,0,0,5,4,6,3,6,NaN,vertical,horizontal,horizontal,horizontal,horizontal,none
1a,21,100184,1,39,39,20,F,NA,variable,heterogeneous,3,present,1.54090785980225,1,horizontal,horizontal,1,0.776468927126664,green,2,3,831.076682568313,346.900731331463,565.271262369628,699.636437764765,1003.65205506206,753.462830903772,831.076682568313,346.900731331463,565.271262369628,699.636437764765,0,0,0,0,0,0,3,4,3,NaN,NaN,NaN,horizontal,horizontal,horizontal,none,none,none
1a,21,100184,1,40,40,20,F,NA,variable,heterogeneous,4,absent,0.957353830337524,1,vertical,vertical,1,0.870585688260885,green,3,NaN,980.31222920257,419.68777079743,NaN,NaN,619.68777079743,780.31222920257,980.31222920257,780.31222920257,980.31222920257,419.68777079743,619.68777079743,419.68777079743,0,0,0,0,0,3,4,3,NaN,NaN,horizontal,horizontal,vertical,vertical,none,none
1a,21,100184,1,41,41,20,F,NA,variable,heterogeneous,3,absent,0.951416969299316,1,horizontal,horizontal,1,0.929408663969774,green,3,NaN,764.510859255183,347.4816424709,NaN,NaN,599.057257830286,756.993676208043,1036.43188291453,695.524681321058,764.510859255183,347.4816424709,0,0,0,0,0,0,5,0,4,NaN,NaN,NaN,horizontal,vertical,horizontal,none,none,none
1a,21,100184,1,42,42,20,F,NA,variable,heterogeneous,4,present,1.32949900627136,1,horizontal,horizontal,1,0.929408663969774,red,1,3,791.100628340862,854.844660889869,808.899371659138,345.155339110131,791.100628340862,854.844660889869,1054.84466088987,608.899371659138,808.899371659138,345.155339110131,545.155339110131,591.100628340862,0,0,0,0,4,3,0,5,NaN,NaN,horizontal,vertical,horizontal,horizontal,none,none
1a,21,100184,1,43,43,20,F,NA,variable,heterogeneous,5,present,1.8026020526886,0,vertical,horizontal,1,0.729410546559554,green,2,1,1000.94274216971,756.993676208043,712.784863451954,839.621618300407,712.784863451954,839.621618300407,1000.94274216971,756.993676208043,1011.40458100154,457.40580961496,729.712474266665,354.878267535729,545.155339110131,591.100628340862,0,0,6,4,5,0,0,NaN,vertical,vertical,vertical,horizontal,vertical,none
1a,21,100184,1,44,44,20,F,NA,variable,heterogeneous,5,absent,1.42491698265076,0,vertical,horizontal,1,1.09411299595466,green,4,NaN,672.5,379.163522034968,NaN,NaN,773.345241866748,853.60308331891,1032.95409169886,703.717843984329,970.628304621509,410.498069503264,672.5,379.163522034968,550.57236181288,653.017481158529,0,0,6,0,3,4,0,NaN,horizontal,vertical,vertical,vertical,horizontal,none
1a,21,100184,1,45,45,20,F,NA,variable,heterogeneous,3,absent,1.52861714363098,1,horizontal,horizontal,1,0.941173259111551,green,2,NaN,822.224714400653,345.970351986605,NaN,NaN,1008.88377129369,746.261991269517,822.224714400653,345.970351986605,568.891514305654,707.767656743878,0,0,0,0,0,0,5,4,6,NaN,NaN,NaN,horizontal,horizontal,horizontal,none,none,none
1a,21,100184,1,46,46,20,F,NA,variable,heterogeneous,6,present,1.39144396781921,0,horizontal,vertical,1,1.01176082996222,green,2,4,1049.42763818712,653.017481158529,721.200666434388,357.480588344736,878.799333565612,842.519411655264,1049.42763818712,653.017481158529,970.628304621509,410.498069503264,721.200666434388,357.480588344736,550.57236181288,546.982518841471,629.371695378491,789.501930496736,5,4,5,6,3,0,vertical,horizontal,horizontal,horizontal,horizontal,horizontal
1a,21,100184,1,47,47,20,F,NA,variable,heterogeneous,3,present,1.40482687950134,0,horizontal,vertical,1,0.858821093119108,red,3,1,591.116228706307,453.738008730483,777.775285599347,854.029648013395,777.775285599347,854.029648013395,1031.10848569435,492.232343256122,591.116228706307,453.738008730483,0,0,0,0,0,0,6,0,4,NaN,NaN,NaN,vertical,horizontal,horizontal,none,none,none
1a,21,100184,1,48,48,20,F,NA,variable,heterogeneous,5,absent,NaN,0,vertical,none,0,1.07058380567111,red,1,NaN,891.383827134052,838.063008756786,NaN,NaN,891.383827134052,838.063008756786,1054.65053136242,586.654331158049,865.998856501143,353.688914296288,586.139005173917,461.117046071168,601.827779828472,760.476699717708,0,0,4,5,3,0,6,NaN,vertical,horizontal,horizontal,horizontal,vertical,none
1a,21,100184,1,49,49,20,F,NA,variable,heterogeneous,5,present,1.31786918640137,0,vertical,horizontal,1,0.952937854253329,red,5,1,616.568350913644,777.137884467044,911.784642431215,829.192481806288,911.784642431215,829.192481806288,1052.5183575291,564.510859255183,844.280285305067,348.874022981887,574.848363820974,480.284751489598,616.568350913644,777.137884467044,0,0,0,3,5,3,4,NaN,horizontal,vertical,horizontal,vertical,vertical,none
1a,21,100184,1,50,50,20,F,NA,variable,heterogeneous,5,absent,1.18999695777893,1,vertical,vertical,1,1.07058380567111,green,4,NaN,786.654331158049,345.349468637584,NaN,NaN,661.117046071168,813.860994826083,960.476699717708,798.172220171528,1038.06300875679,508.616172865948,786.654331158049,345.349468637584,553.688914296288,534.001143498857,0,0,6,6,0,4,0,NaN,horizontal,vertical,vertical,vertical,vertical,none
1a,21,100184,1,51,51,20,F,NA,variable,heterogeneous,6,present,1.21568989753723,1,vertical,vertical,1,0.694116761134221,green,2,3,1049.42763818712,653.017481158529,970.628304621509,410.498069503264,878.799333565612,842.519411655264,1049.42763818712,653.017481158529,970.628304621509,410.498069503264,721.200666434388,357.480588344736,550.57236181288,546.982518841471,629.371695378491,789.501930496736,6,4,5,3,3,6,horizontal,vertical,horizontal,horizontal,vertical,vertical
1a,21,100184,1,52,52,20,F,NA,variable,heterogeneous,6,absent,1.20351386070251,1,horizontal,horizontal,1,0.964702449395106,red,3,NaN,1055,600,NaN,NaN,672.5,820.836477965032,927.5,820.836477965032,1055,600,927.5,379.163522034968,672.5,379.163522034968,545,600,3,6,4,3,5,0,vertical,horizontal,horizontal,horizontal,horizontal,horizontal
1a,21,100184,1,53,53,20,F,NA,variable,heterogeneous,6,absent,1.56449508666992,1,horizontal,horizontal,1,0.635293785425333,green,1,NaN,835.489140744817,852.518357529101,NaN,NaN,835.489140744817,852.518357529101,1036.43188291453,695.524681321058,1000.94274216971,443.006323791957,764.510859255183,347.4816424709,563.568117085469,504.475318678942,599.057257830286,756.993676208043,4,0,3,5,0,6,horizontal,vertical,horizontal,horizontal,horizontal,horizontal
1a,21,100184,1,54,54,20,F,NA,variable,heterogeneous,5,present,1.36032700538635,0,vertical,horizontal,1,1.01176082996222,red,2,3,1048.46436652023,657.362518857686,931.334709102064,381.422338320961,822.224714400653,854.029648013395,1048.46436652023,657.362518857686,931.334709102064,381.422338320961,632.704947607421,407.549057043193,565.271262369628,699.636437764765,0,0,6,4,0,5,3,NaN,horizontal,vertical,horizontal,horizontal,vertical,none
1a,21,100184,1,55,55,20,F,NA,variable,heterogeneous,4,present,1.16680192947388,1,horizontal,horizontal,1,0.764704331984887,green,1,3,791.100628340862,854.844660889869,808.899371659138,345.155339110131,791.100628340862,854.844660889869,1054.84466088987,608.899371659138,808.899371659138,345.155339110131,545.155339110131,591.100628340862,0,0,0,0,4,3,5,3,NaN,NaN,horizontal,horizontal,horizontal,vertical,none,none
1a,21,100184,1,56,56,20,F,NA,variable,heterogeneous,5,absent,0.882399797439575,1,vertical,vertical,1,0.788233522268442,red,2,NaN,1047.42541020038,661.690083377915,NaN,NaN,817.787900804752,854.378832816255,1047.42541020038,661.690083377915,935.129412379467,383.747735480111,636.089159529932,404.658667004661,563.568117085469,695.524681321058,0,0,6,4,6,3,5,NaN,vertical,vertical,horizontal,vertical,vertical,none
1a,21,100184,1,57,57,20,F,NA,variable,heterogeneous,4,present,1.23003196716309,1,horizontal,horizontal,1,0.694116761134221,green,4,2,545.155339110131,608.899371659138,1054.84466088987,591.100628340862,808.899371659138,854.844660889869,1054.84466088987,591.100628340862,791.100628340862,345.155339110131,545.155339110131,608.899371659138,0,0,0,0,3,0,6,4,NaN,NaN,horizontal,horizontal,horizontal,horizontal,none,none
1a,21,100184,1,58,58,20,F,NA,variable,heterogeneous,4,absent,1.21732306480408,1,vertical,vertical,1,0.729410546559554,red,3,NaN,768.923317431687,346.900731331463,NaN,NaN,831.076682568313,853.099268668537,1053.09926866854,568.923317431687,768.923317431687,346.900731331463,546.900731331463,631.076682568313,0,0,0,0,0,6,4,3,NaN,NaN,horizontal,vertical,vertical,horizontal,none,none
1a,21,100184,1,59,59,20,F,NA,variable,heterogeneous,3,present,0.776572942733765,0,horizontal,vertical,1,0.929408663969774,red,1,3,808.899371659138,854.844660889869,574.848363820974,480.284751489598,808.899371659138,854.844660889869,1016.25226451989,464.870587620533,574.848363820974,480.284751489598,0,0,0,0,0,0,4,3,6,NaN,NaN,NaN,horizontal,horizontal,vertical,none,none,none
1a,21,100184,1,60,60,20,F,NA,variable,heterogeneous,3,present,1.94527912139893,0,horizontal,vertical,1,0.635293785425333,green,2,1,808.899371659138,345.155339110131,1016.25226451989,735.129412379467,1016.25226451989,735.129412379467,808.899371659138,345.155339110131,574.848363820974,719.715248510402,0,0,0,0,0,0,6,4,6,NaN,NaN,NaN,horizontal,horizontal,vertical,none,none,none
1a,21,100184,1,61,61,20,F,NA,variable,heterogeneous,6,present,1.03590416908264,1,horizontal,horizontal,1,0.811762712551997,red,1,2,899.636437764765,834.728737630372,1053.09926866854,631.076682568313,899.636437764765,834.728737630372,1053.09926866854,631.076682568313,953.462830903772,396.34794493794,700.363562235235,365.271262369628,546.900731331463,568.923317431687,646.537169096228,803.65205506206,4,3,6,3,5,6,horizontal,vertical,horizontal,horizontal,vertical,vertical
1a,21,100184,1,62,62,20,F,NA,variable,heterogeneous,6,absent,1.06025910377502,0,vertical,horizontal,1,0.752939736843109,red,1,NaN,712.784863451954,839.621618300407,NaN,NaN,712.784863451954,839.621618300407,963.910840470068,795.341332995339,1051.12597701811,555.719714694933,887.215136548046,360.378381699593,636.089159529932,404.658667004661,548.874022981887,644.280285305067,4,5,0,6,5,0,vertical,horizontal,horizontal,horizontal,vertical,vertical
1a,21,100184,1,63,63,20,F,NA,variable,heterogeneous,3,absent,1.31438493728638,0,vertical,horizontal,1,0.835291902835553,green,3,NaN,619.68777079743,419.68777079743,NaN,NaN,734.001143498857,846.311085703712,1046.31108570371,534.001143498857,619.68777079743,419.68777079743,0,0,0,0,0,0,6,3,4,NaN,NaN,NaN,horizontal,horizontal,vertical,none,none,none
1a,21,100184,1,64,64,20,F,NA,variable,heterogeneous,6,present,1.10982012748718,1,vertical,vertical,1,0.647058380567111,red,6,2,549.685068220846,648.656293821019,967.295052392579,792.450942956807,716.980120613425,841.107236777826,967.295052392579,792.450942956807,1050.31493177915,551.343706178981,883.019879386575,358.892763222174,632.704947607421,407.549057043193,549.685068220846,648.656293821019,6,5,5,0,3,4,vertical,vertical,vertical,vertical,horizontal,vertical
1a,21,100184,2,1,65,20,F,NA,variable,heterogeneous,6,absent,1.11930704116821,1,vertical,vertical,1,0.635293785425333,green,4,NaN,725.445215295702,356.142287229426,NaN,NaN,874.554784704298,843.857712770574,1048.46436652023,657.362518857686,973.909581815937,413.504806087112,725.445215295702,356.142287229426,551.535633479765,542.637481142314,626.090418184063,786.495193912888,0,3,5,4,3,5,horizontal,horizontal,vertical,vertical,horizontal,horizontal
1a,21,100184,2,2,66,20,F,NA,variable,heterogeneous,3,absent,1.05775499343872,1,horizontal,horizontal,1,0.788233522268442,green,1,NaN,729.712474266665,845.121732464271,NaN,NaN,729.712474266665,845.121732464271,1047.42541020038,538.309916622085,622.862115532956,416.568350913644,0,0,0,0,0,0,4,3,0,NaN,NaN,NaN,horizontal,vertical,horizontal,none,none,none
1a,21,100184,2,3,67,20,F,NA,variable,heterogeneous,4,absent,1.9405951499939,1,horizontal,horizontal,1,1.07058380567111,green,2,NaN,1048.46436652023,542.637481142314,NaN,NaN,857.362518857686,848.464366520235,1048.46436652023,542.637481142314,742.637481142314,351.535633479765,551.535633479765,657.362518857686,0,0,0,0,3,4,0,6,NaN,NaN,horizontal,horizontal,horizontal,horizontal,none,none
1a,21,100184,2,4,68,20,F,NA,variable,heterogeneous,4,present,0.831539869308472,1,vertical,vertical,1,1.01176082996222,red,1,2,977.137884467044,783.431649086356,983.431649086356,422.862115532956,977.137884467044,783.431649086356,983.431649086356,422.862115532956,622.862115532956,416.568350913644,616.568350913644,777.137884467044,0,0,0,0,4,0,6,5,NaN,NaN,vertical,vertical,vertical,vertical,none,none
1a,21,100184,2,5,69,20,F,NA,variable,heterogeneous,4,present,1.26871299743652,0,vertical,horizontal,1,0.999996234820439,green,2,1,1046.31108570371,665.998856501143,734.001143498857,846.311085703712,734.001143498857,846.311085703712,1046.31108570371,665.998856501143,865.998856501143,353.688914296288,553.688914296288,534.001143498857,0,0,0,0,0,4,3,3,NaN,NaN,vertical,vertical,horizontal,horizontal,none,none
1a,21,100184,2,6,70,20,F,NA,variable,heterogeneous,4,present,1.15961098670959,1,horizontal,horizontal,1,0.870585688260885,green,1,2,696.282156015671,832.954091698863,1032.95409169886,703.717843984329,696.282156015671,832.954091698863,1032.95409169886,703.717843984329,903.717843984329,367.045908301137,567.045908301137,496.282156015671,0,0,0,0,4,6,6,0,NaN,NaN,horizontal,horizontal,horizontal,horizontal,none,none
1a,21,100184,2,7,71,20,F,NA,variable,heterogeneous,3,absent,0.806171894073486,1,vertical,vertical,1,0.964702449395106,green,2,NaN,1053.60308331891,573.345241866748,NaN,NaN,696.282156015671,832.954091698863,1053.60308331891,573.345241866748,650.114760665419,393.700666434388,0,0,0,0,0,0,5,4,0,NaN,NaN,NaN,vertical,vertical,horizontal,none,none,none
1a,21,100184,2,8,72,20,F,NA,variable,heterogeneous,4,present,1.52382206916809,0,horizontal,vertical,1,0.870585688260885,red,3,2,963.910840470068,404.658667004661,995.341332995339,763.910840470068,636.089159529932,795.341332995339,995.341332995339,763.910840470068,963.910840470068,404.658667004661,604.658667004661,436.089159529932,0,0,0,0,0,5,4,3,NaN,NaN,vertical,vertical,horizontal,horizontal,none,none
1a,21,100184,2,9,73,20,F,NA,variable,heterogeneous,4,present,1.32814192771912,1,vertical,vertical,1,1.08234840081288,green,3,2,672.5,379.163522034968,1020.83647796503,472.5,927.5,820.836477965032,1020.83647796503,472.5,672.5,379.163522034968,579.163522034968,727.5,0,0,0,0,0,6,4,5,NaN,NaN,horizontal,vertical,vertical,horizontal,none,none
1a,21,100184,2,10,74,20,F,NA,variable,heterogeneous,5,present,0.992092132568359,0,vertical,horizontal,1,0.658822975708888,red,5,1,599.057257830286,756.993676208043,887.215136548046,839.621618300407,887.215136548046,839.621618300407,1054.84466088987,591.100628340862,870.287525733335,354.878267535729,588.595418998464,457.40580961496,599.057257830286,756.993676208043,0,0,6,5,3,0,4,NaN,horizontal,horizontal,horizontal,horizontal,vertical,none
1a,21,100184,2,11,75,20,F,NA,variable,heterogeneous,6,present,1.11640501022339,1,horizontal,horizontal,1,0.811762712551997,green,5,1,672.5,379.163522034968,672.5,820.836477965032,672.5,820.836477965032,927.5,820.836477965032,1055,600,927.5,379.163522034968,672.5,379.163522034968,545,600,6,3,6,0,4,5,horizontal,horizontal,horizontal,horizontal,horizontal,horizontal
1a,21,100184,2,12,76,20,F,NA,variable,heterogeneous,6,present,0.9511399269104,0,horizontal,vertical,1,0.988231639678662,red,4,6,844.280285305067,348.874022981887,560.378381699593,687.215136548046,755.719714694933,851.125977018113,995.341332995339,763.910840470068,1039.62161830041,512.784863451954,844.280285305067,348.874022981887,604.658667004661,436.089159529932,560.378381699593,687.215136548046,0,0,6,4,5,3,horizontal,horizontal,vertical,horizontal,vertical,horizontal
1a,21,100184,2,13,77,20,F,NA,variable,heterogeneous,6,present,1.35741686820984,0,vertical,horizontal,1,0.976467044536884,red,1,6,746.982518841471,849.42763818712,557.480588344736,678.799333565612,746.982518841471,849.42763818712,989.501930496736,770.628304621509,1042.51941165526,521.200666434388,853.017481158529,350.57236181288,610.498069503264,429.371695378491,557.480588344736,678.799333565612,4,3,5,0,6,6,vertical,vertical,vertical,horizontal,vertical,horizontal
1a,21,100184,2,14,78,20,F,NA,variable,heterogeneous,3,present,1.11548805236816,1,vertical,vertical,1,0.941173259111551,red,3,1,545.970351986605,622.224714400653,946.261991269517,808.883771293693,946.261991269517,808.883771293693,907.767656743878,368.891514305654,545.970351986605,622.224714400653,0,0,0,0,0,0,5,3,4,NaN,NaN,NaN,horizontal,vertical,vertical,none,none,none
1a,21,100184,2,15,79,20,F,NA,variable,heterogeneous,4,absent,0.951927900314331,1,vertical,vertical,1,1.09411299595466,green,1,NaN,826.654758133252,853.60308331891,NaN,NaN,826.654758133252,853.60308331891,1053.60308331891,573.345241866748,773.345241866748,346.39691668109,546.39691668109,626.654758133252,0,0,0,0,4,6,5,3,NaN,NaN,vertical,horizontal,vertical,vertical,none,none
1a,21,100184,2,16,80,20,F,NA,variable,heterogeneous,3,absent,0.801240921020508,0,horizontal,vertical,1,0.705881356275999,red,1,NaN,907.767656743878,831.108485694346,NaN,NaN,907.767656743878,831.108485694346,946.261991269517,391.116228706307,545.970351986605,577.775285599347,0,0,0,0,0,0,4,5,3,NaN,NaN,NaN,horizontal,vertical,horizontal,none,none,none
1a,21,100184,2,17,81,20,F,NA,variable,heterogeneous,6,absent,NaN,0,horizontal,none,0,0.717645951417776,green,3,NaN,1043.85771277057,525.445215295702,NaN,NaN,742.637481142314,848.464366520235,986.495193912888,773.909581815937,1043.85771277057,525.445215295702,857.362518857686,351.535633479765,613.504806087112,426.090418184063,556.142287229426,674.554784704298,5,5,4,3,0,3,vertical,vertical,horizontal,horizontal,vertical,horizontal
1a,21,100184,2,18,82,20,F,NA,variable,heterogeneous,5,absent,0.978637933731079,1,vertical,vertical,1,0.729410546559554,green,1,NaN,919.715248510402,825.151636179026,NaN,NaN,919.715248510402,825.151636179026,1051.12597701811,555.719714694933,835.489140744817,347.4816424709,570.807518193712,488.215357568785,622.862115532956,783.431649086356,0,0,4,0,5,6,3,NaN,vertical,horizontal,vertical,vertical,vertical,none
1a,21,100184,2,19,83,20,F,NA,variable,heterogeneous,3,present,0.86955714225769,1,horizontal,horizontal,1,0.752939736843109,red,2,3,1050.31493177915,648.656293821019,716.980120613425,358.892763222174,632.704947607421,792.450942956807,1050.31493177915,648.656293821019,716.980120613425,358.892763222174,0,0,0,0,0,0,0,4,5,NaN,NaN,NaN,horizontal,horizontal,horizontal,none,none,none
1a,21,100184,2,20,84,20,F,NA,variable,heterogeneous,3,present,0.778775930404663,1,vertical,vertical,1,0.776468927126664,green,2,1,1054.96116226488,595.549636358493,676.373546837184,823.028025320546,676.373546837184,823.028025320546,1054.96116226488,595.549636358493,668.665290897936,381.422338320961,0,0,0,0,0,0,5,4,6,NaN,NaN,NaN,vertical,vertical,horizontal,none,none,none
1a,21,100184,2,21,85,20,F,NA,variable,heterogeneous,5,present,0.790646076202393,0,horizontal,vertical,1,0.79999811741022,red,2,1,970.628304621509,789.501930496736,672.5,820.836477965032,672.5,820.836477965032,970.628304621509,789.501930496736,1032.95409169886,496.282156015671,773.345241866748,346.39691668109,550.57236181288,546.982518841471,0,0,5,4,0,6,5,NaN,vertical,horizontal,vertical,vertical,vertical,none
1a,21,100184,2,22,86,20,F,NA,variable,heterogeneous,6,absent,1.35583400726318,1,horizontal,horizontal,1,0.858821093119108,red,3,NaN,1013.86099482608,461.117046071168,NaN,NaN,813.345668841951,854.650531362416,1027.20666366803,715.767577433584,1013.86099482608,461.117046071168,786.654331158049,345.349468637584,572.793336331966,484.232422566416,586.139005173917,738.882953928832,3,6,4,5,3,0,vertical,vertical,horizontal,vertical,vertical,vertical
1a,21,100184,2,23,87,20,F,NA,variable,heterogeneous,3,absent,1.20518207550049,1,vertical,vertical,1,0.705881356275999,green,3,NaN,545.970351986605,577.775285599347,NaN,NaN,907.767656743878,831.108485694346,946.261991269517,391.116228706307,545.970351986605,577.775285599347,0,0,0,0,0,0,5,0,4,NaN,NaN,NaN,vertical,vertical,vertical,none,none,none
1a,21,100184,2,24,88,20,F,NA,variable,heterogeneous,4,absent,1.0269501209259,1,vertical,vertical,1,0.870585688260885,red,3,NaN,970.628304621509,410.498069503264,NaN,NaN,629.371695378491,789.501930496736,989.501930496736,770.628304621509,970.628304621509,410.498069503264,610.498069503264,429.371695378491,0,0,0,0,0,3,4,6,NaN,NaN,horizontal,vertical,vertical,vertical,none,none
1a,21,100184,2,25,89,20,F,NA,variable,heterogeneous,5,present,1.00118398666382,0,vertical,horizontal,1,0.670587570850666,green,4,1,650.114760665419,393.700666434388,800,855,800,855,1042.51941165526,678.799333565612,949.885239334581,393.700666434388,650.114760665419,393.700666434388,557.480588344736,678.799333565612,0,0,3,6,0,4,5,NaN,horizontal,vertical,vertical,vertical,vertical,none
1a,21,100184,2,26,90,20,F,NA,variable,heterogeneous,6,absent,1.04586291313171,1,vertical,vertical,1,0.623529190283555,green,1,NaN,712.784863451954,839.621618300407,NaN,NaN,712.784863451954,839.621618300407,963.910840470068,795.341332995339,1051.12597701811,555.719714694933,887.215136548046,360.378381699593,636.089159529932,404.658667004661,548.874022981887,644.280285305067,4,0,3,5,6,0,vertical,vertical,horizontal,horizontal,horizontal,horizontal
1a,21,100184,2,27,91,20,F,NA,variable,heterogeneous,6,absent,1.52723598480225,0,vertical,horizontal,1,0.811762712551997,red,5,NaN,549.685068220846,551.343706178981,NaN,NaN,883.019879386575,841.107236777826,1050.31493177915,648.656293821019,967.295052392579,407.549057043193,716.980120613425,358.892763222174,549.685068220846,551.343706178981,632.704947607421,792.450942956807,0,6,5,6,4,3,vertical,vertical,horizontal,vertical,vertical,vertical
1a,21,100184,2,28,92,20,F,NA,variable,heterogeneous,6,present,NaN,0,vertical,none,0,0.917644068827996,red,4,5,865.998856501143,353.688914296288,619.68777079743,419.68777079743,734.001143498857,846.311085703712,980.31222920257,780.31222920257,1046.31108570371,534.001143498857,865.998856501143,353.688914296288,619.68777079743,419.68777079743,553.688914296288,665.998856501143,5,3,6,4,3,0,vertical,horizontal,vertical,vertical,horizontal,vertical
1a,21,100184,2,29,93,20,F,NA,variable,heterogeneous,3,absent,1.23188877105713,1,vertical,vertical,1,0.764704331984887,red,3,NaN,546.900731331463,631.076682568313,NaN,NaN,953.462830903772,803.65205506206,899.636437764765,365.271262369628,546.900731331463,631.076682568313,0,0,0,0,0,0,0,3,4,NaN,NaN,NaN,vertical,horizontal,vertical,none,none,none
1a,21,100184,2,30,94,20,F,NA,variable,heterogeneous,5,present,1.04304981231689,1,vertical,vertical,1,0.729410546559554,red,5,4,619.68777079743,780.31222920257,572.793336331966,484.232422566416,915.767577433584,827.206663668034,1051.86052685176,560.109211414741,839.890788585259,348.13947314824,572.793336331966,484.232422566416,619.68777079743,780.31222920257,0,0,0,3,5,6,4,NaN,horizontal,horizontal,horizontal,horizontal,vertical,none
1a,21,100184,2,31,95,20,F,NA,variable,heterogeneous,5,present,1.31143689155579,1,vertical,vertical,1,0.764704331984887,green,1,4,791.100628340862,854.844660889869,657.405809614959,388.595418998464,791.100628340862,854.844660889869,1039.62161830041,687.215136548046,956.993676208043,399.057257830286,657.405809614959,388.595418998464,554.878267535729,670.287525733335,0,0,4,3,5,6,5,NaN,vertical,vertical,horizontal,vertical,horizontal,none
1a,21,100184,2,32,96,20,F,NA,variable,heterogeneous,4,present,0.910585880279541,0,horizontal,vertical,1,1.03529002024577,green,1,4,712.784863451954,839.621618300407,560.378381699593,512.784863451954,712.784863451954,839.621618300407,1039.62161830041,687.215136548046,887.215136548046,360.378381699593,560.378381699593,512.784863451954,0,0,0,0,4,0,6,5,NaN,NaN,horizontal,vertical,vertical,vertical,none,none
1a,21,100184,2,33,97,20,F,NA,variable,heterogeneous,4,absent,1.34825897216797,1,vertical,vertical,1,0.964702449395106,red,1,NaN,911.784642431215,829.192481806288,NaN,NaN,911.784642431215,829.192481806288,1029.19248180629,488.215357568785,688.215357568785,370.807518193712,570.807518193712,711.784642431215,0,0,0,0,4,6,0,5,NaN,NaN,vertical,vertical,vertical,vertical,none,none
1a,21,100184,2,34,98,20,F,NA,variable,heterogeneous,5,absent,1.32893180847168,0,horizontal,vertical,1,1.08234840081288,green,1,NaN,712.784863451954,839.621618300407,NaN,NaN,712.784863451954,839.621618300407,1000.94274216971,756.993676208043,1011.40458100154,457.40580961496,729.712474266665,354.878267535729,545.155339110131,591.100628340862,0,0,4,5,6,6,0,NaN,horizontal,vertical,vertical,vertical,horizontal,none
1a,21,100184,2,35,99,20,F,NA,variable,heterogeneous,6,present,1.14112186431885,1,horizontal,horizontal,1,1.07058380567111,green,2,5,973.909581815937,786.495193912888,626.090418184063,413.504806087112,725.445215295702,843.857712770574,973.909581815937,786.495193912888,1048.46436652023,542.637481142314,874.554784704298,356.142287229426,626.090418184063,413.504806087112,551.535633479765,657.362518857686,3,4,0,5,0,3,horizontal,horizontal,horizontal,vertical,vertical,horizontal
1a,21,100184,2,36,100,20,F,NA,variable,heterogeneous,5,absent,1.20908308029175,1,vertical,vertical,1,0.635293785425333,red,3,NaN,835.489140744817,347.4816424709,NaN,NaN,919.715248510402,825.151636179026,1051.12597701811,555.719714694933,835.489140744817,347.4816424709,570.807518193712,488.215357568785,622.862115532956,783.431649086356,0,0,3,5,4,3,0,NaN,vertical,horizontal,vertical,vertical,horizontal,none
1a,21,100184,2,37,101,20,F,NA,variable,heterogeneous,6,absent,1.23817205429077,1,horizontal,horizontal,1,1.04705461538755,green,5,NaN,549.685068220846,551.343706178981,NaN,NaN,883.019879386575,841.107236777826,1050.31493177915,648.656293821019,967.295052392579,407.549057043193,716.980120613425,358.892763222174,549.685068220846,551.343706178981,632.704947607421,792.450942956807,0,5,6,3,4,0,horizontal,horizontal,vertical,vertical,horizontal,vertical
1a,21,100184,2,38,102,20,F,NA,variable,heterogeneous,3,absent,1.23121309280396,1,vertical,vertical,1,0.999996234820439,red,2,NaN,1000.94274216971,443.006323791957,NaN,NaN,835.489140744817,852.518357529101,1000.94274216971,443.006323791957,563.568117085469,504.475318678942,0,0,0,0,0,0,5,4,0,NaN,NaN,NaN,horizontal,vertical,horizontal,none,none,none
1a,21,100184,2,39,103,20,F,NA,variable,heterogeneous,4,absent,0.80637788772583,0,vertical,horizontal,1,0.917644068827996,green,4,NaN,568.891514305654,707.767656743878,NaN,NaN,907.767656743878,831.108485694346,1031.10848569435,492.232343256122,692.232343256122,368.891514305654,568.891514305654,707.767656743878,0,0,0,0,5,0,5,4,NaN,NaN,vertical,vertical,vertical,vertical,none,none
1a,21,100184,2,40,104,20,F,NA,variable,heterogeneous,4,absent,1.5423469543457,1,horizontal,horizontal,1,0.788233522268442,green,4,NaN,560.378381699593,512.784863451954,NaN,NaN,712.784863451954,839.621618300407,1039.62161830041,687.215136548046,887.215136548046,360.378381699593,560.378381699593,512.784863451954,0,0,0,0,0,3,5,4,NaN,NaN,vertical,vertical,horizontal,horizontal,none,none
1a,21,100184,2,41,105,20,F,NA,variable,heterogeneous,5,absent,1.04383206367493,1,horizontal,horizontal,1,0.929408663969774,green,1,NaN,786.654331158049,854.650531362416,NaN,NaN,786.654331158049,854.650531362416,1038.06300875679,691.383827134052,960.476699717708,401.827779828472,661.117046071168,386.139005173917,553.688914296288,665.998856501143,0,0,4,6,5,0,6,NaN,horizontal,horizontal,horizontal,horizontal,vertical,none
1a,21,100184,2,42,106,20,F,NA,variable,heterogeneous,5,absent,1.00538992881775,1,horizontal,horizontal,1,0.623529190283555,red,5,NaN,546.900731331463,631.076682568313,NaN,NaN,751.343706178981,850.314931779154,1023.02802532055,723.626453162816,986.495193912888,426.090418184063,692.232343256122,368.891514305654,546.900731331463,631.076682568313,0,0,6,5,3,0,4,NaN,horizontal,vertical,horizontal,vertical,horizontal,none
1a,21,100184,2,43,107,20,F,NA,variable,heterogeneous,6,present,0.981933116912842,1,vertical,vertical,1,0.611764595141778,green,2,5,1047.42541020038,661.690083377915,552.574589799621,538.309916622085,870.287525733335,845.121732464271,1047.42541020038,661.690083377915,977.137884467044,416.568350913644,729.712474266665,354.878267535729,552.574589799621,538.309916622085,622.862115532956,783.431649086356,6,4,5,0,0,3,vertical,vertical,horizontal,horizontal,horizontal,horizontal
1a,21,100184,2,44,108,20,F,NA,variable,heterogeneous,6,absent,0.790680885314941,0,vertical,horizontal,1,0.658822975708888,red,5,NaN,552.574589799621,538.309916622085,NaN,NaN,870.287525733335,845.121732464271,1047.42541020038,661.690083377915,977.137884467044,416.568350913644,729.712474266665,354.878267535729,552.574589799621,538.309916622085,622.862115532956,783.431649086356,3,6,5,5,4,6,vertical,horizontal,horizontal,horizontal,vertical,horizontal
1a,21,100184,2,45,109,20,F,NA,variable,heterogeneous,5,absent,1.21636891365051,1,vertical,vertical,1,0.870585688260885,red,3,NaN,800,345,NaN,NaN,949.885239334581,806.299333565612,1042.51941165526,521.200666434388,800,345,557.480588344736,521.200666434388,650.114760665419,806.299333565612,0,0,0,6,4,6,0,NaN,horizontal,vertical,vertical,horizontal,horizontal,none
1a,21,100184,2,46,110,20,F,NA,variable,heterogeneous,3,present,0.889890909194946,1,vertical,vertical,1,0.84705649797733,red,2,1,1053.60308331891,626.654758133252,650.114760665419,806.299333565612,650.114760665419,806.299333565612,1053.60308331891,626.654758133252,696.282156015671,367.045908301137,0,0,0,0,0,0,0,4,5,NaN,NaN,NaN,vertical,vertical,horizontal,none,none,none
1a,21,100184,2,47,111,20,F,NA,variable,heterogeneous,4,absent,0.979161977767944,1,horizontal,horizontal,1,0.776468927126664,red,3,NaN,684.232422566416,372.793336331966,NaN,NaN,915.767577433584,827.206663668034,1027.20666366803,484.232422566416,684.232422566416,372.793336331966,572.793336331966,715.767577433584,0,0,0,0,6,5,4,3,NaN,NaN,vertical,horizontal,horizontal,horizontal,none,none
1a,21,100184,2,48,112,20,F,NA,variable,heterogeneous,6,absent,1.09494209289551,0,horizontal,vertical,1,0.79999811741022,red,2,NaN,986.495193912888,773.909581815937,NaN,NaN,742.637481142314,848.464366520235,986.495193912888,773.909581815937,1043.85771277057,525.445215295702,857.362518857686,351.535633479765,613.504806087112,426.090418184063,556.142287229426,674.554784704298,6,4,0,6,0,5,horizontal,horizontal,vertical,horizontal,vertical,vertical
1a,21,100184,2,49,113,20,F,NA,variable,heterogeneous,5,present,1.70495796203613,1,horizontal,horizontal,1,0.988231639678662,green,5,2,550.57236181288,653.017481158529,1032.95409169886,703.717843984329,773.345241866748,853.60308331891,1032.95409169886,703.717843984329,970.628304621509,410.498069503264,672.5,379.163522034968,550.57236181288,653.017481158529,0,0,5,6,3,6,4,NaN,horizontal,horizontal,vertical,vertical,horizontal,none
1a,21,100184,2,50,114,20,F,NA,variable,heterogeneous,4,present,1.05564498901367,0,horizontal,vertical,1,0.611764595141778,red,4,2,545.349468637584,613.345668841951,1054.65053136242,586.654331158049,813.345668841951,854.650531362416,1054.65053136242,586.654331158049,786.654331158049,345.349468637584,545.349468637584,613.345668841951,0,0,0,0,5,6,0,4,NaN,NaN,horizontal,vertical,vertical,horizontal,none,none
1a,21,100184,2,51,115,20,F,NA,variable,heterogeneous,3,present,1.03632712364197,1,vertical,vertical,1,0.976467044536884,green,2,1,1041.10723677783,683.019879386575,607.549057043193,767.295052392579,607.549057043193,767.295052392579,1041.10723677783,683.019879386575,751.343706178981,349.685068220846,0,0,0,0,0,0,5,4,5,NaN,NaN,NaN,horizontal,vertical,vertical,none,none,none
1a,21,100184,2,52,116,20,F,NA,variable,heterogeneous,3,present,1.22555804252625,1,horizontal,horizontal,1,0.811762712551997,green,3,1,672.5,379.163522034968,672.5,820.836477965032,672.5,820.836477965032,1055,600,672.5,379.163522034968,0,0,0,0,0,0,3,0,4,NaN,NaN,NaN,vertical,vertical,horizontal,none,none,none
1a,21,100184,2,53,117,20,F,NA,variable,heterogeneous,3,absent,0.847253084182739,1,horizontal,horizontal,1,1.04705461538755,green,2,NaN,1053.60308331891,573.345241866748,NaN,NaN,696.282156015671,832.954091698863,1053.60308331891,573.345241866748,650.114760665419,393.700666434388,0,0,0,0,0,0,0,4,3,NaN,NaN,NaN,horizontal,horizontal,horizontal,none,none,none
1a,21,100184,2,54,118,20,F,NA,variable,heterogeneous,5,present,1.23014307022095,1,horizontal,horizontal,1,1.09411299595466,green,5,4,572.793336331966,715.767577433584,619.68777079743,419.68777079743,839.890788585259,851.86052685176,1051.86052685176,639.890788585259,915.767577433584,372.793336331966,619.68777079743,419.68777079743,572.793336331966,715.767577433584,0,0,0,5,6,0,4,NaN,vertical,vertical,horizontal,horizontal,horizontal,none
1a,21,100184,2,55,119,20,F,NA,variable,heterogeneous,3,absent,1.31307911872864,1,horizontal,horizontal,1,0.905879473686218,red,1,NaN,878.799333565612,842.519411655264,NaN,NaN,878.799333565612,842.519411655264,970.628304621509,410.498069503264,550.57236181288,546.982518841471,0,0,0,0,0,0,4,0,6,NaN,NaN,NaN,horizontal,horizontal,horizontal,none,none,none
1a,21,100184,2,56,120,20,F,NA,variable,heterogeneous,5,absent,0.673285961151123,1,vertical,vertical,1,1.08234840081288,green,1,NaN,826.654758133252,853.60308331891,NaN,NaN,826.654758133252,853.60308331891,1049.42763818712,653.017481158529,927.5,379.163522034968,629.371695378491,410.498069503264,567.045908301137,703.717843984329,0,0,4,6,0,0,3,NaN,vertical,vertical,horizontal,horizontal,horizontal,none
1a,21,100184,2,57,121,20,F,NA,variable,heterogeneous,5,present,1.47283601760864,1,horizontal,horizontal,1,1.09411299595466,red,3,2,813.345668841951,345.349468637584,1046.31108570371,534.001143498857,938.882953928832,813.860994826083,1046.31108570371,534.001143498857,813.345668841951,345.349468637584,561.936991243214,508.616172865948,639.523300282292,798.172220171528,0,0,6,3,4,5,0,NaN,horizontal,vertical,horizontal,horizontal,horizontal,none
1a,21,100184,2,58,122,20,F,NA,variable,heterogeneous,6,present,0.996623992919922,1,vertical,vertical,1,0.705881356275999,green,2,5,980.31222920257,780.31222920257,619.68777079743,419.68777079743,734.001143498857,846.311085703712,980.31222920257,780.31222920257,1046.31108570371,534.001143498857,865.998856501143,353.688914296288,619.68777079743,419.68777079743,553.688914296288,665.998856501143,3,4,6,5,5,0,horizontal,vertical,horizontal,vertical,vertical,vertical
1a,21,100184,2,59,123,20,F,NA,variable,heterogeneous,5,absent,NaN,0,horizontal,none,0,1.02352542510399,red,4,NaN,643.006323791957,399.057257830286,NaN,NaN,808.899371659138,854.844660889869,1045.12173246427,670.287525733335,942.594190385041,388.595418998464,643.006323791957,399.057257830286,560.378381699593,687.215136548046,0,0,3,5,3,4,0,NaN,vertical,vertical,horizontal,horizontal,horizontal,none
1a,21,100184,2,60,124,20,F,NA,variable,heterogeneous,3,present,1.24613118171692,1,horizontal,horizontal,1,0.835291902835553,red,2,1,1031.10848569435,707.767656743878,591.116228706307,746.261991269517,591.116228706307,746.261991269517,1031.10848569435,707.767656743878,777.775285599347,345.970351986605,0,0,0,0,0,0,5,4,6,NaN,NaN,NaN,horizontal,horizontal,vertical,none,none,none
1a,21,100184,2,61,125,20,F,NA,variable,heterogeneous,6,present,1.61503195762634,0,horizontal,vertical,1,0.788233522268442,red,2,4,986.495193912888,773.909581815937,857.362518857686,351.535633479765,742.637481142314,848.464366520235,986.495193912888,773.909581815937,1043.85771277057,525.445215295702,857.362518857686,351.535633479765,613.504806087112,426.090418184063,556.142287229426,674.554784704298,3,4,0,0,6,5,vertical,horizontal,horizontal,horizontal,vertical,horizontal
1a,21,100184,2,62,126,20,F,NA,variable,heterogeneous,3,present,1.0295729637146,1,horizontal,horizontal,1,0.705881356275999,green,2,1,1051.12597701811,555.719714694933,712.784863451954,839.621618300407,712.784863451954,839.621618300407,1051.12597701811,555.719714694933,636.089159529932,404.658667004661,0,0,0,0,0,0,5,4,3,NaN,NaN,NaN,vertical,horizontal,vertical,none,none,none
1a,21,100184,2,63,127,20,F,NA,variable,heterogeneous,4,absent,0.992023944854736,1,horizontal,horizontal,1,1.08234840081288,red,3,NaN,782.212099195248,345.621167183745,NaN,NaN,817.787900804752,854.378832816255,1054.37883281626,582.212099195248,782.212099195248,345.621167183745,545.621167183745,617.787900804752,0,0,0,0,5,0,4,5,NaN,NaN,vertical,horizontal,horizontal,vertical,none,none
1a,21,100184,2,64,128,20,F,NA,variable,heterogeneous,4,present,0.82464599609375,1,vertical,vertical,1,0.623529190283555,red,2,1,1020.83647796503,727.5,672.5,820.836477965032,672.5,820.836477965032,1020.83647796503,727.5,927.5,379.163522034968,579.163522034968,472.5,0,0,0,0,5,4,6,0,NaN,NaN,vertical,vertical,horizontal,horizontal,none,none
1a,21,100184,3,1,129,20,F,NA,variable,heterogeneous,3,absent,0.759541034698486,1,horizontal,horizontal,1,0.882350283402663,red,3,NaN,548.13947314824,560.109211414741,NaN,NaN,891.383827134052,838.063008756786,960.476699717708,401.827779828472,548.13947314824,560.109211414741,0,0,0,0,0,0,6,5,4,NaN,NaN,NaN,vertical,horizontal,horizontal,none,none,none
1a,21,100184,3,2,130,20,F,NA,variable,heterogeneous,4,present,1.52490496635437,1,vertical,vertical,1,1.09411299595466,red,4,2,579.163522034968,727.5,1020.83647796503,472.5,927.5,820.836477965032,1020.83647796503,472.5,672.5,379.163522034968,579.163522034968,727.5,0,0,0,0,6,0,3,4,NaN,NaN,horizontal,horizontal,horizontal,vertical,none,none
1a,21,100184,3,3,131,20,F,NA,variable,heterogeneous,3,absent,0.772194147109985,1,vertical,vertical,1,0.823527307693775,green,3,NaN,545,600,NaN,NaN,927.5,820.836477965032,927.5,379.163522034968,545,600,0,0,0,0,0,0,6,5,4,NaN,NaN,NaN,vertical,vertical,vertical,none,none,none
1a,21,100184,3,4,132,20,F,NA,variable,heterogeneous,6,present,0.793540000915527,1,vertical,vertical,1,0.705881356275999,green,3,6,973.909581815937,413.504806087112,626.090418184063,786.495193912888,874.554784704298,843.857712770574,1048.46436652023,657.362518857686,973.909581815937,413.504806087112,725.445215295702,356.142287229426,551.535633479765,542.637481142314,626.090418184063,786.495193912888,6,0,4,0,3,5,horizontal,horizontal,vertical,vertical,horizontal,vertical
1a,21,100184,3,5,133,20,F,NA,variable,heterogeneous,4,absent,0.944511890411377,1,vertical,vertical,1,0.729410546559554,red,3,NaN,712.784863451954,360.378381699593,NaN,NaN,887.215136548046,839.621618300407,1039.62161830041,512.784863451954,712.784863451954,360.378381699593,560.378381699593,687.215136548046,0,0,0,0,5,0,4,0,NaN,NaN,horizontal,vertical,vertical,horizontal,none,none
1a,21,100184,3,6,134,20,F,NA,variable,heterogeneous,4,present,0.700194835662842,1,vertical,vertical,1,1.03529002024577,red,3,1,684.232422566416,372.793336331966,915.767577433584,827.206663668034,915.767577433584,827.206663668034,1027.20666366803,484.232422566416,684.232422566416,372.793336331966,572.793336331966,715.767577433584,0,0,0,0,6,3,4,6,NaN,NaN,horizontal,vertical,vertical,vertical,none,none
1a,21,100184,3,7,135,20,F,NA,variable,heterogeneous,3,absent,0.730663061141968,1,vertical,vertical,1,1.02352542510399,red,2,NaN,1032.95409169886,703.717843984329,NaN,NaN,593.700666434388,749.885239334581,1032.95409169886,703.717843984329,773.345241866748,346.39691668109,0,0,0,0,0,0,0,4,5,NaN,NaN,NaN,vertical,vertical,horizontal,none,none,none
1a,21,100184,3,8,136,20,F,NA,variable,heterogeneous,3,absent,0.790024042129517,1,horizontal,horizontal,1,1.02352542510399,red,1,NaN,946.261991269517,808.883771293693,NaN,NaN,946.261991269517,808.883771293693,907.767656743878,368.891514305654,545.970351986605,622.224714400653,0,0,0,0,0,0,4,0,5,NaN,NaN,NaN,horizontal,horizontal,horizontal,none,none,none
1a,21,100184,3,9,137,20,F,NA,variable,heterogeneous,3,present,1.51335906982422,1,horizontal,horizontal,1,0.764704331984887,green,2,3,1000.94274216971,443.006323791957,563.568117085469,504.475318678942,835.489140744817,852.518357529101,1000.94274216971,443.006323791957,563.568117085469,504.475318678942,0,0,0,0,0,0,3,4,6,NaN,NaN,NaN,vertical,horizontal,vertical,none,none,none
1a,21,100184,3,10,138,20,F,NA,variable,heterogeneous,6,absent,1.20371913909912,0,horizontal,vertical,1,0.6,green,1,NaN,804.450363641507,854.96116226488,NaN,NaN,804.450363641507,854.96116226488,1023.02802532055,723.626453162816,1018.57766167904,468.665290897936,795.549636358493,345.03883773512,576.971974679454,476.373546837184,581.422338320961,731.334709102064,4,3,0,5,3,5,horizontal,vertical,vertical,horizontal,horizontal,horizontal
1a,21,100184,3,11,139,20,F,NA,variable,heterogeneous,6,present,1.22579503059387,1,horizontal,horizontal,1,0.894114878544441,green,4,6,704.475318678942,363.568117085469,643.006323791957,800.942742169714,895.524681321058,836.431882914531,1052.5183575291,635.489140744817,956.993676208043,399.057257830286,704.475318678942,363.568117085469,547.481642470899,564.510859255183,643.006323791957,800.942742169714,3,0,5,4,6,3,horizontal,horizontal,horizontal,horizontal,horizontal,vertical
1a,21,100184,3,12,140,20,F,NA,variable,heterogeneous,5,absent,0.839141130447388,0,horizontal,vertical,1,0.623529190283555,red,5,NaN,545.970351986605,622.224714400653,NaN,NaN,742.637481142314,848.464366520235,1018.57766167904,731.334709102064,992.450942956807,432.704947607421,700.363562235235,365.271262369628,545.970351986605,622.224714400653,0,0,0,3,6,3,4,NaN,vertical,horizontal,vertical,horizontal,horizontal,none
1a,21,100184,3,13,141,20,F,NA,variable,heterogeneous,4,absent,1.11355805397034,0,vertical,horizontal,1,0.670587570850666,green,4,NaN,552.574589799621,538.309916622085,NaN,NaN,738.309916622085,847.425410200379,1047.42541020038,661.690083377915,861.690083377915,352.574589799621,552.574589799621,538.309916622085,0,0,0,0,6,5,5,4,NaN,NaN,horizontal,horizontal,horizontal,vertical,none,none
1a,21,100184,3,14,142,20,F,NA,variable,heterogeneous,6,present,0.913601160049438,0,horizontal,vertical,1,0.682352165992443,red,6,2,616.568350913644,777.137884467044,1045.12173246427,670.287525733335,861.690083377915,847.425410200379,1045.12173246427,670.287525733335,983.431649086356,422.862115532956,738.309916622085,352.574589799621,554.878267535729,529.712474266665,616.568350913644,777.137884467044,0,3,3,6,0,4,vertical,vertical,vertical,vertical,vertical,horizontal
1a,21,100184,3,15,143,20,F,NA,variable,heterogeneous,3,absent,0.845175981521606,1,vertical,vertical,1,0.670587570850666,red,2,NaN,1049.42763818712,653.017481158529,NaN,NaN,629.371695378491,789.501930496736,1049.42763818712,653.017481158529,721.200666434388,357.480588344736,0,0,0,0,0,0,5,4,5,NaN,NaN,NaN,vertical,vertical,horizontal,none,none,none
1a,21,100184,3,16,144,20,F,NA,variable,heterogeneous,4,present,1.00525093078613,1,horizontal,horizontal,1,0.752939736843109,green,1,3,870.287525733335,845.121732464271,729.712474266665,354.878267535729,870.287525733335,845.121732464271,1045.12173246427,529.712474266665,729.712474266665,354.878267535729,554.878267535729,670.287525733335,0,0,0,0,4,6,5,3,NaN,NaN,horizontal,vertical,vertical,vertical,none,none
1a,21,100184,3,17,145,20,F,NA,variable,heterogeneous,5,present,1.39877605438232,1,horizontal,horizontal,1,1.05881921052933,green,1,2,672.5,820.836477965032,970.628304621509,789.501930496736,672.5,820.836477965032,970.628304621509,789.501930496736,1032.95409169886,496.282156015671,773.345241866748,346.39691668109,550.57236181288,546.982518841471,0,0,4,3,0,5,3,NaN,horizontal,vertical,horizontal,horizontal,horizontal,none
1a,21,100184,3,18,146,20,F,NA,variable,heterogeneous,6,present,1.00491499900818,0,horizontal,vertical,1,1.09411299595466,red,4,3,844.280285305067,348.874022981887,1039.62161830041,512.784863451954,755.719714694933,851.125977018113,995.341332995339,763.910840470068,1039.62161830041,512.784863451954,844.280285305067,348.874022981887,604.658667004661,436.089159529932,560.378381699593,687.215136548046,3,0,0,4,5,5,vertical,vertical,vertical,horizontal,horizontal,horizontal
1a,21,100184,3,19,147,20,F,NA,variable,heterogeneous,4,absent,0.820939779281616,1,horizontal,horizontal,1,0.788233522268442,red,1,NaN,919.715248510402,825.151636179026,NaN,NaN,919.715248510402,825.151636179026,1025.15163617903,480.284751489598,680.284751489598,374.848363820974,574.848363820974,719.715248510402,0,0,0,0,4,5,6,0,NaN,NaN,horizontal,horizontal,horizontal,horizontal,none,none
1a,21,100184,3,20,148,20,F,NA,variable,heterogeneous,6,present,0.953600168228149,1,vertical,vertical,1,0.611764595141778,green,6,2,601.827779828472,760.476699717708,1038.06300875679,691.383827134052,839.890788585259,851.86052685176,1038.06300875679,691.383827134052,998.172220171528,439.523300282291,760.109211414741,348.13947314824,561.936991243214,508.616172865948,601.827779828472,760.476699717708,5,0,6,3,6,4,horizontal,vertical,horizontal,horizontal,vertical,vertical
1a,21,100184,3,21,149,20,F,NA,variable,heterogeneous,3,absent,0.776206970214844,1,vertical,vertical,1,0.764704331984887,green,2,NaN,1042.51941165526,678.799333565612,NaN,NaN,610.498069503264,770.628304621509,1042.51941165526,678.799333565612,746.982518841471,350.57236181288,0,0,0,0,0,0,6,4,3,NaN,NaN,NaN,vertical,vertical,horizontal,none,none,none
1a,21,100184,3,22,150,20,F,NA,variable,heterogeneous,5,present,1.42525506019592,0,horizontal,vertical,1,1.05881921052933,red,1,3,927.5,820.836477965032,826.654758133252,346.39691668109,927.5,820.836477965032,1049.42763818712,546.982518841471,826.654758133252,346.39691668109,567.045908301137,496.282156015671,629.371695378491,789.501930496736,0,0,4,6,0,5,0,NaN,horizontal,vertical,horizontal,vertical,vertical,none
1a,21,100184,3,23,151,20,F,NA,variable,heterogeneous,5,absent,1.4044771194458,1,horizontal,horizontal,1,0.729410546559554,green,3,NaN,800,345,NaN,NaN,949.885239334581,806.299333565612,1042.51941165526,521.200666434388,800,345,557.480588344736,521.200666434388,650.114760665419,806.299333565612,0,0,5,0,4,3,3,NaN,horizontal,horizontal,horizontal,vertical,vertical,none
1a,21,100184,3,24,152,20,F,NA,variable,heterogeneous,5,absent,0.924643039703369,1,horizontal,horizontal,1,0.988231639678662,green,3,NaN,853.017481158529,350.57236181288,NaN,NaN,903.717843984329,832.954091698863,1053.60308331891,573.345241866748,853.017481158529,350.57236181288,579.163522034968,472.5,610.498069503264,770.628304621509,0,0,6,3,4,6,0,NaN,horizontal,horizontal,horizontal,horizontal,horizontal,none
1a,21,100184,3,25,153,20,F,NA,variable,heterogeneous,3,present,0.758705854415894,1,horizontal,horizontal,1,0.964702449395106,green,1,2,899.636437764765,834.728737630372,953.462830903772,396.34794493794,899.636437764765,834.728737630372,953.462830903772,396.34794493794,546.900731331463,568.923317431687,0,0,0,0,0,0,4,6,3,NaN,NaN,NaN,horizontal,vertical,vertical,none,none,none
1a,21,100184,3,26,154,20,F,NA,variable,heterogeneous,3,present,1.04187297821045,0,horizontal,vertical,1,0.999996234820439,red,3,1,545.349468637584,613.345668841951,938.882953928832,813.860994826083,938.882953928832,813.860994826083,915.767577433584,372.793336331966,545.349468637584,613.345668841951,0,0,0,0,0,0,5,0,4,NaN,NaN,NaN,vertical,horizontal,horizontal,none,none,none
1a,21,100184,3,27,155,20,F,NA,variable,heterogeneous,4,absent,0.993067026138306,1,horizontal,horizontal,1,0.905879473686218,green,4,NaN,601.827779828472,760.476699717708,NaN,NaN,960.476699717708,798.172220171528,998.172220171528,439.523300282291,639.523300282292,401.827779828472,601.827779828472,760.476699717708,0,0,0,0,5,0,0,4,NaN,NaN,horizontal,horizontal,horizontal,horizontal,none,none
1a,21,100184,3,28,156,20,F,NA,variable,heterogeneous,3,present,1.50215101242065,0,vertical,horizontal,1,0.858821093119108,green,3,2,548.13947314824,560.109211414741,960.476699717708,401.827779828472,891.383827134052,838.063008756786,960.476699717708,401.827779828472,548.13947314824,560.109211414741,0,0,0,0,0,0,0,3,4,NaN,NaN,NaN,vertical,horizontal,vertical,none,none,none
1a,21,100184,3,29,157,20,F,NA,variable,heterogeneous,5,absent,0.775141000747681,1,vertical,vertical,1,0.741175141701331,green,4,NaN,557.480588344736,521.200666434388,NaN,NaN,949.885239334581,806.299333565612,1042.51941165526,521.200666434388,800,345,557.480588344736,521.200666434388,650.114760665419,806.299333565612,0,0,0,5,3,4,0,NaN,horizontal,vertical,horizontal,vertical,horizontal,none
1a,21,100184,3,30,158,20,F,NA,variable,heterogeneous,5,absent,0.715918064117432,1,vertical,vertical,1,0.658822975708888,red,4,NaN,561.936991243214,508.616172865948,NaN,NaN,938.882953928832,813.860994826083,1046.31108570371,534.001143498857,813.345668841951,345.349468637584,561.936991243214,508.616172865948,639.523300282292,798.172220171528,0,0,3,0,5,4,0,NaN,horizontal,vertical,horizontal,vertical,vertical,none
1a,21,100184,3,31,159,20,F,NA,variable,heterogeneous,4,present,1.08427214622498,1,horizontal,horizontal,1,0.705881356275999,red,2,1,1039.62161830041,687.215136548046,712.784863451954,839.621618300407,712.784863451954,839.621618300407,1039.62161830041,687.215136548046,887.215136548046,360.378381699593,560.378381699593,512.784863451954,0,0,0,0,0,4,6,0,NaN,NaN,vertical,horizontal,vertical,vertical,none,none
1a,21,100184,3,32,160,20,F,NA,variable,heterogeneous,4,absent,1.07278394699097,1,vertical,vertical,1,0.917644068827996,red,4,NaN,547.481642470899,635.489140744817,NaN,NaN,835.489140744817,852.518357529101,1052.5183575291,564.510859255183,764.510859255183,347.4816424709,547.481642470899,635.489140744817,0,0,0,0,5,5,3,4,NaN,NaN,horizontal,horizontal,vertical,vertical,none,none
1a,21,100184,3,33,161,20,F,NA,variable,heterogeneous,3,present,1.08868098258972,1,horizontal,horizontal,1,0.917644068827996,red,1,3,923.626453162816,823.028025320546,545.03883773512,595.549636358493,923.626453162816,823.028025320546,931.334709102064,381.422338320961,545.03883773512,595.549636358493,0,0,0,0,0,0,4,3,6,NaN,NaN,NaN,horizontal,vertical,horizontal,none,none,none
1a,21,100184,3,34,162,20,F,NA,variable,heterogeneous,4,present,1.8397479057312,1,horizontal,horizontal,1,0.858821093119108,red,3,2,764.510859255183,347.4816424709,1052.5183575291,564.510859255183,835.489140744817,852.518357529101,1052.5183575291,564.510859255183,764.510859255183,347.4816424709,547.481642470899,635.489140744817,0,0,0,0,6,5,4,3,NaN,NaN,vertical,horizontal,horizontal,horizontal,none,none
1a,21,100184,3,35,163,20,F,NA,variable,heterogeneous,5,absent,1.66131997108459,1,vertical,vertical,1,1.03529002024577,green,1,NaN,931.334709102064,818.577661679039,NaN,NaN,931.334709102064,818.577661679039,1048.46436652023,542.637481142314,822.224714400653,345.970351986605,565.271262369628,500.363562235235,632.704947607421,792.450942956807,0,0,4,3,6,0,0,NaN,vertical,horizontal,horizontal,horizontal,horizontal,none
1a,21,100184,3,36,164,20,F,NA,variable,heterogeneous,6,absent,1.24634504318237,1,horizontal,horizontal,1,0.776468927126664,green,6,NaN,552.574589799621,661.690083377915,NaN,NaN,729.712474266665,845.121732464271,977.137884467044,783.431649086356,1047.42541020038,538.309916622085,870.287525733335,354.878267535729,622.862115532956,416.568350913644,552.574589799621,661.690083377915,5,0,0,5,3,4,vertical,vertical,vertical,horizontal,horizontal,horizontal
1a,21,100184,3,37,165,20,F,NA,variable,heterogeneous,5,absent,NaN,0,vertical,none,0,0.658822975708888,red,4,NaN,742.637481142314,351.535633479765,NaN,NaN,700.363562235235,834.728737630372,992.450942956807,767.295052392579,1018.57766167904,468.665290897936,742.637481142314,351.535633479765,545.970351986605,577.775285599347,0,0,5,3,6,4,0,NaN,horizontal,vertical,vertical,vertical,horizontal,none
1a,21,100184,3,38,166,20,F,NA,variable,heterogeneous,5,present,1.00281691551208,1,vertical,vertical,1,1.08234840081288,green,5,4,554.878267535729,529.712474266665,791.100628340862,345.155339110131,657.405809614959,811.404581001536,956.993676208043,800.942742169714,1039.62161830041,512.784863451954,791.100628340862,345.155339110131,554.878267535729,529.712474266665,0,0,6,0,0,3,4,NaN,vertical,vertical,vertical,vertical,vertical,none
1a,21,100184,3,39,167,20,F,NA,variable,heterogeneous,6,absent,1.17216515541077,0,horizontal,vertical,1,1.05881921052933,red,3,NaN,1029.19248180629,488.215357568785,NaN,NaN,782.212099195248,854.378832816255,1011.40458100154,742.594190385041,1029.19248180629,488.215357568785,817.787900804752,345.621167183745,588.595418998464,457.40580961496,570.807518193712,711.784642431215,6,3,4,6,0,0,vertical,horizontal,horizontal,horizontal,horizontal,vertical
1a,21,100184,3,40,168,20,F,NA,variable,heterogeneous,6,absent,1.241858959198,0,vertical,horizontal,1,0.705881356275999,red,5,NaN,596.34794493794,446.537169096228,NaN,NaN,768.923317431687,853.099268668537,1003.65205506206,753.462830903772,1034.72873763037,500.363562235235,831.076682568313,346.900731331463,596.34794493794,446.537169096228,565.271262369628,699.636437764765,5,6,3,0,4,6,horizontal,vertical,vertical,horizontal,vertical,vertical
1a,21,100184,3,41,169,20,F,NA,variable,heterogeneous,6,absent,1.0593569278717,1,vertical,vertical,1,0.823527307693775,green,2,NaN,927.5,820.836477965032,NaN,NaN,672.5,820.836477965032,927.5,820.836477965032,1055,600,927.5,379.163522034968,672.5,379.163522034968,545,600,5,4,5,0,6,0,horizontal,vertical,vertical,vertical,horizontal,vertical
1a,21,100184,3,42,170,20,F,NA,variable,heterogeneous,5,present,1.03286719322205,1,horizontal,horizontal,1,0.811762712551997,green,4,1,716.980120613425,358.892763222174,725.445215295702,843.857712770574,725.445215295702,843.857712770574,1008.88377129369,746.261991269517,1003.65205506206,446.537169096228,716.980120613425,358.892763222174,545.03883773512,604.450363641507,0,0,5,3,3,4,6,NaN,vertical,vertical,horizontal,horizontal,horizontal,none
1a,21,100184,3,43,171,20,F,NA,variable,heterogeneous,4,absent,1.01370477676392,1,vertical,vertical,1,0.999996234820439,green,1,NaN,672.5,820.836477965032,NaN,NaN,672.5,820.836477965032,1020.83647796503,727.5,927.5,379.163522034968,579.163522034968,472.5,0,0,0,0,4,5,0,3,NaN,NaN,vertical,horizontal,horizontal,horizontal,none,none
1a,21,100184,3,44,172,20,F,NA,variable,heterogeneous,6,absent,0.875859022140503,1,vertical,vertical,1,0.682352165992443,red,2,NaN,1029.19248180629,711.784642431215,NaN,NaN,817.787900804752,854.378832816255,1029.19248180629,711.784642431215,1011.40458100154,457.40580961496,782.212099195248,345.621167183745,570.807518193712,488.215357568785,588.595418998464,742.594190385041,0,4,5,6,5,3,horizontal,vertical,horizontal,vertical,horizontal,vertical
1a,21,100184,3,45,173,20,F,NA,variable,heterogeneous,6,absent,0.827336072921753,1,vertical,vertical,1,0.894114878544441,green,6,NaN,629.371695378491,789.501930496736,NaN,NaN,878.799333565612,842.519411655264,1049.42763818712,653.017481158529,970.628304621509,410.498069503264,721.200666434388,357.480588344736,550.57236181288,546.982518841471,629.371695378491,789.501930496736,3,5,0,3,6,4,horizontal,horizontal,vertical,horizontal,horizontal,vertical
1a,21,100184,3,46,174,20,F,NA,variable,heterogeneous,5,present,1.12367916107178,1,horizontal,horizontal,1,0.788233522268442,red,1,5,813.345668841951,854.650531362416,561.936991243214,691.383827134052,813.345668841951,854.650531362416,1046.31108570371,665.998856501143,938.882953928832,386.139005173917,639.523300282292,401.827779828472,561.936991243214,691.383827134052,0,0,4,5,3,3,0,NaN,horizontal,vertical,vertical,vertical,vertical,none
1a,21,100184,3,47,175,20,F,NA,variable,heterogeneous,3,present,1.01065802574158,1,vertical,vertical,1,0.999996234820439,green,3,2,576.971974679454,723.626453162816,804.450363641507,345.03883773512,1018.57766167904,731.334709102064,804.450363641507,345.03883773512,576.971974679454,723.626453162816,0,0,0,0,0,0,3,5,4,NaN,NaN,NaN,vertical,vertical,vertical,none,none,none
1a,21,100184,3,48,176,20,F,NA,variable,heterogeneous,4,present,0.915401935577393,1,vertical,vertical,1,1.02352542510399,green,3,1,684.232422566416,372.793336331966,915.767577433584,827.206663668034,915.767577433584,827.206663668034,1027.20666366803,484.232422566416,684.232422566416,372.793336331966,572.793336331966,715.767577433584,0,0,0,0,3,3,4,0,NaN,NaN,horizontal,horizontal,vertical,vertical,none,none
1a,21,100184,3,49,177,20,F,NA,variable,heterogeneous,6,present,1.03918290138245,1,vertical,vertical,1,0.670587570850666,red,3,6,1054.84466088987,591.100628340862,545.155339110131,608.899371659138,680.284751489598,825.151636179026,935.129412379467,816.252264519889,1054.84466088987,591.100628340862,919.715248510402,374.848363820974,664.870587620533,383.747735480111,545.155339110131,608.899371659138,3,5,4,3,6,0,horizontal,vertical,vertical,vertical,vertical,horizontal
1a,21,100184,3,50,178,20,F,NA,variable,heterogeneous,4,present,0.919224977493286,1,vertical,vertical,1,0.752939736843109,green,1,4,865.998856501143,846.311085703712,553.688914296288,665.998856501143,865.998856501143,846.311085703712,1046.31108570371,534.001143498857,734.001143498857,353.688914296288,553.688914296288,665.998856501143,0,0,0,0,4,5,6,3,NaN,NaN,vertical,horizontal,horizontal,vertical,none,none
1a,21,100184,3,51,179,20,F,NA,variable,heterogeneous,5,present,1.13208794593811,1,vertical,vertical,1,0.905879473686218,red,3,2,931.334709102064,381.422338320961,1048.46436652023,657.362518857686,822.224714400653,854.029648013395,1048.46436652023,657.362518857686,931.334709102064,381.422338320961,632.704947607421,407.549057043193,565.271262369628,699.636437764765,0,0,5,3,4,6,6,NaN,vertical,horizontal,vertical,vertical,vertical,none
1a,21,100184,3,52,180,20,F,NA,variable,heterogeneous,4,present,1.28326296806335,1,horizontal,horizontal,1,0.611764595141778,green,3,4,870.287525733335,354.878267535729,554.878267535729,529.712474266665,729.712474266665,845.121732464271,1045.12173246427,670.287525733335,870.287525733335,354.878267535729,554.878267535729,529.712474266665,0,0,0,0,5,6,4,6,NaN,NaN,horizontal,vertical,horizontal,vertical,none,none
1a,21,100184,3,53,181,20,F,NA,variable,heterogeneous,6,absent,1.13709902763367,0,horizontal,vertical,1,1.01176082996222,red,1,NaN,831.076682568313,853.099268668537,NaN,NaN,831.076682568313,853.099268668537,1034.72873763037,699.636437764765,1003.65205506206,446.537169096228,768.923317431687,346.900731331463,565.271262369628,500.363562235235,596.34794493794,753.462830903772,4,0,3,3,0,6,horizontal,vertical,vertical,vertical,vertical,vertical
1a,21,100184,3,54,182,20,F,NA,variable,heterogeneous,6,present,1.36986804008484,0,vertical,horizontal,1,0.882350283402663,red,3,5,1031.10848569435,492.232343256122,591.116228706307,453.738008730483,777.775285599347,854.029648013395,1008.88377129369,746.261991269517,1031.10848569435,492.232343256122,822.224714400653,345.970351986605,591.116228706307,453.738008730483,568.891514305654,707.767656743878,5,0,4,5,6,3,vertical,horizontal,vertical,vertical,vertical,vertical
1a,21,100184,3,55,183,20,F,NA,variable,heterogeneous,5,present,0.529859066009521,1,vertical,vertical,1,0.823527307693775,green,3,5,1003.65205506206,446.537169096228,545.03883773512,604.450363641507,725.445215295702,843.857712770574,1008.88377129369,746.261991269517,1003.65205506206,446.537169096228,716.980120613425,358.892763222174,545.03883773512,604.450363641507,0,0,0,6,4,6,5,NaN,horizontal,horizontal,vertical,horizontal,horizontal,none
1a,21,100184,3,56,184,20,F,NA,variable,heterogeneous,6,present,1.15338206291199,0,horizontal,vertical,1,0.835291902835553,green,3,5,980.31222920257,419.68777079743,553.688914296288,534.001143498857,865.998856501143,846.311085703712,1046.31108570371,665.998856501143,980.31222920257,419.68777079743,734.001143498857,353.688914296288,553.688914296288,534.001143498857,619.68777079743,780.31222920257,5,3,4,3,6,6,horizontal,vertical,horizontal,vertical,vertical,horizontal
1a,21,100184,3,57,185,20,F,NA,variable,heterogeneous,5,present,1.18361401557922,1,vertical,vertical,1,0.741175141701331,red,2,3,1013.86099482608,738.882953928832,998.172220171528,439.523300282291,734.001143498857,846.311085703712,1013.86099482608,738.882953928832,998.172220171528,439.523300282291,708.616172865948,361.936991243214,545.349468637584,613.345668841951,0,0,3,4,0,6,3,NaN,vertical,vertical,vertical,vertical,vertical,none
1a,21,100184,3,58,186,20,F,NA,variable,heterogeneous,3,absent,1.20519018173218,1,horizontal,horizontal,1,0.694116761134221,green,3,NaN,725.445215295702,356.142287229426,NaN,NaN,626.090418184063,786.495193912888,1048.46436652023,657.362518857686,725.445215295702,356.142287229426,0,0,0,0,0,0,0,5,4,NaN,NaN,NaN,horizontal,vertical,horizontal,none,none,none
1a,21,100184,3,59,187,20,F,NA,variable,heterogeneous,3,present,0.803328037261963,1,vertical,vertical,1,1.09411299595466,red,3,2,782.212099195248,345.621167183745,1029.19248180629,711.784642431215,588.595418998464,742.594190385041,1029.19248180629,711.784642431215,782.212099195248,345.621167183745,0,0,0,0,0,0,0,6,4,NaN,NaN,NaN,horizontal,vertical,vertical,none,none,none
1a,21,100184,3,60,188,20,F,NA,variable,heterogeneous,5,absent,1.60860204696655,1,horizontal,horizontal,1,0.84705649797733,red,1,NaN,712.784863451954,839.621618300407,NaN,NaN,712.784863451954,839.621618300407,1000.94274216971,756.993676208043,1011.40458100154,457.40580961496,729.712474266665,354.878267535729,545.155339110131,591.100628340862,0,0,4,3,5,6,3,NaN,horizontal,horizontal,vertical,vertical,vertical,none
1a,21,100184,3,61,189,20,F,NA,variable,heterogeneous,4,absent,1.70831608772278,1,horizontal,horizontal,1,0.976467044536884,red,3,NaN,903.717843984329,367.045908301137,NaN,NaN,696.282156015671,832.954091698863,1032.95409169886,703.717843984329,903.717843984329,367.045908301137,567.045908301137,496.282156015671,0,0,0,0,0,5,4,6,NaN,NaN,horizontal,vertical,horizontal,horizontal,none,none
1a,21,100184,3,62,190,20,F,NA,variable,heterogeneous,4,absent,1.30815100669861,1,horizontal,horizontal,1,0.858821093119108,green,2,NaN,1054.0296480134,622.224714400653,NaN,NaN,777.775285599347,854.029648013395,1054.0296480134,622.224714400653,822.224714400653,345.970351986605,545.970351986605,577.775285599347,0,0,0,0,6,4,5,0,NaN,NaN,horizontal,horizontal,horizontal,vertical,none,none
1a,21,100184,3,63,191,20,F,NA,variable,heterogeneous,3,present,0.699266910552979,1,vertical,vertical,1,1.03529002024577,red,2,3,1031.10848569435,707.767656743878,777.775285599347,345.970351986605,591.116228706307,746.261991269517,1031.10848569435,707.767656743878,777.775285599347,345.970351986605,0,0,0,0,0,0,3,4,6,NaN,NaN,NaN,horizontal,vertical,horizontal,none,none,none
1a,21,100184,3,64,192,20,F,NA,variable,heterogeneous,3,absent,1.11086201667786,1,horizontal,horizontal,1,0.882350283402663,green,3,NaN,546.39691668109,626.654758133252,NaN,NaN,949.885239334581,806.299333565612,903.717843984329,367.045908301137,546.39691668109,626.654758133252,0,0,0,0,0,0,3,5,4,NaN,NaN,NaN,vertical,horizontal,horizontal,none,none,none
1a,21,100184,4,1,193,20,F,NA,variable,heterogeneous,6,present,1.00311207771301,1,vertical,vertical,1,0.811762712551997,green,3,1,1051.12597701811,555.719714694933,712.784863451954,839.621618300407,712.784863451954,839.621618300407,963.910840470068,795.341332995339,1051.12597701811,555.719714694933,887.215136548046,360.378381699593,636.089159529932,404.658667004661,548.874022981887,644.280285305067,0,0,4,5,3,5,horizontal,horizontal,vertical,vertical,vertical,vertical
1a,21,100184,4,2,194,20,F,NA,variable,heterogeneous,3,present,0.748660087585449,1,vertical,vertical,1,0.858821093119108,green,3,2,552.574589799621,538.309916622085,977.137884467044,416.568350913644,870.287525733335,845.121732464271,977.137884467044,416.568350913644,552.574589799621,538.309916622085,0,0,0,0,0,0,0,6,4,NaN,NaN,NaN,horizontal,vertical,vertical,none,none,none
1a,21,100184,4,3,195,20,F,NA,variable,heterogeneous,4,absent,0.981621980667114,1,vertical,vertical,1,1.09411299595466,red,1,NaN,935.129412379467,816.252264519889,NaN,NaN,935.129412379467,816.252264519889,1016.25226451989,464.870587620533,664.870587620533,383.747735480111,583.747735480111,735.129412379467,0,0,0,0,4,0,3,5,NaN,NaN,vertical,vertical,horizontal,vertical,none,none
1a,21,100184,4,4,196,20,F,NA,variable,heterogeneous,4,present,0.696377992630005,1,vertical,vertical,1,0.752939736843109,green,2,3,992.450942956807,432.704947607421,632.704947607421,407.549057043193,967.295052392579,792.450942956807,992.450942956807,432.704947607421,632.704947607421,407.549057043193,607.549057043193,767.295052392579,0,0,0,0,3,4,0,5,NaN,NaN,vertical,vertical,vertical,vertical,none,none
1a,21,100184,4,5,197,20,F,NA,variable,heterogeneous,5,absent,1.06789803504944,1,horizontal,horizontal,1,0.858821093119108,green,1,NaN,746.982518841471,849.42763818712,NaN,NaN,746.982518841471,849.42763818712,1020.83647796503,727.5,989.501930496736,429.371695378491,696.282156015671,367.045908301137,546.39691668109,626.654758133252,0,0,4,5,6,0,5,NaN,horizontal,vertical,vertical,vertical,horizontal,none
1a,21,100184,4,6,198,20,F,NA,variable,heterogeneous,6,absent,0.778250932693481,1,horizontal,horizontal,1,1.05881921052933,green,3,NaN,1042.51941165526,521.200666434388,NaN,NaN,746.982518841471,849.42763818712,989.501930496736,770.628304621509,1042.51941165526,521.200666434388,853.017481158529,350.57236181288,610.498069503264,429.371695378491,557.480588344736,678.799333565612,0,3,4,5,3,0,vertical,vertical,horizontal,vertical,horizontal,horizontal
1a,21,100184,4,7,199,20,F,NA,variable,heterogeneous,6,present,0.87164306640625,1,horizontal,horizontal,1,1.07058380567111,green,6,3,561.936991243214,691.383827134052,1038.06300875679,508.616172865948,760.109211414741,851.86052685176,998.172220171528,760.476699717708,1038.06300875679,508.616172865948,839.890788585259,348.13947314824,601.827779828472,439.523300282291,561.936991243214,691.383827134052,5,0,5,6,3,4,horizontal,horizontal,vertical,vertical,vertical,horizontal
1a,21,100184,4,8,200,20,F,NA,variable,heterogeneous,4,absent,1.16916108131409,1,vertical,vertical,1,0.788233522268442,green,2,NaN,1054.0296480134,622.224714400653,NaN,NaN,777.775285599347,854.029648013395,1054.0296480134,622.224714400653,822.224714400653,345.970351986605,545.970351986605,577.775285599347,0,0,0,0,3,4,3,5,NaN,NaN,horizontal,vertical,horizontal,vertical,none,none
1a,21,100184,4,9,201,20,F,NA,variable,heterogeneous,5,present,0.774740934371948,1,vertical,vertical,1,0.705881356275999,red,2,1,956.993676208043,800.942742169714,657.405809614959,811.404581001536,657.405809614959,811.404581001536,956.993676208043,800.942742169714,1039.62161830041,512.784863451954,791.100628340862,345.155339110131,554.878267535729,529.712474266665,0,0,5,4,0,5,0,NaN,vertical,vertical,vertical,vertical,vertical,none
1a,21,100184,4,10,202,20,F,NA,variable,heterogeneous,5,absent,1.19538998603821,1,horizontal,horizontal,1,1.05881921052933,red,1,NaN,915.767577433584,827.206663668034,NaN,NaN,915.767577433584,827.206663668034,1051.86052685176,560.109211414741,839.890788585259,348.13947314824,572.793336331966,484.232422566416,619.68777079743,780.31222920257,0,0,4,6,5,0,0,NaN,horizontal,vertical,horizontal,horizontal,vertical,none
1a,21,100184,4,11,203,20,F,NA,variable,heterogeneous,3,present,0.903769969940186,1,vertical,vertical,1,0.611764595141778,green,1,3,680.284751489598,825.151636179026,664.870587620533,383.747735480111,680.284751489598,825.151636179026,1054.84466088987,591.100628340862,664.870587620533,383.747735480111,0,0,0,0,0,0,4,0,0,NaN,NaN,NaN,vertical,vertical,vertical,none,none,none
1a,21,100184,4,12,204,20,F,NA,variable,heterogeneous,6,present,1.53852605819702,1,horizontal,horizontal,1,1.03529002024577,red,6,3,626.090418184063,786.495193912888,973.909581815937,413.504806087112,874.554784704298,843.857712770574,1048.46436652023,657.362518857686,973.909581815937,413.504806087112,725.445215295702,356.142287229426,551.535633479765,542.637481142314,626.090418184063,786.495193912888,3,0,3,0,5,4,horizontal,horizontal,vertical,horizontal,horizontal,horizontal
1a,21,100184,4,13,205,20,F,NA,variable,heterogeneous,6,absent,0.803436040878296,1,vertical,vertical,1,0.905879473686218,red,3,NaN,1034.72873763037,500.363562235235,NaN,NaN,768.923317431687,853.099268668537,1003.65205506206,753.462830903772,1034.72873763037,500.363562235235,831.076682568313,346.900731331463,596.34794493794,446.537169096228,565.271262369628,699.636437764765,0,0,4,3,5,3,vertical,vertical,vertical,vertical,vertical,horizontal
1a,21,100184,4,14,206,20,F,NA,variable,heterogeneous,4,absent,0.747587919235229,1,horizontal,horizontal,1,0.988231639678662,green,3,NaN,956.993676208043,399.057257830286,NaN,NaN,643.006323791957,800.942742169714,1000.94274216971,756.993676208043,956.993676208043,399.057257830286,599.057257830286,443.006323791957,0,0,0,0,6,0,4,5,NaN,NaN,horizontal,horizontal,horizontal,vertical,none,none
1a,21,100184,4,15,207,20,F,NA,variable,heterogeneous,6,absent,0.998993873596191,1,horizontal,horizontal,1,0.611764595141778,red,3,NaN,1020.83647796503,472.5,NaN,NaN,800,855,1020.83647796503,727.5,1020.83647796503,472.5,800,345,579.163522034968,472.5,579.163522034968,727.5,6,0,4,5,6,5,horizontal,horizontal,horizontal,horizontal,horizontal,vertical
1a,21,100184,4,16,208,20,F,NA,variable,heterogeneous,5,present,1.32408118247986,1,horizontal,horizontal,1,1.04705461538755,green,2,1,998.172220171528,760.476699717708,708.616172865948,838.063008756786,708.616172865948,838.063008756786,998.172220171528,760.476699717708,1013.86099482608,461.117046071168,734.001143498857,353.688914296288,545.349468637584,586.654331158049,0,0,3,4,6,0,5,NaN,vertical,horizontal,vertical,horizontal,vertical,none
1a,21,100184,4,17,209,20,F,NA,variable,heterogeneous,3,present,0.796612024307251,1,vertical,vertical,1,0.894114878544441,red,3,2,800,345,1020.83647796503,727.5,579.163522034968,727.5,1020.83647796503,727.5,800,345,0,0,0,0,0,0,5,0,4,NaN,NaN,NaN,horizontal,vertical,vertical,none,none,none
1a,21,100184,4,18,210,20,F,NA,variable,heterogeneous,4,absent,0.942069053649902,1,horizontal,horizontal,1,1.07058380567111,green,2,NaN,1045.12173246427,670.287525733335,NaN,NaN,729.712474266665,845.121732464271,1045.12173246427,670.287525733335,870.287525733335,354.878267535729,554.878267535729,529.712474266665,0,0,0,0,3,4,6,0,NaN,NaN,vertical,horizontal,horizontal,vertical,none,none
1a,21,100184,4,19,211,20,F,NA,variable,heterogeneous,4,present,0.781853914260864,1,horizontal,horizontal,1,0.823527307693775,red,1,3,977.137884467044,783.431649086356,622.862115532956,416.568350913644,977.137884467044,783.431649086356,983.431649086356,422.862115532956,622.862115532956,416.568350913644,616.568350913644,777.137884467044,0,0,0,0,4,6,3,5,NaN,NaN,horizontal,vertical,vertical,horizontal,none,none
1a,21,100184,4,20,212,20,F,NA,variable,heterogeneous,5,absent,1.26067018508911,1,horizontal,horizontal,1,0.764704331984887,red,4,NaN,700.363562235235,365.271262369628,NaN,NaN,742.637481142314,848.464366520235,1018.57766167904,731.334709102064,992.450942956807,432.704947607421,700.363562235235,365.271262369628,545.970351986605,622.224714400653,0,0,5,6,6,4,3,NaN,horizontal,horizontal,horizontal,horizontal,vertical,none
1a,21,100184,4,21,213,20,F,NA,variable,heterogeneous,3,present,1.21919894218445,1,horizontal,horizontal,1,1.05881921052933,green,3,2,554.878267535729,529.712474266665,983.431649086356,422.862115532956,861.690083377915,847.425410200379,983.431649086356,422.862115532956,554.878267535729,529.712474266665,0,0,0,0,0,0,3,0,4,NaN,NaN,NaN,vertical,vertical,horizontal,none,none,none
1a,21,100184,4,22,214,20,F,NA,variable,heterogeneous,6,absent,0.752558946609497,1,vertical,vertical,1,0.635293785425333,red,3,NaN,998.172220171528,439.523300282291,NaN,NaN,839.890788585259,851.86052685176,1038.06300875679,691.383827134052,998.172220171528,439.523300282291,760.109211414741,348.13947314824,561.936991243214,508.616172865948,601.827779828472,760.476699717708,0,0,4,5,5,3,vertical,horizontal,vertical,vertical,vertical,vertical
1a,21,100184,4,23,215,20,F,NA,variable,heterogeneous,6,absent,1.11811208724976,1,horizontal,horizontal,1,0.917644068827996,red,6,NaN,553.688914296288,665.998856501143,NaN,NaN,734.001143498857,846.311085703712,980.31222920257,780.31222920257,1046.31108570371,534.001143498857,865.998856501143,353.688914296288,619.68777079743,419.68777079743,553.688914296288,665.998856501143,0,5,6,6,3,4,vertical,vertical,vertical,horizontal,horizontal,horizontal
1a,21,100184,4,24,216,20,F,NA,variable,heterogeneous,3,absent,1.00052809715271,1,horizontal,horizontal,1,0.988231639678662,green,3,NaN,629.371695378491,410.498069503264,NaN,NaN,721.200666434388,842.519411655264,1049.42763818712,546.982518841471,629.371695378491,410.498069503264,0,0,0,0,0,0,3,3,4,NaN,NaN,NaN,horizontal,horizontal,horizontal,none,none,none
1a,21,100184,4,25,217,20,F,NA,variable,heterogeneous,4,absent,0.72189998626709,1,horizontal,horizontal,1,1.05881921052933,red,2,NaN,1051.86052685176,639.890788585259,NaN,NaN,760.109211414741,851.86052685176,1051.86052685176,639.890788585259,839.890788585259,348.13947314824,548.13947314824,560.109211414741,0,0,0,0,3,4,0,0,NaN,NaN,horizontal,horizontal,horizontal,horizontal,none,none
1a,21,100184,4,26,218,20,F,NA,variable,heterogeneous,3,absent,1.11119699478149,1,vertical,vertical,1,0.929408663969774,green,1,NaN,613.504806087112,773.909581815937,NaN,NaN,613.504806087112,773.909581815937,1043.85771277057,674.554784704298,742.637481142314,351.535633479765,0,0,0,0,0,0,4,5,3,NaN,NaN,NaN,vertical,vertical,vertical,none,none,none
1a,21,100184,4,27,219,20,F,NA,variable,heterogeneous,5,present,1.32402300834656,1,vertical,vertical,1,0.717645951417776,green,5,4,550.57236181288,653.017481158529,672.5,379.163522034968,773.345241866748,853.60308331891,1032.95409169886,703.717843984329,970.628304621509,410.498069503264,672.5,379.163522034968,550.57236181288,653.017481158529,0,0,0,3,3,6,4,NaN,vertical,vertical,vertical,horizontal,vertical,none
1a,21,100184,4,28,220,20,F,NA,variable,heterogeneous,4,present,0.966763973236084,1,vertical,vertical,1,0.611764595141778,green,3,2,626.090418184063,413.504806087112,986.495193912888,426.090418184063,973.909581815937,786.495193912888,986.495193912888,426.090418184063,626.090418184063,413.504806087112,613.504806087112,773.909581815937,0,0,0,0,6,0,4,0,NaN,NaN,horizontal,vertical,vertical,horizontal,none,none
1a,21,100184,4,29,221,20,F,NA,variable,heterogeneous,4,absent,0.750900983810425,1,horizontal,horizontal,1,0.823527307693775,red,4,NaN,596.34794493794,446.537169096228,NaN,NaN,646.537169096228,803.65205506206,1003.65205506206,753.462830903772,953.462830903772,396.34794493794,596.34794493794,446.537169096228,0,0,0,0,0,6,3,4,NaN,NaN,horizontal,vertical,vertical,horizontal,none,none
1a,21,100184,4,30,222,20,F,NA,variable,heterogeneous,6,present,1.13221096992493,1,vertical,vertical,1,0.705881356275999,red,6,5,664.870587620533,816.252264519889,545.155339110131,591.100628340862,919.715248510402,825.151636179026,1054.84466088987,608.899371659138,935.129412379467,383.747735480111,680.284751489598,374.848363820974,545.155339110131,591.100628340862,664.870587620533,816.252264519889,5,6,6,3,0,4,horizontal,horizontal,vertical,vertical,horizontal,vertical
1a,21,100184,4,31,223,20,F,NA,variable,heterogeneous,6,absent,1.04266119003296,1,vertical,vertical,1,0.788233522268442,green,6,NaN,636.089159529932,795.341332995339,NaN,NaN,887.215136548046,839.621618300407,1051.12597701811,644.280285305067,963.910840470068,404.658667004661,712.784863451954,360.378381699593,548.874022981887,555.719714694933,636.089159529932,795.341332995339,3,5,6,5,3,4,vertical,horizontal,horizontal,horizontal,horizontal,vertical
1a,21,100184,4,32,224,20,F,NA,variable,heterogeneous,3,absent,0.742963075637817,1,horizontal,horizontal,1,0.964702449395106,red,2,NaN,992.450942956807,432.704947607421,NaN,NaN,848.656293821019,850.314931779154,992.450942956807,432.704947607421,558.892763222174,516.980120613425,0,0,0,0,0,0,0,4,6,NaN,NaN,NaN,vertical,horizontal,horizontal,none,none,none
1a,21,100184,4,33,225,20,F,NA,variable,heterogeneous,4,present,1.15517497062683,1,vertical,vertical,1,0.658822975708888,red,1,4,680.284751489598,825.151636179026,574.848363820974,480.284751489598,680.284751489598,825.151636179026,1025.15163617903,719.715248510402,919.715248510402,374.848363820974,574.848363820974,480.284751489598,0,0,0,0,4,0,3,3,NaN,NaN,vertical,horizontal,horizontal,vertical,none,none
1a,21,100184,4,34,226,20,F,NA,variable,heterogeneous,5,present,1.40798401832581,1,horizontal,horizontal,1,0.870585688260885,red,2,1,1032.95409169886,703.717843984329,773.345241866748,853.60308331891,773.345241866748,853.60308331891,1032.95409169886,703.717843984329,970.628304621509,410.498069503264,672.5,379.163522034968,550.57236181288,653.017481158529,0,0,6,4,0,0,6,NaN,horizontal,horizontal,vertical,vertical,vertical,none
1a,21,100184,4,35,227,20,F,NA,variable,heterogeneous,5,present,1.32460498809814,1,vertical,vertical,1,0.623529190283555,red,4,5,712.784863451954,360.378381699593,545.155339110131,608.899371659138,729.712474266665,845.121732464271,1011.40458100154,742.594190385041,1000.94274216971,443.006323791957,712.784863451954,360.378381699593,545.155339110131,608.899371659138,0,0,6,5,0,4,3,NaN,vertical,vertical,horizontal,vertical,horizontal,none
1a,21,100184,4,36,228,20,F,NA,variable,heterogeneous,3,present,1.14319086074829,1,horizontal,horizontal,1,0.788233522268442,red,2,3,998.172220171528,439.523300282291,561.936991243214,508.616172865948,839.890788585259,851.86052685176,998.172220171528,439.523300282291,561.936991243214,508.616172865948,0,0,0,0,0,0,3,4,5,NaN,NaN,NaN,horizontal,horizontal,horizontal,none,none,none
1a,21,100184,4,37,229,20,F,NA,variable,heterogeneous,6,present,1.2631459236145,1,horizontal,horizontal,1,0.647058380567111,green,4,3,808.899371659138,345.155339110131,1025.15163617903,480.284751489598,791.100628340862,854.844660889869,1016.25226451989,735.129412379467,1025.15163617903,480.284751489598,808.899371659138,345.155339110131,583.747735480111,464.870587620533,574.848363820974,719.715248510402,0,3,0,4,5,3,horizontal,vertical,vertical,horizontal,vertical,horizontal
1a,21,100184,4,38,230,20,F,NA,variable,heterogeneous,3,absent,0.915751934051514,1,vertical,vertical,1,0.964702449395106,red,3,NaN,546.39691668109,573.345241866748,NaN,NaN,903.717843984329,832.954091698863,949.885239334581,393.700666434388,546.39691668109,573.345241866748,0,0,0,0,0,0,5,3,4,NaN,NaN,NaN,vertical,horizontal,vertical,none,none,none
1a,21,100184,4,39,231,20,F,NA,variable,heterogeneous,4,absent,1.33175992965698,1,vertical,vertical,1,0.682352165992443,red,1,NaN,835.489140744817,852.518357529101,NaN,NaN,835.489140744817,852.518357529101,1052.5183575291,564.510859255183,764.510859255183,347.4816424709,547.481642470899,635.489140744817,0,0,0,0,4,0,5,0,NaN,NaN,vertical,horizontal,vertical,horizontal,none,none
1a,21,100184,4,40,232,20,F,NA,variable,heterogeneous,6,present,0.98291015625,1,vertical,vertical,1,0.79999811741022,green,1,3,911.784642431215,829.192481806288,942.594190385041,388.595418998464,911.784642431215,829.192481806288,1054.37883281626,617.787900804752,942.594190385041,388.595418998464,688.215357568785,370.807518193712,545.621167183745,582.212099195248,657.405809614959,811.404581001536,4,3,6,3,6,0,vertical,vertical,horizontal,vertical,horizontal,horizontal
1a,21,100184,4,41,233,20,F,NA,variable,heterogeneous,4,present,0.869265079498291,1,horizontal,horizontal,1,0.741175141701331,green,3,2,817.787900804752,345.621167183745,1054.37883281626,617.787900804752,782.212099195248,854.378832816255,1054.37883281626,617.787900804752,817.787900804752,345.621167183745,545.621167183745,582.212099195248,0,0,0,0,6,0,4,3,NaN,NaN,vertical,horizontal,horizontal,vertical,none,none
1a,21,100184,4,42,234,20,F,NA,variable,heterogeneous,3,present,1.40392303466797,1,horizontal,horizontal,1,0.658822975708888,green,2,1,1055,600,672.5,820.836477965032,672.5,820.836477965032,1055,600,672.5,379.163522034968,0,0,0,0,0,0,5,4,3,NaN,NaN,NaN,horizontal,horizontal,horizontal,none,none,none
1a,21,100184,4,43,235,20,F,NA,variable,heterogeneous,5,absent,1.2854311466217,1,vertical,vertical,1,0.658822975708888,green,3,NaN,919.715248510402,374.848363820974,NaN,NaN,835.489140744817,852.518357529101,1051.12597701811,644.280285305067,919.715248510402,374.848363820974,622.862115532956,416.568350913644,570.807518193712,711.784642431215,0,0,5,3,4,0,0,NaN,horizontal,vertical,vertical,vertical,vertical,none
1a,21,100184,4,44,236,20,F,NA,variable,heterogeneous,5,present,1.80733299255371,1,horizontal,horizontal,1,0.999996234820439,red,2,3,992.450942956807,767.295052392579,1018.57766167904,468.665290897936,700.363562235235,834.728737630372,992.450942956807,767.295052392579,1018.57766167904,468.665290897936,742.637481142314,351.535633479765,545.970351986605,577.775285599347,0,0,5,4,3,0,3,NaN,vertical,horizontal,vertical,vertical,horizontal,none
1a,21,100184,4,45,237,20,F,NA,variable,heterogeneous,4,present,0.817369937896729,1,horizontal,horizontal,1,1.08234840081288,green,2,1,1032.95409169886,496.282156015671,903.717843984329,832.954091698863,903.717843984329,832.954091698863,1032.95409169886,496.282156015671,696.282156015671,367.045908301137,567.045908301137,703.717843984329,0,0,0,0,3,4,0,3,NaN,NaN,vertical,horizontal,horizontal,horizontal,none,none
1a,21,100184,4,46,238,20,F,NA,variable,heterogeneous,5,present,1.12762212753296,1,vertical,vertical,1,0.882350283402663,green,4,1,636.089159529932,404.658667004661,817.787900804752,854.378832816255,817.787900804752,854.378832816255,1047.42541020038,661.690083377915,935.129412379467,383.747735480111,636.089159529932,404.658667004661,563.568117085469,695.524681321058,0,0,0,6,5,4,0,NaN,vertical,vertical,horizontal,vertical,horizontal,none
1a,21,100184,4,47,239,20,F,NA,variable,heterogeneous,5,present,1.01500701904297,1,horizontal,horizontal,1,0.647058380567111,green,1,2,817.787900804752,854.378832816255,1047.42541020038,661.690083377915,817.787900804752,854.378832816255,1047.42541020038,661.690083377915,935.129412379467,383.747735480111,636.089159529932,404.658667004661,563.568117085469,695.524681321058,0,0,4,3,6,5,5,NaN,horizontal,vertical,horizontal,horizontal,horizontal,none
1a,21,100184,4,48,240,20,F,NA,variable,heterogeneous,4,present,1.28044700622559,1,vertical,vertical,1,1.04705461538755,red,2,3,1038.06300875679,691.383827134052,891.383827134052,361.936991243214,708.616172865948,838.063008756786,1038.06300875679,691.383827134052,891.383827134052,361.936991243214,561.936991243214,508.616172865948,0,0,0,0,6,4,5,5,NaN,NaN,vertical,vertical,vertical,horizontal,none,none
1a,21,100184,4,49,241,20,F,NA,variable,heterogeneous,6,present,1.76314997673035,1,vertical,vertical,1,0.858821093119108,red,5,3,639.523300282292,401.827779828472,1051.86052685176,560.109211414741,708.616172865948,838.063008756786,960.476699717708,798.172220171528,1051.86052685176,560.109211414741,891.383827134052,361.936991243214,639.523300282292,401.827779828472,548.13947314824,639.890788585259,0,5,5,6,4,0,vertical,vertical,horizontal,vertical,vertical,horizontal
1a,21,100184,4,50,242,20,F,NA,variable,heterogeneous,3,present,0.829567909240723,1,vertical,vertical,1,0.752939736843109,red,3,2,550.57236181288,653.017481158529,878.799333565612,357.480588344736,970.628304621509,789.501930496736,878.799333565612,357.480588344736,550.57236181288,653.017481158529,0,0,0,0,0,0,5,6,4,NaN,NaN,NaN,horizontal,vertical,vertical,none,none,none
1a,21,100184,4,51,243,20,F,NA,variable,heterogeneous,3,absent,1.17187404632568,1,vertical,vertical,1,0.870585688260885,green,3,NaN,777.775285599347,345.970351986605,NaN,NaN,591.116228706307,746.261991269517,1031.10848569435,707.767656743878,777.775285599347,345.970351986605,0,0,0,0,0,0,6,3,4,NaN,NaN,NaN,vertical,horizontal,vertical,none,none,none
1a,21,100184,4,52,244,20,F,NA,variable,heterogeneous,5,absent,1.40530896186829,1,vertical,vertical,1,0.894114878544441,green,4,NaN,646.537169096228,396.34794493794,NaN,NaN,804.450363641507,854.96116226488,1043.85771277057,674.554784704298,946.261991269517,391.116228706307,646.537169096228,396.34794493794,558.892763222174,683.019879386575,0,0,5,5,0,4,0,NaN,horizontal,horizontal,horizontal,vertical,vertical,none
1a,21,100184,4,53,245,20,F,NA,variable,heterogeneous,3,present,0.86331582069397,1,horizontal,horizontal,1,0.682352165992443,red,1,3,903.717843984329,832.954091698863,546.39691668109,573.345241866748,903.717843984329,832.954091698863,949.885239334581,393.700666434388,546.39691668109,573.345241866748,0,0,0,0,0,0,4,6,0,NaN,NaN,NaN,horizontal,vertical,vertical,none,none,none
